"rt","response_timestamp","stimulus","response","trial_type","trial_index","time_elapsed","internal_node_id","run_id","condition","recorded_at","source_code_version","ip","user_agent","device","browser","browser_version","platform","platform_version","referer","accept_language","PROLIFIC_PID","STUDY_ID","SESSION_ID","prolific_id","realtime","view_history","question_order","consent","success","question_id","eventType","responses","item_order","radio_event_ids","radio_event_times","key_event_times","mouse_event_times","straightlining","zigzagging","honeypot","which_type","canvas_config","goals_layout","control_level","trial_number","tutorial_trial_number","trial_start_time","phase1_start_time","phase2_start_time","phase3_start_time","goal_1_value","goal_1_distance","goal_2_value","goal_2_distance","goal_selected","outcome","outcome_total","participant_final_score","participant_initial_score","participant_final_score_prop","goal_choice_rt","allocated_time","allocated_time_remaining","goal_direction","counts","mouse_movements","key_presses","correct","slider_start","sub_question"
"181651","1751452205339","<p style='font-size:40px;line-height:1.25'><strong>Welcome to the experiment!</strong></p><p style='font-size:1.1em;line-height:1.25'>Thank you for your interest in our experiment! Before you begin, it is important that we obtain your informed consent to participate in the study.</p><p style='font-size:1.1em;line-height:1.25'>On the next screen will be an <strong>information sheet</strong> for you to read. To participate in the study we need you to read this information sheet and the following consent form carefully. If you agree with all the statements, please click the <strong>I agree</strong> button.</p><p style='font-size:1.1em;line-height:1.25'>Press <strong>Next</strong> to read the information sheet.</p>","0","custom-html-button-response","0","181654","0.0-0.0","190","1","2025-07-02 10:27:02","80fe4187154257d5fb01684ea91b68b9","188.141.30.105","Mozilla/5.0 (Windows NT 10.0; Win64; x64) AppleWebKit/537.36 (KHTML, like Gecko) Chrome/137.0.0.0 Safari/537.36","WebKit","Chrome","137.0.0.0","Windows","10.0","https://app.prolific.com/","en-GB,en-US;q=0.9,en;q=0.8","57ca4b09993b08000192297b","683db6dfa200031b80f2a654","68650773898eb292952d89dc","57ca4b09993b08000192297b","2025-07-02T10:30:05.340Z","","","","","","","","","","","","","","","","","","","","","","","","","","","","","","","","","","","","","","","","","","","","",""
"99398","","","","instructions","1","281053","0.0-1.0","190","1","2025-07-02 10:27:02","80fe4187154257d5fb01684ea91b68b9","188.141.30.105","Mozilla/5.0 (Windows NT 10.0; Win64; x64) AppleWebKit/537.36 (KHTML, like Gecko) Chrome/137.0.0.0 Safari/537.36","WebKit","Chrome","137.0.0.0","Windows","10.0","https://app.prolific.com/","en-GB,en-US;q=0.9,en;q=0.8","57ca4b09993b08000192297b","683db6dfa200031b80f2a654","68650773898eb292952d89dc","57ca4b09993b08000192297b","","[{""page_index"":0,""viewing_time"":13349},{""page_index"":1,""viewing_time"":86048}]","","","","","","","","","","","","","","","","","","","","","","","","","","","","","","","","","","","","","","","","","","","",""
"8750","","","{""Q0"":"""",""Q1"":"""",""Q2"":"""",""Q3"":"""",""Q4"":"""",""Q5"":"""",""Q6"":""I agree""}","survey-multi-choice","2","289806","0.0-2.0","190","1","2025-07-02 10:27:02","80fe4187154257d5fb01684ea91b68b9","188.141.30.105","Mozilla/5.0 (Windows NT 10.0; Win64; x64) AppleWebKit/537.36 (KHTML, like Gecko) Chrome/137.0.0.0 Safari/537.36","WebKit","Chrome","137.0.0.0","Windows","10.0","https://app.prolific.com/","en-GB,en-US;q=0.9,en;q=0.8","57ca4b09993b08000192297b","683db6dfa200031b80f2a654","68650773898eb292952d89dc","57ca4b09993b08000192297b","","","[0,1,2,3,4,5,6]","true","","","","","","","","","","","","","","","","","","","","","","","","","","","","","","","","","","","","","","","","","",""
"19670","","","","fullscreen","3","310494","0.0-4.0","190","1","2025-07-02 10:27:02","80fe4187154257d5fb01684ea91b68b9","188.141.30.105","Mozilla/5.0 (Windows NT 10.0; Win64; x64) AppleWebKit/537.36 (KHTML, like Gecko) Chrome/137.0.0.0 Safari/537.36","WebKit","Chrome","137.0.0.0","Windows","10.0","https://app.prolific.com/","en-GB,en-US;q=0.9,en;q=0.8","57ca4b09993b08000192297b","683db6dfa200031b80f2a654","68650773898eb292952d89dc","57ca4b09993b08000192297b","","","","","true","","","","","","","","","","","","","","","","","","","","","","","","","","","","","","","","","","","","","","","","",""
"10142","1751452344322"," <p style='font-size:1.1em;line-height:1.25'>Thank you for completing the consent form and closing all other tabs.</p><p style='font-size:1.1em;line-height:1.25'>We will now invite you to fill in some demographic information and questionnaires, before starting the game.<br>This will take about 5 minutes.<br></p><p style='font-size:1.1em;line-height:1.25'>Press the <strong>Next</strong> button to continue.</p>","0","custom-html-button-response","4","320637","0.0-5.0","190","1","2025-07-02 10:27:02","80fe4187154257d5fb01684ea91b68b9","188.141.30.105","Mozilla/5.0 (Windows NT 10.0; Win64; x64) AppleWebKit/537.36 (KHTML, like Gecko) Chrome/137.0.0.0 Safari/537.36","WebKit","Chrome","137.0.0.0","Windows","10.0","https://app.prolific.com/","en-GB,en-US;q=0.9,en;q=0.8","57ca4b09993b08000192297b","683db6dfa200031b80f2a654","68650773898eb292952d89dc","57ca4b09993b08000192297b","2025-07-02T10:32:24.323Z","","","","","","","","","","","","","","","","","","","","","","","","","","","","","","","","","","","","","","","","","","","","",""
"2485","","","{""age"":""31""}","survey-text","5","323125","0.0-6.0-0.0","190","1","2025-07-02 10:27:02","80fe4187154257d5fb01684ea91b68b9","188.141.30.105","Mozilla/5.0 (Windows NT 10.0; Win64; x64) AppleWebKit/537.36 (KHTML, like Gecko) Chrome/137.0.0.0 Safari/537.36","WebKit","Chrome","137.0.0.0","Windows","10.0","https://app.prolific.com/","en-GB,en-US;q=0.9,en;q=0.8","57ca4b09993b08000192297b","683db6dfa200031b80f2a654","68650773898eb292952d89dc","57ca4b09993b08000192297b","","","","","","0","demographics","","","","","","","","","","","","","","","","","","","","","","","","","","","","","","","","","","","","","","",""
"2407","","","{""gender_identity"":""female/woman""}","survey-multi-choice","6","325533","0.0-6.0-1.0","190","1","2025-07-02 10:27:02","80fe4187154257d5fb01684ea91b68b9","188.141.30.105","Mozilla/5.0 (Windows NT 10.0; Win64; x64) AppleWebKit/537.36 (KHTML, like Gecko) Chrome/137.0.0.0 Safari/537.36","WebKit","Chrome","137.0.0.0","Windows","10.0","https://app.prolific.com/","en-GB,en-US;q=0.9,en;q=0.8","57ca4b09993b08000192297b","683db6dfa200031b80f2a654","68650773898eb292952d89dc","57ca4b09993b08000192297b","","","[0]","","","1","demographics","","","","","","","","","","","","","","","","","","","","","","","","","","","","","","","","","","","","","","",""
"2207","","","{""assigned_sex"":""female""}","survey-multi-choice","7","327742","0.0-6.0-2.0","190","1","2025-07-02 10:27:02","80fe4187154257d5fb01684ea91b68b9","188.141.30.105","Mozilla/5.0 (Windows NT 10.0; Win64; x64) AppleWebKit/537.36 (KHTML, like Gecko) Chrome/137.0.0.0 Safari/537.36","WebKit","Chrome","137.0.0.0","Windows","10.0","https://app.prolific.com/","en-GB,en-US;q=0.9,en;q=0.8","57ca4b09993b08000192297b","683db6dfa200031b80f2a654","68650773898eb292952d89dc","57ca4b09993b08000192297b","","","[0]","","","2","demographics","","","","","","","","","","","","","","","","","","","","","","","","","","","","","","","","","","","","","","",""
"700190","","","{""menstrual_cycle"":""Yes""}","survey-multi-choice","8","1027922","0.0-6.0-3.0","190","1","2025-07-02 10:27:02","80fe4187154257d5fb01684ea91b68b9","188.141.30.105","Mozilla/5.0 (Windows NT 10.0; Win64; x64) AppleWebKit/537.36 (KHTML, like Gecko) Chrome/137.0.0.0 Safari/537.36","WebKit","Chrome","137.0.0.0","Windows","10.0","https://app.prolific.com/","en-GB,en-US;q=0.9,en;q=0.8","57ca4b09993b08000192297b","683db6dfa200031b80f2a654","68650773898eb292952d89dc","57ca4b09993b08000192297b","","","[0]","","","4","demographics","","","","","","","","","","","","","","","","","","","","","","","","","","","","","","","","","","","","","","",""
"3694","","","{""education"":""Bachelor's Degree (e.g., BA)""}","survey-multi-choice","9","1031618","0.0-6.0-4.0","190","1","2025-07-02 10:27:02","80fe4187154257d5fb01684ea91b68b9","188.141.30.105","Mozilla/5.0 (Windows NT 10.0; Win64; x64) AppleWebKit/537.36 (KHTML, like Gecko) Chrome/137.0.0.0 Safari/537.36","WebKit","Chrome","137.0.0.0","Windows","10.0","https://app.prolific.com/","en-GB,en-US;q=0.9,en;q=0.8","57ca4b09993b08000192297b","683db6dfa200031b80f2a654","68650773898eb292952d89dc","57ca4b09993b08000192297b","","","[0]","","","5","demographics","","","","","","","","","","","","","","","","","","","","","","","","","","","","","","","","","","","","","","",""
"6503","","","{""education"":""GCSE/Standard Grades""}","survey-multi-choice","10","1038122","0.0-6.0-5.0","190","1","2025-07-02 10:27:02","80fe4187154257d5fb01684ea91b68b9","188.141.30.105","Mozilla/5.0 (Windows NT 10.0; Win64; x64) AppleWebKit/537.36 (KHTML, like Gecko) Chrome/137.0.0.0 Safari/537.36","WebKit","Chrome","137.0.0.0","Windows","10.0","https://app.prolific.com/","en-GB,en-US;q=0.9,en;q=0.8","57ca4b09993b08000192297b","683db6dfa200031b80f2a654","68650773898eb292952d89dc","57ca4b09993b08000192297b","2025-07-02T10:44:21.808Z","","[0]","","","6","demographics","","","","","","","","","","","","","","","","","","","","","","","","","","","","","","","","","","","","","","",""
"15222","","","{""mental_health_condition"":""No."",""mental_health_treatment"":""No."",""psychiatric_medication"":""None.""}","survey-text","11","1053344","0.0-7.0-0.0","190","1","2025-07-02 10:27:02","80fe4187154257d5fb01684ea91b68b9","188.141.30.105","Mozilla/5.0 (Windows NT 10.0; Win64; x64) AppleWebKit/537.36 (KHTML, like Gecko) Chrome/137.0.0.0 Safari/537.36","WebKit","Chrome","137.0.0.0","Windows","10.0","https://app.prolific.com/","en-GB,en-US;q=0.9,en;q=0.8","57ca4b09993b08000192297b","683db6dfa200031b80f2a654","68650773898eb292952d89dc","57ca4b09993b08000192297b","2025-07-02T10:44:37.030Z","","","","","1","mental_health","","","","","","","","","","","","","","","","","","","","","","","","","","","","","","","","","","","","","","",""
"11198","","","{""depression_history"":[""Yes""]}","survey-multi-select","12","1064545","0.0-7.0-1.0","190","1","2025-07-02 10:27:02","80fe4187154257d5fb01684ea91b68b9","188.141.30.105","Mozilla/5.0 (Windows NT 10.0; Win64; x64) AppleWebKit/537.36 (KHTML, like Gecko) Chrome/137.0.0.0 Safari/537.36","WebKit","Chrome","137.0.0.0","Windows","10.0","https://app.prolific.com/","en-GB,en-US;q=0.9,en;q=0.8","57ca4b09993b08000192297b","683db6dfa200031b80f2a654","68650773898eb292952d89dc","57ca4b09993b08000192297b","","","[0]","","","","mental_health","","","","","","","","","","","","","","","","","","","","","","","","","","","","","","","","","","","","","","",""
"10383","","","{""depression_episodes"":""1-2"",""depression_recent"":""More than 1 year ago""}","survey-multi-choice","13","1074928","0.0-7.0-2.0-0.0","190","1","2025-07-02 10:27:02","80fe4187154257d5fb01684ea91b68b9","188.141.30.105","Mozilla/5.0 (Windows NT 10.0; Win64; x64) AppleWebKit/537.36 (KHTML, like Gecko) Chrome/137.0.0.0 Safari/537.36","WebKit","Chrome","137.0.0.0","Windows","10.0","https://app.prolific.com/","en-GB,en-US;q=0.9,en;q=0.8","57ca4b09993b08000192297b","683db6dfa200031b80f2a654","68650773898eb292952d89dc","57ca4b09993b08000192297b","2025-07-02T10:44:58.615Z","","[0,1]","","","3","mental_health","","","","","","","","","","","","","","","","","","","","","","","","","","","","","","","","","","","","","","",""
"59830.60000002384","","","","survey-template","14","1134761","0.0-7.0-3.0","190","1","2025-07-02 10:27:02","80fe4187154257d5fb01684ea91b68b9","188.141.30.105","Mozilla/5.0 (Windows NT 10.0; Win64; x64) AppleWebKit/537.36 (KHTML, like Gecko) Chrome/137.0.0.0 Safari/537.36","WebKit","Chrome","137.0.0.0","Windows","10.0","https://app.prolific.com/","en-GB,en-US;q=0.9,en;q=0.8","57ca4b09993b08000192297b","683db6dfa200031b80f2a654","68650773898eb292952d89dc","57ca4b09993b08000192297b","2025-07-02T10:45:58.447Z","","","","","","ius","{""Q01"":""1"",""Q02"":""3"",""Q03"":""0"",""Q04"":""4"",""Q05"":""2"",""Q06"":""0"",""Q07"":""1"",""Q08"":""0"",""Q09"":""3"",""Q10"":""1"",""Q11"":""1"",""Q12"":""2"",""Q13"":""0""}","[0,1,2,3,4,5,6,7,8,9,10,11,12]","[""Q02"",""Q03"",""Q04"",""Q05"",""Q05"",""Q06"",""Q01"",""Q07"",""Q08"",""Q09"",""Q10"",""Q11"",""Q12"",""Q13""]","[9748.800000071526,18900.600000023842,22172.600000023842,25108.700000047684,27364.800000071526,30076.700000047684,34908.90000009537,39604.800000071526,41749.60000002384,47156.800000071526,51476.700000047684,54340.700000047684,57132.800000071526,58908.800000071526]","[]","[9748.800000071526,18900.600000023842,22172.600000023842,25108.700000047684,27364.800000071526,30076.700000047684,34908.90000009537,39604.800000071526,41749.60000002384,46573.60000002384,47156.800000071526,51476.700000047684,54340.700000047684,57132.800000071526,58908.800000071526,59828.800000071526]","0.3076923076923077","0.3333333333333333","0","","","","","","","","","","","","","","","","","","","","","","","","","","","","","",""
"1908","1751453160357","<p style='font-size:1.1em;line-height:1.25'>In the following, we will ask you a few questions relating to your experiences over the past month.<br></p><p style='font-size:1.1em;line-height:1.25'>Press the <strong>Next</strong> button to continue.</p>","0","custom-html-button-response","15","1136671","0.0-7.0-4.0","190","1","2025-07-02 10:27:02","80fe4187154257d5fb01684ea91b68b9","188.141.30.105","Mozilla/5.0 (Windows NT 10.0; Win64; x64) AppleWebKit/537.36 (KHTML, like Gecko) Chrome/137.0.0.0 Safari/537.36","WebKit","Chrome","137.0.0.0","Windows","10.0","https://app.prolific.com/","en-GB,en-US;q=0.9,en;q=0.8","57ca4b09993b08000192297b","683db6dfa200031b80f2a654","68650773898eb292952d89dc","57ca4b09993b08000192297b","2025-07-02T10:46:00.357Z","","","","","","","","","","","","","","","","","","","","","","","","","","","","","","","","","","","","","","","","","","","","",""
"38751.39999997616","","","","survey-template","16","1175423","0.0-7.0-5.0","190","1","2025-07-02 10:27:02","80fe4187154257d5fb01684ea91b68b9","188.141.30.105","Mozilla/5.0 (Windows NT 10.0; Win64; x64) AppleWebKit/537.36 (KHTML, like Gecko) Chrome/137.0.0.0 Safari/537.36","WebKit","Chrome","137.0.0.0","Windows","10.0","https://app.prolific.com/","en-GB,en-US;q=0.9,en;q=0.8","57ca4b09993b08000192297b","683db6dfa200031b80f2a654","68650773898eb292952d89dc","57ca4b09993b08000192297b","2025-07-02T10:46:39.109Z","","","","","","pss","{""Q01"":""0"",""Q02"":""2"",""Q03"":""2"",""Q04"":""0"",""Q05"":""1"",""Q06"":""1"",""Q07"":""1"",""Q08"":""1"",""Q09"":""0"",""Q10"":""1""}","[0,1,2,3,4,5,6,7,8,9]","[""Q01"",""Q02"",""Q03"",""Q04"",""Q05"",""Q06"",""Q07"",""Q08"",""Q09"",""Q10""]","[8749.799999952316,13774,15413.799999952316,17822.199999928474,20166,22573.599999904633,25502.599999904633,29493.5,33693.59999990463,37510.199999928474]","[]","[0,8749.799999952316,13190.099999904633,13774,15413.799999952316,17822.199999928474,20166,22573.599999904633,25502.599999904633,29493.5,33693.59999990463,36543.299999952316,37510.199999928474,38749.89999997616]","0.3","0.2222222222222222","0","","","","","","","","","","","","","","","","","","","","","","","","","","","","","",""
"1789","1751453200899","<p style='font-size:1.1em;line-height:1.25'>Thank you for your answers! Now we will ask you a few more questions relating to your feelings in the last 24 hours.<br></p><p style='font-size:1.1em;line-height:1.25'>Press the <strong>Next</strong> button to continue.</p>","0","custom-html-button-response","17","1177213","0.0-7.0-6.0","190","1","2025-07-02 10:27:02","80fe4187154257d5fb01684ea91b68b9","188.141.30.105","Mozilla/5.0 (Windows NT 10.0; Win64; x64) AppleWebKit/537.36 (KHTML, like Gecko) Chrome/137.0.0.0 Safari/537.36","WebKit","Chrome","137.0.0.0","Windows","10.0","https://app.prolific.com/","en-GB,en-US;q=0.9,en;q=0.8","57ca4b09993b08000192297b","683db6dfa200031b80f2a654","68650773898eb292952d89dc","57ca4b09993b08000192297b","2025-07-02T10:46:40.899Z","","","","","","","","","","","","","","","","","","","","","","","","","","","","","","","","","","","","","","","","","","","","",""
"52353.300000071526","","","","survey-template","18","1229569","0.0-7.0-7.0","190","1","2025-07-02 10:27:02","80fe4187154257d5fb01684ea91b68b9","188.141.30.105","Mozilla/5.0 (Windows NT 10.0; Win64; x64) AppleWebKit/537.36 (KHTML, like Gecko) Chrome/137.0.0.0 Safari/537.36","WebKit","Chrome","137.0.0.0","Windows","10.0","https://app.prolific.com/","en-GB,en-US;q=0.9,en;q=0.8","57ca4b09993b08000192297b","683db6dfa200031b80f2a654","68650773898eb292952d89dc","57ca4b09993b08000192297b","2025-07-02T10:47:33.255Z","","","","","","drsp","{""Q01"":""0"",""Q02"":""0"",""Q03"":""0"",""Q04"":""2"",""Q05"":""0"",""Q06"":""0"",""Q07"":""1"",""Q08"":""0"",""Q09"":""0"",""Q10"":""0"",""Q11"":""3"",""Q12"":""0"",""Q13"":""1"",""Q14"":""2"",""Q15"":""2"",""Q16"":""0"",""Q17"":""0"",""Q18"":""2"",""Q19"":""2"",""Q20"":""0"",""Q21"":""0""}","[0,1,2,3,4,5,6,7,8,9,10,11,12,13,14,15,16,17,18,19,20]","[""Q01"",""Q02"",""Q03"",""Q04"",""Q05"",""Q06"",""Q07"",""Q08"",""Q09"",""Q10"",""Q11"",""Q12"",""Q13"",""Q14"",""Q15"",""Q16"",""Q17"",""Q18"",""Q19"",""Q20"",""Q21""]","[6221.900000095367,7398.100000023842,11461.900000095367,14342,16038.200000047684,18053.700000047684,20701.400000095367,21701.700000047684,23269.800000071526,24781.800000071526,27926,30013.600000023842,32229.300000071526,34941.700000047684,38125.90000009537,40181.60000002384,41134.200000047684,47526.300000071526,48966.40000009537,50637.60000002384,51461.700000047684]","[]","[0,5398.300000071526,6221.900000095367,7398.100000023842,11461.900000095367,14342,16038.200000047684,18053.700000047684,20701.400000095367,21701.700000047684,23269.800000071526,24781.800000071526,27926,30013.600000023842,32229.300000071526,34941.700000047684,38125.90000009537,40181.60000002384,41134.200000047684,47526.300000071526,48966.40000009537,50637.60000002384,51461.700000047684,52350.5]","0.6190476190476191","0.2","0","","","","","","","","","","","","","","","","","","","","","","","","","","","","","",""
"14450.5","","","","survey-template","19","1244021","0.0-7.0-8.0","190","1","2025-07-02 10:27:02","80fe4187154257d5fb01684ea91b68b9","188.141.30.105","Mozilla/5.0 (Windows NT 10.0; Win64; x64) AppleWebKit/537.36 (KHTML, like Gecko) Chrome/137.0.0.0 Safari/537.36","WebKit","Chrome","137.0.0.0","Windows","10.0","https://app.prolific.com/","en-GB,en-US;q=0.9,en;q=0.8","57ca4b09993b08000192297b","683db6dfa200031b80f2a654","68650773898eb292952d89dc","57ca4b09993b08000192297b","2025-07-02T10:47:47.707Z","","","","","","stress","{""Q01"":""2"",""Q02"":""1"",""Q03"":""0""}","[0,1,2]","[""Q01"",""Q02"",""Q03""]","[4401.599999904633,8833.5,11034.399999976158]","[]","[889.7999999523163,4401.599999904633,8833.5,11034.399999976158,14449.799999952316]","0.3333333333333333","0","0","","","","","","","","","","","","","","","","","","","","","","","","","","","","","",""
"74534","","","","instructions","20","1318554","0.0-8.0-0.0","190","1","2025-07-02 10:27:02","80fe4187154257d5fb01684ea91b68b9","188.141.30.105","Mozilla/5.0 (Windows NT 10.0; Win64; x64) AppleWebKit/537.36 (KHTML, like Gecko) Chrome/137.0.0.0 Safari/537.36","WebKit","Chrome","137.0.0.0","Windows","10.0","https://app.prolific.com/","en-GB,en-US;q=0.9,en;q=0.8","57ca4b09993b08000192297b","683db6dfa200031b80f2a654","68650773898eb292952d89dc","57ca4b09993b08000192297b","","[{""page_index"":0,""viewing_time"":39350},{""page_index"":1,""viewing_time"":18576},{""page_index"":2,""viewing_time"":7200},{""page_index"":3,""viewing_time"":9408}]","","","","","","","","","","","","","","","","","","","","","","","","","","","","","","","","","","","","","","","","","","","",""
"","","","","ctl-task-cpt","21","1351685","0.0-8.0-1.0","190","1","2025-07-02 10:27:02","80fe4187154257d5fb01684ea91b68b9","188.141.30.105","Mozilla/5.0 (Windows NT 10.0; Win64; x64) AppleWebKit/537.36 (KHTML, like Gecko) Chrome/137.0.0.0 Safari/537.36","WebKit","Chrome","137.0.0.0","Windows","10.0","https://app.prolific.com/","en-GB,en-US;q=0.9,en;q=0.8","57ca4b09993b08000192297b","683db6dfa200031b80f2a654","68650773898eb292952d89dc","57ca4b09993b08000192297b","","","","","","","","","","","","","","","","","win-only","0","g1:NW,g2:SE","1","0","1","1320408.3","1837.8","5841.6","30123.3","2","4","4","6","2","4","2","2","0","0.015151515151515152","3287.8","4000","980","[""down"",""right""]","{""num_key_presses"":11,""num_perfect"":7,""num_errors"":2,""num_randdir"":0,""num_randdir_good_moves"":0,""num_whilered"":2,""num_whileblue"":1,""num_blue"":1,""num_good_moves"":7}","[421.57142857142856,421.47767857142856,0.1,421.57142857142856,421.47767857142856,110,421.57142857142856,421.47767857142856,213,421.57142857142856,421.47767857142856,313.5,421.57142857142856,421.47767857142856,419,421.57142857142856,421.47767857142856,523,421.57142857142856,421.47767857142856,623.5,421.57142857142856,421.47767857142856,723.6,421.57142857142856,421.47767857142856,828.5,421.57142857142856,421.47767857142856,929.1,421.57142857142856,421.47767857142856,1032.8,373.57142857142856,359.47767857142856,1137.8,256.57142857142856,274.47767857142856,1242.6,436.57142857142856,533.4776785714286,1343.5,431.57142857142856,526.4776785714286,1448.7,395.57142857142856,498.47767857142856,1552.8,370.57142857142856,477.47767857142856,1653.5,350.57142857142856,442.47767857142856,1753.6,350.57142857142856,440.47767857142856,1858.7,350.57142857142856,440.47767857142856,1962.8,351.57142857142856,440.47767857142856,2063.3,352.57142857142856,439.47767857142856,2168.2,346.57142857142856,401.47767857142856,2268.2,344.57142857142856,399.47767857142856,2368.6,344.57142857142856,399.47767857142856,2468.9,348.57142857142856,421.47767857142856,2573.5,411.57142857142856,514.4776785714286,2677.5,741.5714285714286,696.4776785714286,2780,859.5714285714286,790.4776785714286,2883.6,827.5714285714286,759.4776785714286,2988.5,778.5714285714286,742.4776785714286,3088.5,775.5714285714286,743.4776785714286,3192.9,778.5714285714286,756.4776785714286,3294.1,778.5714285714286,756.4776785714286,3398,778.5714285714286,756.4776785714286,3498,778.5714285714286,756.4776785714286,3598.4,778.5714285714286,756.4776785714286,3703.2,778.5714285714286,756.4776785714286,3803.9,778.5714285714286,756.4776785714286,3910.1]","[415,415.1,1000,0,-584.9,""error"",""-"",""-"",""no_move"",710.4,295,1000,0,-289.6,""while_red"",""-"",""-"",""no_move"",862.4,447,1000,0,-137.6,""while_red"",""-"",""-"",""no_move"",3674.1,3258.7,1776.3,1419.8,478,""smooth"",""right"",""right"",""good_move"",7582.3,3907.7,3270.5,3674.6,637.2,""smooth"",""down"",""down"",""good_move"",10374.1,2791.4,2416.5,7582.7,374.9,""smooth"",""down"",""down"",""good_move"",13534.3,3159.9,2663.1,10374.4,496.8,""smooth"",""right"",""right"",""good_move"",15958.7,2424.1,1925.3,13534.6,498.8,""smooth"",""down"",""down"",""good_move"",18702.5,2743.6,2364.9,15959,378.6,""while_blue"",""right"",""left"",""bad_move"",21087,2384.2,1878.4,18702.8,505.8,""smooth"",""right"",""right"",""good_move"",24182.5,3095.2,2761.7,21087.3,333.5,""smooth"",""right"",""right"",""good_move""]","","",""
"9853","","","","instructions","22","1361537","0.0-8.0-2.0","190","1","2025-07-02 10:27:02","80fe4187154257d5fb01684ea91b68b9","188.141.30.105","Mozilla/5.0 (Windows NT 10.0; Win64; x64) AppleWebKit/537.36 (KHTML, like Gecko) Chrome/137.0.0.0 Safari/537.36","WebKit","Chrome","137.0.0.0","Windows","10.0","https://app.prolific.com/","en-GB,en-US;q=0.9,en;q=0.8","57ca4b09993b08000192297b","683db6dfa200031b80f2a654","68650773898eb292952d89dc","57ca4b09993b08000192297b","","[{""page_index"":0,""viewing_time"":9852}]","","","","","","","","","","","","","","","","","","","","","","","","","","","","","","","","","","","","","","","","","","","",""
"","","","","ctl-task-cpt","23","1410619","0.0-8.0-3.0","190","1","2025-07-02 10:27:02","80fe4187154257d5fb01684ea91b68b9","188.141.30.105","Mozilla/5.0 (Windows NT 10.0; Win64; x64) AppleWebKit/537.36 (KHTML, like Gecko) Chrome/137.0.0.0 Safari/537.36","WebKit","Chrome","137.0.0.0","Windows","10.0","https://app.prolific.com/","en-GB,en-US;q=0.9,en;q=0.8","57ca4b09993b08000192297b","683db6dfa200031b80f2a654","68650773898eb292952d89dc","57ca4b09993b08000192297b","","","","","","","","","","","","","","","","","win-only","0","g1:NW,g2:SE","0.35","0","3","1363390.8","1543","5545.8","46065.5","2","4","8","6","2","-8","-8","0","0","0","2312.1","4000","-2995","[""down"",""right""]","{""num_key_presses"":9,""num_perfect"":4,""num_errors"":0,""num_randdir"":5,""num_randdir_good_moves"":2,""num_whilered"":0,""num_whileblue"":0,""num_blue"":3,""num_good_moves"":6}","[410.57142857142856,411.47767857142856,0.4,410.57142857142856,411.47767857142856,102.6,410.57142857142856,411.47767857142856,203.3,410.57142857142856,411.47767857142856,308.6,410.57142857142856,411.47767857142856,412.8,410.57142857142856,411.47767857142856,512.8,410.57142857142856,411.47767857142856,613.1,453.57142857142856,471.47767857142856,713.4,694.5714285714286,781.4776785714286,818.9,697.5714285714286,793.4776785714286,922.7,729.5714285714286,785.4776785714286,1028.8,728.5714285714286,770.4776785714286,1132.3,739.5714285714286,768.4776785714286,1233.4,778.5714285714286,764.4776785714286,1337.3,778.5714285714286,764.4776785714286,1438.7,778.5714285714286,764.4776785714286,1543.1,778.5714285714286,764.4776785714286,1643.2,778.5714285714286,764.4776785714286,1748.7,778.5714285714286,764.4776785714286,1848.7,778.5714285714286,764.4776785714286,1952.8,778.5714285714286,764.4776785714286,2058.6,778.5714285714286,764.4776785714286,2162.8,778.5714285714286,764.4776785714286,2263.1,778.5714285714286,764.4776785714286,2363.2,778.5714285714286,764.4776785714286,2468.5,778.5714285714286,764.4776785714286,2572.3,778.5714285714286,764.4776785714286,2672.3,778.5714285714286,764.4776785714286,2777.9,778.5714285714286,764.4776785714286,2878,778.5714285714286,764.4776785714286,2982.2,778.5714285714286,764.4776785714286,3083,778.5714285714286,764.4776785714286,3183.1,778.5714285714286,764.4776785714286,3287.8,778.5714285714286,764.4776785714286,3388.1,778.5714285714286,764.4776785714286,3493.1,771.5714285714286,772.4776785714286,3597.7,754.5714285714286,795.4776785714286,3698.1,743.5714285714286,810.4776785714286,3798.7,742.5714285714286,812.4776785714286,3902.7]","[1495.8,1495.8,1000,0,495.8,""smooth"",""down"",""down"",""good_move"",4095.6,2599.4,2289.2,1496.2,310.2,""smooth"",""right"",""right"",""good_move"",10008,5912.1,2205.8,7400.4,401.8,""oops"",""down"",""down"",""good_move"",13743.7,3735.5,3313.4,10008.2,422.1,""oops"",""right"",""up"",""bad_move"",16991.5,3247.5,2789.4,13744,458.1,""oops"",""right"",""left"",""bad_move"",19703.9,2712.1,1977.7,16991.9,734.4,""oops"",""right"",""up"",""bad_move"",26920.3,7216,3313.8,23219.3,387.2,""smooth"",""right"",""right"",""good_move"",30233.3,3312.9,2929.5,26920.4,383.4,""oops"",""down"",""right"",""good_move"",37840,7606.4,3247.4,34235,357.6,""smooth"",""down"",""down"",""good_move""]","","",""
"18085","","","","instructions","24","1428704","0.0-8.0-4.0","190","1","2025-07-02 10:27:02","80fe4187154257d5fb01684ea91b68b9","188.141.30.105","Mozilla/5.0 (Windows NT 10.0; Win64; x64) AppleWebKit/537.36 (KHTML, like Gecko) Chrome/137.0.0.0 Safari/537.36","WebKit","Chrome","137.0.0.0","Windows","10.0","https://app.prolific.com/","en-GB,en-US;q=0.9,en;q=0.8","57ca4b09993b08000192297b","683db6dfa200031b80f2a654","68650773898eb292952d89dc","57ca4b09993b08000192297b","","[{""page_index"":0,""viewing_time"":7605},{""page_index"":1,""viewing_time"":10480}]","","","","","","","","","","","","","","","","","","","","","","","","","","","","","","","","","","","","","","","","","","","",""
"7166","","","{""green_ball"":[""Ball sometimes shakes and moves in a random direction""]}","survey-multi-select","25","1435872","0.0-8.0-5.0-0.0","190","1","2025-07-02 10:27:02","80fe4187154257d5fb01684ea91b68b9","188.141.30.105","Mozilla/5.0 (Windows NT 10.0; Win64; x64) AppleWebKit/537.36 (KHTML, like Gecko) Chrome/137.0.0.0 Safari/537.36","WebKit","Chrome","137.0.0.0","Windows","10.0","https://app.prolific.com/","en-GB,en-US;q=0.9,en;q=0.8","57ca4b09993b08000192297b","683db6dfa200031b80f2a654","68650773898eb292952d89dc","57ca4b09993b08000192297b","","","[0]","","","","quiz","","","","","","","","","","","","","","","","","","","","","","","","","","","","","","","","","","","","","true","",""
"1310","","<p align='center'><b>CORRECT!</b> Indeed, the green ball may sometimes shake and move in a random direction.</p>","0","html-button-response","26","1437183","0.0-8.0-5.0-1.0","190","1","2025-07-02 10:27:02","80fe4187154257d5fb01684ea91b68b9","188.141.30.105","Mozilla/5.0 (Windows NT 10.0; Win64; x64) AppleWebKit/537.36 (KHTML, like Gecko) Chrome/137.0.0.0 Safari/537.36","WebKit","Chrome","137.0.0.0","Windows","10.0","https://app.prolific.com/","en-GB,en-US;q=0.9,en;q=0.8","57ca4b09993b08000192297b","683db6dfa200031b80f2a654","68650773898eb292952d89dc","57ca4b09993b08000192297b","","","","","","","","","","","","","","","","","","","","","","","","","","","","","","","","","","","","","","","","","","","","","",""
"5831","","","{""yellow_ball"":[""Ball doesn‘t move and I get -1 penalty point""]}","survey-multi-select","27","1443016","0.0-8.0-6.0-0.0","190","1","2025-07-02 10:27:02","80fe4187154257d5fb01684ea91b68b9","188.141.30.105","Mozilla/5.0 (Windows NT 10.0; Win64; x64) AppleWebKit/537.36 (KHTML, like Gecko) Chrome/137.0.0.0 Safari/537.36","WebKit","Chrome","137.0.0.0","Windows","10.0","https://app.prolific.com/","en-GB,en-US;q=0.9,en;q=0.8","57ca4b09993b08000192297b","683db6dfa200031b80f2a654","68650773898eb292952d89dc","57ca4b09993b08000192297b","","","[0]","","","","quiz","","","","","","","","","","","","","","","","","","","","","","","","","","","","","","","","","","","","","true","",""
"1359","","<p align='center'><b>CORRECT!</b> Indeed, the yellow ball never moves and you receive a penalty.</p>","0","html-button-response","28","1444376","0.0-8.0-6.0-1.0","190","1","2025-07-02 10:27:02","80fe4187154257d5fb01684ea91b68b9","188.141.30.105","Mozilla/5.0 (Windows NT 10.0; Win64; x64) AppleWebKit/537.36 (KHTML, like Gecko) Chrome/137.0.0.0 Safari/537.36","WebKit","Chrome","137.0.0.0","Windows","10.0","https://app.prolific.com/","en-GB,en-US;q=0.9,en;q=0.8","57ca4b09993b08000192297b","683db6dfa200031b80f2a654","68650773898eb292952d89dc","57ca4b09993b08000192297b","","","","","","","","","","","","","","","","","","","","","","","","","","","","","","","","","","","","","","","","","","","","","",""
"7334","","","{""blue_ball"":[""Ball always shakes and moves in a random direction""]}","survey-multi-select","29","1451712","0.0-8.0-7.0-0.0","190","1","2025-07-02 10:27:02","80fe4187154257d5fb01684ea91b68b9","188.141.30.105","Mozilla/5.0 (Windows NT 10.0; Win64; x64) AppleWebKit/537.36 (KHTML, like Gecko) Chrome/137.0.0.0 Safari/537.36","WebKit","Chrome","137.0.0.0","Windows","10.0","https://app.prolific.com/","en-GB,en-US;q=0.9,en;q=0.8","57ca4b09993b08000192297b","683db6dfa200031b80f2a654","68650773898eb292952d89dc","57ca4b09993b08000192297b","","","[0]","","","","quiz","","","","","","","","","","","","","","","","","","","","","","","","","","","","","","","","","","","","","true","",""
"1926","","<p align='center'><b>CORRECT!</b> Indeed, the blue ball always shakes and moves in a random direction. Also there is a penalty of -1 point.</p>","0","html-button-response","30","1453639","0.0-8.0-7.0-1.0","190","1","2025-07-02 10:27:02","80fe4187154257d5fb01684ea91b68b9","188.141.30.105","Mozilla/5.0 (Windows NT 10.0; Win64; x64) AppleWebKit/537.36 (KHTML, like Gecko) Chrome/137.0.0.0 Safari/537.36","WebKit","Chrome","137.0.0.0","Windows","10.0","https://app.prolific.com/","en-GB,en-US;q=0.9,en;q=0.8","57ca4b09993b08000192297b","683db6dfa200031b80f2a654","68650773898eb292952d89dc","57ca4b09993b08000192297b","","","","","","","","","","","","","","","","","","","","","","","","","","","","","","","","","","","","","","","","","","","","","",""
"7383","","","{""bonus"":[""When I reach 50% of points""]}","survey-multi-select","31","1461024","0.0-8.0-8.0-0.0","190","1","2025-07-02 10:27:02","80fe4187154257d5fb01684ea91b68b9","188.141.30.105","Mozilla/5.0 (Windows NT 10.0; Win64; x64) AppleWebKit/537.36 (KHTML, like Gecko) Chrome/137.0.0.0 Safari/537.36","WebKit","Chrome","137.0.0.0","Windows","10.0","https://app.prolific.com/","en-GB,en-US;q=0.9,en;q=0.8","57ca4b09993b08000192297b","683db6dfa200031b80f2a654","68650773898eb292952d89dc","57ca4b09993b08000192297b","","","[0]","","","","quiz","","","","","","","","","","","","","","","","","","","","","","","","","","","","","","","","","","","","","true","",""
"1135","","<p align='center'><b>CORRECT!</b> Indeed, you receive 2 pounds extra when you reach 50% of points.</p>","0","html-button-response","32","1462160","0.0-8.0-8.0-1.0","190","1","2025-07-02 10:27:02","80fe4187154257d5fb01684ea91b68b9","188.141.30.105","Mozilla/5.0 (Windows NT 10.0; Win64; x64) AppleWebKit/537.36 (KHTML, like Gecko) Chrome/137.0.0.0 Safari/537.36","WebKit","Chrome","137.0.0.0","Windows","10.0","https://app.prolific.com/","en-GB,en-US;q=0.9,en;q=0.8","57ca4b09993b08000192297b","683db6dfa200031b80f2a654","68650773898eb292952d89dc","57ca4b09993b08000192297b","","","","","","","","","","","","","","","","","","","","","","","","","","","","","","","","","","","","","","","","","","","","","",""
"1727","","","","instructions","33","1463887","0.0-8.0-9.0","190","1","2025-07-02 10:27:02","80fe4187154257d5fb01684ea91b68b9","188.141.30.105","Mozilla/5.0 (Windows NT 10.0; Win64; x64) AppleWebKit/537.36 (KHTML, like Gecko) Chrome/137.0.0.0 Safari/537.36","WebKit","Chrome","137.0.0.0","Windows","10.0","https://app.prolific.com/","en-GB,en-US;q=0.9,en;q=0.8","57ca4b09993b08000192297b","683db6dfa200031b80f2a654","68650773898eb292952d89dc","57ca4b09993b08000192297b","","[{""page_index"":0,""viewing_time"":1726}]","","","","","","","","","","","","","","","","","","","","","","","","","","","","","","","","","","","","","","","","","","","",""
"8383","","<p>Before you start with this game please answer the following three questions yourself. </p>
  <p>Through this game, we measure several aspects of your cognitive performance, such as reaction times, multi-tasking capabilities </p>
  <p>and the ability to assess the situation you are in.</p>
  <p></p>
  <p><b>How good do you usually are in such tasks?</b></p>","81","html-slider-response","34","1472271","0.0-9.0-0.0","190","1","2025-07-02 10:27:02","80fe4187154257d5fb01684ea91b68b9","188.141.30.105","Mozilla/5.0 (Windows NT 10.0; Win64; x64) AppleWebKit/537.36 (KHTML, like Gecko) Chrome/137.0.0.0 Safari/537.36","WebKit","Chrome","137.0.0.0","Windows","10.0","https://app.prolific.com/","en-GB,en-US;q=0.9,en;q=0.8","57ca4b09993b08000192297b","683db6dfa200031b80f2a654","68650773898eb292952d89dc","57ca4b09993b08000192297b","2025-07-02T10:51:35.957Z","","","","","","PreSkillQ","","","","","","","","","","","","","","","","","","","","","","","","","","","","","","","","","","","","","","50",""
"3766","","<div style=""width:500px;"">
  <p>How well do you think you will perform in this task compared to other participants?</p>
  </div>","57","html-slider-response","35","1476039","0.0-9.0-1.0","190","1","2025-07-02 10:27:02","80fe4187154257d5fb01684ea91b68b9","188.141.30.105","Mozilla/5.0 (Windows NT 10.0; Win64; x64) AppleWebKit/537.36 (KHTML, like Gecko) Chrome/137.0.0.0 Safari/537.36","WebKit","Chrome","137.0.0.0","Windows","10.0","https://app.prolific.com/","en-GB,en-US;q=0.9,en;q=0.8","57ca4b09993b08000192297b","683db6dfa200031b80f2a654","68650773898eb292952d89dc","57ca4b09993b08000192297b","2025-07-02T10:51:39.725Z","","","","","","PrePerfQ","","","","","","","","","","","","","","","","","","","","","","","","","","","","","","","","","","","","","","50",""
"3311","","<div style=""width:500px;"">
  <p>What best describes how you currently feel?</p>
  </div>","84","html-slider-response","36","1479351","0.0-9.0-2.0","190","1","2025-07-02 10:27:02","80fe4187154257d5fb01684ea91b68b9","188.141.30.105","Mozilla/5.0 (Windows NT 10.0; Win64; x64) AppleWebKit/537.36 (KHTML, like Gecko) Chrome/137.0.0.0 Safari/537.36","WebKit","Chrome","137.0.0.0","Windows","10.0","https://app.prolific.com/","en-GB,en-US;q=0.9,en;q=0.8","57ca4b09993b08000192297b","683db6dfa200031b80f2a654","68650773898eb292952d89dc","57ca4b09993b08000192297b","2025-07-02T10:51:43.037Z","","","","","","PreMotivationQ","","","","","","","","","","","","","","","","","","","","","","","","","","","","","","","","","","","","","","50",""
"","","","","ctl-task-cpt","37","1513354","0.0-10.0-0.0","190","1","2025-07-02 10:27:02","80fe4187154257d5fb01684ea91b68b9","188.141.30.105","Mozilla/5.0 (Windows NT 10.0; Win64; x64) AppleWebKit/537.36 (KHTML, like Gecko) Chrome/137.0.0.0 Safari/537.36","WebKit","Chrome","137.0.0.0","Windows","10.0","https://app.prolific.com/","en-GB,en-US;q=0.9,en;q=0.8","57ca4b09993b08000192297b","683db6dfa200031b80f2a654","68650773898eb292952d89dc","57ca4b09993b08000192297b","2025-07-02T10:52:17.040Z","","","","","","","","","","","","","","","","win-only","2","g1:SE,g2:NW","1","1","0","1481207.9","1328.2","6330.8","30985.4","1","4","8","6","2","8","8","8","0","0.06060606060606061","1238","3000","230","[""left"",""up""]","{""num_key_presses"":6,""num_perfect"":6,""num_errors"":0,""num_randdir"":0,""num_randdir_good_moves"":0,""num_whilered"":0,""num_whileblue"":0,""num_blue"":2,""num_good_moves"":6}","[418.57142857142856,421.47767857142856,0.3,418.57142857142856,421.47767857142856,103,418.57142857142856,421.47767857142856,207.6,418.57142857142856,421.47767857142856,308.3,418.57142857142856,421.47767857142856,413.1,418.57142857142856,421.47767857142856,517,433.57142857142856,439.47767857142856,617.3,321.57142857142856,311.47767857142856,718.5,185.57142857142856,87.47767857142857,822.9,123.57142857142857,42.47767857142857,923,117.57142857142857,41.47767857142857,1024.1,100.57142857142857,80.47767857142857,1127.9,99.57142857142857,82.47767857142857,1232.2,99.57142857142857,82.47767857142857,1332.8,99.57142857142857,82.47767857142857,1433,99.57142857142857,82.47767857142857,1538.5,99.57142857142857,82.47767857142857,1642.9,110.57142857142857,100.47767857142857,1747.1,133.57142857142856,210.47767857142856,1848.4,155.57142857142856,281.47767857142856,1953.6,235.57142857142856,290.47767857142856,2057.4,237.57142857142856,290.47767857142856,2157.8,237.57142857142856,290.47767857142856,2258,237.57142857142856,290.47767857142856,2358.9,236.57142857142856,290.47767857142856,2462.5,235.57142857142856,290.47767857142856,2562.7,235.57142857142856,290.47767857142856,2662.9,235.57142857142856,290.47767857142856,2767.2,235.57142857142856,290.47767857142856,2867.3,235.57142857142856,290.47767857142856,2967.3,235.57142857142856,290.47767857142856,3073.8,235.57142857142856,290.47767857142856,3177.2,235.57142857142856,290.47767857142856,3277.3,235.57142857142856,290.47767857142856,3377.3,235.57142857142856,290.47767857142856,3482.9,235.57142857142856,290.47767857142856,3582.9,235.57142857142856,290.47767857142856,3687.1,235.57142857142856,290.47767857142856,3788.1,235.57142857142856,290.47767857142856,3888.4,223.57142857142856,290.47767857142856,3992.8,189.57142857142856,292.47767857142856,4093,174.57142857142856,292.47767857142856,4197.1,174.57142857142856,292.47767857142856,4297.3,174.57142857142856,292.47767857142856,4397.4,174.57142857142856,292.47767857142856,4497.5,174.57142857142856,292.47767857142856,4602.5,174.57142857142856,292.47767857142856,4707.2,174.57142857142856,292.47767857142856,4807.3,174.57142857142856,292.47767857142856,4907.5]","[6221.7,6221.7,3730.3,2004.9,486.5,""smooth"",""left"",""left"",""good_move"",9397.9,3175.7,2627.8,6222.2,547.9,""smooth"",""left"",""left"",""good_move"",12718,3320,2931,9398.2,388.9,""smooth"",""up"",""up"",""good_move"",18534.2,5815.6,2445.2,15599.8,489.2,""smooth"",""left"",""left"",""good_move"",21197.8,2663.4,2167.9,18534.4,495.5,""smooth"",""up"",""up"",""good_move"",24570.8,3372.7,2980.8,21198.1,391.9,""smooth"",""up"",""up"",""good_move""]","","",""
"5267","","<div style=""width:500px;"">
  <p>What determined the result of this run?</p>
  </div>","83","html-slider-response","38","1518622","0.0-10.0-1.0","190","1","2025-07-02 10:27:02","80fe4187154257d5fb01684ea91b68b9","188.141.30.105","Mozilla/5.0 (Windows NT 10.0; Win64; x64) AppleWebKit/537.36 (KHTML, like Gecko) Chrome/137.0.0.0 Safari/537.36","WebKit","Chrome","137.0.0.0","Windows","10.0","https://app.prolific.com/","en-GB,en-US;q=0.9,en;q=0.8","57ca4b09993b08000192297b","683db6dfa200031b80f2a654","68650773898eb292952d89dc","57ca4b09993b08000192297b","2025-07-02T10:52:22.309Z","","","","","","AttribQ","","","","","","","","","","","","","","","","","","","","","","","","","","","","","","","","","","","","","","50",""
"3534","","<div style=""width:500px;"">
  <p>How much control did you have over the ball?</p>
  </div>","100","html-slider-response","39","1522158","0.0-10.0-2.0","190","1","2025-07-02 10:27:02","80fe4187154257d5fb01684ea91b68b9","188.141.30.105","Mozilla/5.0 (Windows NT 10.0; Win64; x64) AppleWebKit/537.36 (KHTML, like Gecko) Chrome/137.0.0.0 Safari/537.36","WebKit","Chrome","137.0.0.0","Windows","10.0","https://app.prolific.com/","en-GB,en-US;q=0.9,en;q=0.8","57ca4b09993b08000192297b","683db6dfa200031b80f2a654","68650773898eb292952d89dc","57ca4b09993b08000192297b","2025-07-02T10:52:25.844Z","","","","","","ControlQ","","","","","","","","","","","","","","","","","","","","","","","","","","","","","","","","","","","","","","50",""
"4127","","<div style=""width:500px;"">
  <p>How would you describe your current emotional state?</p>
  </div>","38","html-slider-response","40","1526287","0.0-10.0-3.0","190","1","2025-07-02 10:27:02","80fe4187154257d5fb01684ea91b68b9","188.141.30.105","Mozilla/5.0 (Windows NT 10.0; Win64; x64) AppleWebKit/537.36 (KHTML, like Gecko) Chrome/137.0.0.0 Safari/537.36","WebKit","Chrome","137.0.0.0","Windows","10.0","https://app.prolific.com/","en-GB,en-US;q=0.9,en;q=0.8","57ca4b09993b08000192297b","683db6dfa200031b80f2a654","68650773898eb292952d89dc","57ca4b09993b08000192297b","2025-07-02T10:52:29.973Z","","","","","","StressQ","","","","","","","","","","","","","","","","","","","","","","","","","","","","","","","","","","","","","","50",""
"3518","","<div style=""width:500px;"">
  <p>What best describes how you currently feel?</p>
  </div>","87","html-slider-response","41","1529806","0.0-10.0-4.0","190","1","2025-07-02 10:27:02","80fe4187154257d5fb01684ea91b68b9","188.141.30.105","Mozilla/5.0 (Windows NT 10.0; Win64; x64) AppleWebKit/537.36 (KHTML, like Gecko) Chrome/137.0.0.0 Safari/537.36","WebKit","Chrome","137.0.0.0","Windows","10.0","https://app.prolific.com/","en-GB,en-US;q=0.9,en;q=0.8","57ca4b09993b08000192297b","683db6dfa200031b80f2a654","68650773898eb292952d89dc","57ca4b09993b08000192297b","2025-07-02T10:52:33.492Z","","","","","","MotivationQ","","","","","","","","","","","","","","","","","","","","","","","","","","","","","","","","","","","","","","50",""
"","","","","ctl-task-cpt","42","1558185","0.0-10.0-0.1","190","1","2025-07-02 10:27:02","80fe4187154257d5fb01684ea91b68b9","188.141.30.105","Mozilla/5.0 (Windows NT 10.0; Win64; x64) AppleWebKit/537.36 (KHTML, like Gecko) Chrome/137.0.0.0 Safari/537.36","WebKit","Chrome","137.0.0.0","Windows","10.0","https://app.prolific.com/","en-GB,en-US;q=0.9,en;q=0.8","57ca4b09993b08000192297b","683db6dfa200031b80f2a654","68650773898eb292952d89dc","57ca4b09993b08000192297b","2025-07-02T10:53:01.871Z","","","","","","","","","","","","","","","","win-only","3","g1:SW,g2:NE","0.9","2","0","1531663.9","2224","7226.7","25362.1","1","4","4","6","2","4","4","12","8","0.09090909090909091","1358","3000","860","[""up"",""right""]","{""num_key_presses"":6,""num_perfect"":6,""num_errors"":0,""num_randdir"":0,""num_randdir_good_moves"":0,""num_whilered"":0,""num_whileblue"":0,""num_blue"":0,""num_good_moves"":6}","[418.57142857142856,416.47767857142856,0.4,418.57142857142856,416.47767857142856,101.5,418.57142857142856,416.47767857142856,202.1,418.57142857142856,416.47767857142856,302.2,418.57142857142856,416.47767857142856,406.3,418.57142857142856,416.47767857142856,506.9,418.57142857142856,416.47767857142856,612.2,425.57142857142856,402.47767857142856,717,703.5714285714286,76.47767857142857,817.1,809.5714285714286,1.4776785714285694,917.1,796.5714285714286,3.4776785714285694,1017.7,767.5714285714286,41.47767857142857,1121.8,762.5714285714286,49.47767857142857,1222.3,762.5714285714286,50.47767857142857,1326.6,762.5714285714286,50.47767857142857,1427.3,762.5714285714286,50.47767857142857,1531.4,762.5714285714286,50.47767857142857,1631.5,762.5714285714286,50.47767857142857,1731.5,763.5714285714286,54.47767857142857,1831.6,769.5714285714286,131.47767857142856,1936.8,783.5714285714286,193.47767857142856,2036.8,895.5714285714286,367.47767857142856,2142.2,933.5714285714286,411.47767857142856,2247,933.5714285714286,420.47767857142856,2351.7,933.5714285714286,420.47767857142856,2456.8,933.5714285714286,420.47767857142856,2557.6,933.5714285714286,420.47767857142856,2661.2,933.5714285714286,420.47767857142856,2761.6,933.5714285714286,420.47767857142856,2867.1,933.5714285714286,420.47767857142856,2971.8,933.5714285714286,420.47767857142856,3076.9,933.5714285714286,420.47767857142856,3177.1,933.5714285714286,420.47767857142856,3281.6,933.5714285714286,420.47767857142856,3386.7,933.5714285714286,420.47767857142856,3487.1,933.5714285714286,420.47767857142856,3591.6,933.5714285714286,420.47767857142856,3691.8,933.5714285714286,420.47767857142856,3796.7,933.5714285714286,420.47767857142856,3901.5,933.5714285714286,420.47767857142856,4003.6,933.5714285714286,420.47767857142856,4106.3,933.5714285714286,420.47767857142856,4207,933.5714285714286,420.47767857142856,4311.4,933.5714285714286,420.47767857142856,4411.5,933.5714285714286,420.47767857142856,4511.5,933.5714285714286,420.47767857142856,4611.6,933.5714285714286,420.47767857142856,4716.7,933.5714285714286,420.47767857142856,4817,933.5714285714286,420.47767857142856,4921.5]","[1406.2,1406.2,1000,0,406.2,""smooth"",""right"",""right"",""good_move"",5333.5,3927,3491.3,1406.5,435.7,""smooth"",""up"",""up"",""good_move"",8342.3,3008.3,2640.8,5334,367.5,""smooth"",""right"",""right"",""good_move"",11349.9,3007.4,2699.9,8342.5,307.5,""smooth"",""right"",""right"",""good_move"",14989.9,3639.8,3307.1,11350.1,332.7,""smooth"",""up"",""up"",""good_move"",18048.8,3058.7,2740.9,14990.1,317.8,""smooth"",""up"",""up"",""good_move""]","","",""
"2650","","<div style=""width:500px;"">
  <p>What determined the result of this run?</p>
  </div>","89","html-slider-response","43","1560837","0.0-10.0-1.1","190","1","2025-07-02 10:27:02","80fe4187154257d5fb01684ea91b68b9","188.141.30.105","Mozilla/5.0 (Windows NT 10.0; Win64; x64) AppleWebKit/537.36 (KHTML, like Gecko) Chrome/137.0.0.0 Safari/537.36","WebKit","Chrome","137.0.0.0","Windows","10.0","https://app.prolific.com/","en-GB,en-US;q=0.9,en;q=0.8","57ca4b09993b08000192297b","683db6dfa200031b80f2a654","68650773898eb292952d89dc","57ca4b09993b08000192297b","2025-07-02T10:53:04.523Z","","","","","","AttribQ","","","","","","","","","","","","","","","","","","","","","","","","","","","","","","","","","","","","","","50",""
"3823","","<div style=""width:500px;"">
  <p>How much control did you have over the ball?</p>
  </div>","100","html-slider-response","44","1564661","0.0-10.0-2.1","190","1","2025-07-02 10:27:02","80fe4187154257d5fb01684ea91b68b9","188.141.30.105","Mozilla/5.0 (Windows NT 10.0; Win64; x64) AppleWebKit/537.36 (KHTML, like Gecko) Chrome/137.0.0.0 Safari/537.36","WebKit","Chrome","137.0.0.0","Windows","10.0","https://app.prolific.com/","en-GB,en-US;q=0.9,en;q=0.8","57ca4b09993b08000192297b","683db6dfa200031b80f2a654","68650773898eb292952d89dc","57ca4b09993b08000192297b","2025-07-02T10:53:08.347Z","","","","","","ControlQ","","","","","","","","","","","","","","","","","","","","","","","","","","","","","","","","","","","","","","50",""
"3623","","<div style=""width:500px;"">
  <p>How would you describe your current emotional state?</p>
  </div>","27","html-slider-response","45","1568285","0.0-10.0-3.1","190","1","2025-07-02 10:27:02","80fe4187154257d5fb01684ea91b68b9","188.141.30.105","Mozilla/5.0 (Windows NT 10.0; Win64; x64) AppleWebKit/537.36 (KHTML, like Gecko) Chrome/137.0.0.0 Safari/537.36","WebKit","Chrome","137.0.0.0","Windows","10.0","https://app.prolific.com/","en-GB,en-US;q=0.9,en;q=0.8","57ca4b09993b08000192297b","683db6dfa200031b80f2a654","68650773898eb292952d89dc","57ca4b09993b08000192297b","2025-07-02T10:53:11.972Z","","","","","","StressQ","","","","","","","","","","","","","","","","","","","","","","","","","","","","","","","","","","","","","","50",""
"2750","","<div style=""width:500px;"">
  <p>What best describes how you currently feel?</p>
  </div>","95","html-slider-response","46","1571037","0.0-10.0-4.1","190","1","2025-07-02 10:27:02","80fe4187154257d5fb01684ea91b68b9","188.141.30.105","Mozilla/5.0 (Windows NT 10.0; Win64; x64) AppleWebKit/537.36 (KHTML, like Gecko) Chrome/137.0.0.0 Safari/537.36","WebKit","Chrome","137.0.0.0","Windows","10.0","https://app.prolific.com/","en-GB,en-US;q=0.9,en;q=0.8","57ca4b09993b08000192297b","683db6dfa200031b80f2a654","68650773898eb292952d89dc","57ca4b09993b08000192297b","2025-07-02T10:53:14.723Z","","","","","","MotivationQ","","","","","","","","","","","","","","","","","","","","","","","","","","","","","","","","","","","","","","50",""
"","","","","ctl-task-cpt","47","1602483","0.0-10.0-0.2","190","1","2025-07-02 10:27:02","80fe4187154257d5fb01684ea91b68b9","188.141.30.105","Mozilla/5.0 (Windows NT 10.0; Win64; x64) AppleWebKit/537.36 (KHTML, like Gecko) Chrome/137.0.0.0 Safari/537.36","WebKit","Chrome","137.0.0.0","Windows","10.0","https://app.prolific.com/","en-GB,en-US;q=0.9,en;q=0.8","57ca4b09993b08000192297b","683db6dfa200031b80f2a654","68650773898eb292952d89dc","57ca4b09993b08000192297b","2025-07-02T10:53:46.169Z","","","","","","","","","","","","","","","","win-only","3","g1:SW,g2:NE","0.8","3","0","1572896","1409.5","6410.8","28426.1","1","4","8","6","2","8","8","20","12","0.15151515151515152","1165.8","3000","370","[""up"",""right""]","{""num_key_presses"":8,""num_perfect"":6,""num_errors"":0,""num_randdir"":2,""num_randdir_good_moves"":1,""num_whilered"":0,""num_whileblue"":0,""num_blue"":0,""num_good_moves"":7}","[418.57142857142856,413.47767857142856,0.4,418.57142857142856,413.47767857142856,103,418.57142857142856,413.47767857142856,206.2,418.57142857142856,413.47767857142856,306.8,418.57142857142856,413.47767857142856,411.4,418.57142857142856,413.47767857142856,511.6,418.57142857142856,413.47767857142856,616.8,752.5714285714286,142.47767857142856,722.5,855.5714285714286,50.47767857142857,823.1,845.5714285714286,49.47767857142857,926.9,783.5714285714286,61.47767857142857,1031.1,768.5714285714286,67.47767857142857,1131.9,768.5714285714286,67.47767857142857,1237.3,768.5714285714286,67.47767857142857,1341.7,768.5714285714286,67.47767857142857,1445.8,768.5714285714286,67.47767857142857,1546.4,768.5714285714286,67.47767857142857,1652,768.5714285714286,67.47767857142857,1752.6,768.5714285714286,67.47767857142857,1856.9,768.5714285714286,67.47767857142857,1961.6,768.5714285714286,67.47767857142857,2062.4,768.5714285714286,67.47767857142857,2162.5,768.5714285714286,67.47767857142857,2265.8,768.5714285714286,67.47767857142857,2366,768.5714285714286,68.47767857142857,2472.3,768.5714285714286,69.47767857142857,2576.1,765.5714285714286,82.47767857142857,2676.5,726.5714285714286,134.47767857142856,2776.8,704.5714285714286,176.47767857142856,2881.5,701.5714285714286,216.47767857142856,2987.1,646.5714285714286,311.47767857142856,3087.8,653.5714285714286,331.47767857142856,3188,679.5714285714286,381.47767857142856,3292.5,682.5714285714286,384.47767857142856,3392.5,682.5714285714286,384.47767857142856,3496.5,682.5714285714286,384.47767857142856,3601.1,682.5714285714286,384.47767857142856,3701.1,682.5714285714286,384.47767857142856,3802.9,682.5714285714286,384.47767857142856,3905.8,682.5714285714286,384.47767857142856,4007,682.5714285714286,384.47767857142856,4111.1,682.5714285714286,384.47767857142856,4216.1,682.5714285714286,384.47767857142856,4316.1,682.5714285714286,384.47767857142856,4416.8,682.5714285714286,384.47767857142856,4517.2,682.5714285714286,384.47767857142856,4617.6,682.5714285714286,384.47767857142856,4720.9,682.5714285714286,384.47767857142856,4821.1,682.5714285714286,384.47767857142856,4921.7]","[1341.2,1341.2,1000,0,341.2,""smooth"",""right"",""right"",""good_move"",4005.1,2663.6,2358.8,1341.5,304.8,""smooth"",""right"",""right"",""good_move"",7061.6,3056.2,2713.7,4005.4,342.5,""oops"",""right"",""up"",""good_move"",9813.4,2751.3,2392.9,7062.1,358.4,""oops"",""right"",""down"",""bad_move"",12679.2,2865.4,2536.8,9813.8,328.6,""smooth"",""up"",""up"",""good_move"",15519,2839.5,2475.2,12679.5,364.3,""smooth"",""up"",""up"",""good_move"",18253.8,2734.5,2423.7,15519.3,310.8,""smooth"",""right"",""right"",""good_move"",21925.7,3671.6,3343.6,18254.1,328,""smooth"",""up"",""up"",""good_move""]","","",""
"4041","","<div style=""width:500px;"">
  <p>What determined the result of this run?</p>
  </div>","51","html-slider-response","48","1606525","0.0-10.0-1.2","190","1","2025-07-02 10:27:02","80fe4187154257d5fb01684ea91b68b9","188.141.30.105","Mozilla/5.0 (Windows NT 10.0; Win64; x64) AppleWebKit/537.36 (KHTML, like Gecko) Chrome/137.0.0.0 Safari/537.36","WebKit","Chrome","137.0.0.0","Windows","10.0","https://app.prolific.com/","en-GB,en-US;q=0.9,en;q=0.8","57ca4b09993b08000192297b","683db6dfa200031b80f2a654","68650773898eb292952d89dc","57ca4b09993b08000192297b","2025-07-02T10:53:50.211Z","","","","","","AttribQ","","","","","","","","","","","","","","","","","","","","","","","","","","","","","","","","","","","","","","50",""
"3343","","<div style=""width:500px;"">
  <p>How much control did you have over the ball?</p>
  </div>","62","html-slider-response","49","1609868","0.0-10.0-2.2","190","1","2025-07-02 10:27:02","80fe4187154257d5fb01684ea91b68b9","188.141.30.105","Mozilla/5.0 (Windows NT 10.0; Win64; x64) AppleWebKit/537.36 (KHTML, like Gecko) Chrome/137.0.0.0 Safari/537.36","WebKit","Chrome","137.0.0.0","Windows","10.0","https://app.prolific.com/","en-GB,en-US;q=0.9,en;q=0.8","57ca4b09993b08000192297b","683db6dfa200031b80f2a654","68650773898eb292952d89dc","57ca4b09993b08000192297b","2025-07-02T10:53:53.554Z","","","","","","ControlQ","","","","","","","","","","","","","","","","","","","","","","","","","","","","","","","","","","","","","","50",""
"3206","","<div style=""width:500px;"">
  <p>How would you describe your current emotional state?</p>
  </div>","34","html-slider-response","50","1613076","0.0-10.0-3.2","190","1","2025-07-02 10:27:02","80fe4187154257d5fb01684ea91b68b9","188.141.30.105","Mozilla/5.0 (Windows NT 10.0; Win64; x64) AppleWebKit/537.36 (KHTML, like Gecko) Chrome/137.0.0.0 Safari/537.36","WebKit","Chrome","137.0.0.0","Windows","10.0","https://app.prolific.com/","en-GB,en-US;q=0.9,en;q=0.8","57ca4b09993b08000192297b","683db6dfa200031b80f2a654","68650773898eb292952d89dc","57ca4b09993b08000192297b","2025-07-02T10:53:56.762Z","","","","","","StressQ","","","","","","","","","","","","","","","","","","","","","","","","","","","","","","","","","","","","","","50",""
"3431","","<div style=""width:500px;"">
  <p>What best describes how you currently feel?</p>
  </div>","100","html-slider-response","51","1616508","0.0-10.0-4.2","190","1","2025-07-02 10:27:02","80fe4187154257d5fb01684ea91b68b9","188.141.30.105","Mozilla/5.0 (Windows NT 10.0; Win64; x64) AppleWebKit/537.36 (KHTML, like Gecko) Chrome/137.0.0.0 Safari/537.36","WebKit","Chrome","137.0.0.0","Windows","10.0","https://app.prolific.com/","en-GB,en-US;q=0.9,en;q=0.8","57ca4b09993b08000192297b","683db6dfa200031b80f2a654","68650773898eb292952d89dc","57ca4b09993b08000192297b","2025-07-02T10:54:00.194Z","","","","","","MotivationQ","","","","","","","","","","","","","","","","","","","","","","","","","","","","","","","","","","","","","","50",""
"","","","","ctl-task-cpt","52","1644370","0.0-10.0-0.3","190","1","2025-07-02 10:27:02","80fe4187154257d5fb01684ea91b68b9","188.141.30.105","Mozilla/5.0 (Windows NT 10.0; Win64; x64) AppleWebKit/537.36 (KHTML, like Gecko) Chrome/137.0.0.0 Safari/537.36","WebKit","Chrome","137.0.0.0","Windows","10.0","https://app.prolific.com/","en-GB,en-US;q=0.9,en;q=0.8","57ca4b09993b08000192297b","683db6dfa200031b80f2a654","68650773898eb292952d89dc","57ca4b09993b08000192297b","2025-07-02T10:54:28.056Z","","","","","","","","","","","","","","","","win-only","2","g1:SE,g2:NW","0.7","4","0","1618367.9","3523.6","8525.2","24835.4","1","4","4","6","2","4","2","22","20","0.16666666666666666","1199.9","3000","1495","[""left"",""up""]","{""num_key_presses"":6,""num_perfect"":4,""num_errors"":2,""num_randdir"":0,""num_randdir_good_moves"":0,""num_whilered"":0,""num_whileblue"":2,""num_blue"":2,""num_good_moves"":6}","[412.57142857142856,413.47767857142856,0.3,412.57142857142856,413.47767857142856,102.3,412.57142857142856,413.47767857142856,207.4,412.57142857142856,413.47767857142856,311.7,412.57142857142856,413.47767857142856,411.7,412.57142857142856,413.47767857142856,512.5,400.57142857142856,372.47767857142856,619,-4.428571428571431,-10.52232142857143,719.4,-2.4285714285714306,-23.52232142857143,822.2,30.57142857142857,-2.5223214285714306,927.7,89.57142857142857,63.47767857142857,1028.1,88.57142857142857,74.47767857142857,1135.2,87.57142857142857,74.47767857142857,1235.3,87.57142857142857,74.47767857142857,1335.5,87.57142857142857,74.47767857142857,1437.3,87.57142857142857,74.47767857142857,1541.7,87.57142857142857,74.47767857142857,1642.1,87.57142857142857,74.47767857142857,1742.5,87.57142857142857,74.47767857142857,1851.3,87.57142857142857,74.47767857142857,1951.4,87.57142857142857,74.47767857142857,2051.4,87.57142857142857,74.47767857142857,2151.6,87.57142857142857,74.47767857142857,2251.8,87.57142857142857,74.47767857142857,2357.2,87.57142857142857,74.47767857142857,2457.3,87.57142857142857,74.47767857142857,2557.4,87.57142857142857,74.47767857142857,2658.5,87.57142857142857,74.47767857142857,2758.6,87.57142857142857,74.47767857142857,2862.3,87.57142857142857,74.47767857142857,2963,87.57142857142857,74.47767857142857,3069,87.57142857142857,74.47767857142857,3171.9,87.57142857142857,74.47767857142857,3271.9,87.57142857142857,74.47767857142857,3376.7,87.57142857142857,74.47767857142857,3477.6,87.57142857142857,74.47767857142857,3585.1,159.57142857142856,232.47767857142856,3685.5,211.57142857142856,299.47767857142856,3787.3,251.57142857142856,295.47767857142856,3887.4,240.57142857142856,284.47767857142856,3987.6,240.57142857142856,284.47767857142856,4092.3,237.57142857142856,284.47767857142856,4201.5,236.57142857142856,284.47767857142856,4302,235.57142857142856,284.47767857142856,4402.1,235.57142857142856,284.47767857142856,4507.5,235.57142857142856,284.47767857142856,4618.4,235.57142857142856,284.47767857142856,4718.5,235.57142857142856,284.47767857142856,4822.5,235.57142857142856,284.47767857142856,4928.2]","[1387.3,1387.3,1000,0,387.4,""smooth"",""up"",""up"",""good_move"",4099.2,2711.5,2372.4,1387.7,339.1,""while_blue"",""left"",""up"",""good_move"",8107.4,4007.9,3452.4,4099.5,555.5,""smooth"",""left"",""left"",""good_move"",11198.7,3090.8,2660.3,8107.9,430.5,""smooth"",""left"",""left"",""good_move"",14034.8,2835.8,2513.5,11199,322.3,""smooth"",""up"",""up"",""good_move"",16215.7,2180.7,1770.5,14035.1,410.1,""while_blue"",""left"",""left"",""good_move""]","","",""
"3113","","<div style=""width:500px;"">
  <p>What determined the result of this run?</p>
  </div>","84","html-slider-response","53","1647484","0.0-10.0-1.3","190","1","2025-07-02 10:27:02","80fe4187154257d5fb01684ea91b68b9","188.141.30.105","Mozilla/5.0 (Windows NT 10.0; Win64; x64) AppleWebKit/537.36 (KHTML, like Gecko) Chrome/137.0.0.0 Safari/537.36","WebKit","Chrome","137.0.0.0","Windows","10.0","https://app.prolific.com/","en-GB,en-US;q=0.9,en;q=0.8","57ca4b09993b08000192297b","683db6dfa200031b80f2a654","68650773898eb292952d89dc","57ca4b09993b08000192297b","2025-07-02T10:54:31.170Z","","","","","","AttribQ","","","","","","","","","","","","","","","","","","","","","","","","","","","","","","","","","","","","","","50",""
"4383","","<div style=""width:500px;"">
  <p>How much control did you have over the ball?</p>
  </div>","88","html-slider-response","54","1651868","0.0-10.0-2.3","190","1","2025-07-02 10:27:02","80fe4187154257d5fb01684ea91b68b9","188.141.30.105","Mozilla/5.0 (Windows NT 10.0; Win64; x64) AppleWebKit/537.36 (KHTML, like Gecko) Chrome/137.0.0.0 Safari/537.36","WebKit","Chrome","137.0.0.0","Windows","10.0","https://app.prolific.com/","en-GB,en-US;q=0.9,en;q=0.8","57ca4b09993b08000192297b","683db6dfa200031b80f2a654","68650773898eb292952d89dc","57ca4b09993b08000192297b","2025-07-02T10:54:35.554Z","","","","","","ControlQ","","","","","","","","","","","","","","","","","","","","","","","","","","","","","","","","","","","","","","50",""
"3527","","<div style=""width:500px;"">
  <p>How would you describe your current emotional state?</p>
  </div>","37","html-slider-response","55","1655396","0.0-10.0-3.3","190","1","2025-07-02 10:27:02","80fe4187154257d5fb01684ea91b68b9","188.141.30.105","Mozilla/5.0 (Windows NT 10.0; Win64; x64) AppleWebKit/537.36 (KHTML, like Gecko) Chrome/137.0.0.0 Safari/537.36","WebKit","Chrome","137.0.0.0","Windows","10.0","https://app.prolific.com/","en-GB,en-US;q=0.9,en;q=0.8","57ca4b09993b08000192297b","683db6dfa200031b80f2a654","68650773898eb292952d89dc","57ca4b09993b08000192297b","2025-07-02T10:54:39.082Z","","","","","","StressQ","","","","","","","","","","","","","","","","","","","","","","","","","","","","","","","","","","","","","","50",""
"3103","","<div style=""width:500px;"">
  <p>What best describes how you currently feel?</p>
  </div>","100","html-slider-response","56","1658500","0.0-10.0-4.3","190","1","2025-07-02 10:27:02","80fe4187154257d5fb01684ea91b68b9","188.141.30.105","Mozilla/5.0 (Windows NT 10.0; Win64; x64) AppleWebKit/537.36 (KHTML, like Gecko) Chrome/137.0.0.0 Safari/537.36","WebKit","Chrome","137.0.0.0","Windows","10.0","https://app.prolific.com/","en-GB,en-US;q=0.9,en;q=0.8","57ca4b09993b08000192297b","683db6dfa200031b80f2a654","68650773898eb292952d89dc","57ca4b09993b08000192297b","2025-07-02T10:54:42.186Z","","","","","","MotivationQ","","","","","","","","","","","","","","","","","","","","","","","","","","","","","","","","","","","","","","50",""
"","","","","ctl-task-cpt","57","1684732","0.0-10.0-0.4","190","1","2025-07-02 10:27:02","80fe4187154257d5fb01684ea91b68b9","188.141.30.105","Mozilla/5.0 (Windows NT 10.0; Win64; x64) AppleWebKit/537.36 (KHTML, like Gecko) Chrome/137.0.0.0 Safari/537.36","WebKit","Chrome","137.0.0.0","Windows","10.0","https://app.prolific.com/","en-GB,en-US;q=0.9,en;q=0.8","57ca4b09993b08000192297b","683db6dfa200031b80f2a654","68650773898eb292952d89dc","57ca4b09993b08000192297b","2025-07-02T10:55:08.418Z","","","","","","","","","","","","","","","","win-only","3","g1:SW,g2:NE","0.6","5","0","1660360.1","2125.7","7130.6","23210.9","1","4","8","6","2","8","8","30","22","0.22727272727272727","1136.1","3000","725","[""up"",""right""]","{""num_key_presses"":6,""num_perfect"":4,""num_errors"":0,""num_randdir"":2,""num_randdir_good_moves"":2,""num_whilered"":0,""num_whileblue"":0,""num_blue"":0,""num_good_moves"":6}","[409.57142857142856,414.47767857142856,0.3,409.57142857142856,414.47767857142856,103.4,409.57142857142856,414.47767857142856,207,409.57142857142856,414.47767857142856,309.6,511.57142857142856,328.47767857142856,410.4,612.5714285714286,135.47767857142856,515.1,623.5714285714286,132.47767857142856,621.7,648.5714285714286,142.47767857142856,725.2,682.5714285714286,112.47767857142857,830.3,776.5714285714286,63.47767857142857,936.9,767.5714285714286,73.47767857142857,1040.3,769.5714285714286,77.47767857142857,1145,769.5714285714286,77.47767857142857,1245.1,769.5714285714286,77.47767857142857,1350.3,769.5714285714286,77.47767857142857,1454.8,769.5714285714286,77.47767857142857,1559.5,769.5714285714286,77.47767857142857,1659.6,769.5714285714286,77.47767857142857,1759.8,768.5714285714286,83.47767857142857,1860.4,761.5714285714286,91.47767857142857,1965.4,761.5714285714286,92.47767857142857,2071.1,761.5714285714286,92.47767857142857,2173.2,761.5714285714286,92.47767857142857,2275.2,761.5714285714286,92.47767857142857,2375.3,761.5714285714286,92.47767857142857,2477.1,761.5714285714286,93.47767857142857,2579.8,761.5714285714286,93.47767857142857,2684.5,761.5714285714286,93.47767857142857,2785.9,761.5714285714286,93.47767857142857,2889.7,761.5714285714286,93.47767857142857,2989.9,761.5714285714286,93.47767857142857,3090.5,761.5714285714286,93.47767857142857,3194.8,761.5714285714286,93.47767857142857,3294.8,761.5714285714286,93.47767857142857,3395.1,761.5714285714286,93.47767857142857,3500,761.5714285714286,93.47767857142857,3600.7,761.5714285714286,93.47767857142857,3705.2,761.5714285714286,93.47767857142857,3809.9,761.5714285714286,93.47767857142857,3910.3,761.5714285714286,93.47767857142857,4014.7,761.5714285714286,93.47767857142857,4114.7,761.5714285714286,93.47767857142857,4219.9,761.5714285714286,93.47767857142857,4322.2,757.5714285714286,135.47767857142856,4425.5,764.5714285714286,154.47767857142856,4530.1,824.5714285714286,263.47767857142856,4630.4,838.5714285714286,280.47767857142856,4738,927.5714285714286,281.47767857142856,4840.2,956.5714285714286,285.47767857142856,4940.4]","[1357.2,1357.2,1000,0,357.2,""smooth"",""right"",""right"",""good_move"",4773.7,3416.2,2978.2,1357.5,438,""smooth"",""right"",""right"",""good_move"",7917.2,3143.3,2733.3,4773.9,410,""smooth"",""right"",""right"",""good_move"",10805.2,2887.8,2554.6,7917.4,333.2,""oops"",""up"",""up"",""good_move"",13845.2,3039.7,2660.4,10805.5,379.3,""smooth"",""up"",""up"",""good_move"",15989.6,2144.2,1752.5,13845.5,391.7,""oops"",""up"",""up"",""good_move""]","","",""
"3174","","<div style=""width:500px;"">
  <p>What determined the result of this run?</p>
  </div>","76","html-slider-response","58","1687907","0.0-10.0-1.4","190","1","2025-07-02 10:27:02","80fe4187154257d5fb01684ea91b68b9","188.141.30.105","Mozilla/5.0 (Windows NT 10.0; Win64; x64) AppleWebKit/537.36 (KHTML, like Gecko) Chrome/137.0.0.0 Safari/537.36","WebKit","Chrome","137.0.0.0","Windows","10.0","https://app.prolific.com/","en-GB,en-US;q=0.9,en;q=0.8","57ca4b09993b08000192297b","683db6dfa200031b80f2a654","68650773898eb292952d89dc","57ca4b09993b08000192297b","2025-07-02T10:55:11.593Z","","","","","","AttribQ","","","","","","","","","","","","","","","","","","","","","","","","","","","","","","","","","","","","","","50",""
"2647","","<div style=""width:500px;"">
  <p>How much control did you have over the ball?</p>
  </div>","78","html-slider-response","59","1690556","0.0-10.0-2.4","190","1","2025-07-02 10:27:02","80fe4187154257d5fb01684ea91b68b9","188.141.30.105","Mozilla/5.0 (Windows NT 10.0; Win64; x64) AppleWebKit/537.36 (KHTML, like Gecko) Chrome/137.0.0.0 Safari/537.36","WebKit","Chrome","137.0.0.0","Windows","10.0","https://app.prolific.com/","en-GB,en-US;q=0.9,en;q=0.8","57ca4b09993b08000192297b","683db6dfa200031b80f2a654","68650773898eb292952d89dc","57ca4b09993b08000192297b","2025-07-02T10:55:14.242Z","","","","","","ControlQ","","","","","","","","","","","","","","","","","","","","","","","","","","","","","","","","","","","","","","50",""
"3831","","<div style=""width:500px;"">
  <p>How would you describe your current emotional state?</p>
  </div>","41","html-slider-response","60","1694387","0.0-10.0-3.4","190","1","2025-07-02 10:27:02","80fe4187154257d5fb01684ea91b68b9","188.141.30.105","Mozilla/5.0 (Windows NT 10.0; Win64; x64) AppleWebKit/537.36 (KHTML, like Gecko) Chrome/137.0.0.0 Safari/537.36","WebKit","Chrome","137.0.0.0","Windows","10.0","https://app.prolific.com/","en-GB,en-US;q=0.9,en;q=0.8","57ca4b09993b08000192297b","683db6dfa200031b80f2a654","68650773898eb292952d89dc","57ca4b09993b08000192297b","2025-07-02T10:55:18.073Z","","","","","","StressQ","","","","","","","","","","","","","","","","","","","","","","","","","","","","","","","","","","","","","","50",""
"3086","","<div style=""width:500px;"">
  <p>What best describes how you currently feel?</p>
  </div>","100","html-slider-response","61","1697475","0.0-10.0-4.4","190","1","2025-07-02 10:27:02","80fe4187154257d5fb01684ea91b68b9","188.141.30.105","Mozilla/5.0 (Windows NT 10.0; Win64; x64) AppleWebKit/537.36 (KHTML, like Gecko) Chrome/137.0.0.0 Safari/537.36","WebKit","Chrome","137.0.0.0","Windows","10.0","https://app.prolific.com/","en-GB,en-US;q=0.9,en;q=0.8","57ca4b09993b08000192297b","683db6dfa200031b80f2a654","68650773898eb292952d89dc","57ca4b09993b08000192297b","2025-07-02T10:55:21.161Z","","","","","","MotivationQ","","","","","","","","","","","","","","","","","","","","","","","","","","","","","","","","","","","","","","50",""
"","","","","ctl-task-cpt","62","1734910","0.0-10.0-0.5","190","1","2025-07-02 10:27:02","80fe4187154257d5fb01684ea91b68b9","188.141.30.105","Mozilla/5.0 (Windows NT 10.0; Win64; x64) AppleWebKit/537.36 (KHTML, like Gecko) Chrome/137.0.0.0 Safari/537.36","WebKit","Chrome","137.0.0.0","Windows","10.0","https://app.prolific.com/","en-GB,en-US;q=0.9,en;q=0.8","57ca4b09993b08000192297b","683db6dfa200031b80f2a654","68650773898eb292952d89dc","57ca4b09993b08000192297b","2025-07-02T10:55:58.596Z","","","","","","","","","","","","","","","","win-only","3","g1:SW,g2:NE","0.5","6","0","1699335.6","1722.6","6725.3","34430.2","1","4","4","6","2","-4","-4","26","30","0.19696969696969696","1201","3000","-2685","[""up"",""right""]","{""num_key_presses"":8,""num_perfect"":5,""num_errors"":0,""num_randdir"":3,""num_randdir_good_moves"":0,""num_whilered"":0,""num_whileblue"":0,""num_blue"":1,""num_good_moves"":5}","[420.57142857142856,416.47767857142856,0.2,420.57142857142856,416.47767857142856,102,420.57142857142856,416.47767857142856,202.6,420.57142857142856,416.47767857142856,303,420.57142857142856,416.47767857142856,405.9,469.57142857142856,345.47767857142856,508.1,630.5714285714286,103.47767857142857,609.2,651.5714285714286,53.47767857142857,713.1,651.5714285714286,53.47767857142857,818.4,694.5714285714286,82.47767857142857,921.5,730.5714285714286,74.47767857142857,1023.3,757.5714285714286,74.47767857142857,1123.3,757.5714285714286,74.47767857142857,1223.3,757.5714285714286,74.47767857142857,1328.2,757.5714285714286,74.47767857142857,1428.5,757.5714285714286,74.47767857142857,1536.1,757.5714285714286,74.47767857142857,1637.7,757.5714285714286,74.47767857142857,1738.2,757.5714285714286,74.47767857142857,1838.3,757.5714285714286,74.47767857142857,1942.5,757.5714285714286,74.47767857142857,2043.1,757.5714285714286,74.47767857142857,2143.1,757.5714285714286,74.47767857142857,2243.1,757.5714285714286,74.47767857142857,2343.3,757.5714285714286,74.47767857142857,2452.6,757.5714285714286,74.47767857142857,2558.3,757.5714285714286,74.47767857142857,2662.9,757.5714285714286,74.47767857142857,2763.1,757.5714285714286,74.47767857142857,2869.1,887.5714285714286,75.47767857142857,2969.7,935.5714285714286,75.47767857142857,3072.8,935.5714285714286,75.47767857142857,3173.4,935.5714285714286,75.47767857142857,3278.3,935.5714285714286,75.47767857142857,3378.9,935.5714285714286,75.47767857142857,3479.2,935.5714285714286,75.47767857142857,3584.4,935.5714285714286,75.47767857142857,3685.4,935.5714285714286,75.47767857142857,3786.2,935.5714285714286,75.47767857142857,3887.7,935.5714285714286,75.47767857142857,3988.4,935.5714285714286,75.47767857142857,4093,935.5714285714286,75.47767857142857,4193.3,935.5714285714286,75.47767857142857,4302.5,935.5714285714286,75.47767857142857,4403.4,935.5714285714286,75.47767857142857,4508.1,935.5714285714286,75.47767857142857,4608.5,935.5714285714286,75.47767857142857,4712.8,935.5714285714286,75.47767857142857,4813,935.5714285714286,75.47767857142857,4913]","[1435.5,1435.5,1000,0,435.5,""smooth"",""right"",""right"",""good_move"",3980.9,2544.9,2193.6,1436,351.3,""smooth"",""right"",""right"",""good_move"",7147.7,3166.5,2793.6,3981.2,372.9,""smooth"",""right"",""right"",""good_move"",9830.3,2682.3,2335.2,7148,347.1,""oops"",""up"",""down"",""bad_move"",16014.7,6184,2396.4,13283.6,334.7,""smooth"",""up"",""up"",""good_move"",18597.5,2582.3,2126.5,16015.2,455.8,""smooth"",""up"",""up"",""good_move"",22464.6,3866.8,3439,18597.8,427.8,""oops"",""up"",""down"",""bad_move"",25139,2674.2,2301.6,22464.8,372.6,""oops"",""up"",""down"",""bad_move""]","","",""
"3036","","<div style=""width:500px;"">
  <p>What determined the result of this run?</p>
  </div>","26","html-slider-response","63","1737946","0.0-10.0-1.5","190","1","2025-07-02 10:27:02","80fe4187154257d5fb01684ea91b68b9","188.141.30.105","Mozilla/5.0 (Windows NT 10.0; Win64; x64) AppleWebKit/537.36 (KHTML, like Gecko) Chrome/137.0.0.0 Safari/537.36","WebKit","Chrome","137.0.0.0","Windows","10.0","https://app.prolific.com/","en-GB,en-US;q=0.9,en;q=0.8","57ca4b09993b08000192297b","683db6dfa200031b80f2a654","68650773898eb292952d89dc","57ca4b09993b08000192297b","2025-07-02T10:56:01.633Z","","","","","","AttribQ","","","","","","","","","","","","","","","","","","","","","","","","","","","","","","","","","","","","","","50",""
"3567","","<div style=""width:500px;"">
  <p>How much control did you have over the ball?</p>
  </div>","21","html-slider-response","64","1741514","0.0-10.0-2.5","190","1","2025-07-02 10:27:02","80fe4187154257d5fb01684ea91b68b9","188.141.30.105","Mozilla/5.0 (Windows NT 10.0; Win64; x64) AppleWebKit/537.36 (KHTML, like Gecko) Chrome/137.0.0.0 Safari/537.36","WebKit","Chrome","137.0.0.0","Windows","10.0","https://app.prolific.com/","en-GB,en-US;q=0.9,en;q=0.8","57ca4b09993b08000192297b","683db6dfa200031b80f2a654","68650773898eb292952d89dc","57ca4b09993b08000192297b","2025-07-02T10:56:05.200Z","","","","","","ControlQ","","","","","","","","","","","","","","","","","","","","","","","","","","","","","","","","","","","","","","50",""
"3047","","<div style=""width:500px;"">
  <p>How would you describe your current emotional state?</p>
  </div>","26","html-slider-response","65","1744563","0.0-10.0-3.5","190","1","2025-07-02 10:27:02","80fe4187154257d5fb01684ea91b68b9","188.141.30.105","Mozilla/5.0 (Windows NT 10.0; Win64; x64) AppleWebKit/537.36 (KHTML, like Gecko) Chrome/137.0.0.0 Safari/537.36","WebKit","Chrome","137.0.0.0","Windows","10.0","https://app.prolific.com/","en-GB,en-US;q=0.9,en;q=0.8","57ca4b09993b08000192297b","683db6dfa200031b80f2a654","68650773898eb292952d89dc","57ca4b09993b08000192297b","2025-07-02T10:56:08.249Z","","","","","","StressQ","","","","","","","","","","","","","","","","","","","","","","","","","","","","","","","","","","","","","","50",""
"2575","","<div style=""width:500px;"">
  <p>What best describes how you currently feel?</p>
  </div>","100","html-slider-response","66","1747138","0.0-10.0-4.5","190","1","2025-07-02 10:27:02","80fe4187154257d5fb01684ea91b68b9","188.141.30.105","Mozilla/5.0 (Windows NT 10.0; Win64; x64) AppleWebKit/537.36 (KHTML, like Gecko) Chrome/137.0.0.0 Safari/537.36","WebKit","Chrome","137.0.0.0","Windows","10.0","https://app.prolific.com/","en-GB,en-US;q=0.9,en;q=0.8","57ca4b09993b08000192297b","683db6dfa200031b80f2a654","68650773898eb292952d89dc","57ca4b09993b08000192297b","2025-07-02T10:56:10.825Z","","","","","","MotivationQ","","","","","","","","","","","","","","","","","","","","","","","","","","","","","","","","","","","","","","50",""
"","","","","ctl-task-cpt","67","1785307","0.0-10.0-0.6","190","1","2025-07-02 10:27:02","80fe4187154257d5fb01684ea91b68b9","188.141.30.105","Mozilla/5.0 (Windows NT 10.0; Win64; x64) AppleWebKit/537.36 (KHTML, like Gecko) Chrome/137.0.0.0 Safari/537.36","WebKit","Chrome","137.0.0.0","Windows","10.0","https://app.prolific.com/","en-GB,en-US;q=0.9,en;q=0.8","57ca4b09993b08000192297b","683db6dfa200031b80f2a654","68650773898eb292952d89dc","57ca4b09993b08000192297b","2025-07-02T10:56:48.993Z","","","","","","","","","","","","","","","","win-only","1","g1:NE,g2:SW","0.4","7","0","1748999.9","2687.8","7691","35141.7","1","4","4","6","2","-4","-5","21","26","0.1590909090909091","974.1","3000","-2330","[""down"",""left""]","{""num_key_presses"":8,""num_perfect"":2,""num_errors"":1,""num_randdir"":5,""num_randdir_good_moves"":2,""num_whilered"":0,""num_whileblue"":1,""num_blue"":2,""num_good_moves"":4}","[418.57142857142856,416.47767857142856,0.2,418.57142857142856,416.47767857142856,105.3,418.57142857142856,416.47767857142856,207.6,418.57142857142856,416.47767857142856,314.4,418.57142857142856,416.47767857142856,417.5,347.57142857142856,476.47767857142856,518.1,70.57142857142857,660.4776785714286,623.2,53.57142857142857,746.4776785714286,723.3,50.57142857142857,766.4776785714286,827.5,57.57142857142857,766.4776785714286,927.6,57.57142857142857,766.4776785714286,1027.6,57.57142857142857,766.4776785714286,1127.8,57.57142857142857,766.4776785714286,1228,57.57142857142857,766.4776785714286,1333.3,41.57142857142857,745.4776785714286,1437.6,33.57142857142857,751.4776785714286,1540.6,32.57142857142857,751.4776785714286,1641,32.57142857142857,751.4776785714286,1742.5,32.57142857142857,751.4776785714286,1843.2,32.57142857142857,751.4776785714286,1947.5,32.57142857142857,751.4776785714286,2048,32.57142857142857,751.4776785714286,2152.7,32.57142857142857,751.4776785714286,2253.3,32.57142857142857,751.4776785714286,2358,32.57142857142857,751.4776785714286,2463.1,32.57142857142857,751.4776785714286,2563.1,32.57142857142857,751.4776785714286,2663.4,32.57142857142857,751.4776785714286,2763.7,32.57142857142857,751.4776785714286,2867.9,32.57142857142857,751.4776785714286,2973.5,32.57142857142857,751.4776785714286,3073.6,32.57142857142857,751.4776785714286,3173.7,32.57142857142857,751.4776785714286,3277.8,32.57142857142857,751.4776785714286,3378.2,32.57142857142857,751.4776785714286,3482.4,32.57142857142857,751.4776785714286,3582.4,32.57142857142857,751.4776785714286,3683,32.57142857142857,751.4776785714286,3787.9,32.57142857142857,751.4776785714286,3890.3,32.57142857142857,751.4776785714286,3993.1,32.57142857142857,751.4776785714286,4098.2,32.57142857142857,751.4776785714286,4202.7,32.57142857142857,751.4776785714286,4307.6,32.57142857142857,751.4776785714286,4412.5,32.57142857142857,751.4776785714286,4512.7,32.57142857142857,751.4776785714286,4613.1,32.57142857142857,751.4776785714286,4717.8,32.57142857142857,751.4776785714286,4820.6,32.57142857142857,751.4776785714286,4925.1]","[1373.3,1373.3,1000,0,373.3,""oops"",""down"",""left"",""good_move"",3909.1,2535.5,2165.2,1373.6,370.3,""oops"",""down"",""left"",""good_move"",6356.8,2447.3,2023.3,3909.5,424,""oops"",""left"",""up"",""bad_move"",12797.3,6440.1,2304.6,10080.4,412.3,""oops"",""down"",""up"",""bad_move"",15341.1,2543.5,2146.8,12797.6,396.7,""oops"",""left"",""right"",""bad_move"",18017.4,2675.8,2220.1,15341.6,455.7,""smooth"",""down"",""down"",""good_move"",20653.4,2635.7,2254.7,18017.8,381,""smooth"",""down"",""down"",""good_move"",24405.5,3751.9,3390.6,20653.6,361.3,""while_blue"",""down"",""right"",""bad_move""]","","",""
"3677","","<div style=""width:500px;"">
  <p>What determined the result of this run?</p>
  </div>","9","html-slider-response","68","1788984","0.0-10.0-1.6","190","1","2025-07-02 10:27:02","80fe4187154257d5fb01684ea91b68b9","188.141.30.105","Mozilla/5.0 (Windows NT 10.0; Win64; x64) AppleWebKit/537.36 (KHTML, like Gecko) Chrome/137.0.0.0 Safari/537.36","WebKit","Chrome","137.0.0.0","Windows","10.0","https://app.prolific.com/","en-GB,en-US;q=0.9,en;q=0.8","57ca4b09993b08000192297b","683db6dfa200031b80f2a654","68650773898eb292952d89dc","57ca4b09993b08000192297b","2025-07-02T10:56:52.671Z","","","","","","AttribQ","","","","","","","","","","","","","","","","","","","","","","","","","","","","","","","","","","","","","","50",""
"4071","","<div style=""width:500px;"">
  <p>How much control did you have over the ball?</p>
  </div>","13","html-slider-response","69","1793058","0.0-10.0-2.6","190","1","2025-07-02 10:27:02","80fe4187154257d5fb01684ea91b68b9","188.141.30.105","Mozilla/5.0 (Windows NT 10.0; Win64; x64) AppleWebKit/537.36 (KHTML, like Gecko) Chrome/137.0.0.0 Safari/537.36","WebKit","Chrome","137.0.0.0","Windows","10.0","https://app.prolific.com/","en-GB,en-US;q=0.9,en;q=0.8","57ca4b09993b08000192297b","683db6dfa200031b80f2a654","68650773898eb292952d89dc","57ca4b09993b08000192297b","2025-07-02T10:56:56.744Z","","","","","","ControlQ","","","","","","","","","","","","","","","","","","","","","","","","","","","","","","","","","","","","","","50",""
"2654","","<div style=""width:500px;"">
  <p>How would you describe your current emotional state?</p>
  </div>","31","html-slider-response","70","1795714","0.0-10.0-3.6","190","1","2025-07-02 10:27:02","80fe4187154257d5fb01684ea91b68b9","188.141.30.105","Mozilla/5.0 (Windows NT 10.0; Win64; x64) AppleWebKit/537.36 (KHTML, like Gecko) Chrome/137.0.0.0 Safari/537.36","WebKit","Chrome","137.0.0.0","Windows","10.0","https://app.prolific.com/","en-GB,en-US;q=0.9,en;q=0.8","57ca4b09993b08000192297b","683db6dfa200031b80f2a654","68650773898eb292952d89dc","57ca4b09993b08000192297b","2025-07-02T10:56:59.400Z","","","","","","StressQ","","","","","","","","","","","","","","","","","","","","","","","","","","","","","","","","","","","","","","50",""
"2701","","<div style=""width:500px;"">
  <p>What best describes how you currently feel?</p>
  </div>","100","html-slider-response","71","1798417","0.0-10.0-4.6","190","1","2025-07-02 10:27:02","80fe4187154257d5fb01684ea91b68b9","188.141.30.105","Mozilla/5.0 (Windows NT 10.0; Win64; x64) AppleWebKit/537.36 (KHTML, like Gecko) Chrome/137.0.0.0 Safari/537.36","WebKit","Chrome","137.0.0.0","Windows","10.0","https://app.prolific.com/","en-GB,en-US;q=0.9,en;q=0.8","57ca4b09993b08000192297b","683db6dfa200031b80f2a654","68650773898eb292952d89dc","57ca4b09993b08000192297b","2025-07-02T10:57:02.103Z","","","","","","MotivationQ","","","","","","","","","","","","","","","","","","","","","","","","","","","","","","","","","","","","","","50",""
"","","","","ctl-task-cpt","72","1842869","0.0-10.0-0.7","190","1","2025-07-02 10:27:02","80fe4187154257d5fb01684ea91b68b9","188.141.30.105","Mozilla/5.0 (Windows NT 10.0; Win64; x64) AppleWebKit/537.36 (KHTML, like Gecko) Chrome/137.0.0.0 Safari/537.36","WebKit","Chrome","137.0.0.0","Windows","10.0","https://app.prolific.com/","en-GB,en-US;q=0.9,en;q=0.8","57ca4b09993b08000192297b","683db6dfa200031b80f2a654","68650773898eb292952d89dc","57ca4b09993b08000192297b","2025-07-02T10:57:46.555Z","","","","","","","","","","","","","","","","win-only","2","g1:SE,g2:NW","0.3","8","0","1800281.2","1268.7","6273","41436.5","1","4","8","6","2","-8","-9","12","21","0.09090909090909091","1125.3","3000","-2580","[""left"",""up""]","{""num_key_presses"":11,""num_perfect"":3,""num_errors"":1,""num_randdir"":7,""num_randdir_good_moves"":1,""num_whilered"":0,""num_whileblue"":0,""num_blue"":1,""num_good_moves"":4}","[414.57142857142856,415.47767857142856,0.1,414.57142857142856,415.47767857142856,101.9,414.57142857142856,415.47767857142856,202.1,414.57142857142856,415.47767857142856,302.4,414.57142857142856,415.47767857142856,412.4,375.57142857142856,390.47767857142856,518.6,184.57142857142856,73.47767857142857,622.2,184.57142857142856,72.47767857142857,729.7,146.57142857142856,94.47767857142857,829.7,126.57142857142857,97.47767857142857,929.7,112.57142857142857,90.47767857142857,1032.1,80.57142857142857,89.47767857142857,1137.7,80.57142857142857,89.47767857142857,1245,80.57142857142857,89.47767857142857,1345.8,80.57142857142857,89.47767857142857,1448.1,111.57142857142857,117.47767857142857,1549.5,115.57142857142857,128.47767857142856,1652.4,115.57142857142857,128.47767857142856,1753.6,115.57142857142857,128.47767857142856,1858,115.57142857142857,128.47767857142856,1958,115.57142857142857,128.47767857142856,2062.5,115.57142857142857,128.47767857142856,2168.1,115.57142857142857,128.47767857142856,2280.3,115.57142857142857,128.47767857142856,2383.6,115.57142857142857,128.47767857142856,2487.8,115.57142857142857,128.47767857142856,2592.5,115.57142857142857,128.47767857142856,2696.2,115.57142857142857,128.47767857142856,2798.2,115.57142857142857,128.47767857142856,2902.2,115.57142857142857,128.47767857142856,3002.8,115.57142857142857,128.47767857142856,3102.9,115.57142857142857,128.47767857142856,3213.9,115.57142857142857,128.47767857142856,3317,115.57142857142857,128.47767857142856,3417.5,115.57142857142857,128.47767857142856,3518.2,115.57142857142857,128.47767857142856,3622.1,115.57142857142857,128.47767857142856,3729.5,115.57142857142857,128.47767857142856,3829.5,115.57142857142857,128.47767857142856,3932.5,115.57142857142857,128.47767857142856,4034,115.57142857142857,128.47767857142856,4137.4,115.57142857142857,128.47767857142856,4240.7,115.57142857142857,128.47767857142856,4344.7,115.57142857142857,128.47767857142856,4447,115.57142857142857,128.47767857142856,4547.4,115.57142857142857,128.47767857142856,4648.8,115.57142857142857,128.47767857142856,4753.5,115.57142857142857,128.47767857142856,4853.7,115.57142857142857,128.47767857142856,4956]","[1422.1,1422.1,1000,0,422.1,""smooth"",""up"",""up"",""good_move"",3885.6,2463.1,2089.5,1422.5,373.6,""smooth"",""left"",""left"",""good_move"",6943.4,3057.5,2652.3,3885.9,405.2,""oops"",""left"",""down"",""bad_move"",9037.8,2094.1,1708.9,6943.7,385.2,""smooth"",""up"",""up"",""good_move"",12022.2,2984,2634.1,9038.2,349.9,""oops"",""left"",""down"",""bad_move"",14918.5,2896,2500.7,12022.5,395.3,""oops"",""left"",""down"",""bad_move"",22006.3,7087.6,2955.9,18648,402.4,""oops"",""up"",""down"",""bad_move"",22261.8,255.3,2944.5,22006.5,-2689.2,""error"",""-"",""-"",""no_move"",26213.5,3951.5,2541.5,23264.6,407.4,""oops"",""left"",""right"",""bad_move"",29125.5,2911.7,2249,26213.8,662.7,""oops"",""up"",""up"",""good_move"",31797.9,2672.1,2274.3,29125.8,397.8,""oops"",""up"",""down"",""bad_move""]","","",""
"2595","","<div style=""width:500px;"">
  <p>What determined the result of this run?</p>
  </div>","6","html-slider-response","73","1845465","0.0-10.0-1.7","190","1","2025-07-02 10:27:02","80fe4187154257d5fb01684ea91b68b9","188.141.30.105","Mozilla/5.0 (Windows NT 10.0; Win64; x64) AppleWebKit/537.36 (KHTML, like Gecko) Chrome/137.0.0.0 Safari/537.36","WebKit","Chrome","137.0.0.0","Windows","10.0","https://app.prolific.com/","en-GB,en-US;q=0.9,en;q=0.8","57ca4b09993b08000192297b","683db6dfa200031b80f2a654","68650773898eb292952d89dc","57ca4b09993b08000192297b","2025-07-02T10:57:49.151Z","","","","","","AttribQ","","","","","","","","","","","","","","","","","","","","","","","","","","","","","","","","","","","","","","50",""
"3727","","<div style=""width:500px;"">
  <p>How much control did you have over the ball?</p>
  </div>","6","html-slider-response","74","1849192","0.0-10.0-2.7","190","1","2025-07-02 10:27:02","80fe4187154257d5fb01684ea91b68b9","188.141.30.105","Mozilla/5.0 (Windows NT 10.0; Win64; x64) AppleWebKit/537.36 (KHTML, like Gecko) Chrome/137.0.0.0 Safari/537.36","WebKit","Chrome","137.0.0.0","Windows","10.0","https://app.prolific.com/","en-GB,en-US;q=0.9,en;q=0.8","57ca4b09993b08000192297b","683db6dfa200031b80f2a654","68650773898eb292952d89dc","57ca4b09993b08000192297b","2025-07-02T10:57:52.878Z","","","","","","ControlQ","","","","","","","","","","","","","","","","","","","","","","","","","","","","","","","","","","","","","","50",""
"3270","","<div style=""width:500px;"">
  <p>How would you describe your current emotional state?</p>
  </div>","36","html-slider-response","75","1852464","0.0-10.0-3.7","190","1","2025-07-02 10:27:02","80fe4187154257d5fb01684ea91b68b9","188.141.30.105","Mozilla/5.0 (Windows NT 10.0; Win64; x64) AppleWebKit/537.36 (KHTML, like Gecko) Chrome/137.0.0.0 Safari/537.36","WebKit","Chrome","137.0.0.0","Windows","10.0","https://app.prolific.com/","en-GB,en-US;q=0.9,en;q=0.8","57ca4b09993b08000192297b","683db6dfa200031b80f2a654","68650773898eb292952d89dc","57ca4b09993b08000192297b","2025-07-02T10:57:56.150Z","","","","","","StressQ","","","","","","","","","","","","","","","","","","","","","","","","","","","","","","","","","","","","","","50",""
"2655","","<div style=""width:500px;"">
  <p>What best describes how you currently feel?</p>
  </div>","100","html-slider-response","76","1855121","0.0-10.0-4.7","190","1","2025-07-02 10:27:02","80fe4187154257d5fb01684ea91b68b9","188.141.30.105","Mozilla/5.0 (Windows NT 10.0; Win64; x64) AppleWebKit/537.36 (KHTML, like Gecko) Chrome/137.0.0.0 Safari/537.36","WebKit","Chrome","137.0.0.0","Windows","10.0","https://app.prolific.com/","en-GB,en-US;q=0.9,en;q=0.8","57ca4b09993b08000192297b","683db6dfa200031b80f2a654","68650773898eb292952d89dc","57ca4b09993b08000192297b","2025-07-02T10:57:58.808Z","","","","","","MotivationQ","","","","","","","","","","","","","","","","","","","","","","","","","","","","","","","","","","","","","","50",""
"","","","","ctl-task-cpt","77","1883395","0.0-10.0-0.8","190","1","2025-07-02 10:27:02","80fe4187154257d5fb01684ea91b68b9","188.141.30.105","Mozilla/5.0 (Windows NT 10.0; Win64; x64) AppleWebKit/537.36 (KHTML, like Gecko) Chrome/137.0.0.0 Safari/537.36","WebKit","Chrome","137.0.0.0","Windows","10.0","https://app.prolific.com/","en-GB,en-US;q=0.9,en;q=0.8","57ca4b09993b08000192297b","683db6dfa200031b80f2a654","68650773898eb292952d89dc","57ca4b09993b08000192297b","2025-07-02T10:58:27.081Z","","","","","","","","","","","","","","","","win-only","2","g1:SE,g2:NW","0.4","9","0","1856985.8","1452.5","6464.3","25234.5","1","4","8","6","2","8","8","20","12","0.15151515151515152","1183.8","3000","2300","[""left"",""up""]","{""num_key_presses"":6,""num_perfect"":4,""num_errors"":0,""num_randdir"":2,""num_randdir_good_moves"":2,""num_whilered"":0,""num_whileblue"":0,""num_blue"":0,""num_good_moves"":6}","[421.57142857142856,415.47767857142856,0.3,421.57142857142856,415.47767857142856,101.3,421.57142857142856,415.47767857142856,209.8,421.57142857142856,415.47767857142856,314.8,421.57142857142856,415.47767857142856,420.4,341.57142857142856,301.47767857142856,528.7,267.57142857142856,213.47767857142856,634.8,206.57142857142856,165.47767857142856,738.1,147.57142857142856,121.47767857142857,848,123.57142857142857,105.47767857142857,950.6,117.57142857142857,97.47767857142857,1061.3,98.57142857142857,83.47767857142857,1169.9,98.57142857142857,83.47767857142857,1270.1,98.57142857142857,83.47767857142857,1378.1,98.57142857142857,83.47767857142857,1482,158.57142857142856,116.47767857142857,1585.3,243.57142857142856,271.47767857142856,1696.2,288.57142857142856,389.47767857142856,1798,502.57142857142856,401.47767857142856,1904.9,1006.5714285714286,433.47767857142856,2016.2,1127.5714285714287,430.47767857142856,2124.1,1127.5714285714287,429.47767857142856,2230.3,1127.5714285714287,429.47767857142856,2366.4,1061.5714285714287,437.47767857142856,2473.5,1060.5714285714287,437.47767857142856,2580.7,1050.5714285714287,437.47767857142856,2686.3,1050.5714285714287,437.47767857142856,2792.4,1050.5714285714287,437.47767857142856,2906,1050.5714285714287,437.47767857142856,3009.7,1050.5714285714287,437.47767857142856,3110.2,1050.5714285714287,437.47767857142856,3211.4,1039.5714285714287,440.47767857142856,3326,994.5714285714286,455.47767857142856,3426.6,941.5714285714286,465.47767857142856,3536.9,877.5714285714286,474.47767857142856,3648.9,854.5714285714286,492.47767857142856,3757.2,847.5714285714286,498.47767857142856,3862.7,847.5714285714286,498.47767857142856,3969.7,847.5714285714286,498.47767857142856,4075.2,847.5714285714286,498.47767857142856,4181.8,847.5714285714286,498.47767857142856,4293.2,847.5714285714286,498.47767857142856,4397.2,847.5714285714286,498.47767857142856,4499.2,847.5714285714286,498.47767857142856,4600.1,847.5714285714286,498.47767857142856,4708.9,847.5714285714286,498.47767857142856,4811.3,847.5714285714286,498.47767857142856,4922.9]","[1462.4,1462.4,1000,0,462.4,""smooth"",""left"",""left"",""good_move"",4053.8,2591.1,2188.2,1462.7,402.9,""smooth"",""left"",""left"",""good_move"",6958.1,2904.1,2505.6,4054,398.5,""oops"",""up"",""up"",""good_move"",9822.2,2863.8,1191.8,6958.4,1672,""smooth"",""up"",""up"",""good_move"",13159.3,3336.8,2363.5,9822.5,973.3,""oops"",""up"",""up"",""good_move"",18286.2,5126.7,2798.7,13159.6,2327.9,""smooth"",""left"",""left"",""good_move""]","","",""
"3130","","<div style=""width:500px;"">
  <p>What determined the result of this run?</p>
  </div>","50","html-slider-response","78","1886529","0.0-10.0-1.8","190","1","2025-07-02 10:27:02","80fe4187154257d5fb01684ea91b68b9","188.141.30.105","Mozilla/5.0 (Windows NT 10.0; Win64; x64) AppleWebKit/537.36 (KHTML, like Gecko) Chrome/137.0.0.0 Safari/537.36","WebKit","Chrome","137.0.0.0","Windows","10.0","https://app.prolific.com/","en-GB,en-US;q=0.9,en;q=0.8","57ca4b09993b08000192297b","683db6dfa200031b80f2a654","68650773898eb292952d89dc","57ca4b09993b08000192297b","2025-07-02T10:58:30.215Z","","","","","","AttribQ","","","","","","","","","","","","","","","","","","","","","","","","","","","","","","","","","","","","","","50",""
"2659","","<div style=""width:500px;"">
  <p>How much control did you have over the ball?</p>
  </div>","76","html-slider-response","79","1889192","0.0-10.0-2.8","190","1","2025-07-02 10:27:02","80fe4187154257d5fb01684ea91b68b9","188.141.30.105","Mozilla/5.0 (Windows NT 10.0; Win64; x64) AppleWebKit/537.36 (KHTML, like Gecko) Chrome/137.0.0.0 Safari/537.36","WebKit","Chrome","137.0.0.0","Windows","10.0","https://app.prolific.com/","en-GB,en-US;q=0.9,en;q=0.8","57ca4b09993b08000192297b","683db6dfa200031b80f2a654","68650773898eb292952d89dc","57ca4b09993b08000192297b","2025-07-02T10:58:32.878Z","","","","","","ControlQ","","","","","","","","","","","","","","","","","","","","","","","","","","","","","","","","","","","","","","50",""
"3044","","<div style=""width:500px;"">
  <p>How would you describe your current emotional state?</p>
  </div>","21","html-slider-response","80","1892240","0.0-10.0-3.8","190","1","2025-07-02 10:27:02","80fe4187154257d5fb01684ea91b68b9","188.141.30.105","Mozilla/5.0 (Windows NT 10.0; Win64; x64) AppleWebKit/537.36 (KHTML, like Gecko) Chrome/137.0.0.0 Safari/537.36","WebKit","Chrome","137.0.0.0","Windows","10.0","https://app.prolific.com/","en-GB,en-US;q=0.9,en;q=0.8","57ca4b09993b08000192297b","683db6dfa200031b80f2a654","68650773898eb292952d89dc","57ca4b09993b08000192297b","2025-07-02T10:58:35.926Z","","","","","","StressQ","","","","","","","","","","","","","","","","","","","","","","","","","","","","","","","","","","","","","","50",""
"2311","","<div style=""width:500px;"">
  <p>What best describes how you currently feel?</p>
  </div>","100","html-slider-response","81","1894552","0.0-10.0-4.8","190","1","2025-07-02 10:27:02","80fe4187154257d5fb01684ea91b68b9","188.141.30.105","Mozilla/5.0 (Windows NT 10.0; Win64; x64) AppleWebKit/537.36 (KHTML, like Gecko) Chrome/137.0.0.0 Safari/537.36","WebKit","Chrome","137.0.0.0","Windows","10.0","https://app.prolific.com/","en-GB,en-US;q=0.9,en;q=0.8","57ca4b09993b08000192297b","683db6dfa200031b80f2a654","68650773898eb292952d89dc","57ca4b09993b08000192297b","2025-07-02T10:58:38.238Z","","","","","","MotivationQ","","","","","","","","","","","","","","","","","","","","","","","","","","","","","","","","","","","","","","50",""
"","","","","ctl-task-cpt","82","1937831","0.0-10.0-0.9","190","1","2025-07-02 10:27:02","80fe4187154257d5fb01684ea91b68b9","188.141.30.105","Mozilla/5.0 (Windows NT 10.0; Win64; x64) AppleWebKit/537.36 (KHTML, like Gecko) Chrome/137.0.0.0 Safari/537.36","WebKit","Chrome","137.0.0.0","Windows","10.0","https://app.prolific.com/","en-GB,en-US;q=0.9,en;q=0.8","57ca4b09993b08000192297b","683db6dfa200031b80f2a654","68650773898eb292952d89dc","57ca4b09993b08000192297b","2025-07-02T10:59:21.517Z","","","","","","","","","","","","","","","","win-only","3","g1:SW,g2:NE","0.5","10","0","1896415.7","1976.6","6980.8","40257","1","4","4","6","2","-4","-5","15","20","0.11363636363636363","1350.5","3000","-2105","[""up"",""right""]","{""num_key_presses"":11,""num_perfect"":5,""num_errors"":1,""num_randdir"":5,""num_randdir_good_moves"":2,""num_whilered"":0,""num_whileblue"":0,""num_blue"":0,""num_good_moves"":7}","[416.57142857142856,409.47767857142856,0.3,416.57142857142856,409.47767857142856,103.7,416.57142857142856,409.47767857142856,204.3,416.57142857142856,409.47767857142856,309.3,416.57142857142856,409.47767857142856,419.2,416.57142857142856,409.47767857142856,520,416.57142857142856,409.47767857142856,625,424.57142857142856,398.47767857142856,728.8,568.5714285714286,286.47767857142856,830.1,682.5714285714286,115.47767857142857,930.5,682.5714285714286,110.47767857142857,1039.4,725.5714285714286,108.47767857142857,1141.2,763.5714285714286,101.47767857142857,1245.4,766.5714285714286,101.47767857142857,1355.5,766.5714285714286,101.47767857142857,1459,766.5714285714286,101.47767857142857,1559.7,766.5714285714286,101.47767857142857,1671.5,766.5714285714286,101.47767857142857,1774.2,766.5714285714286,101.47767857142857,1874.9,766.5714285714286,101.47767857142857,1985.2,766.5714285714286,101.47767857142857,2086.4,766.5714285714286,101.47767857142857,2189.1,766.5714285714286,101.47767857142857,2294,766.5714285714286,101.47767857142857,2395,766.5714285714286,101.47767857142857,2502.1,766.5714285714286,101.47767857142857,2604.4,766.5714285714286,101.47767857142857,2709.2,766.5714285714286,101.47767857142857,2809.4,766.5714285714286,101.47767857142857,2918.8,766.5714285714286,101.47767857142857,3019.1,766.5714285714286,101.47767857142857,3119.2,766.5714285714286,101.47767857142857,3224.6,766.5714285714286,101.47767857142857,3336.1,766.5714285714286,101.47767857142857,3436.8,766.5714285714286,101.47767857142857,3539.4,766.5714285714286,101.47767857142857,3644.2,766.5714285714286,101.47767857142857,3748.7,766.5714285714286,101.47767857142857,3852.4,766.5714285714286,101.47767857142857,3952.8,766.5714285714286,101.47767857142857,4057.2,766.5714285714286,101.47767857142857,4158.8,766.5714285714286,101.47767857142857,4259.8,766.5714285714286,101.47767857142857,4371.8,766.5714285714286,101.47767857142857,4473.9,766.5714285714286,101.47767857142857,4575.2,766.5714285714286,101.47767857142857,4676.2,766.5714285714286,101.47767857142857,4780.1,766.5714285714286,101.47767857142857,4880.5,766.5714285714286,101.47767857142857,4990.7]","[451.3,451.3,1000,0,-548.7,""error"",""-"",""-"",""no_move"",4548.7,4097.2,2622.8,1462.7,463.2,""oops"",""right"",""up"",""good_move"",7740,3190.9,2784.1,4549.2,406.8,""oops"",""right"",""left"",""bad_move"",10907.3,3166.9,2682,7740.4,484.9,""oops"",""right"",""up"",""good_move"",14339.3,3431.7,3041,10907.7,390.6,""smooth"",""right"",""right"",""good_move"",18275.8,3936.1,3529.5,14339.7,406.6,""smooth"",""right"",""right"",""good_move"",21003.4,2727.5,2297.6,18275.9,430,""smooth"",""right"",""right"",""good_move"",23475.8,2472.2,2112.1,21003.6,360.1,""smooth"",""up"",""up"",""good_move"",25411.5,1935.5,1578.7,23476,356.8,""oops"",""right"",""left"",""bad_move"",28062.1,2650.4,2182.6,25411.7,467.8,""smooth"",""right"",""right"",""good_move"",31316.2,3253.8,2878.1,28062.4,375.7,""oops"",""right"",""left"",""bad_move""]","","",""
"2272","","<div style=""width:500px;"">
  <p>What determined the result of this run?</p>
