"rt","response_timestamp","stimulus","response","trial_type","trial_index","time_elapsed","internal_node_id","run_id","condition","recorded_at","source_code_version","ip","user_agent","device","browser","browser_version","platform","platform_version","referer","accept_language","PROLIFIC_PID","STUDY_ID","SESSION_ID","prolific_id","realtime","view_history","question_order","consent","success","question_id","eventType","responses","item_order","radio_event_ids","radio_event_times","key_event_times","mouse_event_times","straightlining","zigzagging","honeypot","which_type","canvas_config","goals_layout","control_level","trial_number","tutorial_trial_number","trial_start_time","phase1_start_time","phase2_start_time","phase3_start_time","goal_1_value","goal_1_distance","goal_2_value","goal_2_distance","goal_selected","outcome","outcome_total","participant_final_score","participant_initial_score","participant_final_score_prop","goal_choice_rt","allocated_time","allocated_time_remaining","goal_direction","counts","mouse_movements","key_presses","correct","slider_start"
"2244","1751451579377","<p style='font-size:40px;line-height:1.25'><strong>Welcome to the experiment!</strong></p><p style='font-size:1.1em;line-height:1.25'>Thank you for your interest in our experiment! Before you begin, it is important that we obtain your informed consent to participate in the study.</p><p style='font-size:1.1em;line-height:1.25'>On the next screen will be an <strong>information sheet</strong> for you to read. To participate in the study we need you to read this information sheet and the following consent form carefully. If you agree with all the statements, please click the <strong>I agree</strong> button.</p><p style='font-size:1.1em;line-height:1.25'>Press <strong>Next</strong> to read the information sheet.</p>","0","custom-html-button-response","0","2245","0.0-0.0","112","1","2025-07-02 10:19:36","80fe4187154257d5fb01684ea91b68b9","188.78.171.117","Mozilla/5.0 (Windows NT 10.0; Win64; x64) AppleWebKit/537.36 (KHTML, like Gecko) Chrome/137.0.0.0 Safari/537.36","WebKit","Chrome","137.0.0.0","Windows","10.0","https://app.prolific.com/","es-ES,es;q=0.9","5883a935c0c9a10001df6345","683db6dfa200031b80f2a654","686507730462985b59b68436","5883a935c0c9a10001df6345","2025-07-02T10:19:39.377Z","","","","","","","","","","","","","","","","","","","","","","","","","","","","","","","","","","","","","","","","","","","",""
"3770","","","","instructions","1","6016","0.0-1.0","112","1","2025-07-02 10:19:36","80fe4187154257d5fb01684ea91b68b9","188.78.171.117","Mozilla/5.0 (Windows NT 10.0; Win64; x64) AppleWebKit/537.36 (KHTML, like Gecko) Chrome/137.0.0.0 Safari/537.36","WebKit","Chrome","137.0.0.0","Windows","10.0","https://app.prolific.com/","es-ES,es;q=0.9","5883a935c0c9a10001df6345","683db6dfa200031b80f2a654","686507730462985b59b68436","5883a935c0c9a10001df6345","","[{""page_index"":0,""viewing_time"":2392},{""page_index"":1,""viewing_time"":1378}]","","","","","","","","","","","","","","","","","","","","","","","","","","","","","","","","","","","","","","","","","","",""
"4139","","","{""Q0"":"""",""Q1"":"""",""Q2"":"""",""Q3"":"""",""Q4"":"""",""Q5"":"""",""Q6"":""I agree""}","survey-multi-choice","2","10155","0.0-2.0","112","1","2025-07-02 10:19:36","80fe4187154257d5fb01684ea91b68b9","188.78.171.117","Mozilla/5.0 (Windows NT 10.0; Win64; x64) AppleWebKit/537.36 (KHTML, like Gecko) Chrome/137.0.0.0 Safari/537.36","WebKit","Chrome","137.0.0.0","Windows","10.0","https://app.prolific.com/","es-ES,es;q=0.9","5883a935c0c9a10001df6345","683db6dfa200031b80f2a654","686507730462985b59b68436","5883a935c0c9a10001df6345","","","[0,1,2,3,4,5,6]","true","","","","","","","","","","","","","","","","","","","","","","","","","","","","","","","","","","","","","","","","",""
"18838","","","","fullscreen","3","29995","0.0-4.0","112","1","2025-07-02 10:19:36","80fe4187154257d5fb01684ea91b68b9","188.78.171.117","Mozilla/5.0 (Windows NT 10.0; Win64; x64) AppleWebKit/537.36 (KHTML, like Gecko) Chrome/137.0.0.0 Safari/537.36","WebKit","Chrome","137.0.0.0","Windows","10.0","https://app.prolific.com/","es-ES,es;q=0.9","5883a935c0c9a10001df6345","683db6dfa200031b80f2a654","686507730462985b59b68436","5883a935c0c9a10001df6345","","","","","true","","","","","","","","","","","","","","","","","","","","","","","","","","","","","","","","","","","","","","","",""
"4983","1751451612110"," <p style='font-size:1.1em;line-height:1.25'>Thank you for completing the consent form and closing all other tabs.</p><p style='font-size:1.1em;line-height:1.25'>We will now invite you to fill in some demographic information and questionnaires, before starting the game.<br>This will take about 5 minutes.<br></p><p style='font-size:1.1em;line-height:1.25'>Press the <strong>Next</strong> button to continue.</p>","0","custom-html-button-response","4","34978","0.0-5.0","112","1","2025-07-02 10:19:36","80fe4187154257d5fb01684ea91b68b9","188.78.171.117","Mozilla/5.0 (Windows NT 10.0; Win64; x64) AppleWebKit/537.36 (KHTML, like Gecko) Chrome/137.0.0.0 Safari/537.36","WebKit","Chrome","137.0.0.0","Windows","10.0","https://app.prolific.com/","es-ES,es;q=0.9","5883a935c0c9a10001df6345","683db6dfa200031b80f2a654","686507730462985b59b68436","5883a935c0c9a10001df6345","2025-07-02T10:20:12.110Z","","","","","","","","","","","","","","","","","","","","","","","","","","","","","","","","","","","","","","","","","","","",""
"2763","","","{""age"":""29""}","survey-text","5","37742","0.0-6.0-0.0","112","1","2025-07-02 10:19:36","80fe4187154257d5fb01684ea91b68b9","188.78.171.117","Mozilla/5.0 (Windows NT 10.0; Win64; x64) AppleWebKit/537.36 (KHTML, like Gecko) Chrome/137.0.0.0 Safari/537.36","WebKit","Chrome","137.0.0.0","Windows","10.0","https://app.prolific.com/","es-ES,es;q=0.9","5883a935c0c9a10001df6345","683db6dfa200031b80f2a654","686507730462985b59b68436","5883a935c0c9a10001df6345","","","","","","0","demographics","","","","","","","","","","","","","","","","","","","","","","","","","","","","","","","","","","","","","",""
"3236","","","{""gender_identity"":""male/man""}","survey-multi-choice","6","40978","0.0-6.0-1.0","112","1","2025-07-02 10:19:36","80fe4187154257d5fb01684ea91b68b9","188.78.171.117","Mozilla/5.0 (Windows NT 10.0; Win64; x64) AppleWebKit/537.36 (KHTML, like Gecko) Chrome/137.0.0.0 Safari/537.36","WebKit","Chrome","137.0.0.0","Windows","10.0","https://app.prolific.com/","es-ES,es;q=0.9","5883a935c0c9a10001df6345","683db6dfa200031b80f2a654","686507730462985b59b68436","5883a935c0c9a10001df6345","","","[0]","","","1","demographics","","","","","","","","","","","","","","","","","","","","","","","","","","","","","","","","","","","","","",""
"2776","","","{""assigned_sex"":""male""}","survey-multi-choice","7","43755","0.0-6.0-2.0","112","1","2025-07-02 10:19:36","80fe4187154257d5fb01684ea91b68b9","188.78.171.117","Mozilla/5.0 (Windows NT 10.0; Win64; x64) AppleWebKit/537.36 (KHTML, like Gecko) Chrome/137.0.0.0 Safari/537.36","WebKit","Chrome","137.0.0.0","Windows","10.0","https://app.prolific.com/","es-ES,es;q=0.9","5883a935c0c9a10001df6345","683db6dfa200031b80f2a654","686507730462985b59b68436","5883a935c0c9a10001df6345","","","[0]","","","2","demographics","","","","","","","","","","","","","","","","","","","","","","","","","","","","","","","","","","","","","",""
"3559","","","{""menstrual_cycle"":""No""}","survey-multi-choice","8","47315","0.0-6.0-3.0","112","1","2025-07-02 10:19:36","80fe4187154257d5fb01684ea91b68b9","188.78.171.117","Mozilla/5.0 (Windows NT 10.0; Win64; x64) AppleWebKit/537.36 (KHTML, like Gecko) Chrome/137.0.0.0 Safari/537.36","WebKit","Chrome","137.0.0.0","Windows","10.0","https://app.prolific.com/","es-ES,es;q=0.9","5883a935c0c9a10001df6345","683db6dfa200031b80f2a654","686507730462985b59b68436","5883a935c0c9a10001df6345","","","[0]","","","4","demographics","","","","","","","","","","","","","","","","","","","","","","","","","","","","","","","","","","","","","",""
"2515","","","{""education"":""Bachelor's Degree (e.g., BA)""}","survey-multi-choice","9","49830","0.0-6.0-4.0","112","1","2025-07-02 10:19:36","80fe4187154257d5fb01684ea91b68b9","188.78.171.117","Mozilla/5.0 (Windows NT 10.0; Win64; x64) AppleWebKit/537.36 (KHTML, like Gecko) Chrome/137.0.0.0 Safari/537.36","WebKit","Chrome","137.0.0.0","Windows","10.0","https://app.prolific.com/","es-ES,es;q=0.9","5883a935c0c9a10001df6345","683db6dfa200031b80f2a654","686507730462985b59b68436","5883a935c0c9a10001df6345","","","[0]","","","5","demographics","","","","","","","","","","","","","","","","","","","","","","","","","","","","","","","","","","","","","",""
"9381","","","{""education"":""GCSE/Standard Grades""}","survey-multi-choice","10","59212","0.0-6.0-5.0","112","1","2025-07-02 10:19:36","80fe4187154257d5fb01684ea91b68b9","188.78.171.117","Mozilla/5.0 (Windows NT 10.0; Win64; x64) AppleWebKit/537.36 (KHTML, like Gecko) Chrome/137.0.0.0 Safari/537.36","WebKit","Chrome","137.0.0.0","Windows","10.0","https://app.prolific.com/","es-ES,es;q=0.9","5883a935c0c9a10001df6345","683db6dfa200031b80f2a654","686507730462985b59b68436","5883a935c0c9a10001df6345","2025-07-02T10:20:36.344Z","","[0]","","","6","demographics","","","","","","","","","","","","","","","","","","","","","","","","","","","","","","","","","","","","","",""
"9102","","","{""mental_health_condition"":""No"",""mental_health_treatment"":""No"",""psychiatric_medication"":""No""}","survey-text","11","68314","0.0-7.0-0.0","112","1","2025-07-02 10:19:36","80fe4187154257d5fb01684ea91b68b9","188.78.171.117","Mozilla/5.0 (Windows NT 10.0; Win64; x64) AppleWebKit/537.36 (KHTML, like Gecko) Chrome/137.0.0.0 Safari/537.36","WebKit","Chrome","137.0.0.0","Windows","10.0","https://app.prolific.com/","es-ES,es;q=0.9","5883a935c0c9a10001df6345","683db6dfa200031b80f2a654","686507730462985b59b68436","5883a935c0c9a10001df6345","2025-07-02T10:20:45.446Z","","","","","1","mental_health","","","","","","","","","","","","","","","","","","","","","","","","","","","","","","","","","","","","","",""
"8147","","","{""depression_history"":[""No""]}","survey-multi-select","12","76462","0.0-7.0-1.0","112","1","2025-07-02 10:19:36","80fe4187154257d5fb01684ea91b68b9","188.78.171.117","Mozilla/5.0 (Windows NT 10.0; Win64; x64) AppleWebKit/537.36 (KHTML, like Gecko) Chrome/137.0.0.0 Safari/537.36","WebKit","Chrome","137.0.0.0","Windows","10.0","https://app.prolific.com/","es-ES,es;q=0.9","5883a935c0c9a10001df6345","683db6dfa200031b80f2a654","686507730462985b59b68436","5883a935c0c9a10001df6345","","","[0]","","","","mental_health","","","","","","","","","","","","","","","","","","","","","","","","","","","","","","","","","","","","","",""
"50189.80000001192","","","","survey-template","13","126654","0.0-7.0-3.0","112","1","2025-07-02 10:19:36","80fe4187154257d5fb01684ea91b68b9","188.78.171.117","Mozilla/5.0 (Windows NT 10.0; Win64; x64) AppleWebKit/537.36 (KHTML, like Gecko) Chrome/137.0.0.0 Safari/537.36","WebKit","Chrome","137.0.0.0","Windows","10.0","https://app.prolific.com/","es-ES,es;q=0.9","5883a935c0c9a10001df6345","683db6dfa200031b80f2a654","686507730462985b59b68436","5883a935c0c9a10001df6345","2025-07-02T10:21:43.786Z","","","","","","ius","{""Q01"":""2"",""Q02"":""2"",""Q03"":""2"",""Q04"":""3"",""Q05"":""3"",""Q06"":""1"",""Q07"":""1"",""Q08"":""0"",""Q09"":""2"",""Q10"":""2"",""Q11"":""1"",""Q12"":""2"",""Q13"":""2""}","[0,1,2,3,4,5,6,7,8,9,10,11,12]","[""Q01"",""Q02"",""Q03"",""Q04"",""Q05"",""Q06"",""Q07"",""Q08"",""Q09"",""Q10"",""Q11"",""Q13"",""Q12""]","[12794.40000000596,14181.200000017881,17759,20889.09999999404,23203.90000000596,26084.80000001192,29119.80000001192,31156.80000001192,39595.80000001192,41398.59999999404,43942.59999999404,48948.30000001192,49533.40000000596]","[]","[8637.300000011921,12007.300000011921,12794.40000000596,14181.200000017881,14601.09999999404,17149.20000001788,17759,20889.09999999404,23203.90000000596,26084.80000001192,29119.80000001192,31156.80000001192,39595.80000001192,41398.59999999404,43942.59999999404,46952.5,47731.40000000596,48948.30000001192,49293.90000000596,49533.40000000596,50188.5]","0.5384615384615384","0.3333333333333333","0","","","","","","","","","","","","","","","","","","","","","","","","","","","","",""
"2834","1751451706620","<p style='font-size:1.1em;line-height:1.25'>In the following, we will ask you a few questions relating to your experiences over the past month.<br></p><p style='font-size:1.1em;line-height:1.25'>Press the <strong>Next</strong> button to continue.</p>","0","custom-html-button-response","14","129488","0.0-7.0-4.0","112","1","2025-07-02 10:19:36","80fe4187154257d5fb01684ea91b68b9","188.78.171.117","Mozilla/5.0 (Windows NT 10.0; Win64; x64) AppleWebKit/537.36 (KHTML, like Gecko) Chrome/137.0.0.0 Safari/537.36","WebKit","Chrome","137.0.0.0","Windows","10.0","https://app.prolific.com/","es-ES,es;q=0.9","5883a935c0c9a10001df6345","683db6dfa200031b80f2a654","686507730462985b59b68436","5883a935c0c9a10001df6345","2025-07-02T10:21:46.620Z","","","","","","","","","","","","","","","","","","","","","","","","","","","","","","","","","","","","","","","","","","","",""
"35232.30000001192","","","","survey-template","15","164722","0.0-7.0-5.0","112","1","2025-07-02 10:19:36","80fe4187154257d5fb01684ea91b68b9","188.78.171.117","Mozilla/5.0 (Windows NT 10.0; Win64; x64) AppleWebKit/537.36 (KHTML, like Gecko) Chrome/137.0.0.0 Safari/537.36","WebKit","Chrome","137.0.0.0","Windows","10.0","https://app.prolific.com/","es-ES,es;q=0.9","5883a935c0c9a10001df6345","683db6dfa200031b80f2a654","686507730462985b59b68436","5883a935c0c9a10001df6345","2025-07-02T10:22:21.854Z","","","","","","pss","{""Q01"":""1"",""Q02"":""1"",""Q03"":""3"",""Q04"":""2"",""Q05"":""2"",""Q06"":""2"",""Q07"":""2"",""Q08"":""2"",""Q09"":""2"",""Q10"":""1""}","[0,1,2,3,4,5,6,7,8,9]","[""Q01"",""Q02"",""Q03"",""Q04"",""Q05"",""Q06"",""Q06"",""Q07"",""Q08"",""Q09"",""Q10""]","[7483.800000011921,10311.59999999404,12638.699999988079,16275.800000011921,19295.40000000596,22488.40000000596,24002.30000001192,25858.5,26480.30000001192,30909.09999999404,34650.19999998808]","[]","[1.0999999940395355,7483.800000011921,10311.59999999404,12638.699999988079,16275.800000011921,18726.5,19295.40000000596,22488.40000000596,23647.30000001192,24002.30000001192,25858.5,26480.30000001192,30909.09999999404,34650.19999998808,35231.30000001192]","0.6","0.2222222222222222","0","","","","","","","","","","","","","","","","","","","","","","","","","","","","",""
"1709","1751451743563","<p style='font-size:1.1em;line-height:1.25'>Thank you for your answers! Now we will ask you a few more questions relating to your feelings in the last 24 hours.<br></p><p style='font-size:1.1em;line-height:1.25'>Press the <strong>Next</strong> button to continue.</p>","0","custom-html-button-response","16","166431","0.0-7.0-6.0","112","1","2025-07-02 10:19:36","80fe4187154257d5fb01684ea91b68b9","188.78.171.117","Mozilla/5.0 (Windows NT 10.0; Win64; x64) AppleWebKit/537.36 (KHTML, like Gecko) Chrome/137.0.0.0 Safari/537.36","WebKit","Chrome","137.0.0.0","Windows","10.0","https://app.prolific.com/","es-ES,es;q=0.9","5883a935c0c9a10001df6345","683db6dfa200031b80f2a654","686507730462985b59b68436","5883a935c0c9a10001df6345","2025-07-02T10:22:23.563Z","","","","","","","","","","","","","","","","","","","","","","","","","","","","","","","","","","","","","","","","","","","",""
"50536.20000001788","","","","survey-template","17","216969","0.0-7.0-7.0","112","1","2025-07-02 10:19:36","80fe4187154257d5fb01684ea91b68b9","188.78.171.117","Mozilla/5.0 (Windows NT 10.0; Win64; x64) AppleWebKit/537.36 (KHTML, like Gecko) Chrome/137.0.0.0 Safari/537.36","WebKit","Chrome","137.0.0.0","Windows","10.0","https://app.prolific.com/","es-ES,es;q=0.9","5883a935c0c9a10001df6345","683db6dfa200031b80f2a654","686507730462985b59b68436","5883a935c0c9a10001df6345","2025-07-02T10:23:14.101Z","","","","","","drsp","{""Q01"":""0"",""Q02"":""0"",""Q03"":""1"",""Q04"":""1"",""Q05"":""1"",""Q06"":""1"",""Q07"":""1"",""Q08"":""0"",""Q09"":""2"",""Q10"":""3"",""Q11"":""4"",""Q12"":""1"",""Q13"":""1"",""Q14"":""3"",""Q15"":""3"",""Q16"":""1"",""Q17"":""1"",""Q18"":""0"",""Q19"":""1"",""Q20"":""2"",""Q21"":""2""}","[0,1,2,3,4,5,6,7,8,9,10,11,12,13,14,15,16,17,18,19,20]","[""Q01"",""Q02"",""Q03"",""Q04"",""Q05"",""Q06"",""Q07"",""Q08"",""Q09"",""Q10"",""Q11"",""Q12"",""Q13"",""Q14"",""Q14"",""Q15"",""Q16"",""Q17"",""Q18"",""Q19"",""Q20"",""Q20"",""Q21""]","[4577.9000000059605,5349.800000011921,7099.700000017881,8783,10106.90000000596,13266.600000023842,13687.600000023842,15823.600000023842,17764.70000001788,20071.70000001788,21746.40000000596,23279.40000000596,24872.30000001192,28776.30000001192,30060.30000001192,32343.40000000596,33458.10000002384,34554.10000002384,37683.10000002384,42682,45963.90000000596,46952.80000001192,49849.90000000596]","[]","[1.4000000059604645,4577.9000000059605,5349.800000011921,7099.700000017881,8034.800000011921,8783,9685.90000000596,10106.90000000596,12018.800000011921,13266.600000023842,13687.600000023842,15460.600000023842,15823.600000023842,17764.70000001788,20071.70000001788,21746.40000000596,23279.40000000596,24872.30000001192,28776.30000001192,30060.30000001192,32343.40000000596,33458.10000002384,34554.10000002384,37683.10000002384,42682,45963.90000000596,46679.80000001192,46952.80000001192,49849.90000000596,50533.90000000596]","0.47619047619047616","0.35","0","","","","","","","","","","","","","","","","","","","","","","","","","","","","",""
"14541.199999988079","","","","survey-template","18","231511","0.0-7.0-8.0","112","1","2025-07-02 10:19:36","80fe4187154257d5fb01684ea91b68b9","188.78.171.117","Mozilla/5.0 (Windows NT 10.0; Win64; x64) AppleWebKit/537.36 (KHTML, like Gecko) Chrome/137.0.0.0 Safari/537.36","WebKit","Chrome","137.0.0.0","Windows","10.0","https://app.prolific.com/","es-ES,es;q=0.9","5883a935c0c9a10001df6345","683db6dfa200031b80f2a654","686507730462985b59b68436","5883a935c0c9a10001df6345","2025-07-02T10:23:28.643Z","","","","","","stress","{""Q01"":""1"",""Q02"":""4"",""Q03"":""2""}","[0,1,2]","[""Q01"",""Q02"",""Q03""]","[2359,6252.800000011921,14002.699999988079]","[]","[2359,6252.800000011921,14002.699999988079,14540.699999988079]","0.6666666666666666","0.5","0","","","","","","","","","","","","","","","","","","","","","","","","","","","","",""
"56246","","","","instructions","19","287757","0.0-8.0-0.0","112","1","2025-07-02 10:19:36","80fe4187154257d5fb01684ea91b68b9","188.78.171.117","Mozilla/5.0 (Windows NT 10.0; Win64; x64) AppleWebKit/537.36 (KHTML, like Gecko) Chrome/137.0.0.0 Safari/537.36","WebKit","Chrome","137.0.0.0","Windows","10.0","https://app.prolific.com/","es-ES,es;q=0.9","5883a935c0c9a10001df6345","683db6dfa200031b80f2a654","686507730462985b59b68436","5883a935c0c9a10001df6345","","[{""page_index"":0,""viewing_time"":16659},{""page_index"":1,""viewing_time"":21808},{""page_index"":2,""viewing_time"":6130},{""page_index"":3,""viewing_time"":11650}]","","","","","","","","","","","","","","","","","","","","","","","","","","","","","","","","","","","","","","","","","","",""
"","","","","ctl-task-cpt","20","319255","0.0-8.0-1.0","112","1","2025-07-02 10:19:36","80fe4187154257d5fb01684ea91b68b9","188.78.171.117","Mozilla/5.0 (Windows NT 10.0; Win64; x64) AppleWebKit/537.36 (KHTML, like Gecko) Chrome/137.0.0.0 Safari/537.36","WebKit","Chrome","137.0.0.0","Windows","10.0","https://app.prolific.com/","es-ES,es;q=0.9","5883a935c0c9a10001df6345","683db6dfa200031b80f2a654","686507730462985b59b68436","5883a935c0c9a10001df6345","","","","","","","","","","","","","","","","","win-only","0","g1:NW,g2:SE","1","0","1","289022.8","1842.3","5845.7","28491.3","2","4","4","6","2","4","2","2","0","0.015151515151515152","1749.9","4000","2130","[""down"",""right""]","{""num_key_presses"":8,""num_perfect"":6,""num_errors"":2,""num_randdir"":0,""num_randdir_good_moves"":0,""num_whilered"":0,""num_whileblue"":2,""num_blue"":3,""num_good_moves"":7}","[554.1785637991769,558.4285704748971,0.3,554.1785637991769,558.4285704748971,103.4,554.1785637991769,558.4285704748971,208.2,554.1785637991769,558.4285704748971,308.7,554.1785637991769,558.4285704748971,413.2,554.1785637991769,558.4285704748971,513.9,554.1785637991769,558.4285704748971,614.3,554.1785637991769,558.4285704748971,718.3,554.1785637991769,558.4285704748971,818.6,554.1785637991769,558.4285704748971,922.8,554.1785637991769,558.4285704748971,1023.5,560.4285637991769,570.9285704748971,1128.2,697.9285637991769,822.1785704748971,1228.4,877.9285637991769,927.1785704748971,1333.4,975.4285637991769,975.9285704748971,1434.4,994.1785637991769,990.9285704748971,1539,994.1785637991769,990.9285704748971,1643.4,994.1785637991769,990.9285704748971,1748.2,994.1785637991769,990.9285704748971,1848.9,994.1785637991769,990.9285704748971,1952.9,994.1785637991769,990.9285704748971,2058.4,994.1785637991769,990.9285704748971,2158.6,994.1785637991769,990.9285704748971,2258.6,994.1785637991769,990.9285704748971,2358.6,994.1785637991769,990.9285704748971,2458.6,994.1785637991769,990.9285704748971,2563.5,994.1785637991769,990.9285704748971,2663.6,994.1785637991769,990.9285704748971,2763.9,994.1785637991769,990.9285704748971,2867.9,994.1785637991769,990.9285704748971,2968.5,994.1785637991769,990.9285704748971,3073.2,994.1785637991769,990.9285704748971,3173.4,994.1785637991769,990.9285704748971,3278.4,994.1785637991769,990.9285704748971,3383.6,994.1785637991769,990.9285704748971,3488.3,994.1785637991769,990.9285704748971,3588.4,994.1785637991769,990.9285704748971,3694.2,994.1785637991769,990.9285704748971,3798.7,994.1785637991769,990.9285704748971,3903.6]","[1434.4,1434.3,1000,0.1,434.3,""smooth"",""right"",""right"",""good_move"",3356.2,1921.6,1623.3,1434.6,298.3,""smooth"",""right"",""right"",""good_move"",5364.5,2008.3,1781.1,3356.3,227.2,""smooth"",""right"",""right"",""good_move"",7702.3,2337.6,2107.8,5364.7,229.8,""smooth"",""down"",""down"",""good_move"",11240,3537.5,3207.7,7702.5,329.9,""while_blue"",""down"",""left"",""bad_move"",14334.2,3094,2790.9,11240.2,303.1,""smooth"",""down"",""down"",""good_move"",16942.2,2608,2193.3,14334.2,414.7,""smooth"",""down"",""down"",""good_move"",22559,5616.8,2176,20164.4,218.6,""while_blue"",""right"",""right"",""good_move""]","",""
"14699","","","","instructions","21","333954","0.0-8.0-2.0","112","1","2025-07-02 10:19:36","80fe4187154257d5fb01684ea91b68b9","188.78.171.117","Mozilla/5.0 (Windows NT 10.0; Win64; x64) AppleWebKit/537.36 (KHTML, like Gecko) Chrome/137.0.0.0 Safari/537.36","WebKit","Chrome","137.0.0.0","Windows","10.0","https://app.prolific.com/","es-ES,es;q=0.9","5883a935c0c9a10001df6345","683db6dfa200031b80f2a654","686507730462985b59b68436","5883a935c0c9a10001df6345","","[{""page_index"":0,""viewing_time"":14699}]","","","","","","","","","","","","","","","","","","","","","","","","","","","","","","","","","","","","","","","","","","",""
"","","","","ctl-task-cpt","22","403171","0.0-8.0-3.0","112","1","2025-07-02 10:19:36","80fe4187154257d5fb01684ea91b68b9","188.78.171.117","Mozilla/5.0 (Windows NT 10.0; Win64; x64) AppleWebKit/537.36 (KHTML, like Gecko) Chrome/137.0.0.0 Safari/537.36","WebKit","Chrome","137.0.0.0","Windows","10.0","https://app.prolific.com/","es-ES,es;q=0.9","5883a935c0c9a10001df6345","683db6dfa200031b80f2a654","686507730462985b59b68436","5883a935c0c9a10001df6345","","","","","","","","","","","","","","","","","win-only","0","g1:NW,g2:SE","0.35","0","3","335219.4","999.6","5000.3","66200.6","2","4","8","6","2","-8","-10","0","0","0","1352","4000","-3015","[""down"",""right""]","{""num_key_presses"":13,""num_perfect"":4,""num_errors"":2,""num_randdir"":7,""num_randdir_good_moves"":4,""num_whilered"":0,""num_whileblue"":1,""num_blue"":7,""num_good_moves"":8}","[562.9285637991769,555.9285704748971,0.1,562.9285637991769,555.9285704748971,100.9,562.9285637991769,583.4285704748971,201.3,550.4285637991769,675.9285704748971,301.4,550.4285637991769,678.4285704748971,405.9,595.4285637991769,704.6785704748971,510.9,785.4285637991769,853.4285704748971,616.3,940.4285637991769,953.4285704748971,720.7,982.9285637991769,969.6785704748971,820.9,982.9285637991769,969.6785704748971,926,982.9285637991769,969.6785704748971,1026,982.9285637991769,969.6785704748971,1126.2,984.1785637991769,970.9285704748971,1231.1,984.1785637991769,970.9285704748971,1335.7,985.4285637991769,972.1785704748971,1436,987.9285637991769,973.4285704748971,1540.5,830.4285637991769,967.1785704748971,1641.3,735.4285637991769,942.1785704748971,1741.7,734.1785637991769,942.1785704748971,1845.5,667.9285637991769,1080.928570474897,1945.8,736.6785637991769,1240.928570474897,2050.6,744.1785637991769,1247.178570474897,2151.3,761.6785637991769,1279.678570474897,2256.1,770.4285637991769,1279.678570474897,2356.1,772.9285637991769,1279.678570474897,2461.1,772.9285637991769,1279.678570474897,2566,772.9285637991769,1279.678570474897,2670.6,772.9285637991769,1279.678570474897,2771.2,772.9285637991769,1279.678570474897,2875.6,772.9285637991769,1279.678570474897,2980.6,772.9285637991769,1279.678570474897,3080.6,772.9285637991769,1279.678570474897,3185.7,772.9285637991769,1279.678570474897,3286.1,772.9285637991769,1279.678570474897,3390.9,772.9285637991769,1279.678570474897,3490.9,772.9285637991769,1279.678570474897,3595.6,772.9285637991769,1279.678570474897,3696.4,772.9285637991769,1279.678570474897,3800.8,772.9285637991769,1279.678570474897,3906.7]","[702.5,702.5,1000,0,-297.5,""error"",""-"",""-"",""no_move"",4856.1,4153.6,2722.3,1705.7,428.1,""oops"",""down"",""down"",""good_move"",8266.1,3409.8,2993.3,4856.3,416.6,""smooth"",""down"",""down"",""good_move"",11255.8,2989.6,2686,8266.2,303.6,""smooth"",""down"",""down"",""good_move"",13821.8,2565.8,2247.1,11256,318.7,""oops"",""right"",""right"",""good_move"",16449.8,2627.8,2317.4,13822,310.4,""oops"",""right"",""left"",""bad_move"",18828.9,2378.9,2019.5,16450,359.4,""oops"",""right"",""left"",""bad_move"",24582.6,5753.6,1940,22310,332.6,""oops"",""right"",""right"",""good_move"",27526.5,2943.8,2670,24582.7,273.8,""smooth"",""right"",""right"",""good_move"",34252.9,6726.3,2485,31450,317.9,""smooth"",""right"",""right"",""good_move"",40968.2,6715.2,2463.6,38215,289.6,""oops"",""right"",""left"",""bad_move"",50514.4,9546.1,2510.1,47745,259.3,""while_blue"",""right"",""left"",""bad_move"",54328.9,3814.4,3355.7,50514.5,458.7,""oops"",""right"",""right"",""good_move""]","",""
"28995","","","","instructions","23","432166","0.0-8.0-4.0","112","1","2025-07-02 10:19:36","80fe4187154257d5fb01684ea91b68b9","188.78.171.117","Mozilla/5.0 (Windows NT 10.0; Win64; x64) AppleWebKit/537.36 (KHTML, like Gecko) Chrome/137.0.0.0 Safari/537.36","WebKit","Chrome","137.0.0.0","Windows","10.0","https://app.prolific.com/","es-ES,es;q=0.9","5883a935c0c9a10001df6345","683db6dfa200031b80f2a654","686507730462985b59b68436","5883a935c0c9a10001df6345","","[{""page_index"":0,""viewing_time"":7692},{""page_index"":1,""viewing_time"":21304}]","","","","","","","","","","","","","","","","","","","","","","","","","","","","","","","","","","","","","","","","","","",""
"12091","","","{""green_ball"":[""Ball always moves in the direction I press""]}","survey-multi-select","24","444258","0.0-8.0-5.0-0.0","112","1","2025-07-02 10:19:36","80fe4187154257d5fb01684ea91b68b9","188.78.171.117","Mozilla/5.0 (Windows NT 10.0; Win64; x64) AppleWebKit/537.36 (KHTML, like Gecko) Chrome/137.0.0.0 Safari/537.36","WebKit","Chrome","137.0.0.0","Windows","10.0","https://app.prolific.com/","es-ES,es;q=0.9","5883a935c0c9a10001df6345","683db6dfa200031b80f2a654","686507730462985b59b68436","5883a935c0c9a10001df6345","","","[0]","","","","quiz","","","","","","","","","","","","","","","","","","","","","","","","","","","","","","","","","","","","","false",""
"1149","","<p align='center'><b>INCORRECT.</b> Usually the green ball moves in the indicated direction, but sometimes it shakes and moves randomly. </p>","0","html-button-response","25","445408","0.0-8.0-5.0-1.0","112","1","2025-07-02 10:19:36","80fe4187154257d5fb01684ea91b68b9","188.78.171.117","Mozilla/5.0 (Windows NT 10.0; Win64; x64) AppleWebKit/537.36 (KHTML, like Gecko) Chrome/137.0.0.0 Safari/537.36","WebKit","Chrome","137.0.0.0","Windows","10.0","https://app.prolific.com/","es-ES,es;q=0.9","5883a935c0c9a10001df6345","683db6dfa200031b80f2a654","686507730462985b59b68436","5883a935c0c9a10001df6345","","","","","","","","","","","","","","","","","","","","","","","","","","","","","","","","","","","","","","","","","","","","",""
"5557","","","{""green_ball"":[""Ball sometimes shakes and moves in a random direction""]}","survey-multi-select","26","450966","0.0-8.0-5.1-0.1","112","1","2025-07-02 10:19:36","80fe4187154257d5fb01684ea91b68b9","188.78.171.117","Mozilla/5.0 (Windows NT 10.0; Win64; x64) AppleWebKit/537.36 (KHTML, like Gecko) Chrome/137.0.0.0 Safari/537.36","WebKit","Chrome","137.0.0.0","Windows","10.0","https://app.prolific.com/","es-ES,es;q=0.9","5883a935c0c9a10001df6345","683db6dfa200031b80f2a654","686507730462985b59b68436","5883a935c0c9a10001df6345","","","[0]","","","","quiz","","","","","","","","","","","","","","","","","","","","","","","","","","","","","","","","","","","","","true",""
"3389","","<p align='center'><b>CORRECT!</b> Indeed, the green ball may sometimes shake and move in a random direction.</p>","0","html-button-response","27","454356","0.0-8.0-5.1-1.1","112","1","2025-07-02 10:19:36","80fe4187154257d5fb01684ea91b68b9","188.78.171.117","Mozilla/5.0 (Windows NT 10.0; Win64; x64) AppleWebKit/537.36 (KHTML, like Gecko) Chrome/137.0.0.0 Safari/537.36","WebKit","Chrome","137.0.0.0","Windows","10.0","https://app.prolific.com/","es-ES,es;q=0.9","5883a935c0c9a10001df6345","683db6dfa200031b80f2a654","686507730462985b59b68436","5883a935c0c9a10001df6345","","","","","","","","","","","","","","","","","","","","","","","","","","","","","","","","","","","","","","","","","","","","",""
"5070","","","{""yellow_ball"":[""Ball doesn‘t move and I get -1 penalty point""]}","survey-multi-select","28","459427","0.0-8.0-6.0-0.0","112","1","2025-07-02 10:19:36","80fe4187154257d5fb01684ea91b68b9","188.78.171.117","Mozilla/5.0 (Windows NT 10.0; Win64; x64) AppleWebKit/537.36 (KHTML, like Gecko) Chrome/137.0.0.0 Safari/537.36","WebKit","Chrome","137.0.0.0","Windows","10.0","https://app.prolific.com/","es-ES,es;q=0.9","5883a935c0c9a10001df6345","683db6dfa200031b80f2a654","686507730462985b59b68436","5883a935c0c9a10001df6345","","","[0]","","","","quiz","","","","","","","","","","","","","","","","","","","","","","","","","","","","","","","","","","","","","true",""
"1018","","<p align='center'><b>CORRECT!</b> Indeed, the yellow ball never moves and you receive a penalty.</p>","0","html-button-response","29","460446","0.0-8.0-6.0-1.0","112","1","2025-07-02 10:19:36","80fe4187154257d5fb01684ea91b68b9","188.78.171.117","Mozilla/5.0 (Windows NT 10.0; Win64; x64) AppleWebKit/537.36 (KHTML, like Gecko) Chrome/137.0.0.0 Safari/537.36","WebKit","Chrome","137.0.0.0","Windows","10.0","https://app.prolific.com/","es-ES,es;q=0.9","5883a935c0c9a10001df6345","683db6dfa200031b80f2a654","686507730462985b59b68436","5883a935c0c9a10001df6345","","","","","","","","","","","","","","","","","","","","","","","","","","","","","","","","","","","","","","","","","","","","",""
"3745","","","{""blue_ball"":[""Ball always shakes and moves in a random direction""]}","survey-multi-select","30","464192","0.0-8.0-7.0-0.0","112","1","2025-07-02 10:19:36","80fe4187154257d5fb01684ea91b68b9","188.78.171.117","Mozilla/5.0 (Windows NT 10.0; Win64; x64) AppleWebKit/537.36 (KHTML, like Gecko) Chrome/137.0.0.0 Safari/537.36","WebKit","Chrome","137.0.0.0","Windows","10.0","https://app.prolific.com/","es-ES,es;q=0.9","5883a935c0c9a10001df6345","683db6dfa200031b80f2a654","686507730462985b59b68436","5883a935c0c9a10001df6345","","","[0]","","","","quiz","","","","","","","","","","","","","","","","","","","","","","","","","","","","","","","","","","","","","true",""
"1171","","<p align='center'><b>CORRECT!</b> Indeed, the blue ball always shakes and moves in a random direction. Also there is a penalty of -1 point.</p>","0","html-button-response","31","465364","0.0-8.0-7.0-1.0","112","1","2025-07-02 10:19:36","80fe4187154257d5fb01684ea91b68b9","188.78.171.117","Mozilla/5.0 (Windows NT 10.0; Win64; x64) AppleWebKit/537.36 (KHTML, like Gecko) Chrome/137.0.0.0 Safari/537.36","WebKit","Chrome","137.0.0.0","Windows","10.0","https://app.prolific.com/","es-ES,es;q=0.9","5883a935c0c9a10001df6345","683db6dfa200031b80f2a654","686507730462985b59b68436","5883a935c0c9a10001df6345","","","","","","","","","","","","","","","","","","","","","","","","","","","","","","","","","","","","","","","","","","","","",""
"4793","","","{""bonus"":[""When I reach 50% of points""]}","survey-multi-select","32","470158","0.0-8.0-8.0-0.0","112","1","2025-07-02 10:19:36","80fe4187154257d5fb01684ea91b68b9","188.78.171.117","Mozilla/5.0 (Windows NT 10.0; Win64; x64) AppleWebKit/537.36 (KHTML, like Gecko) Chrome/137.0.0.0 Safari/537.36","WebKit","Chrome","137.0.0.0","Windows","10.0","https://app.prolific.com/","es-ES,es;q=0.9","5883a935c0c9a10001df6345","683db6dfa200031b80f2a654","686507730462985b59b68436","5883a935c0c9a10001df6345","","","[0]","","","","quiz","","","","","","","","","","","","","","","","","","","","","","","","","","","","","","","","","","","","","true",""
"1997","","<p align='center'><b>CORRECT!</b> Indeed, you receive 2 pounds extra when you reach 50% of points.</p>","0","html-button-response","33","472156","0.0-8.0-8.0-1.0","112","1","2025-07-02 10:19:36","80fe4187154257d5fb01684ea91b68b9","188.78.171.117","Mozilla/5.0 (Windows NT 10.0; Win64; x64) AppleWebKit/537.36 (KHTML, like Gecko) Chrome/137.0.0.0 Safari/537.36","WebKit","Chrome","137.0.0.0","Windows","10.0","https://app.prolific.com/","es-ES,es;q=0.9","5883a935c0c9a10001df6345","683db6dfa200031b80f2a654","686507730462985b59b68436","5883a935c0c9a10001df6345","","","","","","","","","","","","","","","","","","","","","","","","","","","","","","","","","","","","","","","","","","","","",""
"2186","","","","instructions","34","474341","0.0-8.0-9.0","112","1","2025-07-02 10:19:36","80fe4187154257d5fb01684ea91b68b9","188.78.171.117","Mozilla/5.0 (Windows NT 10.0; Win64; x64) AppleWebKit/537.36 (KHTML, like Gecko) Chrome/137.0.0.0 Safari/537.36","WebKit","Chrome","137.0.0.0","Windows","10.0","https://app.prolific.com/","es-ES,es;q=0.9","5883a935c0c9a10001df6345","683db6dfa200031b80f2a654","686507730462985b59b68436","5883a935c0c9a10001df6345","","[{""page_index"":0,""viewing_time"":2185}]","","","","","","","","","","","","","","","","","","","","","","","","","","","","","","","","","","","","","","","","","","",""
"9149","","<p>Before you start with this game please answer the following three questions yourself. </p>
  <p>Through this game, we measure several aspects of your cognitive performance, such as reaction times, multi-tasking capabilities </p>
  <p>and the ability to assess the situation you are in.</p>
  <p></p>
  <p><b>How good do you usually are in such tasks?</b></p>","85","html-slider-response","35","483491","0.0-9.0-0.0","112","1","2025-07-02 10:19:36","80fe4187154257d5fb01684ea91b68b9","188.78.171.117","Mozilla/5.0 (Windows NT 10.0; Win64; x64) AppleWebKit/537.36 (KHTML, like Gecko) Chrome/137.0.0.0 Safari/537.36","WebKit","Chrome","137.0.0.0","Windows","10.0","https://app.prolific.com/","es-ES,es;q=0.9","5883a935c0c9a10001df6345","683db6dfa200031b80f2a654","686507730462985b59b68436","5883a935c0c9a10001df6345","2025-07-02T10:27:40.623Z","","","","","","PreSkillQ","","","","","","","","","","","","","","","","","","","","","","","","","","","","","","","","","","","","","","50"
"4922","","<div style=""width:500px;"">
  <p>How well do you think you will perform in this task compared to other participants?</p>
  </div>","65","html-slider-response","36","488414","0.0-9.0-1.0","112","1","2025-07-02 10:19:36","80fe4187154257d5fb01684ea91b68b9","188.78.171.117","Mozilla/5.0 (Windows NT 10.0; Win64; x64) AppleWebKit/537.36 (KHTML, like Gecko) Chrome/137.0.0.0 Safari/537.36","WebKit","Chrome","137.0.0.0","Windows","10.0","https://app.prolific.com/","es-ES,es;q=0.9","5883a935c0c9a10001df6345","683db6dfa200031b80f2a654","686507730462985b59b68436","5883a935c0c9a10001df6345","2025-07-02T10:27:45.546Z","","","","","","PrePerfQ","","","","","","","","","","","","","","","","","","","","","","","","","","","","","","","","","","","","","","50"
"3078","","<div style=""width:500px;"">
  <p>What best describes how you currently feel?</p>
  </div>","34","html-slider-response","37","491493","0.0-9.0-2.0","112","1","2025-07-02 10:19:36","80fe4187154257d5fb01684ea91b68b9","188.78.171.117","Mozilla/5.0 (Windows NT 10.0; Win64; x64) AppleWebKit/537.36 (KHTML, like Gecko) Chrome/137.0.0.0 Safari/537.36","WebKit","Chrome","137.0.0.0","Windows","10.0","https://app.prolific.com/","es-ES,es;q=0.9","5883a935c0c9a10001df6345","683db6dfa200031b80f2a654","686507730462985b59b68436","5883a935c0c9a10001df6345","2025-07-02T10:27:48.625Z","","","","","","PreMotivationQ","","","","","","","","","","","","","","","","","","","","","","","","","","","","","","","","","","","","","","50"
"","","","","ctl-task-cpt","38","516056","0.0-10.0-0.0","112","1","2025-07-02 10:19:36","80fe4187154257d5fb01684ea91b68b9","188.78.171.117","Mozilla/5.0 (Windows NT 10.0; Win64; x64) AppleWebKit/537.36 (KHTML, like Gecko) Chrome/137.0.0.0 Safari/537.36","WebKit","Chrome","137.0.0.0","Windows","10.0","https://app.prolific.com/","es-ES,es;q=0.9","5883a935c0c9a10001df6345","683db6dfa200031b80f2a654","686507730462985b59b68436","5883a935c0c9a10001df6345","2025-07-02T10:28:13.188Z","","","","","","","","","","","","","","","","win-only","2","g1:SE,g2:NW","1","1","0","492758.4","841.2","5845.3","21545.2","1","4","4","6","2","4","4","4","0","0.030303030303030304","1394.8","3000","1015","[""left"",""up""]","{""num_key_presses"":6,""num_perfect"":6,""num_errors"":0,""num_randdir"":0,""num_randdir_good_moves"":0,""num_whilered"":0,""num_whileblue"":0,""num_blue"":0,""num_good_moves"":6}","[555.4285637991769,565.9285704748971,0.1,555.4285637991769,565.9285704748971,104,600.4285637991769,684.6785704748971,209.3,700.4285637991769,864.6785704748971,309.3,714.1785637991769,1005.9285704748971,414.3,741.6785637991769,1160.928570474897,519.8,755.4285637991769,1177.178570474897,624.3,735.4285637991769,1100.928570474897,724.4,685.4285637991769,1002.1785704748971,825.9,425.4285637991769,745.9285704748971,929.6,1.6785637991768994,440.9285704748971,1034.2,29.1785637991769,290.9285704748971,1139,79.1785637991769,180.92857047489713,1239.1,91.6785637991769,128.42857047489713,1339.3,91.6785637991769,122.17857047489711,1444.3,91.6785637991769,122.17857047489711,1549.2,145.4285637991769,279.6785704748971,1649.4,305.4285637991769,682.1785704748971,1749.5,470.4285637991769,965.9285704748971,1854,602.9285637991769,1104.678570474897,1954.1,602.9285637991769,1104.678570474897,2059.1,600.4285637991769,1113.428570474897,2159.2,619.1785637991769,1243.428570474897,2265,646.6785637991769,1279.678570474897,2369.3,659.1785637991769,1279.678570474897,2469.6,659.1785637991769,1279.678570474897,2574.1,659.1785637991769,1279.678570474897,2674.6,659.1785637991769,1279.678570474897,2779.4,659.1785637991769,1279.678570474897,2885,659.1785637991769,1279.678570474897,2989.2,659.1785637991769,1279.678570474897,3089.2,659.1785637991769,1279.678570474897,3194.5,659.1785637991769,1279.678570474897,3294.8,659.1785637991769,1279.678570474897,3394.9,659.1785637991769,1279.678570474897,3499.2,659.1785637991769,1279.678570474897,3599.3,659.1785637991769,1279.678570474897,3704,659.1785637991769,1279.678570474897,3804.1,659.1785637991769,1279.678570474897,3904.2,659.1785637991769,1279.678570474897,4004.2,659.1785637991769,1279.678570474897,4109.1,659.1785637991769,1279.678570474897,4214.8,659.1785637991769,1279.678570474897,4319.2,659.1785637991769,1279.678570474897,4424.3,659.1785637991769,1279.678570474897,4524.7,659.1785637991769,1279.678570474897,4629.3,659.1785637991769,1279.678570474897,4734.6,659.1785637991769,1279.678570474897,4834.7,659.1785637991769,1279.678570474897,4939.2]","[1374.6,1374.6,1000,0,374.6,""smooth"",""up"",""up"",""good_move"",3962.7,2587.9,2248.9,1374.8,339,""smooth"",""up"",""up"",""good_move"",7033.8,3071,2763.4,3962.8,307.6,""smooth"",""left"",""left"",""good_move"",9306.5,2272.6,1976,7033.9,296.6,""smooth"",""left"",""left"",""good_move"",12149.5,2842.9,2524,9306.6,318.9,""smooth"",""up"",""up"",""good_move"",15613.5,3464,3082.7,12149.5,381.3,""smooth"",""left"",""left"",""good_move""]","",""
"2379","","<div style=""width:500px;"">
  <p>What determined the result of this run?</p>
  </div>","100","html-slider-response","39","518436","0.0-10.0-1.0","112","1","2025-07-02 10:19:36","80fe4187154257d5fb01684ea91b68b9","188.78.171.117","Mozilla/5.0 (Windows NT 10.0; Win64; x64) AppleWebKit/537.36 (KHTML, like Gecko) Chrome/137.0.0.0 Safari/537.36","WebKit","Chrome","137.0.0.0","Windows","10.0","https://app.prolific.com/","es-ES,es;q=0.9","5883a935c0c9a10001df6345","683db6dfa200031b80f2a654","686507730462985b59b68436","5883a935c0c9a10001df6345","2025-07-02T10:28:15.568Z","","","","","","AttribQ","","","","","","","","","","","","","","","","","","","","","","","","","","","","","","","","","","","","","","50"
"2561","","<div style=""width:500px;"">
  <p>How much control did you have over the ball?</p>
  </div>","100","html-slider-response","40","520997","0.0-10.0-2.0","112","1","2025-07-02 10:19:36","80fe4187154257d5fb01684ea91b68b9","188.78.171.117","Mozilla/5.0 (Windows NT 10.0; Win64; x64) AppleWebKit/537.36 (KHTML, like Gecko) Chrome/137.0.0.0 Safari/537.36","WebKit","Chrome","137.0.0.0","Windows","10.0","https://app.prolific.com/","es-ES,es;q=0.9","5883a935c0c9a10001df6345","683db6dfa200031b80f2a654","686507730462985b59b68436","5883a935c0c9a10001df6345","2025-07-02T10:28:18.129Z","","","","","","ControlQ","","","","","","","","","","","","","","","","","","","","","","","","","","","","","","","","","","","","","","50"
"2939","","<div style=""width:500px;"">
  <p>How would you describe your current emotional state?</p>
  </div>","15","html-slider-response","41","523937","0.0-10.0-3.0","112","1","2025-07-02 10:19:36","80fe4187154257d5fb01684ea91b68b9","188.78.171.117","Mozilla/5.0 (Windows NT 10.0; Win64; x64) AppleWebKit/537.36 (KHTML, like Gecko) Chrome/137.0.0.0 Safari/537.36","WebKit","Chrome","137.0.0.0","Windows","10.0","https://app.prolific.com/","es-ES,es;q=0.9","5883a935c0c9a10001df6345","683db6dfa200031b80f2a654","686507730462985b59b68436","5883a935c0c9a10001df6345","2025-07-02T10:28:21.069Z","","","","","","StressQ","","","","","","","","","","","","","","","","","","","","","","","","","","","","","","","","","","","","","","50"
"3535","","<div style=""width:500px;"">
  <p>What best describes how you currently feel?</p>
  </div>","76","html-slider-response","42","527473","0.0-10.0-4.0","112","1","2025-07-02 10:19:36","80fe4187154257d5fb01684ea91b68b9","188.78.171.117","Mozilla/5.0 (Windows NT 10.0; Win64; x64) AppleWebKit/537.36 (KHTML, like Gecko) Chrome/137.0.0.0 Safari/537.36","WebKit","Chrome","137.0.0.0","Windows","10.0","https://app.prolific.com/","es-ES,es;q=0.9","5883a935c0c9a10001df6345","683db6dfa200031b80f2a654","686507730462985b59b68436","5883a935c0c9a10001df6345","2025-07-02T10:28:24.605Z","","","","","","MotivationQ","","","","","","","","","","","","","","","","","","","","","","","","","","","","","","","","","","","","","","50"
"","","","","ctl-task-cpt","43","552946","0.0-10.0-0.1","112","1","2025-07-02 10:19:36","80fe4187154257d5fb01684ea91b68b9","188.78.171.117","Mozilla/5.0 (Windows NT 10.0; Win64; x64) AppleWebKit/537.36 (KHTML, like Gecko) Chrome/137.0.0.0 Safari/537.36","WebKit","Chrome","137.0.0.0","Windows","10.0","https://app.prolific.com/","es-ES,es;q=0.9","5883a935c0c9a10001df6345","683db6dfa200031b80f2a654","686507730462985b59b68436","5883a935c0c9a10001df6345","2025-07-02T10:28:50.078Z","","","","","","","","","","","","","","","","win-only","0","g1:NW,g2:SE","0.9","2","0","528738.6","787.2","5790.7","22455.1","1","4","8","6","2","8","8","12","4","0.09090909090909091","879","3000","1010","[""down"",""right""]","{""num_key_presses"":6,""num_perfect"":6,""num_errors"":0,""num_randdir"":0,""num_randdir_good_moves"":0,""num_whilered"":0,""num_whileblue"":0,""num_blue"":0,""num_good_moves"":6}","[550.4285637991769,555.9285704748971,0.1,550.4285637991769,563.4285704748971,103.2,550.4285637991769,575.9285704748971,203.2,566.6785637991769,610.9285704748971,308.1,577.9285637991769,625.9285704748971,408.5,520.4285637991769,565.9285704748971,508.6,480.4285637991769,569.6785704748971,613.2,805.4285637991769,843.4285704748971,718.1,930.4285637991769,937.1785704748971,818.3,944.1785637991769,945.9285704748971,923,946.6785637991769,953.4285704748971,1023.2,929.1785637991769,1070.928570474897,1123.2,936.6785637991769,1274.678570474897,1223.3,947.9285637991769,1279.678570474897,1323.5,975.4285637991769,1269.678570474897,1428.4,975.4285637991769,1269.678570474897,1533.1,955.4285637991769,1279.678570474897,1633.3,955.4285637991769,1279.678570474897,1733.3,955.4285637991769,1279.678570474897,1833.3,955.4285637991769,1279.678570474897,1934,955.4285637991769,1279.678570474897,2038.4,955.4285637991769,1279.678570474897,2143.3,955.4285637991769,1279.678570474897,2244.5,955.4285637991769,1279.678570474897,2348.3,955.4285637991769,1279.678570474897,2448.4,955.4285637991769,1279.678570474897,2548.4,955.4285637991769,1279.678570474897,2653.2,955.4285637991769,1279.678570474897,2753.2,955.4285637991769,1279.678570474897,2858,955.4285637991769,1279.678570474897,2958.6,955.4285637991769,1279.678570474897,3058.6,955.4285637991769,1279.678570474897,3158.6,955.4285637991769,1279.678570474897,3262.9,955.4285637991769,1279.678570474897,3363.3,955.4285637991769,1279.678570474897,3468.1,955.4285637991769,1279.678570474897,3568.3,955.4285637991769,1279.678570474897,3673,955.4285637991769,1279.678570474897,3773.1,955.4285637991769,1279.678570474897,3873.2,955.4285637991769,1279.678570474897,3973.3,955.4285637991769,1279.678570474897,4078.2,955.4285637991769,1279.678570474897,4178.2,955.4285637991769,1279.678570474897,4284,955.4285637991769,1279.678570474897,4388.6,955.4285637991769,1279.678570474897,4493,955.4285637991769,1279.678570474897,4593.1,955.4285637991769,1279.678570474897,4693.2,955.4285637991769,1279.678570474897,4793.3,955.4285637991769,1279.678570474897,4893.3,955.4285637991769,1279.678570474897,4998.1]","[1372.4,1372.4,1000,0,372.4,""smooth"",""right"",""right"",""good_move"",4803.3,3430.7,3185.4,1372.6,245.3,""smooth"",""right"",""right"",""good_move"",7367.1,2563.7,2222.1,4803.4,341.6,""smooth"",""right"",""right"",""good_move"",10808.1,3440.9,2998.6,7367.2,442.3,""smooth"",""down"",""down"",""good_move"",13500.1,2691.8,2367.7,10808.3,324.1,""smooth"",""down"",""down"",""good_move"",16575,3074.8,2776.2,13500.2,298.6,""smooth"",""down"",""down"",""good_move""]","",""
"4834","","<div style=""width:500px;"">
  <p>What determined the result of this run?</p>
  </div>","100","html-slider-response","44","557781","0.0-10.0-1.1","112","1","2025-07-02 10:19:36","80fe4187154257d5fb01684ea91b68b9","188.78.171.117","Mozilla/5.0 (Windows NT 10.0; Win64; x64) AppleWebKit/537.36 (KHTML, like Gecko) Chrome/137.0.0.0 Safari/537.36","WebKit","Chrome","137.0.0.0","Windows","10.0","https://app.prolific.com/","es-ES,es;q=0.9","5883a935c0c9a10001df6345","683db6dfa200031b80f2a654","686507730462985b59b68436","5883a935c0c9a10001df6345","2025-07-02T10:28:54.913Z","","","","","","AttribQ","","","","","","","","","","","","","","","","","","","","","","","","","","","","","","","","","","","","","","50"
"1815","","<div style=""width:500px;"">
  <p>How much control did you have over the ball?</p>
  </div>","100","html-slider-response","45","559596","0.0-10.0-2.1","112","1","2025-07-02 10:19:36","80fe4187154257d5fb01684ea91b68b9","188.78.171.117","Mozilla/5.0 (Windows NT 10.0; Win64; x64) AppleWebKit/537.36 (KHTML, like Gecko) Chrome/137.0.0.0 Safari/537.36","WebKit","Chrome","137.0.0.0","Windows","10.0","https://app.prolific.com/","es-ES,es;q=0.9","5883a935c0c9a10001df6345","683db6dfa200031b80f2a654","686507730462985b59b68436","5883a935c0c9a10001df6345","2025-07-02T10:28:56.728Z","","","","","","ControlQ","","","","","","","","","","","","","","","","","","","","","","","","","","","","","","","","","","","","","","50"
"1913","","<div style=""width:500px;"">
  <p>How would you describe your current emotional state?</p>
  </div>","14","html-slider-response","46","561510","0.0-10.0-3.1","112","1","2025-07-02 10:19:36","80fe4187154257d5fb01684ea91b68b9","188.78.171.117","Mozilla/5.0 (Windows NT 10.0; Win64; x64) AppleWebKit/537.36 (KHTML, like Gecko) Chrome/137.0.0.0 Safari/537.36","WebKit","Chrome","137.0.0.0","Windows","10.0","https://app.prolific.com/","es-ES,es;q=0.9","5883a935c0c9a10001df6345","683db6dfa200031b80f2a654","686507730462985b59b68436","5883a935c0c9a10001df6345","2025-07-02T10:28:58.642Z","","","","","","StressQ","","","","","","","","","","","","","","","","","","","","","","","","","","","","","","","","","","","","","","50"
"3577","","<div style=""width:500px;"">
  <p>What best describes how you currently feel?</p>
  </div>","93","html-slider-response","47","565087","0.0-10.0-4.1","112","1","2025-07-02 10:19:36","80fe4187154257d5fb01684ea91b68b9","188.78.171.117","Mozilla/5.0 (Windows NT 10.0; Win64; x64) AppleWebKit/537.36 (KHTML, like Gecko) Chrome/137.0.0.0 Safari/537.36","WebKit","Chrome","137.0.0.0","Windows","10.0","https://app.prolific.com/","es-ES,es;q=0.9","5883a935c0c9a10001df6345","683db6dfa200031b80f2a654","686507730462985b59b68436","5883a935c0c9a10001df6345","2025-07-02T10:29:02.220Z","","","","","","MotivationQ","","","","","","","","","","","","","","","","","","","","","","","","","","","","","","","","","","","","","","50"
"","","","","ctl-task-cpt","48","626936","0.0-10.0-0.2","112","1","2025-07-02 10:19:36","80fe4187154257d5fb01684ea91b68b9","188.78.171.117","Mozilla/5.0 (Windows NT 10.0; Win64; x64) AppleWebKit/537.36 (KHTML, like Gecko) Chrome/137.0.0.0 Safari/537.36","WebKit","Chrome","137.0.0.0","Windows","10.0","https://app.prolific.com/","es-ES,es;q=0.9","5883a935c0c9a10001df6345","683db6dfa200031b80f2a654","686507730462985b59b68436","5883a935c0c9a10001df6345","2025-07-02T10:30:04.068Z","","","","","","","","","","","","","","","","win-only","0","g1:NW,g2:SE","0.8","3","0","566352.9","666.3","5670.8","58830.4","1","4","8","6","2","-8","-9","3","12","0.022727272727272728","528.8","3000","-3015","[""down"",""right""]","{""num_key_presses"":10,""num_perfect"":7,""num_errors"":1,""num_randdir"":2,""num_randdir_good_moves"":0,""num_whilered"":0,""num_whileblue"":1,""num_blue"":7,""num_good_moves"":7}","[555.4285637991769,564.6785704748971,0.1,555.4285637991769,564.6785704748971,100.1,570.4285637991769,607.1785704748971,204.8,644.1785637991769,718.4285704748971,309.3,880.4285637991769,880.9285704748971,414.3,996.6785637991769,962.1785704748971,519.3,1000.4285637991769,965.9285704748971,624.3,960.4285637991769,987.1785704748971,729.1,886.6785637991769,1103.428570474897,829.8,895.4285637991769,1103.428570474897,934.1,895.4285637991769,1103.428570474897,1034.1,812.9285637991769,1253.428570474897,1134.7,791.6785637991769,1273.428570474897,1239.3,791.6785637991769,1273.428570474897,1344.6,791.6785637991769,1273.428570474897,1444.8,791.6785637991769,1273.428570474897,1549.9,791.6785637991769,1273.428570474897,1655.4,791.6785637991769,1273.428570474897,1759.3,791.6785637991769,1273.428570474897,1859.9,791.6785637991769,1273.428570474897,1964.8,791.6785637991769,1273.428570474897,2069,791.6785637991769,1273.428570474897,2169.5,791.6785637991769,1273.428570474897,2274.2,791.6785637991769,1273.428570474897,2374.8,791.6785637991769,1273.428570474897,2479.4,791.6785637991769,1273.428570474897,2579.4,791.6785637991769,1273.428570474897,2684.4,791.6785637991769,1273.428570474897,2785,791.6785637991769,1273.428570474897,2889.1,791.6785637991769,1273.428570474897,2989.9,791.6785637991769,1273.428570474897,3095.1,791.6785637991769,1273.428570474897,3199.3,791.6785637991769,1273.428570474897,3299.5,791.6785637991769,1273.428570474897,3405.2,791.6785637991769,1273.428570474897,3509.1,791.6785637991769,1273.428570474897,3610,791.6785637991769,1273.428570474897,3713.9,791.6785637991769,1273.428570474897,3814.4,791.6785637991769,1273.428570474897,3914.7,791.6785637991769,1273.428570474897,4019.3,791.6785637991769,1273.428570474897,4119.3,791.6785637991769,1273.428570474897,4219.6,791.6785637991769,1273.428570474897,4324.7,791.6785637991769,1273.428570474897,4429.1,791.6785637991769,1273.428570474897,4529.7,791.6785637991769,1273.428570474897,4634.8,791.6785637991769,1273.428570474897,4734.8,791.6785637991769,1273.428570474897,4839.2,791.6785637991769,1273.428570474897,4944.1]","[4312.2,4312.2,1941.1,2004.6,366.5,""smooth"",""right"",""right"",""good_move"",7765.9,3453.6,3127.6,4312.4,325.9,""smooth"",""right"",""right"",""good_move"",11101.8,3335.8,3001.1,7766,334.7,""oops"",""right"",""left"",""bad_move"",25076.9,13974.9,3079.6,21700.1,297.2,""smooth"",""right"",""right"",""good_move"",31799.4,6722.3,2745,28754.5,299.9,""while_blue"",""down"",""left"",""bad_move"",38553.7,6754,2836.1,35325.3,392.3,""smooth"",""right"",""right"",""good_move"",41665.6,3111.8,2742.9,38553.8,368.9,""smooth"",""down"",""down"",""good_move"",44910.3,3244.5,2997.5,41665.8,247,""smooth"",""right"",""right"",""good_move"",47434.3,2523.9,2244.4,44910.4,279.5,""smooth"",""down"",""down"",""good_move"",50578.1,3143.8,2860.1,47434.3,283.7,""oops"",""down"",""up"",""bad_move""]","",""
"2609","","<div style=""width:500px;"">
  <p>What determined the result of this run?</p>
  </div>","0","html-slider-response","49","629545","0.0-10.0-1.2","112","1","2025-07-02 10:19:36","80fe4187154257d5fb01684ea91b68b9","188.78.171.117","Mozilla/5.0 (Windows NT 10.0; Win64; x64) AppleWebKit/537.36 (KHTML, like Gecko) Chrome/137.0.0.0 Safari/537.36","WebKit","Chrome","137.0.0.0","Windows","10.0","https://app.prolific.com/","es-ES,es;q=0.9","5883a935c0c9a10001df6345","683db6dfa200031b80f2a654","686507730462985b59b68436","5883a935c0c9a10001df6345","2025-07-02T10:30:06.677Z","","","","","","AttribQ","","","","","","","","","","","","","","","","","","","","","","","","","","","","","","","","","","","","","","50"
"1547","","<div style=""width:500px;"">
  <p>How much control did you have over the ball?</p>
  </div>","0","html-slider-response","50","631093","0.0-10.0-2.2","112","1","2025-07-02 10:19:36","80fe4187154257d5fb01684ea91b68b9","188.78.171.117","Mozilla/5.0 (Windows NT 10.0; Win64; x64) AppleWebKit/537.36 (KHTML, like Gecko) Chrome/137.0.0.0 Safari/537.36","WebKit","Chrome","137.0.0.0","Windows","10.0","https://app.prolific.com/","es-ES,es;q=0.9","5883a935c0c9a10001df6345","683db6dfa200031b80f2a654","686507730462985b59b68436","5883a935c0c9a10001df6345","2025-07-02T10:30:08.225Z","","","","","","ControlQ","","","","","","","","","","","","","","","","","","","","","","","","","","","","","","","","","","","","","","50"
"3720","","<div style=""width:500px;"">
  <p>How would you describe your current emotional state?</p>
  </div>","100","html-slider-response","51","634814","0.0-10.0-3.2","112","1","2025-07-02 10:19:36","80fe4187154257d5fb01684ea91b68b9","188.78.171.117","Mozilla/5.0 (Windows NT 10.0; Win64; x64) AppleWebKit/537.36 (KHTML, like Gecko) Chrome/137.0.0.0 Safari/537.36","WebKit","Chrome","137.0.0.0","Windows","10.0","https://app.prolific.com/","es-ES,es;q=0.9","5883a935c0c9a10001df6345","683db6dfa200031b80f2a654","686507730462985b59b68436","5883a935c0c9a10001df6345","2025-07-02T10:30:11.946Z","","","","","","StressQ","","","","","","","","","","","","","","","","","","","","","","","","","","","","","","","","","","","","","","50"
"2088","","<div style=""width:500px;"">
  <p>What best describes how you currently feel?</p>
  </div>","21","html-slider-response","52","636902","0.0-10.0-4.2","112","1","2025-07-02 10:19:36","80fe4187154257d5fb01684ea91b68b9","188.78.171.117","Mozilla/5.0 (Windows NT 10.0; Win64; x64) AppleWebKit/537.36 (KHTML, like Gecko) Chrome/137.0.0.0 Safari/537.36","WebKit","Chrome","137.0.0.0","Windows","10.0","https://app.prolific.com/","es-ES,es;q=0.9","5883a935c0c9a10001df6345","683db6dfa200031b80f2a654","686507730462985b59b68436","5883a935c0c9a10001df6345","2025-07-02T10:30:14.034Z","","","","","","MotivationQ","","","","","","","","","","","","","","","","","","","","","","","","","","","","","","","","","","","","","","50"
"","","","","ctl-task-cpt","53","664930","0.0-10.0-0.3","112","1","2025-07-02 10:19:36","80fe4187154257d5fb01684ea91b68b9","188.78.171.117","Mozilla/5.0 (Windows NT 10.0; Win64; x64) AppleWebKit/537.36 (KHTML, like Gecko) Chrome/137.0.0.0 Safari/537.36","WebKit","Chrome","137.0.0.0","Windows","10.0","https://app.prolific.com/","es-ES,es;q=0.9","5883a935c0c9a10001df6345","683db6dfa200031b80f2a654","686507730462985b59b68436","5883a935c0c9a10001df6345","2025-07-02T10:30:42.062Z","","","","","","","","","","","","","","","","win-only","3","g1:SW,g2:NE","0.7","4","0","638167.6","704.8","5705.6","25010.7","1","4","4","6","1","1","1","4","3","0.030303030303030304","2220","3000","940","[""down"",""left""]","{""num_key_presses"":6,""num_perfect"":3,""num_errors"":0,""num_randdir"":3,""num_randdir_good_moves"":2,""num_whilered"":0,""num_whileblue"":0,""num_blue"":1,""num_good_moves"":5}","[552.9285637991769,572.1785704748971,0.1,552.9285637991769,572.1785704748971,100.4,552.9285637991769,572.1785704748971,200.5,552.9285637991769,572.1785704748971,300.5,534.1785637991769,597.1785704748971,400.7,515.4285637991769,619.6785704748971,505.7,521.6785637991769,619.6785704748971,605.9,712.9285637991769,584.6785704748971,710.3,955.4285637991769,313.4285704748971,810.7,947.9285637991769,213.42857047489713,910.7,951.6785637991769,173.42857047489713,1010.8,951.6785637991769,157.17857047489713,1110.8,949.1785637991769,152.17857047489713,1215.6,949.1785637991769,152.17857047489713,1316.5,949.1785637991769,152.17857047489713,1421.9,949.1785637991769,152.17857047489713,1525.9,949.1785637991769,152.17857047489713,1626.3,766.6785637991769,372.1785704748971,1731.8,436.6785637991769,695.9285704748971,1831.9,346.6785637991769,848.4285704748971,1935.8,245.4285637991769,963.4285704748971,2036.2,150.4285637991769,985.9285704748971,2140.5,145.4285637991769,985.9285704748971,2240.9,145.4285637991769,985.9285704748971,2340.9,171.6785637991769,985.9285704748971,2445.6,411.6785637991769,1020.9285704748971,2545.6,559.1785637991769,955.9285704748971,2645.9,559.1785637991769,955.9285704748971,2746.1,656.6785637991769,1125.928570474897,2850.6,707.9285637991769,1279.678570474897,2955.9,711.6785637991769,1279.678570474897,3055.9,711.6785637991769,1279.678570474897,3160.7,711.6785637991769,1279.678570474897,3265.7,711.6785637991769,1279.678570474897,3366.1,711.6785637991769,1279.678570474897,3466.2,711.6785637991769,1279.678570474897,3566.2,711.6785637991769,1279.678570474897,3666.3,711.6785637991769,1279.678570474897,3771.6,711.6785637991769,1279.678570474897,3876.2,711.6785637991769,1279.678570474897,3980.9,711.6785637991769,1279.678570474897,4081,711.6785637991769,1279.678570474897,4181.6,711.6785637991769,1279.678570474897,4286.1,711.6785637991769,1279.678570474897,4386.3,711.6785637991769,1279.678570474897,4491.6,711.6785637991769,1279.678570474897,4595.6,711.6785637991769,1279.678570474897,4700.7,711.6785637991769,1279.678570474897,4805.7,711.6785637991769,1279.678570474897,4905.7]","[1424.1,1424.1,1000,0,424.1,""smooth"",""left"",""left"",""good_move"",8064.9,6640.6,2293.6,5394.9,376.4,""smooth"",""down"",""down"",""good_move"",10627,2561.9,2232.7,8065.1,329.2,""oops"",""down"",""right"",""bad_move"",13084,2456.9,2027.7,10627.1,429.2,""smooth"",""down"",""down"",""good_move"",16014.6,2930.5,2632.5,13084.1,298,""oops"",""left"",""left"",""good_move"",19219.6,3204.8,2967.4,16014.8,237.4,""oops"",""left"",""left"",""good_move""]","",""
"2365","","<div style=""width:500px;"">
  <p>What determined the result of this run?</p>
  </div>","28","html-slider-response","54","667295","0.0-10.0-1.3","112","1","2025-07-02 10:19:36","80fe4187154257d5fb01684ea91b68b9","188.78.171.117","Mozilla/5.0 (Windows NT 10.0; Win64; x64) AppleWebKit/537.36 (KHTML, like Gecko) Chrome/137.0.0.0 Safari/537.36","WebKit","Chrome","137.0.0.0","Windows","10.0","https://app.prolific.com/","es-ES,es;q=0.9","5883a935c0c9a10001df6345","683db6dfa200031b80f2a654","686507730462985b59b68436","5883a935c0c9a10001df6345","2025-07-02T10:30:44.427Z","","","","","","AttribQ","","","","","","","","","","","","","","","","","","","","","","","","","","","","","","","","","","","","","","50"
"1782","","<div style=""width:500px;"">
  <p>How much control did you have over the ball?</p>
  </div>","36","html-slider-response","55","669078","0.0-10.0-2.3","112","1","2025-07-02 10:19:36","80fe4187154257d5fb01684ea91b68b9","188.78.171.117","Mozilla/5.0 (Windows NT 10.0; Win64; x64) AppleWebKit/537.36 (KHTML, like Gecko) Chrome/137.0.0.0 Safari/537.36","WebKit","Chrome","137.0.0.0","Windows","10.0","https://app.prolific.com/","es-ES,es;q=0.9","5883a935c0c9a10001df6345","683db6dfa200031b80f2a654","686507730462985b59b68436","5883a935c0c9a10001df6345","2025-07-02T10:30:46.210Z","","","","","","ControlQ","","","","","","","","","","","","","","","","","","","","","","","","","","","","","","","","","","","","","","50"
"1753","","<div style=""width:500px;"">
  <p>How would you describe your current emotional state?</p>
  </div>","69","html-slider-response","56","670832","0.0-10.0-3.3","112","1","2025-07-02 10:19:36","80fe4187154257d5fb01684ea91b68b9","188.78.171.117","Mozilla/5.0 (Windows NT 10.0; Win64; x64) AppleWebKit/537.36 (KHTML, like Gecko) Chrome/137.0.0.0 Safari/537.36","WebKit","Chrome","137.0.0.0","Windows","10.0","https://app.prolific.com/","es-ES,es;q=0.9","5883a935c0c9a10001df6345","683db6dfa200031b80f2a654","686507730462985b59b68436","5883a935c0c9a10001df6345","2025-07-02T10:30:47.964Z","","","","","","StressQ","","","","","","","","","","","","","","","","","","","","","","","","","","","","","","","","","","","","","","50"
"1370","","<div style=""width:500px;"">
  <p>What best describes how you currently feel?</p>
  </div>","39","html-slider-response","57","672203","0.0-10.0-4.3","112","1","2025-07-02 10:19:36","80fe4187154257d5fb01684ea91b68b9","188.78.171.117","Mozilla/5.0 (Windows NT 10.0; Win64; x64) AppleWebKit/537.36 (KHTML, like Gecko) Chrome/137.0.0.0 Safari/537.36","WebKit","Chrome","137.0.0.0","Windows","10.0","https://app.prolific.com/","es-ES,es;q=0.9","5883a935c0c9a10001df6345","683db6dfa200031b80f2a654","686507730462985b59b68436","5883a935c0c9a10001df6345","2025-07-02T10:30:49.335Z","","","","","","MotivationQ","","","","","","","","","","","","","","","","","","","","","","","","","","","","","","","","","","","","","","50"
"","","","","ctl-task-cpt","58","717865","0.0-10.0-0.4","112","1","2025-07-02 10:19:36","80fe4187154257d5fb01684ea91b68b9","188.78.171.117","Mozilla/5.0 (Windows NT 10.0; Win64; x64) AppleWebKit/537.36 (KHTML, like Gecko) Chrome/137.0.0.0 Safari/537.36","WebKit","Chrome","137.0.0.0","Windows","10.0","https://app.prolific.com/","es-ES,es;q=0.9","5883a935c0c9a10001df6345","683db6dfa200031b80f2a654","686507730462985b59b68436","5883a935c0c9a10001df6345","2025-07-02T10:31:34.997Z","","","","","","","","","","","","","","","","win-only","1","g1:NE,g2:SW","0.6","5","0","673468.4","682.4","5685.7","42645.7","1","4","8","6","2","-8","-10","0","4","0","1127.2","3000","-3015","[""down"",""left""]","{""num_key_presses"":12,""num_perfect"":6,""num_errors"":2,""num_randdir"":4,""num_randdir_good_moves"":1,""num_whilered"":0,""num_whileblue"":0,""num_blue"":0,""num_good_moves"":7}","[550.4285637991769,563.4285704748971,0.1,549.1785637991769,567.1785704748971,103.1,552.9285637991769,625.9285704748971,203.5,566.6785637991769,677.1785704748971,303.8,579.1785637991769,698.4285704748971,408.5,599.1785637991769,715.9285704748971,513.3,599.1785637991769,715.9285704748971,617.9,587.9285637991769,685.9285704748971,718.4,426.6785637991769,805.9285704748971,823.1,231.6785637991769,935.9285704748971,927.9,155.4285637991769,1010.9285704748971,1028,110.4285637991769,1019.6785704748971,1128.3,110.4285637991769,1019.6785704748971,1233.2,202.9285637991769,1007.1785704748971,1333.3,526.6785637991769,900.9285704748971,1433.6,694.1785637991769,989.6785704748971,1538.4,725.4285637991769,1075.928570474897,1638.4,732.9285637991769,1145.928570474897,1743.1,740.4285637991769,1185.928570474897,1843.6,740.4285637991769,1218.428570474897,1947.9,741.6785637991769,1218.428570474897,2048.1,741.6785637991769,1218.428570474897,2148.1,741.6785637991769,1218.428570474897,2248.1,741.6785637991769,1218.428570474897,2348.1,741.6785637991769,1218.428570474897,2448.2,741.6785637991769,1218.428570474897,2548.3,741.6785637991769,1218.428570474897,2648.3,741.6785637991769,1218.428570474897,2748.5,741.6785637991769,1218.428570474897,2848.5,741.6785637991769,1218.428570474897,2953.8,741.6785637991769,1218.428570474897,3058.1,741.6785637991769,1218.428570474897,3158.1,741.6785637991769,1218.428570474897,3258.3,741.6785637991769,1218.428570474897,3363,741.6785637991769,1218.428570474897,3463.8,741.6785637991769,1218.428570474897,3568.8,741.6785637991769,1218.428570474897,3668.9,741.6785637991769,1218.428570474897,3773.6,741.6785637991769,1218.428570474897,3878.3,741.6785637991769,1218.428570474897,3978.9,741.6785637991769,1218.428570474897,4083.8,741.6785637991769,1218.428570474897,4189.4,741.6785637991769,1218.428570474897,4293.5,741.6785637991769,1218.428570474897,4393.8,741.6785637991769,1218.428570474897,4498.6,741.6785637991769,1218.428570474897,4599.1,741.6785637991769,1218.428570474897,4703.9,741.6785637991769,1218.428570474897,4808.7,741.6785637991769,1218.428570474897,4914.1]","[1317.6,1317.6,1000,0,317.6,""smooth"",""down"",""down"",""good_move"",4101.4,2783.7,2476.7,1317.7,307,""oops"",""down"",""up"",""bad_move"",6935.6,2834,2515.7,4101.6,318.3,""smooth"",""down"",""down"",""good_move"",10304.5,3368.9,3072.8,6935.6,296.1,""smooth"",""down"",""down"",""good_move"",13480.5,3176,2861.7,10304.6,314.3,""oops"",""down"",""right"",""bad_move"",16675.3,3194.6,2940.1,13480.7,254.5,""smooth"",""down"",""down"",""good_move"",20120.1,3444.7,3149,16675.4,295.7,""smooth"",""left"",""left"",""good_move"",23101.1,2980.8,2650.1,20120.3,330.7,""oops"",""left"",""left"",""good_move"",25401.2,2300,2038.5,23101.2,261.5,""oops"",""left"",""up"",""bad_move"",27204,1802.6,2094.9,25401.4,-292.3,""error"",""-"",""-"",""no_move"",30694.9,3490.7,2257.9,28205,232,""smooth"",""left"",""left"",""good_move"",33437.7,2742.8,2756.4,30694.9,-13.6,""error"",""-"",""-"",""no_move""]","",""
"2267","","<div style=""width:500px;"">
  <p>What determined the result of this run?</p>
  </div>","0","html-slider-response","59","720133","0.0-10.0-1.4","112","1","2025-07-02 10:19:36","80fe4187154257d5fb01684ea91b68b9","188.78.171.117","Mozilla/5.0 (Windows NT 10.0; Win64; x64) AppleWebKit/537.36 (KHTML, like Gecko) Chrome/137.0.0.0 Safari/537.36","WebKit","Chrome","137.0.0.0","Windows","10.0","https://app.prolific.com/","es-ES,es;q=0.9","5883a935c0c9a10001df6345","683db6dfa200031b80f2a654","686507730462985b59b68436","5883a935c0c9a10001df6345","2025-07-02T10:31:37.265Z","","","","","","AttribQ","","","","","","","","","","","","","","","","","","","","","","","","","","","","","","","","","","","","","","50"
"1258","","<div style=""width:500px;"">
  <p>How much control did you have over the ball?</p>
  </div>","0","html-slider-response","60","721392","0.0-10.0-2.4","112","1","2025-07-02 10:19:36","80fe4187154257d5fb01684ea91b68b9","188.78.171.117","Mozilla/5.0 (Windows NT 10.0; Win64; x64) AppleWebKit/537.36 (KHTML, like Gecko) Chrome/137.0.0.0 Safari/537.36","WebKit","Chrome","137.0.0.0","Windows","10.0","https://app.prolific.com/","es-ES,es;q=0.9","5883a935c0c9a10001df6345","683db6dfa200031b80f2a654","686507730462985b59b68436","5883a935c0c9a10001df6345","2025-07-02T10:31:38.524Z","","","","","","ControlQ","","","","","","","","","","","","","","","","","","","","","","","","","","","","","","","","","","","","","","50"
"1757","","<div style=""width:500px;"">
  <p>How would you describe your current emotional state?</p>
  </div>","100","html-slider-response","61","723149","0.0-10.0-3.4","112","1","2025-07-02 10:19:36","80fe4187154257d5fb01684ea91b68b9","188.78.171.117","Mozilla/5.0 (Windows NT 10.0; Win64; x64) AppleWebKit/537.36 (KHTML, like Gecko) Chrome/137.0.0.0 Safari/537.36","WebKit","Chrome","137.0.0.0","Windows","10.0","https://app.prolific.com/","es-ES,es;q=0.9","5883a935c0c9a10001df6345","683db6dfa200031b80f2a654","686507730462985b59b68436","5883a935c0c9a10001df6345","2025-07-02T10:31:40.281Z","","","","","","StressQ","","","","","","","","","","","","","","","","","","","","","","","","","","","","","","","","","","","","","","50"
"1614","","<div style=""width:500px;"">
  <p>What best describes how you currently feel?</p>
  </div>","0","html-slider-response","62","724764","0.0-10.0-4.4","112","1","2025-07-02 10:19:36","80fe4187154257d5fb01684ea91b68b9","188.78.171.117","Mozilla/5.0 (Windows NT 10.0; Win64; x64) AppleWebKit/537.36 (KHTML, like Gecko) Chrome/137.0.0.0 Safari/537.36","WebKit","Chrome","137.0.0.0","Windows","10.0","https://app.prolific.com/","es-ES,es;q=0.9","5883a935c0c9a10001df6345","683db6dfa200031b80f2a654","686507730462985b59b68436","5883a935c0c9a10001df6345","2025-07-02T10:31:41.896Z","","","","","","MotivationQ","","","","","","","","","","","","","","","","","","","","","","","","","","","","","","","","","","","","","","50"
"","","","","ctl-task-cpt","63","763576","0.0-10.0-0.5","112","1","2025-07-02 10:19:36","80fe4187154257d5fb01684ea91b68b9","188.78.171.117","Mozilla/5.0 (Windows NT 10.0; Win64; x64) AppleWebKit/537.36 (KHTML, like Gecko) Chrome/137.0.0.0 Safari/537.36","WebKit","Chrome","137.0.0.0","Windows","10.0","https://app.prolific.com/","es-ES,es;q=0.9","5883a935c0c9a10001df6345","683db6dfa200031b80f2a654","686507730462985b59b68436","5883a935c0c9a10001df6345","2025-07-02T10:32:20.708Z","","","","","","","","","","","","","","","","win-only","0","g1:NW,g2:SE","0.5","6","0","726029.4","537.2","5540.8","35796","1","4","4","6","2","-4","-4","0","0","0","1624.9","3000","-3015","[""down"",""right""]","{""num_key_presses"":8,""num_perfect"":4,""num_errors"":0,""num_randdir"":4,""num_randdir_good_moves"":0,""num_whilered"":0,""num_whileblue"":0,""num_blue"":2,""num_good_moves"":4}","[561.6785637991769,562.1785704748971,0.1,561.6785637991769,562.1785704748971,103.7,565.4285637991769,625.9285704748971,209.1,635.4285637991769,768.4285704748971,309.5,700.4285637991769,875.9285704748971,414.2,721.6785637991769,914.6785704748971,518.6,724.1785637991769,915.9285704748971,619,729.1785637991769,919.6785704748971,723.1,747.9285637991769,925.9285704748971,823.9,749.1785637991769,920.9285704748971,928.4,760.4285637991769,923.4285704748971,1029,779.1785637991769,920.9285704748971,1134.3,795.4285637991769,920.9285704748971,1238.4,847.9285637991769,927.1785704748971,1338.5,899.1785637991769,945.9285704748971,1439.1,934.1785637991769,960.9285704748971,1543.3,965.4285637991769,969.6785704748971,1648.6,961.6785637991769,970.9285704748971,1748.6,820.4285637991769,1020.9285704748971,1848.7,717.9285637991769,1110.928570474897,1953.7,756.6785637991769,1193.428570474897,2053.7,786.6785637991769,1240.928570474897,2158.4,794.1785637991769,1252.178570474897,2258.6,794.1785637991769,1252.178570474897,2363.6,794.1785637991769,1252.178570474897,2464.4,794.1785637991769,1252.178570474897,2568.8,794.1785637991769,1252.178570474897,2674.3,794.1785637991769,1252.178570474897,2778.5,794.1785637991769,1252.178570474897,2878.5,794.1785637991769,1252.178570474897,2983.2,794.1785637991769,1252.178570474897,3084,794.1785637991769,1252.178570474897,3184.1,794.1785637991769,1252.178570474897,3288.4,794.1785637991769,1252.178570474897,3388.6,794.1785637991769,1252.178570474897,3493.3,794.1785637991769,1252.178570474897,3593.5,794.1785637991769,1252.178570474897,3693.9,794.1785637991769,1252.178570474897,3794,794.1785637991769,1252.178570474897,3898.5,794.1785637991769,1252.178570474897,3999.1,794.1785637991769,1252.178570474897,4103.9,794.1785637991769,1252.178570474897,4208.9,794.1785637991769,1252.178570474897,4313.5,794.1785637991769,1252.178570474897,4413.5,794.1785637991769,1252.178570474897,4514.6,794.1785637991769,1252.178570474897,4618.4,794.1785637991769,1252.178570474897,4718.6,794.1785637991769,1252.178570474897,4823.4,794.1785637991769,1252.178570474897,4928.4]","[1313.5,1313.5,1000,0,313.5,""smooth"",""right"",""right"",""good_move"",4175.4,2861.7,2562.6,1313.7,299.1,""oops"",""right"",""left"",""bad_move"",6462.1,2286.5,1984.7,4175.6,301.8,""oops"",""right"",""up"",""bad_move"",9182.3,2720.1,2410.7,6462.2,309.4,""oops"",""down"",""up"",""bad_move"",11984.2,2801.9,2560.2,9182.3,241.7,""smooth"",""right"",""right"",""good_move"",15434,3449.6,3164.8,11984.4,284.8,""smooth"",""right"",""right"",""good_move"",21320,5885.9,2280.6,18714.9,324.5,""oops"",""right"",""left"",""bad_move"",24119,2798.8,2491.8,21320.2,307,""smooth"",""right"",""right"",""good_move""]","",""
"1608","","<div style=""width:500px;"">
  <p>What determined the result of this run?</p>
  </div>","0","html-slider-response","64","765185","0.0-10.0-1.5","112","1","2025-07-02 10:19:36","80fe4187154257d5fb01684ea91b68b9","188.78.171.117","Mozilla/5.0 (Windows NT 10.0; Win64; x64) AppleWebKit/537.36 (KHTML, like Gecko) Chrome/137.0.0.0 Safari/537.36","WebKit","Chrome","137.0.0.0","Windows","10.0","https://app.prolific.com/","es-ES,es;q=0.9","5883a935c0c9a10001df6345","683db6dfa200031b80f2a654","686507730462985b59b68436","5883a935c0c9a10001df6345","2025-07-02T10:32:22.317Z","","","","","","AttribQ","","","","","","","","","","","","","","","","","","","","","","","","","","","","","","","","","","","","","","50"
"1385","","<div style=""width:500px;"">
  <p>How much control did you have over the ball?</p>
  </div>","0","html-slider-response","65","766570","0.0-10.0-2.5","112","1","2025-07-02 10:19:36","80fe4187154257d5fb01684ea91b68b9","188.78.171.117","Mozilla/5.0 (Windows NT 10.0; Win64; x64) AppleWebKit/537.36 (KHTML, like Gecko) Chrome/137.0.0.0 Safari/537.36","WebKit","Chrome","137.0.0.0","Windows","10.0","https://app.prolific.com/","es-ES,es;q=0.9","5883a935c0c9a10001df6345","683db6dfa200031b80f2a654","686507730462985b59b68436","5883a935c0c9a10001df6345","2025-07-02T10:32:23.702Z","","","","","","ControlQ","","","","","","","","","","","","","","","","","","","","","","","","","","","","","","","","","","","","","","50"
"1576","","<div style=""width:500px;"">
  <p>How would you describe your current emotional state?</p>
  </div>","100","html-slider-response","66","768147","0.0-10.0-3.5","112","1","2025-07-02 10:19:36","80fe4187154257d5fb01684ea91b68b9","188.78.171.117","Mozilla/5.0 (Windows NT 10.0; Win64; x64) AppleWebKit/537.36 (KHTML, like Gecko) Chrome/137.0.0.0 Safari/537.36","WebKit","Chrome","137.0.0.0","Windows","10.0","https://app.prolific.com/","es-ES,es;q=0.9","5883a935c0c9a10001df6345","683db6dfa200031b80f2a654","686507730462985b59b68436","5883a935c0c9a10001df6345","2025-07-02T10:32:25.279Z","","","","","","StressQ","","","","","","","","","","","","","","","","","","","","","","","","","","","","","","","","","","","","","","50"
"1708","","<div style=""width:500px;"">
  <p>What best describes how you currently feel?</p>
  </div>","0","html-slider-response","67","769856","0.0-10.0-4.5","112","1","2025-07-02 10:19:36","80fe4187154257d5fb01684ea91b68b9","188.78.171.117","Mozilla/5.0 (Windows NT 10.0; Win64; x64) AppleWebKit/537.36 (KHTML, like Gecko) Chrome/137.0.0.0 Safari/537.36","WebKit","Chrome","137.0.0.0","Windows","10.0","https://app.prolific.com/","es-ES,es;q=0.9","5883a935c0c9a10001df6345","683db6dfa200031b80f2a654","686507730462985b59b68436","5883a935c0c9a10001df6345","2025-07-02T10:32:26.988Z","","","","","","MotivationQ","","","","","","","","","","","","","","","","","","","","","","","","","","","","","","","","","","","","","","50"
"","","","","ctl-task-cpt","68","813076","0.0-10.0-0.6","112","1","2025-07-02 10:19:36","80fe4187154257d5fb01684ea91b68b9","188.78.171.117","Mozilla/5.0 (Windows NT 10.0; Win64; x64) AppleWebKit/537.36 (KHTML, like Gecko) Chrome/137.0.0.0 Safari/537.36","WebKit","Chrome","137.0.0.0","Windows","10.0","https://app.prolific.com/","es-ES,es;q=0.9","5883a935c0c9a10001df6345","683db6dfa200031b80f2a654","686507730462985b59b68436","5883a935c0c9a10001df6345","2025-07-02T10:33:10.208Z","","","","","","","","","","","","","","","","win-only","3","g1:SW,g2:NE","0.4","7","0","771121.7","669.1","5670.2","40201","1","4","4","6","2","-4","-5","0","0","0","1298.9","3000","-3015","[""up"",""right""]","{""num_key_presses"":10,""num_perfect"":4,""num_errors"":1,""num_randdir"":5,""num_randdir_good_moves"":2,""num_whilered"":0,""num_whileblue"":0,""num_blue"":2,""num_good_moves"":6}","[547.9285637991769,557.1785704748971,0.1,547.9285637991769,557.1785704748971,101.5,550.4285637991769,602.1785704748971,201.8,615.4285637991769,757.1785704748971,306.2,686.6785637991769,974.6785704748971,406.4,734.1785637991769,1142.178570474897,506.4,757.9285637991769,1225.928570474897,606.6,751.6785637991769,1112.178570474897,711.5,590.4285637991769,663.4285704748971,816.8,546.6785637991769,519.6785704748971,916.8,912.9285637991769,440.9285704748971,1016.9,1146.6785637991768,340.9285704748971,1121.7,1037.9285637991768,170.92857047489713,1222,1005.4285637991769,140.92857047489713,1326.7,995.4285637991769,167.17857047489713,1431.6,945.4285637991769,469.6785704748971,1531.7,856.6785637991769,820.9285704748971,1636.6,845.4285637991769,1008.4285704748971,1737,842.9285637991769,1105.928570474897,1841,814.1785637991769,1208.428570474897,1941.4,790.4285637991769,1279.678570474897,2041.8,790.4285637991769,1279.678570474897,2146.7,790.4285637991769,1279.678570474897,2251.1,790.4285637991769,1279.678570474897,2351.6,790.4285637991769,1279.678570474897,2456,790.4285637991769,1279.678570474897,2556.2,790.4285637991769,1279.678570474897,2656.2,790.4285637991769,1279.678570474897,2761,790.4285637991769,1279.678570474897,2861.5,790.4285637991769,1279.678570474897,2961.6,790.4285637991769,1279.678570474897,3061.8,790.4285637991769,1279.678570474897,3166.6,790.4285637991769,1279.678570474897,3271.6,790.4285637991769,1279.678570474897,3371.7,790.4285637991769,1279.678570474897,3476.5,790.4285637991769,1279.678570474897,3581.3,790.4285637991769,1279.678570474897,3686.7,790.4285637991769,1279.678570474897,3791.5,790.4285637991769,1279.678570474897,3896,790.4285637991769,1279.678570474897,3996,790.4285637991769,1279.678570474897,4096.5,790.4285637991769,1279.678570474897,4201.5,790.4285637991769,1279.678570474897,4301.6,790.4285637991769,1279.678570474897,4405.9,790.4285637991769,1279.678570474897,4506.6,790.4285637991769,1279.678570474897,4611.2,790.4285637991769,1279.678570474897,4711.3,790.4285637991769,1279.678570474897,4811.3,790.4285637991769,1279.678570474897,4911.4]","[4133.8,4133.8,1764,2010.9,358.9,""oops"",""right"",""up"",""good_move"",6755.5,2621.4,2282,4134.1,339.4,""smooth"",""right"",""right"",""good_move"",9872.6,3116.9,2822.5,6755.7,294.4,""oops"",""right"",""left"",""bad_move"",12322.3,2449.5,2119.4,9872.8,330.1,""oops"",""right"",""up"",""good_move"",14862.5,2540,2238.8,12322.5,301.2,""smooth"",""right"",""right"",""good_move"",17698.3,2835.7,2555.3,14862.6,280.4,""smooth"",""right"",""right"",""good_move"",20024.1,2325.7,1990.2,17698.4,335.5,""oops"",""right"",""left"",""bad_move"",22811.4,2787.2,2550.3,20024.2,236.9,""smooth"",""right"",""right"",""good_move"",25128.5,2317,2088.1,22811.5,228.9,""oops"",""right"",""down"",""bad_move"",27572.2,2443.5,2871.1,25128.7,-427.6,""error"",""-"",""-"",""no_move""]","",""
"1398","","<div style=""width:500px;"">
  <p>What determined the result of this run?</p>
  </div>","0","html-slider-response","69","814474","0.0-10.0-1.6","112","1","2025-07-02 10:19:36","80fe4187154257d5fb01684ea91b68b9","188.78.171.117","Mozilla/5.0 (Windows NT 10.0; Win64; x64) AppleWebKit/537.36 (KHTML, like Gecko) Chrome/137.0.0.0 Safari/537.36","WebKit","Chrome","137.0.0.0","Windows","10.0","https://app.prolific.com/","es-ES,es;q=0.9","5883a935c0c9a10001df6345","683db6dfa200031b80f2a654","686507730462985b59b68436","5883a935c0c9a10001df6345","2025-07-02T10:33:11.606Z","","","","","","AttribQ","","","","","","","","","","","","","","","","","","","","","","","","","","","","","","","","","","","","","","50"
"2011","","<div style=""width:500px;"">
  <p>How much control did you have over the ball?</p>
  </div>","0","html-slider-response","70","816486","0.0-10.0-2.6","112","1","2025-07-02 10:19:36","80fe4187154257d5fb01684ea91b68b9","188.78.171.117","Mozilla/5.0 (Windows NT 10.0; Win64; x64) AppleWebKit/537.36 (KHTML, like Gecko) Chrome/137.0.0.0 Safari/537.36","WebKit","Chrome","137.0.0.0","Windows","10.0","https://app.prolific.com/","es-ES,es;q=0.9","5883a935c0c9a10001df6345","683db6dfa200031b80f2a654","686507730462985b59b68436","5883a935c0c9a10001df6345","2025-07-02T10:33:13.618Z","","","","","","ControlQ","","","","","","","","","","","","","","","","","","","","","","","","","","","","","","","","","","","","","","50"
"2056","","<div style=""width:500px;"">
  <p>How would you describe your current emotional state?</p>
  </div>","100","html-slider-response","71","818543","0.0-10.0-3.6","112","1","2025-07-02 10:19:36","80fe4187154257d5fb01684ea91b68b9","188.78.171.117","Mozilla/5.0 (Windows NT 10.0; Win64; x64) AppleWebKit/537.36 (KHTML, like Gecko) Chrome/137.0.0.0 Safari/537.36","WebKit","Chrome","137.0.0.0","Windows","10.0","https://app.prolific.com/","es-ES,es;q=0.9","5883a935c0c9a10001df6345","683db6dfa200031b80f2a654","686507730462985b59b68436","5883a935c0c9a10001df6345","2025-07-02T10:33:15.675Z","","","","","","StressQ","","","","","","","","","","","","","","","","","","","","","","","","","","","","","","","","","","","","","","50"
"1262","","<div style=""width:500px;"">
  <p>What best describes how you currently feel?</p>
  </div>","0","html-slider-response","72","819805","0.0-10.0-4.6","112","1","2025-07-02 10:19:36","80fe4187154257d5fb01684ea91b68b9","188.78.171.117","Mozilla/5.0 (Windows NT 10.0; Win64; x64) AppleWebKit/537.36 (KHTML, like Gecko) Chrome/137.0.0.0 Safari/537.36","WebKit","Chrome","137.0.0.0","Windows","10.0","https://app.prolific.com/","es-ES,es;q=0.9","5883a935c0c9a10001df6345","683db6dfa200031b80f2a654","686507730462985b59b68436","5883a935c0c9a10001df6345","2025-07-02T10:33:16.937Z","","","","","","MotivationQ","","","","","","","","","","","","","","","","","","","","","","","","","","","","","","","","","","","","","","50"
"","","","","ctl-task-cpt","73","862713","0.0-10.0-0.7","112","1","2025-07-02 10:19:36","80fe4187154257d5fb01684ea91b68b9","188.78.171.117","Mozilla/5.0 (Windows NT 10.0; Win64; x64) AppleWebKit/537.36 (KHTML, like Gecko) Chrome/137.0.0.0 Safari/537.36","WebKit","Chrome","137.0.0.0","Windows","10.0","https://app.prolific.com/","es-ES,es;q=0.9","5883a935c0c9a10001df6345","683db6dfa200031b80f2a654","686507730462985b59b68436","5883a935c0c9a10001df6345","2025-07-02T10:33:59.845Z","","","","","","","","","","","","","","","","win-only","3","g1:SW,g2:NE","0.3","8","0","821070.7","499.2","5500.2","39890.2","1","4","8","6","2","-8","-8","0","0","0","1052.5","3000","-3010","[""up"",""right""]","{""num_key_presses"":8,""num_perfect"":3,""num_errors"":0,""num_randdir"":5,""num_randdir_good_moves"":2,""num_whilered"":0,""num_whileblue"":0,""num_blue"":3,""num_good_moves"":5}","[564.1785637991769,547.1785704748971,0.1,564.1785637991769,547.1785704748971,100.9,564.1785637991769,547.1785704748971,205.9,587.9285637991769,600.9285704748971,311.3,674.1785637991769,735.9285704748971,416,730.4285637991769,745.9285704748971,521.7,730.4285637991769,745.9285704748971,626.6,737.9285637991769,742.1785704748971,731.6,810.4285637991769,520.9285704748971,831.7,889.1785637991769,269.6785704748971,935.8,972.9285637991769,114.67857047489711,1036.8,976.6785637991769,110.92857047489711,1141,976.6785637991769,110.92857047489711,1246.5,949.1785637991769,272.1785704748971,1350.8,961.6785637991769,633.4285704748971,1451.3,977.9285637991769,834.6785704748971,1555.8,964.1785637991769,910.9285704748971,1656.1,974.1785637991769,909.6785704748971,1756.3,974.1785637991769,909.6785704748971,1861,911.6785637991769,1117.178570474897,1961,911.6785637991769,1279.678570474897,2061.3,911.6785637991769,1279.678570474897,2166.2,911.6785637991769,1279.678570474897,2270.9,911.6785637991769,1279.678570474897,2371,911.6785637991769,1279.678570474897,2471.8,911.6785637991769,1279.678570474897,2576.1,911.6785637991769,1279.678570474897,2676.8,911.6785637991769,1279.678570474897,2781.2,911.6785637991769,1279.678570474897,2881.3,911.6785637991769,1279.678570474897,2981.4,911.6785637991769,1279.678570474897,3086.7,911.6785637991769,1279.678570474897,3190.9,911.6785637991769,1279.678570474897,3295.9,911.6785637991769,1279.678570474897,3396.6,911.6785637991769,1279.678570474897,3501.3,911.6785637991769,1279.678570474897,3605.9,911.6785637991769,1279.678570474897,3706.4,911.6785637991769,1279.678570474897,3811,911.6785637991769,1279.678570474897,3911.1,911.6785637991769,1279.678570474897,4011.1,911.6785637991769,1279.678570474897,4111.3,911.6785637991769,1279.678570474897,4216.1,911.6785637991769,1279.678570474897,4316.2,911.6785637991769,1279.678570474897,4421.5,911.6785637991769,1279.678570474897,4521.8,911.6785637991769,1279.678570474897,4621.8,911.6785637991769,1279.678570474897,4726.1,911.6785637991769,1279.678570474897,4831.4,911.6785637991769,1279.678570474897,4936.7]","[1390.7,1390.7,1000,0,390.7,""oops"",""up"",""down"",""bad_move"",4745.4,3354.7,3024.8,1390.8,329.9,""oops"",""up"",""right"",""good_move"",11119.4,6373.7,2300.3,8555,264.1,""oops"",""up"",""up"",""good_move"",20872.4,9752.9,2389.6,18232.2,250.6,""smooth"",""up"",""up"",""good_move"",24296.9,3424.4,3064.6,20872.5,359.8,""smooth"",""up"",""up"",""good_move"",26892,2595.1,2233.8,24296.9,361.3,""oops"",""up"",""left"",""bad_move"",29008,2115.8,1776.3,26892.2,339.5,""smooth"",""up"",""up"",""good_move"",31507,2498.9,2257.1,29008.1,241.8,""oops"",""right"",""left"",""bad_move""]","",""
"1892","","<div style=""width:500px;"">
  <p>What determined the result of this run?</p>
  </div>","0","html-slider-response","74","864605","0.0-10.0-1.7","112","1","2025-07-02 10:19:36","80fe4187154257d5fb01684ea91b68b9","188.78.171.117","Mozilla/5.0 (Windows NT 10.0; Win64; x64) AppleWebKit/537.36 (KHTML, like Gecko) Chrome/137.0.0.0 Safari/537.36","WebKit","Chrome","137.0.0.0","Windows","10.0","https://app.prolific.com/","es-ES,es;q=0.9","5883a935c0c9a10001df6345","683db6dfa200031b80f2a654","686507730462985b59b68436","5883a935c0c9a10001df6345","2025-07-02T10:34:01.737Z","","","","","","AttribQ","","","","","","","","","","","","","","","","","","","","","","","","","","","","","","","","","","","","","","50"
"1367","","<div style=""width:500px;"">
  <p>How much control did you have over the ball?</p>
  </div>","0","html-slider-response","75","865973","0.0-10.0-2.7","112","1","2025-07-02 10:19:36","80fe4187154257d5fb01684ea91b68b9","188.78.171.117","Mozilla/5.0 (Windows NT 10.0; Win64; x64) AppleWebKit/537.36 (KHTML, like Gecko) Chrome/137.0.0.0 Safari/537.36","WebKit","Chrome","137.0.0.0","Windows","10.0","https://app.prolific.com/","es-ES,es;q=0.9","5883a935c0c9a10001df6345","683db6dfa200031b80f2a654","686507730462985b59b68436","5883a935c0c9a10001df6345","2025-07-02T10:34:03.105Z","","","","","","ControlQ","","","","","","","","","","","","","","","","","","","","","","","","","","","","","","","","","","","","","","50"
"1607","","<div style=""width:500px;"">
  <p>How would you describe your current emotional state?</p>
  </div>","100","html-slider-response","76","867581","0.0-10.0-3.7","112","1","2025-07-02 10:19:36","80fe4187154257d5fb01684ea91b68b9","188.78.171.117","Mozilla/5.0 (Windows NT 10.0; Win64; x64) AppleWebKit/537.36 (KHTML, like Gecko) Chrome/137.0.0.0 Safari/537.36","WebKit","Chrome","137.0.0.0","Windows","10.0","https://app.prolific.com/","es-ES,es;q=0.9","5883a935c0c9a10001df6345","683db6dfa200031b80f2a654","686507730462985b59b68436","5883a935c0c9a10001df6345","2025-07-02T10:34:04.713Z","","","","","","StressQ","","","","","","","","","","","","","","","","","","","","","","","","","","","","","","","","","","","","","","50"
"1320","","<div style=""width:500px;"">
  <p>What best describes how you currently feel?</p>
  </div>","0","html-slider-response","77","868902","0.0-10.0-4.7","112","1","2025-07-02 10:19:36","80fe4187154257d5fb01684ea91b68b9","188.78.171.117","Mozilla/5.0 (Windows NT 10.0; Win64; x64) AppleWebKit/537.36 (KHTML, like Gecko) Chrome/137.0.0.0 Safari/537.36","WebKit","Chrome","137.0.0.0","Windows","10.0","https://app.prolific.com/","es-ES,es;q=0.9","5883a935c0c9a10001df6345","683db6dfa200031b80f2a654","686507730462985b59b68436","5883a935c0c9a10001df6345","2025-07-02T10:34:06.034Z","","","","","","MotivationQ","","","","","","","","","","","","","","","","","","","","","","","","","","","","","","","","","","","","","","50"
"","","","","ctl-task-cpt","78","909925","0.0-10.0-0.8","112","1","2025-07-02 10:19:36","80fe4187154257d5fb01684ea91b68b9","188.78.171.117","Mozilla/5.0 (Windows NT 10.0; Win64; x64) AppleWebKit/537.36 (KHTML, like Gecko) Chrome/137.0.0.0 Safari/537.36","WebKit","Chrome","137.0.0.0","Windows","10.0","https://app.prolific.com/","es-ES,es;q=0.9","5883a935c0c9a10001df6345","683db6dfa200031b80f2a654","686507730462985b59b68436","5883a935c0c9a10001df6345","2025-07-02T10:34:47.057Z","","","","","","","","","","","","","","","","win-only","0","g1:NW,g2:SE","0.4","9","0","870167.4","626.5","5630.8","38005.7","1","4","4","6","1","-1","-4","0","0","0","1272.9","3000","-3015","[""left"",""up""]","{""num_key_presses"":17,""num_perfect"":3,""num_errors"":3,""num_randdir"":5,""num_randdir_good_moves"":3,""num_whilered"":6,""num_whileblue"":1,""num_blue"":2,""num_good_moves"":6}","[547.9285637991769,557.1785704748971,0,547.9285637991769,557.1785704748971,104.2,532.9285637991769,613.4285704748971,208.8,545.4285637991769,685.9285704748971,313.6,694.1785637991769,793.4285704748971,413.8,806.6785637991769,848.4285704748971,518.7,760.4285637991769,785.9285704748971,618.9,461.6785637991769,475.9285704748971,723.7,257.9285637991769,342.1785704748971,823.8,122.9285637991769,270.9285704748971,929.1,120.4285637991769,187.17857047489713,1029.2,122.9285637991769,175.92857047489713,1133.7,125.4285637991769,158.42857047489713,1234.4,125.4285637991769,155.92857047489713,1338.9,132.9285637991769,168.42857047489713,1439,295.4285637991769,375.9285704748971,1544.3,570.4285637991769,518.4285704748971,1648.8,785.4285637991769,557.1785704748971,1754,795.4285637991769,557.1785704748971,1854.3,795.4285637991769,557.1785704748971,1954.6,795.4285637991769,557.1785704748971,2058.8,795.4285637991769,557.1785704748971,2158.8,795.4285637991769,557.1785704748971,2259.3,795.4285637991769,557.1785704748971,2363.9,795.4285637991769,557.1785704748971,2464,795.4285637991769,557.1785704748971,2564.2,795.4285637991769,557.1785704748971,2664.5,795.4285637991769,557.1785704748971,2769.3,795.4285637991769,557.1785704748971,2874.8,795.4285637991769,557.1785704748971,2978.7,795.4285637991769,557.1785704748971,3078.9,795.4285637991769,557.1785704748971,3178.9,795.4285637991769,557.1785704748971,3284,795.4285637991769,557.1785704748971,3388.7,795.4285637991769,557.1785704748971,3488.7,795.4285637991769,557.1785704748971,3588.7,795.4285637991769,557.1785704748971,3688.8,795.4285637991769,557.1785704748971,3794,795.4285637991769,557.1785704748971,3894,795.4285637991769,557.1785704748971,3998.7,795.4285637991769,557.1785704748971,4098.8,795.4285637991769,557.1785704748971,4198.8,795.4285637991769,557.1785704748971,4298.8,795.4285637991769,557.1785704748971,4399.2,795.4285637991769,557.1785704748971,4503.7,795.4285637991769,557.1785704748971,4605,795.4285637991769,557.1785704748971,4708.6,795.4285637991769,557.1785704748971,4808.8,795.4285637991769,557.1785704748971,4913.8]","[1464.6,1464.6,1000,0,464.6,""oops"",""up"",""right"",""bad_move"",4364.1,2899.4,2555.1,1464.7,344.3,""while_blue"",""up"",""right"",""bad_move"",5058.3,694,3040,4364.3,-2346,""error"",""-"",""-"",""no_move"",5199.1,140.8,3040,4364.3,-2205.2,""while_red"",""-"",""-"",""no_move"",5336.1,277.8,3040,4364.3,-2068.2,""while_red"",""-"",""-"",""no_move"",5522.1,463.8,3040,4364.3,-1882.2,""while_red"",""-"",""-"",""no_move"",5654.9,596.6,3040,4364.3,-1749.4,""while_red"",""-"",""-"",""no_move"",5805,746.7,3040,4364.3,-1599.3,""while_red"",""-"",""-"",""no_move"",5937.2,878.9,3040,4364.3,-1467.1,""while_red"",""-"",""-"",""no_move"",6097.1,1038.8,2475.2,6060.2,-2438.3,""error"",""-"",""-"",""no_move"",13050.2,6952.9,2794,9749.9,506.3,""smooth"",""up"",""up"",""good_move"",15285.2,2234.9,1750.2,13050.3,484.7,""oops"",""up"",""up"",""good_move"",18166.9,2881.5,2502.3,15285.4,379.2,""oops"",""left"",""left"",""good_move"",21901.8,3734.8,3450,18167,284.8,""smooth"",""left"",""left"",""good_move"",24495.9,2593.9,2340,21902,253.9,""oops"",""left"",""right"",""bad_move"",27377.6,2881.5,2553.1,24496.1,328.4,""oops"",""left"",""left"",""good_move"",30026.8,2649,2359.8,27377.8,289.3,""smooth"",""left"",""left"",""good_move""]","",""
"1784","","<div style=""width:500px;"">
  <p>What determined the result of this run?</p>
  </div>","0","html-slider-response","79","911710","0.0-10.0-1.8","112","1","2025-07-02 10:19:36","80fe4187154257d5fb01684ea91b68b9","188.78.171.117","Mozilla/5.0 (Windows NT 10.0; Win64; x64) AppleWebKit/537.36 (KHTML, like Gecko) Chrome/137.0.0.0 Safari/537.36","WebKit","Chrome","137.0.0.0","Windows","10.0","https://app.prolific.com/","es-ES,es;q=0.9","5883a935c0c9a10001df6345","683db6dfa200031b80f2a654","686507730462985b59b68436","5883a935c0c9a10001df6345","2025-07-02T10:34:48.842Z","","","","","","AttribQ","","","","","","","","","","","","","","","","","","","","","","","","","","","","","","","","","","","","","","50"
"1451","","<div style=""width:500px;"">
  <p>How much control did you have over the ball?</p>
  </div>","0","html-slider-response","80","913162","0.0-10.0-2.8","112","1","2025-07-02 10:19:36","80fe4187154257d5fb01684ea91b68b9","188.78.171.117","Mozilla/5.0 (Windows NT 10.0; Win64; x64) AppleWebKit/537.36 (KHTML, like Gecko) Chrome/137.0.0.0 Safari/537.36","WebKit","Chrome","137.0.0.0","Windows","10.0","https://app.prolific.com/","es-ES,es;q=0.9","5883a935c0c9a10001df6345","683db6dfa200031b80f2a654","686507730462985b59b68436","5883a935c0c9a10001df6345","2025-07-02T10:34:50.294Z","","","","","","ControlQ","","","","","","","","","","","","","","","","","","","","","","","","","","","","","","","","","","","","","","50"
"1974","","<div style=""width:500px;"">
  <p>How would you describe your current emotional state?</p>
  </div>","100","html-slider-response","81","915137","0.0-10.0-3.8","112","1","2025-07-02 10:19:36","80fe4187154257d5fb01684ea91b68b9","188.78.171.117","Mozilla/5.0 (Windows NT 10.0; Win64; x64) AppleWebKit/537.36 (KHTML, like Gecko) Chrome/137.0.0.0 Safari/537.36","WebKit","Chrome","137.0.0.0","Windows","10.0","https://app.prolific.com/","es-ES,es;q=0.9","5883a935c0c9a10001df6345","683db6dfa200031b80f2a654","686507730462985b59b68436","5883a935c0c9a10001df6345","2025-07-02T10:34:52.269Z","","","","","","StressQ","","","","","","","","","","","","","","","","","","","","","","","","","","","","","","","","","","","","","","50"
"1629","","<div style=""width:500px;"">
  <p>What best describes how you currently feel?</p>
  </div>","2","html-slider-response","82","916767","0.0-10.0-4.8","112","1","2025-07-02 10:19:36","80fe4187154257d5fb01684ea91b68b9","188.78.171.117","Mozilla/5.0 (Windows NT 10.0; Win64; x64) AppleWebKit/537.36 (KHTML, like Gecko) Chrome/137.0.0.0 Safari/537.36","WebKit","Chrome","137.0.0.0","Windows","10.0","https://app.prolific.com/","es-ES,es;q=0.9","5883a935c0c9a10001df6345","683db6dfa200031b80f2a654","686507730462985b59b68436","5883a935c0c9a10001df6345","2025-07-02T10:34:53.899Z","","","","","","MotivationQ","","","","","","","","","","","","","","","","","","","","","","","","","","","","","","","","","","","","","","50"
