"rt","response_timestamp","stimulus","response","trial_type","trial_index","time_elapsed","internal_node_id","run_id","condition","recorded_at","source_code_version","ip","user_agent","device","browser","browser_version","platform","platform_version","referer","accept_language","PROLIFIC_PID","STUDY_ID","SESSION_ID","prolific_id","realtime","view_history","question_order","consent","success","question_id","eventType","responses","item_order","radio_event_ids","radio_event_times","key_event_times","mouse_event_times","straightlining","zigzagging","honeypot","which_type","canvas_config","goals_layout","control_level","trial_number","tutorial_trial_number","trial_start_time","phase1_start_time","phase2_start_time","phase3_start_time","goal_1_value","goal_1_distance","goal_2_value","goal_2_distance","goal_selected","outcome","outcome_total","participant_final_score","participant_initial_score","participant_final_score_prop","goal_choice_rt","allocated_time","allocated_time_remaining","goal_direction","counts","mouse_movements","key_presses","correct","slider_start"
"2671","1751451542337","<p style='font-size:40px;line-height:1.25'><strong>Welcome to the experiment!</strong></p><p style='font-size:1.1em;line-height:1.25'>Thank you for your interest in our experiment! Before you begin, it is important that we obtain your informed consent to participate in the study.</p><p style='font-size:1.1em;line-height:1.25'>On the next screen will be an <strong>information sheet</strong> for you to read. To participate in the study we need you to read this information sheet and the following consent form carefully. If you agree with all the statements, please click the <strong>I agree</strong> button.</p><p style='font-size:1.1em;line-height:1.25'>Press <strong>Next</strong> to read the information sheet.</p>","0","custom-html-button-response","0","2673","0.0-0.0","64","1","2025-07-02 10:18:59","80fe4187154257d5fb01684ea91b68b9","151.56.228.130","Mozilla/5.0 (Windows NT 10.0; Win64; x64) AppleWebKit/537.36 (KHTML, like Gecko) Chrome/138.0.0.0 Safari/537.36","WebKit","Chrome","138.0.0.0","Windows","10.0","https://app.prolific.com/","it-IT,it;q=0.9,en-US;q=0.8,en;q=0.7,homepage;q=0.6,homepage_is_newtabpage;q=0.5,http://it.search.yahoo.com?type=198484&fr=spigot-yhp-ch;q=0.4,http://it.search.yahoo.com?type=198484&fr=spigot;q=0.3,session;q=0.2,fi;q=0.1,ru;q=0.1,de;q=0.1,es;q=0.1","58d3bc1642648b0001f21ca4","683db6dfa200031b80f2a654","6865075685cb8ab1bd5c86df","58d3bc1642648b0001f21ca4","2025-07-02T10:19:02.338Z","","","","","","","","","","","","","","","","","","","","","","","","","","","","","","","","","","","","","","","","","","","",""
"10123","","","","instructions","1","12796","0.0-1.0","64","1","2025-07-02 10:18:59","80fe4187154257d5fb01684ea91b68b9","151.56.228.130","Mozilla/5.0 (Windows NT 10.0; Win64; x64) AppleWebKit/537.36 (KHTML, like Gecko) Chrome/138.0.0.0 Safari/537.36","WebKit","Chrome","138.0.0.0","Windows","10.0","https://app.prolific.com/","it-IT,it;q=0.9,en-US;q=0.8,en;q=0.7,homepage;q=0.6,homepage_is_newtabpage;q=0.5,http://it.search.yahoo.com?type=198484&fr=spigot-yhp-ch;q=0.4,http://it.search.yahoo.com?type=198484&fr=spigot;q=0.3,session;q=0.2,fi;q=0.1,ru;q=0.1,de;q=0.1,es;q=0.1","58d3bc1642648b0001f21ca4","683db6dfa200031b80f2a654","6865075685cb8ab1bd5c86df","58d3bc1642648b0001f21ca4","","[{""page_index"":0,""viewing_time"":1796},{""page_index"":1,""viewing_time"":660},{""page_index"":0,""viewing_time"":6136},{""page_index"":1,""viewing_time"":1531}]","","","","","","","","","","","","","","","","","","","","","","","","","","","","","","","","","","","","","","","","","","",""
"6680","","","{""Q0"":"""",""Q1"":"""",""Q2"":"""",""Q3"":"""",""Q4"":"""",""Q5"":"""",""Q6"":""I agree""}","survey-multi-choice","2","19477","0.0-2.0","64","1","2025-07-02 10:18:59","80fe4187154257d5fb01684ea91b68b9","151.56.228.130","Mozilla/5.0 (Windows NT 10.0; Win64; x64) AppleWebKit/537.36 (KHTML, like Gecko) Chrome/138.0.0.0 Safari/537.36","WebKit","Chrome","138.0.0.0","Windows","10.0","https://app.prolific.com/","it-IT,it;q=0.9,en-US;q=0.8,en;q=0.7,homepage;q=0.6,homepage_is_newtabpage;q=0.5,http://it.search.yahoo.com?type=198484&fr=spigot-yhp-ch;q=0.4,http://it.search.yahoo.com?type=198484&fr=spigot;q=0.3,session;q=0.2,fi;q=0.1,ru;q=0.1,de;q=0.1,es;q=0.1","58d3bc1642648b0001f21ca4","683db6dfa200031b80f2a654","6865075685cb8ab1bd5c86df","58d3bc1642648b0001f21ca4","","","[0,1,2,3,4,5,6]","true","","","","","","","","","","","","","","","","","","","","","","","","","","","","","","","","","","","","","","","","",""
"23041","","","","fullscreen","3","43913","0.0-4.0","64","1","2025-07-02 10:18:59","80fe4187154257d5fb01684ea91b68b9","151.56.228.130","Mozilla/5.0 (Windows NT 10.0; Win64; x64) AppleWebKit/537.36 (KHTML, like Gecko) Chrome/138.0.0.0 Safari/537.36","WebKit","Chrome","138.0.0.0","Windows","10.0","https://app.prolific.com/","it-IT,it;q=0.9,en-US;q=0.8,en;q=0.7,homepage;q=0.6,homepage_is_newtabpage;q=0.5,http://it.search.yahoo.com?type=198484&fr=spigot-yhp-ch;q=0.4,http://it.search.yahoo.com?type=198484&fr=spigot;q=0.3,session;q=0.2,fi;q=0.1,ru;q=0.1,de;q=0.1,es;q=0.1","58d3bc1642648b0001f21ca4","683db6dfa200031b80f2a654","6865075685cb8ab1bd5c86df","58d3bc1642648b0001f21ca4","","","","","true","","","","","","","","","","","","","","","","","","","","","","","","","","","","","","","","","","","","","","","",""
"8538","1751451592117"," <p style='font-size:1.1em;line-height:1.25'>Thank you for completing the consent form and closing all other tabs.</p><p style='font-size:1.1em;line-height:1.25'>We will now invite you to fill in some demographic information and questionnaires, before starting the game.<br>This will take about 5 minutes.<br></p><p style='font-size:1.1em;line-height:1.25'>Press the <strong>Next</strong> button to continue.</p>","0","custom-html-button-response","4","52452","0.0-5.0","64","1","2025-07-02 10:18:59","80fe4187154257d5fb01684ea91b68b9","151.56.228.130","Mozilla/5.0 (Windows NT 10.0; Win64; x64) AppleWebKit/537.36 (KHTML, like Gecko) Chrome/138.0.0.0 Safari/537.36","WebKit","Chrome","138.0.0.0","Windows","10.0","https://app.prolific.com/","it-IT,it;q=0.9,en-US;q=0.8,en;q=0.7,homepage;q=0.6,homepage_is_newtabpage;q=0.5,http://it.search.yahoo.com?type=198484&fr=spigot-yhp-ch;q=0.4,http://it.search.yahoo.com?type=198484&fr=spigot;q=0.3,session;q=0.2,fi;q=0.1,ru;q=0.1,de;q=0.1,es;q=0.1","58d3bc1642648b0001f21ca4","683db6dfa200031b80f2a654","6865075685cb8ab1bd5c86df","58d3bc1642648b0001f21ca4","2025-07-02T10:19:52.117Z","","","","","","","","","","","","","","","","","","","","","","","","","","","","","","","","","","","","","","","","","","","",""
"1114","","","{""age"":""32""}","survey-text","5","53567","0.0-6.0-0.0","64","1","2025-07-02 10:18:59","80fe4187154257d5fb01684ea91b68b9","151.56.228.130","Mozilla/5.0 (Windows NT 10.0; Win64; x64) AppleWebKit/537.36 (KHTML, like Gecko) Chrome/138.0.0.0 Safari/537.36","WebKit","Chrome","138.0.0.0","Windows","10.0","https://app.prolific.com/","it-IT,it;q=0.9,en-US;q=0.8,en;q=0.7,homepage;q=0.6,homepage_is_newtabpage;q=0.5,http://it.search.yahoo.com?type=198484&fr=spigot-yhp-ch;q=0.4,http://it.search.yahoo.com?type=198484&fr=spigot;q=0.3,session;q=0.2,fi;q=0.1,ru;q=0.1,de;q=0.1,es;q=0.1","58d3bc1642648b0001f21ca4","683db6dfa200031b80f2a654","6865075685cb8ab1bd5c86df","58d3bc1642648b0001f21ca4","","","","","","0","demographics","","","","","","","","","","","","","","","","","","","","","","","","","","","","","","","","","","","","","",""
"1554","","","{""gender_identity"":""male/man""}","survey-multi-choice","6","55122","0.0-6.0-1.0","64","1","2025-07-02 10:18:59","80fe4187154257d5fb01684ea91b68b9","151.56.228.130","Mozilla/5.0 (Windows NT 10.0; Win64; x64) AppleWebKit/537.36 (KHTML, like Gecko) Chrome/138.0.0.0 Safari/537.36","WebKit","Chrome","138.0.0.0","Windows","10.0","https://app.prolific.com/","it-IT,it;q=0.9,en-US;q=0.8,en;q=0.7,homepage;q=0.6,homepage_is_newtabpage;q=0.5,http://it.search.yahoo.com?type=198484&fr=spigot-yhp-ch;q=0.4,http://it.search.yahoo.com?type=198484&fr=spigot;q=0.3,session;q=0.2,fi;q=0.1,ru;q=0.1,de;q=0.1,es;q=0.1","58d3bc1642648b0001f21ca4","683db6dfa200031b80f2a654","6865075685cb8ab1bd5c86df","58d3bc1642648b0001f21ca4","","","[0]","","","1","demographics","","","","","","","","","","","","","","","","","","","","","","","","","","","","","","","","","","","","","",""
"1501","","","{""assigned_sex"":""male""}","survey-multi-choice","7","56624","0.0-6.0-2.0","64","1","2025-07-02 10:18:59","80fe4187154257d5fb01684ea91b68b9","151.56.228.130","Mozilla/5.0 (Windows NT 10.0; Win64; x64) AppleWebKit/537.36 (KHTML, like Gecko) Chrome/138.0.0.0 Safari/537.36","WebKit","Chrome","138.0.0.0","Windows","10.0","https://app.prolific.com/","it-IT,it;q=0.9,en-US;q=0.8,en;q=0.7,homepage;q=0.6,homepage_is_newtabpage;q=0.5,http://it.search.yahoo.com?type=198484&fr=spigot-yhp-ch;q=0.4,http://it.search.yahoo.com?type=198484&fr=spigot;q=0.3,session;q=0.2,fi;q=0.1,ru;q=0.1,de;q=0.1,es;q=0.1","58d3bc1642648b0001f21ca4","683db6dfa200031b80f2a654","6865075685cb8ab1bd5c86df","58d3bc1642648b0001f21ca4","","","[0]","","","2","demographics","","","","","","","","","","","","","","","","","","","","","","","","","","","","","","","","","","","","","",""
"2287","","","{""menstrual_cycle"":""No""}","survey-multi-choice","8","58912","0.0-6.0-3.0","64","1","2025-07-02 10:18:59","80fe4187154257d5fb01684ea91b68b9","151.56.228.130","Mozilla/5.0 (Windows NT 10.0; Win64; x64) AppleWebKit/537.36 (KHTML, like Gecko) Chrome/138.0.0.0 Safari/537.36","WebKit","Chrome","138.0.0.0","Windows","10.0","https://app.prolific.com/","it-IT,it;q=0.9,en-US;q=0.8,en;q=0.7,homepage;q=0.6,homepage_is_newtabpage;q=0.5,http://it.search.yahoo.com?type=198484&fr=spigot-yhp-ch;q=0.4,http://it.search.yahoo.com?type=198484&fr=spigot;q=0.3,session;q=0.2,fi;q=0.1,ru;q=0.1,de;q=0.1,es;q=0.1","58d3bc1642648b0001f21ca4","683db6dfa200031b80f2a654","6865075685cb8ab1bd5c86df","58d3bc1642648b0001f21ca4","","","[0]","","","4","demographics","","","","","","","","","","","","","","","","","","","","","","","","","","","","","","","","","","","","","",""
"6767","","","{""education"":""Doctoral Degree (e.g., PhD)""}","survey-multi-choice","9","65680","0.0-6.0-4.0","64","1","2025-07-02 10:18:59","80fe4187154257d5fb01684ea91b68b9","151.56.228.130","Mozilla/5.0 (Windows NT 10.0; Win64; x64) AppleWebKit/537.36 (KHTML, like Gecko) Chrome/138.0.0.0 Safari/537.36","WebKit","Chrome","138.0.0.0","Windows","10.0","https://app.prolific.com/","it-IT,it;q=0.9,en-US;q=0.8,en;q=0.7,homepage;q=0.6,homepage_is_newtabpage;q=0.5,http://it.search.yahoo.com?type=198484&fr=spigot-yhp-ch;q=0.4,http://it.search.yahoo.com?type=198484&fr=spigot;q=0.3,session;q=0.2,fi;q=0.1,ru;q=0.1,de;q=0.1,es;q=0.1","58d3bc1642648b0001f21ca4","683db6dfa200031b80f2a654","6865075685cb8ab1bd5c86df","58d3bc1642648b0001f21ca4","","","[0]","","","5","demographics","","","","","","","","","","","","","","","","","","","","","","","","","","","","","","","","","","","","","",""
"9099","","","{""education"":""A-level/National Diploma/Highers""}","survey-multi-choice","10","74779","0.0-6.0-5.0","64","1","2025-07-02 10:18:59","80fe4187154257d5fb01684ea91b68b9","151.56.228.130","Mozilla/5.0 (Windows NT 10.0; Win64; x64) AppleWebKit/537.36 (KHTML, like Gecko) Chrome/138.0.0.0 Safari/537.36","WebKit","Chrome","138.0.0.0","Windows","10.0","https://app.prolific.com/","it-IT,it;q=0.9,en-US;q=0.8,en;q=0.7,homepage;q=0.6,homepage_is_newtabpage;q=0.5,http://it.search.yahoo.com?type=198484&fr=spigot-yhp-ch;q=0.4,http://it.search.yahoo.com?type=198484&fr=spigot;q=0.3,session;q=0.2,fi;q=0.1,ru;q=0.1,de;q=0.1,es;q=0.1","58d3bc1642648b0001f21ca4","683db6dfa200031b80f2a654","6865075685cb8ab1bd5c86df","58d3bc1642648b0001f21ca4","2025-07-02T10:20:14.444Z","","[0]","","","6","demographics","","","","","","","","","","","","","","","","","","","","","","","","","","","","","","","","","","","","","",""
"6113","","","{""mental_health_condition"":"""",""mental_health_treatment"":"""",""psychiatric_medication"":""""}","survey-text","11","80894","0.0-7.0-0.0","64","1","2025-07-02 10:18:59","80fe4187154257d5fb01684ea91b68b9","151.56.228.130","Mozilla/5.0 (Windows NT 10.0; Win64; x64) AppleWebKit/537.36 (KHTML, like Gecko) Chrome/138.0.0.0 Safari/537.36","WebKit","Chrome","138.0.0.0","Windows","10.0","https://app.prolific.com/","it-IT,it;q=0.9,en-US;q=0.8,en;q=0.7,homepage;q=0.6,homepage_is_newtabpage;q=0.5,http://it.search.yahoo.com?type=198484&fr=spigot-yhp-ch;q=0.4,http://it.search.yahoo.com?type=198484&fr=spigot;q=0.3,session;q=0.2,fi;q=0.1,ru;q=0.1,de;q=0.1,es;q=0.1","58d3bc1642648b0001f21ca4","683db6dfa200031b80f2a654","6865075685cb8ab1bd5c86df","58d3bc1642648b0001f21ca4","2025-07-02T10:20:20.559Z","","","","","1","mental_health","","","","","","","","","","","","","","","","","","","","","","","","","","","","","","","","","","","","","",""
"5143","","","{""depression_history"":[""Yes""]}","survey-multi-select","12","86037","0.0-7.0-1.0","64","1","2025-07-02 10:18:59","80fe4187154257d5fb01684ea91b68b9","151.56.228.130","Mozilla/5.0 (Windows NT 10.0; Win64; x64) AppleWebKit/537.36 (KHTML, like Gecko) Chrome/138.0.0.0 Safari/537.36","WebKit","Chrome","138.0.0.0","Windows","10.0","https://app.prolific.com/","it-IT,it;q=0.9,en-US;q=0.8,en;q=0.7,homepage;q=0.6,homepage_is_newtabpage;q=0.5,http://it.search.yahoo.com?type=198484&fr=spigot-yhp-ch;q=0.4,http://it.search.yahoo.com?type=198484&fr=spigot;q=0.3,session;q=0.2,fi;q=0.1,ru;q=0.1,de;q=0.1,es;q=0.1","58d3bc1642648b0001f21ca4","683db6dfa200031b80f2a654","6865075685cb8ab1bd5c86df","58d3bc1642648b0001f21ca4","","","[0]","","","","mental_health","","","","","","","","","","","","","","","","","","","","","","","","","","","","","","","","","","","","","",""
"13412","","","{""depression_episodes"":""more than 5"",""depression_recent"":""Within the past year""}","survey-multi-choice","13","99450","0.0-7.0-2.0-0.0","64","1","2025-07-02 10:18:59","80fe4187154257d5fb01684ea91b68b9","151.56.228.130","Mozilla/5.0 (Windows NT 10.0; Win64; x64) AppleWebKit/537.36 (KHTML, like Gecko) Chrome/138.0.0.0 Safari/537.36","WebKit","Chrome","138.0.0.0","Windows","10.0","https://app.prolific.com/","it-IT,it;q=0.9,en-US;q=0.8,en;q=0.7,homepage;q=0.6,homepage_is_newtabpage;q=0.5,http://it.search.yahoo.com?type=198484&fr=spigot-yhp-ch;q=0.4,http://it.search.yahoo.com?type=198484&fr=spigot;q=0.3,session;q=0.2,fi;q=0.1,ru;q=0.1,de;q=0.1,es;q=0.1","58d3bc1642648b0001f21ca4","683db6dfa200031b80f2a654","6865075685cb8ab1bd5c86df","58d3bc1642648b0001f21ca4","2025-07-02T10:20:39.115Z","","[0,1]","","","3","mental_health","","","","","","","","","","","","","","","","","","","","","","","","","","","","","","","","","","","","","",""
"43038","","","","survey-template","14","142490","0.0-7.0-3.0","64","1","2025-07-02 10:18:59","80fe4187154257d5fb01684ea91b68b9","151.56.228.130","Mozilla/5.0 (Windows NT 10.0; Win64; x64) AppleWebKit/537.36 (KHTML, like Gecko) Chrome/138.0.0.0 Safari/537.36","WebKit","Chrome","138.0.0.0","Windows","10.0","https://app.prolific.com/","it-IT,it;q=0.9,en-US;q=0.8,en;q=0.7,homepage;q=0.6,homepage_is_newtabpage;q=0.5,http://it.search.yahoo.com?type=198484&fr=spigot-yhp-ch;q=0.4,http://it.search.yahoo.com?type=198484&fr=spigot;q=0.3,session;q=0.2,fi;q=0.1,ru;q=0.1,de;q=0.1,es;q=0.1","58d3bc1642648b0001f21ca4","683db6dfa200031b80f2a654","6865075685cb8ab1bd5c86df","58d3bc1642648b0001f21ca4","2025-07-02T10:21:22.155Z","","","","","","ius","{""Q01"":""1"",""Q02"":""2"",""Q03"":""3"",""Q04"":""1"",""Q05"":""1"",""Q06"":""2"",""Q07"":""1"",""Q08"":""0"",""Q09"":""0"",""Q10"":""0"",""Q11"":""1"",""Q12"":""1"",""Q13"":""0""}","[0,1,2,3,4,5,6,7,8,9,10,11,12]","[""Q01"",""Q01"",""Q02"",""Q03"",""Q03"",""Q04"",""Q05"",""Q06"",""Q06"",""Q06"",""Q07"",""Q08"",""Q09"",""Q10"",""Q11"",""Q12"",""Q12"",""Q12"",""Q13""]","[2295.4000000003725,3443.2000000011176,8289.200000001118,10964.700000001118,13124.5,15160.700000001118,17485.300000000745,21127.200000001118,23112.900000000373,23461.800000000745,26017.800000000745,29110.60000000149,31871.60000000149,34619.300000000745,37100.20000000112,38814.20000000112,39145.20000000112,40531,42281]","[]","[2295.4000000003725,3016.4000000003725,3443.2000000011176,7865.4000000003725,8289.200000001118,10278.200000001118,10964.700000001118,13124.5,15160.700000001118,15811.60000000149,17485.300000000745,20441.200000001118,21127.200000001118,22534.10000000149,22779,23112.900000000373,23461.800000000745,25412.200000001118,26017.800000000745,29110.60000000149,31871.60000000149,34377.60000000149,34619.300000000745,36031.40000000037,36676.10000000149,36929.20000000112,37100.20000000112,38814.20000000112,39145.20000000112,39941.10000000149,40531,42281,43037.10000000149]","0.46153846153846156","0.5833333333333334","0","","","","","","","","","","","","","","","","","","","","","","","","","","","","",""
"20440","1751451702596","<p style='font-size:1.1em;line-height:1.25'>In the following, we will ask you a few questions relating to your experiences over the past month.<br></p><p style='font-size:1.1em;line-height:1.25'>Press the <strong>Next</strong> button to continue.</p>","0","custom-html-button-response","15","162931","0.0-7.0-4.0","64","1","2025-07-02 10:18:59","80fe4187154257d5fb01684ea91b68b9","151.56.228.130","Mozilla/5.0 (Windows NT 10.0; Win64; x64) AppleWebKit/537.36 (KHTML, like Gecko) Chrome/138.0.0.0 Safari/537.36","WebKit","Chrome","138.0.0.0","Windows","10.0","https://app.prolific.com/","it-IT,it;q=0.9,en-US;q=0.8,en;q=0.7,homepage;q=0.6,homepage_is_newtabpage;q=0.5,http://it.search.yahoo.com?type=198484&fr=spigot-yhp-ch;q=0.4,http://it.search.yahoo.com?type=198484&fr=spigot;q=0.3,session;q=0.2,fi;q=0.1,ru;q=0.1,de;q=0.1,es;q=0.1","58d3bc1642648b0001f21ca4","683db6dfa200031b80f2a654","6865075685cb8ab1bd5c86df","58d3bc1642648b0001f21ca4","2025-07-02T10:21:42.596Z","","","","","","","","","","","","","","","","","","","","","","","","","","","","","","","","","","","","","","","","","","","",""
"51702.5","","","","survey-template","16","214635","0.0-7.0-5.0","64","1","2025-07-02 10:18:59","80fe4187154257d5fb01684ea91b68b9","151.56.228.130","Mozilla/5.0 (Windows NT 10.0; Win64; x64) AppleWebKit/537.36 (KHTML, like Gecko) Chrome/138.0.0.0 Safari/537.36","WebKit","Chrome","138.0.0.0","Windows","10.0","https://app.prolific.com/","it-IT,it;q=0.9,en-US;q=0.8,en;q=0.7,homepage;q=0.6,homepage_is_newtabpage;q=0.5,http://it.search.yahoo.com?type=198484&fr=spigot-yhp-ch;q=0.4,http://it.search.yahoo.com?type=198484&fr=spigot;q=0.3,session;q=0.2,fi;q=0.1,ru;q=0.1,de;q=0.1,es;q=0.1","58d3bc1642648b0001f21ca4","683db6dfa200031b80f2a654","6865075685cb8ab1bd5c86df","58d3bc1642648b0001f21ca4","2025-07-02T10:22:34.300Z","","","","","","pss","{""Q01"":""1"",""Q02"":""1"",""Q03"":""3"",""Q04"":""2"",""Q05"":""3"",""Q06"":""1"",""Q07"":""1"",""Q08"":""3"",""Q09"":""1"",""Q10"":""1""}","[0,1,2,3,4,5,6,7,8,9]","[""Q01"",""Q01"",""Q01"",""Q02"",""Q03"",""Q03"",""Q04"",""Q05"",""Q06"",""Q07"",""Q06"",""Q06"",""Q08"",""Q09"",""Q08"",""Q08"",""Q08"",""Q10"",""Q10"",""Q10""]","[3755.4000000003725,4808.200000001118,6536.0999999996275,8961,11032.700000001118,12729.599999999627,21237.300000000745,24363.099999999627,29038.700000001118,33288.40000000037,35066.59999999963,38220.20000000112,41304.90000000037,43579.800000000745,44832.800000000745,46134.90000000037,47628,50085.800000000745,50477.40000000037,51229.300000000745]","[]","[0.30000000074505806,1711.2000000011176,1896.5,3755.4000000003725,4502.200000001118,4808.200000001118,6292,6536.0999999996275,8961,10663.599999999627,11032.700000001118,12729.599999999627,21237.300000000745,24363.099999999627,29038.700000001118,33288.40000000037,35066.59999999963,37985.40000000037,38220.20000000112,41304.90000000037,43579.800000000745,44334.90000000037,44549.70000000112,44832.800000000745,46134.90000000037,46594.800000000745,46798.59999999963,47628,48942.40000000037,49464.800000000745,50085.800000000745,50477.40000000037,50943.40000000037,51229.300000000745,51701.59999999963]","0.7","0.2222222222222222","0","","","","","","","","","","","","","","","","","","","","","","","","","","","","",""
"1794","1751451756095","<p style='font-size:1.1em;line-height:1.25'>Thank you for your answers! Now we will ask you a few more questions relating to your feelings in the last 24 hours.<br></p><p style='font-size:1.1em;line-height:1.25'>Press the <strong>Next</strong> button to continue.</p>","0","custom-html-button-response","17","216430","0.0-7.0-6.0","64","1","2025-07-02 10:18:59","80fe4187154257d5fb01684ea91b68b9","151.56.228.130","Mozilla/5.0 (Windows NT 10.0; Win64; x64) AppleWebKit/537.36 (KHTML, like Gecko) Chrome/138.0.0.0 Safari/537.36","WebKit","Chrome","138.0.0.0","Windows","10.0","https://app.prolific.com/","it-IT,it;q=0.9,en-US;q=0.8,en;q=0.7,homepage;q=0.6,homepage_is_newtabpage;q=0.5,http://it.search.yahoo.com?type=198484&fr=spigot-yhp-ch;q=0.4,http://it.search.yahoo.com?type=198484&fr=spigot;q=0.3,session;q=0.2,fi;q=0.1,ru;q=0.1,de;q=0.1,es;q=0.1","58d3bc1642648b0001f21ca4","683db6dfa200031b80f2a654","6865075685cb8ab1bd5c86df","58d3bc1642648b0001f21ca4","2025-07-02T10:22:36.095Z","","","","","","","","","","","","","","","","","","","","","","","","","","","","","","","","","","","","","","","","","","","",""
"55046.79999999888","","","","survey-template","18","271478","0.0-7.0-7.0","64","1","2025-07-02 10:18:59","80fe4187154257d5fb01684ea91b68b9","151.56.228.130","Mozilla/5.0 (Windows NT 10.0; Win64; x64) AppleWebKit/537.36 (KHTML, like Gecko) Chrome/138.0.0.0 Safari/537.36","WebKit","Chrome","138.0.0.0","Windows","10.0","https://app.prolific.com/","it-IT,it;q=0.9,en-US;q=0.8,en;q=0.7,homepage;q=0.6,homepage_is_newtabpage;q=0.5,http://it.search.yahoo.com?type=198484&fr=spigot-yhp-ch;q=0.4,http://it.search.yahoo.com?type=198484&fr=spigot;q=0.3,session;q=0.2,fi;q=0.1,ru;q=0.1,de;q=0.1,es;q=0.1","58d3bc1642648b0001f21ca4","683db6dfa200031b80f2a654","6865075685cb8ab1bd5c86df","58d3bc1642648b0001f21ca4","2025-07-02T10:23:31.143Z","","","","","","drsp","{""Q01"":""2"",""Q02"":""2"",""Q03"":""0"",""Q04"":""2"",""Q05"":""1"",""Q06"":""0"",""Q07"":""0"",""Q08"":""0"",""Q09"":""1"",""Q10"":""1"",""Q11"":""3"",""Q12"":""2"",""Q13"":""2"",""Q14"":""0"",""Q15"":""4"",""Q16"":""0"",""Q17"":""1"",""Q18"":""2"",""Q19"":""1"",""Q20"":""1"",""Q21"":""0""}","[0,1,2,3,4,5,6,7,8,9,10,11,12,13,14,15,16,17,18,19,20]","[""Q01"",""Q02"",""Q03"",""Q04"",""Q04"",""Q05"",""Q06"",""Q07"",""Q08"",""Q08"",""Q09"",""Q10"",""Q11"",""Q12"",""Q13"",""Q14"",""Q15"",""Q16"",""Q17"",""Q18"",""Q18"",""Q19"",""Q20"",""Q21""]","[2181.39999999851,2762.199999999255,4662.799999998882,5992.799999998882,6735.299999998882,7329.0999999996275,9519.099999999627,14150.799999998882,14661.099999999627,14849.599999999627,16503.699999999255,17699.699999999255,19840.39999999851,21835.39999999851,23122.299999998882,27612,28953.199999999255,33397.59999999963,34660.59999999963,35973.699999999255,37685.39999999851,46503.09999999963,48536.89999999851,54323.59999999963]","[]","[0.6999999992549419,2181.39999999851,2762.199999999255,4324.299999998882,4662.799999998882,5992.799999998882,6458.5999999996275,6735.299999998882,7329.0999999996275,9519.099999999627,13153.89999999851,13961,14150.799999998882,14661.099999999627,14849.599999999627,16503.699999999255,17699.699999999255,19840.39999999851,21835.39999999851,23122.299999998882,27311.199999999255,27612,28953.199999999255,32633.799999998882,33397.59999999963,34327,34660.59999999963,35973.699999999255,37685.39999999851,45252.199999999255,46503.09999999963,48536.89999999851,52963.09999999963,53536.59999999963,54323.59999999963,55045.59999999963]","0.3333333333333333","0.4","0","","","","","","","","","","","","","","","","","","","","","","","","","","","","",""
"8472.900000000373","","","","survey-template","19","279952","0.0-7.0-8.0","64","1","2025-07-02 10:18:59","80fe4187154257d5fb01684ea91b68b9","151.56.228.130","Mozilla/5.0 (Windows NT 10.0; Win64; x64) AppleWebKit/537.36 (KHTML, like Gecko) Chrome/138.0.0.0 Safari/537.36","WebKit","Chrome","138.0.0.0","Windows","10.0","https://app.prolific.com/","it-IT,it;q=0.9,en-US;q=0.8,en;q=0.7,homepage;q=0.6,homepage_is_newtabpage;q=0.5,http://it.search.yahoo.com?type=198484&fr=spigot-yhp-ch;q=0.4,http://it.search.yahoo.com?type=198484&fr=spigot;q=0.3,session;q=0.2,fi;q=0.1,ru;q=0.1,de;q=0.1,es;q=0.1","58d3bc1642648b0001f21ca4","683db6dfa200031b80f2a654","6865075685cb8ab1bd5c86df","58d3bc1642648b0001f21ca4","2025-07-02T10:23:39.617Z","","","","","","stress","{""Q01"":""3"",""Q02"":""3"",""Q03"":""2""}","[0,1,2]","[""Q01"",""Q02"",""Q03""]","[4396.199999999255,5899,7490.699999999255]","[]","[4396.199999999255,5899,7490.699999999255,8472.599999999627]","0.6666666666666666","0.5","0","","","","","","","","","","","","","","","","","","","","","","","","","","","","",""
"53447","","","","instructions","20","333400","0.0-8.0-0.0","64","1","2025-07-02 10:18:59","80fe4187154257d5fb01684ea91b68b9","151.56.228.130","Mozilla/5.0 (Windows NT 10.0; Win64; x64) AppleWebKit/537.36 (KHTML, like Gecko) Chrome/138.0.0.0 Safari/537.36","WebKit","Chrome","138.0.0.0","Windows","10.0","https://app.prolific.com/","it-IT,it;q=0.9,en-US;q=0.8,en;q=0.7,homepage;q=0.6,homepage_is_newtabpage;q=0.5,http://it.search.yahoo.com?type=198484&fr=spigot-yhp-ch;q=0.4,http://it.search.yahoo.com?type=198484&fr=spigot;q=0.3,session;q=0.2,fi;q=0.1,ru;q=0.1,de;q=0.1,es;q=0.1","58d3bc1642648b0001f21ca4","683db6dfa200031b80f2a654","6865075685cb8ab1bd5c86df","58d3bc1642648b0001f21ca4","","[{""page_index"":0,""viewing_time"":17160},{""page_index"":1,""viewing_time"":18080},{""page_index"":2,""viewing_time"":6861},{""page_index"":3,""viewing_time"":11346}]","","","","","","","","","","","","","","","","","","","","","","","","","","","","","","","","","","","","","","","","","","",""
"","","","","ctl-task-cpt","21","361898","0.0-8.0-1.0","64","1","2025-07-02 10:18:59","80fe4187154257d5fb01684ea91b68b9","151.56.228.130","Mozilla/5.0 (Windows NT 10.0; Win64; x64) AppleWebKit/537.36 (KHTML, like Gecko) Chrome/138.0.0.0 Safari/537.36","WebKit","Chrome","138.0.0.0","Windows","10.0","https://app.prolific.com/","it-IT,it;q=0.9,en-US;q=0.8,en;q=0.7,homepage;q=0.6,homepage_is_newtabpage;q=0.5,http://it.search.yahoo.com?type=198484&fr=spigot-yhp-ch;q=0.4,http://it.search.yahoo.com?type=198484&fr=spigot;q=0.3,session;q=0.2,fi;q=0.1,ru;q=0.1,de;q=0.1,es;q=0.1","58d3bc1642648b0001f21ca4","683db6dfa200031b80f2a654","6865075685cb8ab1bd5c86df","58d3bc1642648b0001f21ca4","","","","","","","","","","","","","","","","","win-only","2","g1:SE,g2:NW","1","0","1","335068","1268.7","5271.7","25491.5","2","4","4","6","2","4","1","1","0","0.007575757575757576","1835.8","4000","1595","[""left"",""up""]","{""num_key_presses"":9,""num_perfect"":5,""num_errors"":3,""num_randdir"":0,""num_randdir_good_moves"":0,""num_whilered"":1,""num_whileblue"":1,""num_blue"":1,""num_good_moves"":6}","[416.57142857142856,422.47767857142856,0.1,416.57142857142856,422.47767857142856,102.3,416.57142857142856,422.47767857142856,206.7,416.57142857142856,422.47767857142856,307.8,416.57142857142856,422.47767857142856,411.7,416.57142857142856,422.47767857142856,512,457.57142857142856,449.47767857142856,616.8,484.57142857142856,480.47767857142856,716.8,482.57142857142856,485.47767857142856,817.3,482.57142857142856,485.47767857142856,921.5,486.57142857142856,485.47767857142856,1021.5,489.57142857142856,484.47767857142856,1121.6,489.57142857142856,484.47767857142856,1227.2,489.57142857142856,484.47767857142856,1327.5,489.57142857142856,484.47767857142856,1427.5,401.57142857142856,349.47767857142856,1532.3,145.57142857142856,125.47767857142857,1637.2,114.57142857142857,96.47767857142857,1737.9,86.57142857142857,83.47767857142857,1838.5,86.57142857142857,83.47767857142857,1942,88.57142857142857,87.47767857142857,2042.4,88.57142857142857,87.47767857142857,2146.6,88.57142857142857,87.47767857142857,2252.1,88.57142857142857,91.47767857142857,2352.1,88.57142857142857,93.47767857142857,2452.4,88.57142857142857,96.47767857142857,2557.3,88.57142857142857,99.47767857142857,2662.3,89.57142857142857,102.47767857142857,2767.2,89.57142857142857,104.47767857142857,2867.4,89.57142857142857,104.47767857142857,2967.5,89.57142857142857,104.47767857142857,3072.1,89.57142857142857,104.47767857142857,3176.9,89.57142857142857,105.47767857142857,3276.9,89.57142857142857,105.47767857142857,3377.9,89.57142857142857,105.47767857142857,3482.6,89.57142857142857,105.47767857142857,3587.5,89.57142857142857,106.47767857142857,3687.9,89.57142857142857,106.47767857142857,3792.1,89.57142857142857,106.47767857142857,3892.9,89.57142857142857,106.47767857142857,3997.1]","[185.8,185.8,1000,0,-814.2,""error"",""-"",""-"",""no_move"",412.6,226.6,1000,0,-587.4,""while_red"",""-"",""-"",""no_move"",3962.7,3776.7,2360.1,1188.9,413.7,""while_blue"",""up"",""up"",""good_move"",7890.3,3927.4,3405.3,3963,522.1,""smooth"",""left"",""left"",""good_move"",8115.3,224.8,1912.4,7890.5,-1687.6,""error"",""-"",""-"",""no_move"",12393.9,4278.6,2703.9,9119.6,570.4,""smooth"",""up"",""up"",""good_move"",14989.8,2595.8,2258.7,12394.1,337,""smooth"",""left"",""left"",""good_move"",17392.7,2402.8,2130.1,14989.9,272.7,""smooth"",""up"",""up"",""good_move"",20129.7,2736.8,2019.5,17392.9,717.3,""smooth"",""left"",""left"",""good_move""]","",""
"6211","","","","instructions","22","368109","0.0-8.0-2.0","64","1","2025-07-02 10:18:59","80fe4187154257d5fb01684ea91b68b9","151.56.228.130","Mozilla/5.0 (Windows NT 10.0; Win64; x64) AppleWebKit/537.36 (KHTML, like Gecko) Chrome/138.0.0.0 Safari/537.36","WebKit","Chrome","138.0.0.0","Windows","10.0","https://app.prolific.com/","it-IT,it;q=0.9,en-US;q=0.8,en;q=0.7,homepage;q=0.6,homepage_is_newtabpage;q=0.5,http://it.search.yahoo.com?type=198484&fr=spigot-yhp-ch;q=0.4,http://it.search.yahoo.com?type=198484&fr=spigot;q=0.3,session;q=0.2,fi;q=0.1,ru;q=0.1,de;q=0.1,es;q=0.1","58d3bc1642648b0001f21ca4","683db6dfa200031b80f2a654","6865075685cb8ab1bd5c86df","58d3bc1642648b0001f21ca4","","[{""page_index"":0,""viewing_time"":6211}]","","","","","","","","","","","","","","","","","","","","","","","","","","","","","","","","","","","","","","","","","","",""
"","","","","ctl-task-cpt","23","419577","0.0-8.0-3.0","64","1","2025-07-02 10:18:59","80fe4187154257d5fb01684ea91b68b9","151.56.228.130","Mozilla/5.0 (Windows NT 10.0; Win64; x64) AppleWebKit/537.36 (KHTML, like Gecko) Chrome/138.0.0.0 Safari/537.36","WebKit","Chrome","138.0.0.0","Windows","10.0","https://app.prolific.com/","it-IT,it;q=0.9,en-US;q=0.8,en;q=0.7,homepage;q=0.6,homepage_is_newtabpage;q=0.5,http://it.search.yahoo.com?type=198484&fr=spigot-yhp-ch;q=0.4,http://it.search.yahoo.com?type=198484&fr=spigot;q=0.3,session;q=0.2,fi;q=0.1,ru;q=0.1,de;q=0.1,es;q=0.1","58d3bc1642648b0001f21ca4","683db6dfa200031b80f2a654","6865075685cb8ab1bd5c86df","58d3bc1642648b0001f21ca4","","","","","","","","","","","","","","","","","win-only","2","g1:SE,g2:NW","0.35","0","3","369776.5","967.2","4971.4","48451.2","2","4","8","6","2","-8","-11","0","0","0","1129.9","4000","-3015","[""left"",""up""]","{""num_key_presses"":15,""num_perfect"":5,""num_errors"":3,""num_randdir"":7,""num_randdir_good_moves"":3,""num_whilered"":0,""num_whileblue"":1,""num_blue"":1,""num_good_moves"":9}","[422.57142857142856,415.47767857142856,0.1,422.57142857142856,415.47767857142856,104.4,412.57142857142856,417.47767857142856,208.2,412.57142857142856,417.47767857142856,309,414.57142857142856,417.47767857142856,413.3,447.57142857142856,433.47767857142856,513.3,523.5714285714286,501.47767857142856,613.4,524.5714285714286,502.47767857142856,718.7,500.57142857142856,472.47767857142856,819.1,235.57142857142856,183.47767857142856,924.4,188.57142857142856,115.47767857142857,1028.5,138.57142857142856,87.47767857142857,1129.2,138.57142857142856,86.47767857142857,1233.3,157.57142857142856,121.47767857142857,1334.4,372.57142857142856,354.47767857142856,1438.4,487.57142857142856,441.47767857142856,1543.1,491.57142857142856,443.47767857142856,1644.1,491.57142857142856,443.47767857142856,1748.4,491.57142857142856,443.47767857142856,1848.8,491.57142857142856,443.47767857142856,1954,491.57142857142856,443.47767857142856,2054.1,516.5714285714286,464.47767857142856,2158.1,594.5714285714286,507.47767857142856,2258.7,648.5714285714286,523.4776785714286,2363.2,648.5714285714286,523.4776785714286,2463.2,663.5714285714286,521.4776785714286,2569.1,717.5714285714286,527.4776785714286,2673.4,730.5714285714286,531.4776785714286,2773.5,717.5714285714286,524.4776785714286,2878,717.5714285714286,524.4776785714286,2978.3,717.5714285714286,524.4776785714286,3079,717.5714285714286,524.4776785714286,3183.9,717.5714285714286,524.4776785714286,3284.3,717.5714285714286,524.4776785714286,3388,717.5714285714286,524.4776785714286,3488.3,717.5714285714286,524.4776785714286,3593,717.5714285714286,524.4776785714286,3693.9,717.5714285714286,524.4776785714286,3794.2,717.5714285714286,524.4776785714286,3898,717.5714285714286,524.4776785714286,3998.4]","[1501.9,1501.9,1000,0,501.9,""smooth"",""left"",""left"",""good_move"",4985.2,3483.2,3237.7,1502,245.5,""while_blue"",""up"",""up"",""good_move"",7358.2,2372.8,1899.8,4985.4,473,""smooth"",""up"",""up"",""good_move"",10777,3418.7,3070.2,7358.3,348.5,""oops"",""left"",""down"",""bad_move"",13768.8,2991.5,2681.9,10777.3,309.6,""oops"",""up"",""left"",""good_move"",16498.5,2729.6,2423.5,13768.9,306.1,""oops"",""up"",""up"",""good_move"",19673.5,3174.8,2838.2,16498.7,336.6,""smooth"",""up"",""up"",""good_move"",22057.2,2383.6,2099.1,19673.6,284.5,""oops"",""left"",""right"",""bad_move"",24308,2250.7,1954.2,22057.3,296.5,""oops"",""left"",""right"",""bad_move"",27657.9,3349.7,2929.6,24308.2,420.1,""smooth"",""left"",""left"",""good_move"",30277.8,2619.8,2364.7,27658,255.1,""oops"",""left"",""right"",""bad_move"",33151.6,2873.6,2654.1,30278,219.5,""oops"",""left"",""left"",""good_move"",36197.4,3045.7,3198.7,33151.7,-153,""error"",""-"",""-"",""no_move"",37481.5,1284,1947.2,37199.5,-1665.2,""error"",""-"",""-"",""no_move"",40908.4,3426.7,2208.4,38484.5,215.5,""smooth"",""left"",""left"",""good_move""]","",""
"16455","","","","instructions","24","436032","0.0-8.0-4.0","64","1","2025-07-02 10:18:59","80fe4187154257d5fb01684ea91b68b9","151.56.228.130","Mozilla/5.0 (Windows NT 10.0; Win64; x64) AppleWebKit/537.36 (KHTML, like Gecko) Chrome/138.0.0.0 Safari/537.36","WebKit","Chrome","138.0.0.0","Windows","10.0","https://app.prolific.com/","it-IT,it;q=0.9,en-US;q=0.8,en;q=0.7,homepage;q=0.6,homepage_is_newtabpage;q=0.5,http://it.search.yahoo.com?type=198484&fr=spigot-yhp-ch;q=0.4,http://it.search.yahoo.com?type=198484&fr=spigot;q=0.3,session;q=0.2,fi;q=0.1,ru;q=0.1,de;q=0.1,es;q=0.1","58d3bc1642648b0001f21ca4","683db6dfa200031b80f2a654","6865075685cb8ab1bd5c86df","58d3bc1642648b0001f21ca4","","[{""page_index"":0,""viewing_time"":9438},{""page_index"":1,""viewing_time"":7017}]","","","","","","","","","","","","","","","","","","","","","","","","","","","","","","","","","","","","","","","","","","",""
"13407","","","{""green_ball"":[""Ball always moves in the direction I press""]}","survey-multi-select","25","449441","0.0-8.0-5.0-0.0","64","1","2025-07-02 10:18:59","80fe4187154257d5fb01684ea91b68b9","151.56.228.130","Mozilla/5.0 (Windows NT 10.0; Win64; x64) AppleWebKit/537.36 (KHTML, like Gecko) Chrome/138.0.0.0 Safari/537.36","WebKit","Chrome","138.0.0.0","Windows","10.0","https://app.prolific.com/","it-IT,it;q=0.9,en-US;q=0.8,en;q=0.7,homepage;q=0.6,homepage_is_newtabpage;q=0.5,http://it.search.yahoo.com?type=198484&fr=spigot-yhp-ch;q=0.4,http://it.search.yahoo.com?type=198484&fr=spigot;q=0.3,session;q=0.2,fi;q=0.1,ru;q=0.1,de;q=0.1,es;q=0.1","58d3bc1642648b0001f21ca4","683db6dfa200031b80f2a654","6865075685cb8ab1bd5c86df","58d3bc1642648b0001f21ca4","","","[0]","","","","quiz","","","","","","","","","","","","","","","","","","","","","","","","","","","","","","","","","","","","","false",""
"2293","","<p align='center'><b>INCORRECT.</b> Usually the green ball moves in the indicated direction, but sometimes it shakes and moves randomly. </p>","0","html-button-response","26","451734","0.0-8.0-5.0-1.0","64","1","2025-07-02 10:18:59","80fe4187154257d5fb01684ea91b68b9","151.56.228.130","Mozilla/5.0 (Windows NT 10.0; Win64; x64) AppleWebKit/537.36 (KHTML, like Gecko) Chrome/138.0.0.0 Safari/537.36","WebKit","Chrome","138.0.0.0","Windows","10.0","https://app.prolific.com/","it-IT,it;q=0.9,en-US;q=0.8,en;q=0.7,homepage;q=0.6,homepage_is_newtabpage;q=0.5,http://it.search.yahoo.com?type=198484&fr=spigot-yhp-ch;q=0.4,http://it.search.yahoo.com?type=198484&fr=spigot;q=0.3,session;q=0.2,fi;q=0.1,ru;q=0.1,de;q=0.1,es;q=0.1","58d3bc1642648b0001f21ca4","683db6dfa200031b80f2a654","6865075685cb8ab1bd5c86df","58d3bc1642648b0001f21ca4","","","","","","","","","","","","","","","","","","","","","","","","","","","","","","","","","","","","","","","","","","","","",""
"4642","","","{""green_ball"":[""Ball sometimes shakes and moves in a random direction""]}","survey-multi-select","27","456377","0.0-8.0-5.1-0.1","64","1","2025-07-02 10:18:59","80fe4187154257d5fb01684ea91b68b9","151.56.228.130","Mozilla/5.0 (Windows NT 10.0; Win64; x64) AppleWebKit/537.36 (KHTML, like Gecko) Chrome/138.0.0.0 Safari/537.36","WebKit","Chrome","138.0.0.0","Windows","10.0","https://app.prolific.com/","it-IT,it;q=0.9,en-US;q=0.8,en;q=0.7,homepage;q=0.6,homepage_is_newtabpage;q=0.5,http://it.search.yahoo.com?type=198484&fr=spigot-yhp-ch;q=0.4,http://it.search.yahoo.com?type=198484&fr=spigot;q=0.3,session;q=0.2,fi;q=0.1,ru;q=0.1,de;q=0.1,es;q=0.1","58d3bc1642648b0001f21ca4","683db6dfa200031b80f2a654","6865075685cb8ab1bd5c86df","58d3bc1642648b0001f21ca4","","","[0]","","","","quiz","","","","","","","","","","","","","","","","","","","","","","","","","","","","","","","","","","","","","true",""
"1178","","<p align='center'><b>CORRECT!</b> Indeed, the green ball may sometimes shake and move in a random direction.</p>","0","html-button-response","28","457556","0.0-8.0-5.1-1.1","64","1","2025-07-02 10:18:59","80fe4187154257d5fb01684ea91b68b9","151.56.228.130","Mozilla/5.0 (Windows NT 10.0; Win64; x64) AppleWebKit/537.36 (KHTML, like Gecko) Chrome/138.0.0.0 Safari/537.36","WebKit","Chrome","138.0.0.0","Windows","10.0","https://app.prolific.com/","it-IT,it;q=0.9,en-US;q=0.8,en;q=0.7,homepage;q=0.6,homepage_is_newtabpage;q=0.5,http://it.search.yahoo.com?type=198484&fr=spigot-yhp-ch;q=0.4,http://it.search.yahoo.com?type=198484&fr=spigot;q=0.3,session;q=0.2,fi;q=0.1,ru;q=0.1,de;q=0.1,es;q=0.1","58d3bc1642648b0001f21ca4","683db6dfa200031b80f2a654","6865075685cb8ab1bd5c86df","58d3bc1642648b0001f21ca4","","","","","","","","","","","","","","","","","","","","","","","","","","","","","","","","","","","","","","","","","","","","",""
"4124","","","{""yellow_ball"":[""Ball doesn‘t move and I get -1 penalty point""]}","survey-multi-select","29","461681","0.0-8.0-6.0-0.0","64","1","2025-07-02 10:18:59","80fe4187154257d5fb01684ea91b68b9","151.56.228.130","Mozilla/5.0 (Windows NT 10.0; Win64; x64) AppleWebKit/537.36 (KHTML, like Gecko) Chrome/138.0.0.0 Safari/537.36","WebKit","Chrome","138.0.0.0","Windows","10.0","https://app.prolific.com/","it-IT,it;q=0.9,en-US;q=0.8,en;q=0.7,homepage;q=0.6,homepage_is_newtabpage;q=0.5,http://it.search.yahoo.com?type=198484&fr=spigot-yhp-ch;q=0.4,http://it.search.yahoo.com?type=198484&fr=spigot;q=0.3,session;q=0.2,fi;q=0.1,ru;q=0.1,de;q=0.1,es;q=0.1","58d3bc1642648b0001f21ca4","683db6dfa200031b80f2a654","6865075685cb8ab1bd5c86df","58d3bc1642648b0001f21ca4","","","[0]","","","","quiz","","","","","","","","","","","","","","","","","","","","","","","","","","","","","","","","","","","","","true",""
"806","","<p align='center'><b>CORRECT!</b> Indeed, the yellow ball never moves and you receive a penalty.</p>","0","html-button-response","30","462488","0.0-8.0-6.0-1.0","64","1","2025-07-02 10:18:59","80fe4187154257d5fb01684ea91b68b9","151.56.228.130","Mozilla/5.0 (Windows NT 10.0; Win64; x64) AppleWebKit/537.36 (KHTML, like Gecko) Chrome/138.0.0.0 Safari/537.36","WebKit","Chrome","138.0.0.0","Windows","10.0","https://app.prolific.com/","it-IT,it;q=0.9,en-US;q=0.8,en;q=0.7,homepage;q=0.6,homepage_is_newtabpage;q=0.5,http://it.search.yahoo.com?type=198484&fr=spigot-yhp-ch;q=0.4,http://it.search.yahoo.com?type=198484&fr=spigot;q=0.3,session;q=0.2,fi;q=0.1,ru;q=0.1,de;q=0.1,es;q=0.1","58d3bc1642648b0001f21ca4","683db6dfa200031b80f2a654","6865075685cb8ab1bd5c86df","58d3bc1642648b0001f21ca4","","","","","","","","","","","","","","","","","","","","","","","","","","","","","","","","","","","","","","","","","","","","",""
"10980","","","{""blue_ball"":[""Ball always shakes and moves in a random direction""]}","survey-multi-select","31","473468","0.0-8.0-7.0-0.0","64","1","2025-07-02 10:18:59","80fe4187154257d5fb01684ea91b68b9","151.56.228.130","Mozilla/5.0 (Windows NT 10.0; Win64; x64) AppleWebKit/537.36 (KHTML, like Gecko) Chrome/138.0.0.0 Safari/537.36","WebKit","Chrome","138.0.0.0","Windows","10.0","https://app.prolific.com/","it-IT,it;q=0.9,en-US;q=0.8,en;q=0.7,homepage;q=0.6,homepage_is_newtabpage;q=0.5,http://it.search.yahoo.com?type=198484&fr=spigot-yhp-ch;q=0.4,http://it.search.yahoo.com?type=198484&fr=spigot;q=0.3,session;q=0.2,fi;q=0.1,ru;q=0.1,de;q=0.1,es;q=0.1","58d3bc1642648b0001f21ca4","683db6dfa200031b80f2a654","6865075685cb8ab1bd5c86df","58d3bc1642648b0001f21ca4","","","[0]","","","","quiz","","","","","","","","","","","","","","","","","","","","","","","","","","","","","","","","","","","","","true",""
"1525","","<p align='center'><b>CORRECT!</b> Indeed, the blue ball always shakes and moves in a random direction. Also there is a penalty of -1 point.</p>","0","html-button-response","32","474994","0.0-8.0-7.0-1.0","64","1","2025-07-02 10:18:59","80fe4187154257d5fb01684ea91b68b9","151.56.228.130","Mozilla/5.0 (Windows NT 10.0; Win64; x64) AppleWebKit/537.36 (KHTML, like Gecko) Chrome/138.0.0.0 Safari/537.36","WebKit","Chrome","138.0.0.0","Windows","10.0","https://app.prolific.com/","it-IT,it;q=0.9,en-US;q=0.8,en;q=0.7,homepage;q=0.6,homepage_is_newtabpage;q=0.5,http://it.search.yahoo.com?type=198484&fr=spigot-yhp-ch;q=0.4,http://it.search.yahoo.com?type=198484&fr=spigot;q=0.3,session;q=0.2,fi;q=0.1,ru;q=0.1,de;q=0.1,es;q=0.1","58d3bc1642648b0001f21ca4","683db6dfa200031b80f2a654","6865075685cb8ab1bd5c86df","58d3bc1642648b0001f21ca4","","","","","","","","","","","","","","","","","","","","","","","","","","","","","","","","","","","","","","","","","","","","",""
"2727","","","{""bonus"":[""When I reach 50% of points""]}","survey-multi-select","33","477722","0.0-8.0-8.0-0.0","64","1","2025-07-02 10:18:59","80fe4187154257d5fb01684ea91b68b9","151.56.228.130","Mozilla/5.0 (Windows NT 10.0; Win64; x64) AppleWebKit/537.36 (KHTML, like Gecko) Chrome/138.0.0.0 Safari/537.36","WebKit","Chrome","138.0.0.0","Windows","10.0","https://app.prolific.com/","it-IT,it;q=0.9,en-US;q=0.8,en;q=0.7,homepage;q=0.6,homepage_is_newtabpage;q=0.5,http://it.search.yahoo.com?type=198484&fr=spigot-yhp-ch;q=0.4,http://it.search.yahoo.com?type=198484&fr=spigot;q=0.3,session;q=0.2,fi;q=0.1,ru;q=0.1,de;q=0.1,es;q=0.1","58d3bc1642648b0001f21ca4","683db6dfa200031b80f2a654","6865075685cb8ab1bd5c86df","58d3bc1642648b0001f21ca4","","","[0]","","","","quiz","","","","","","","","","","","","","","","","","","","","","","","","","","","","","","","","","","","","","true",""
"982","","<p align='center'><b>CORRECT!</b> Indeed, you receive 2 pounds extra when you reach 50% of points.</p>","0","html-button-response","34","478705","0.0-8.0-8.0-1.0","64","1","2025-07-02 10:18:59","80fe4187154257d5fb01684ea91b68b9","151.56.228.130","Mozilla/5.0 (Windows NT 10.0; Win64; x64) AppleWebKit/537.36 (KHTML, like Gecko) Chrome/138.0.0.0 Safari/537.36","WebKit","Chrome","138.0.0.0","Windows","10.0","https://app.prolific.com/","it-IT,it;q=0.9,en-US;q=0.8,en;q=0.7,homepage;q=0.6,homepage_is_newtabpage;q=0.5,http://it.search.yahoo.com?type=198484&fr=spigot-yhp-ch;q=0.4,http://it.search.yahoo.com?type=198484&fr=spigot;q=0.3,session;q=0.2,fi;q=0.1,ru;q=0.1,de;q=0.1,es;q=0.1","58d3bc1642648b0001f21ca4","683db6dfa200031b80f2a654","6865075685cb8ab1bd5c86df","58d3bc1642648b0001f21ca4","","","","","","","","","","","","","","","","","","","","","","","","","","","","","","","","","","","","","","","","","","","","",""
"3917","","","","instructions","35","482622","0.0-8.0-9.0","64","1","2025-07-02 10:18:59","80fe4187154257d5fb01684ea91b68b9","151.56.228.130","Mozilla/5.0 (Windows NT 10.0; Win64; x64) AppleWebKit/537.36 (KHTML, like Gecko) Chrome/138.0.0.0 Safari/537.36","WebKit","Chrome","138.0.0.0","Windows","10.0","https://app.prolific.com/","it-IT,it;q=0.9,en-US;q=0.8,en;q=0.7,homepage;q=0.6,homepage_is_newtabpage;q=0.5,http://it.search.yahoo.com?type=198484&fr=spigot-yhp-ch;q=0.4,http://it.search.yahoo.com?type=198484&fr=spigot;q=0.3,session;q=0.2,fi;q=0.1,ru;q=0.1,de;q=0.1,es;q=0.1","58d3bc1642648b0001f21ca4","683db6dfa200031b80f2a654","6865075685cb8ab1bd5c86df","58d3bc1642648b0001f21ca4","","[{""page_index"":0,""viewing_time"":3917}]","","","","","","","","","","","","","","","","","","","","","","","","","","","","","","","","","","","","","","","","","","",""
"5767","","<p>Before you start with this game please answer the following three questions yourself. </p>
  <p>Through this game, we measure several aspects of your cognitive performance, such as reaction times, multi-tasking capabilities </p>
  <p>and the ability to assess the situation you are in.</p>
  <p></p>
  <p><b>How good do you usually are in such tasks?</b></p>","88","html-slider-response","36","488390","0.0-9.0-0.0","64","1","2025-07-02 10:18:59","80fe4187154257d5fb01684ea91b68b9","151.56.228.130","Mozilla/5.0 (Windows NT 10.0; Win64; x64) AppleWebKit/537.36 (KHTML, like Gecko) Chrome/138.0.0.0 Safari/537.36","WebKit","Chrome","138.0.0.0","Windows","10.0","https://app.prolific.com/","it-IT,it;q=0.9,en-US;q=0.8,en;q=0.7,homepage;q=0.6,homepage_is_newtabpage;q=0.5,http://it.search.yahoo.com?type=198484&fr=spigot-yhp-ch;q=0.4,http://it.search.yahoo.com?type=198484&fr=spigot;q=0.3,session;q=0.2,fi;q=0.1,ru;q=0.1,de;q=0.1,es;q=0.1","58d3bc1642648b0001f21ca4","683db6dfa200031b80f2a654","6865075685cb8ab1bd5c86df","58d3bc1642648b0001f21ca4","2025-07-02T10:27:08.055Z","","","","","","PreSkillQ","","","","","","","","","","","","","","","","","","","","","","","","","","","","","","","","","","","","","","50"
"4268","","<div style=""width:500px;"">
  <p>How well do you think you will perform in this task compared to other participants?</p>
  </div>","91","html-slider-response","37","492659","0.0-9.0-1.0","64","1","2025-07-02 10:18:59","80fe4187154257d5fb01684ea91b68b9","151.56.228.130","Mozilla/5.0 (Windows NT 10.0; Win64; x64) AppleWebKit/537.36 (KHTML, like Gecko) Chrome/138.0.0.0 Safari/537.36","WebKit","Chrome","138.0.0.0","Windows","10.0","https://app.prolific.com/","it-IT,it;q=0.9,en-US;q=0.8,en;q=0.7,homepage;q=0.6,homepage_is_newtabpage;q=0.5,http://it.search.yahoo.com?type=198484&fr=spigot-yhp-ch;q=0.4,http://it.search.yahoo.com?type=198484&fr=spigot;q=0.3,session;q=0.2,fi;q=0.1,ru;q=0.1,de;q=0.1,es;q=0.1","58d3bc1642648b0001f21ca4","683db6dfa200031b80f2a654","6865075685cb8ab1bd5c86df","58d3bc1642648b0001f21ca4","2025-07-02T10:27:12.324Z","","","","","","PrePerfQ","","","","","","","","","","","","","","","","","","","","","","","","","","","","","","","","","","","","","","50"
"2897","","<div style=""width:500px;"">
  <p>What best describes how you currently feel?</p>
  </div>","75","html-slider-response","38","495557","0.0-9.0-2.0","64","1","2025-07-02 10:18:59","80fe4187154257d5fb01684ea91b68b9","151.56.228.130","Mozilla/5.0 (Windows NT 10.0; Win64; x64) AppleWebKit/537.36 (KHTML, like Gecko) Chrome/138.0.0.0 Safari/537.36","WebKit","Chrome","138.0.0.0","Windows","10.0","https://app.prolific.com/","it-IT,it;q=0.9,en-US;q=0.8,en;q=0.7,homepage;q=0.6,homepage_is_newtabpage;q=0.5,http://it.search.yahoo.com?type=198484&fr=spigot-yhp-ch;q=0.4,http://it.search.yahoo.com?type=198484&fr=spigot;q=0.3,session;q=0.2,fi;q=0.1,ru;q=0.1,de;q=0.1,es;q=0.1","58d3bc1642648b0001f21ca4","683db6dfa200031b80f2a654","6865075685cb8ab1bd5c86df","58d3bc1642648b0001f21ca4","2025-07-02T10:27:15.222Z","","","","","","PreMotivationQ","","","","","","","","","","","","","","","","","","","","","","","","","","","","","","","","","","","","","","50"
"","","","","ctl-task-cpt","39","518239","0.0-10.0-0.0","64","1","2025-07-02 10:18:59","80fe4187154257d5fb01684ea91b68b9","151.56.228.130","Mozilla/5.0 (Windows NT 10.0; Win64; x64) AppleWebKit/537.36 (KHTML, like Gecko) Chrome/138.0.0.0 Safari/537.36","WebKit","Chrome","138.0.0.0","Windows","10.0","https://app.prolific.com/","it-IT,it;q=0.9,en-US;q=0.8,en;q=0.7,homepage;q=0.6,homepage_is_newtabpage;q=0.5,http://it.search.yahoo.com?type=198484&fr=spigot-yhp-ch;q=0.4,http://it.search.yahoo.com?type=198484&fr=spigot;q=0.3,session;q=0.2,fi;q=0.1,ru;q=0.1,de;q=0.1,es;q=0.1","58d3bc1642648b0001f21ca4","683db6dfa200031b80f2a654","6865075685cb8ab1bd5c86df","58d3bc1642648b0001f21ca4","2025-07-02T10:27:37.904Z","","","","","","","","","","","","","","","","win-only","2","g1:SE,g2:NW","1","1","0","497224.7","821.6","5825.8","19665.5","1","4","8","6","2","8","8","8","0","0.06060606060606061","915.1","3000","920","[""left"",""up""]","{""num_key_presses"":6,""num_perfect"":6,""num_errors"":0,""num_randdir"":0,""num_randdir_good_moves"":0,""num_whilered"":0,""num_whileblue"":0,""num_blue"":0,""num_good_moves"":6}","[410.57142857142856,414.47767857142856,0,411.57142857142856,414.47767857142856,103.9,400.57142857142856,413.47767857142856,204.8,400.57142857142856,413.47767857142856,309.9,406.57142857142856,415.47767857142856,413.9,432.57142857142856,442.47767857142856,514.6,452.57142857142856,468.47767857142856,619.6,261.57142857142856,218.47767857142856,723.7,152.57142857142856,105.47767857142857,823.7,117.57142857142857,92.47767857142857,924.1,118.57142857142857,94.47767857142857,1024.9,161.57142857142856,139.47767857142856,1128.9,244.57142857142856,235.47767857142856,1229,297.57142857142856,289.47767857142856,1333.7,304.57142857142856,298.47767857142856,1434.6,304.57142857142856,298.47767857142856,1539,304.57142857142856,300.47767857142856,1644.4,304.57142857142856,300.47767857142856,1744.6,304.57142857142856,300.47767857142856,1849,304.57142857142856,300.47767857142856,1953.9,304.57142857142856,300.47767857142856,2059.3,304.57142857142856,300.47767857142856,2164.8,304.57142857142856,300.47767857142856,2269.1,304.57142857142856,300.47767857142856,2369.5,304.57142857142856,300.47767857142856,2474.4,304.57142857142856,300.47767857142856,2579.2,304.57142857142856,300.47767857142856,2679.6,304.57142857142856,300.47767857142856,2784.5,304.57142857142856,300.47767857142856,2889.4,304.57142857142856,300.47767857142856,2993.9,304.57142857142856,300.47767857142856,3094.4,304.57142857142856,300.47767857142856,3199.5,304.57142857142856,300.47767857142856,3304.3,304.57142857142856,300.47767857142856,3409.6,304.57142857142856,300.47767857142856,3514.3,304.57142857142856,300.47767857142856,3614.5,304.57142857142856,300.47767857142856,3714.8,304.57142857142856,300.47767857142856,3819.3,304.57142857142856,300.47767857142856,3924.1,304.57142857142856,300.47767857142856,4029.2,304.57142857142856,301.47767857142856,4130,304.57142857142856,301.47767857142856,4235.3,304.57142857142856,301.47767857142856,4339.6,304.57142857142856,301.47767857142856,4443.9,304.57142857142856,301.47767857142856,4543.9,304.57142857142856,301.47767857142856,4644.9,304.57142857142856,301.47767857142856,4749,304.57142857142856,301.47767857142856,4849,304.57142857142856,301.47767857142856,4949.4]","[1404.7,1404.7,1000,0,404.7,""smooth"",""left"",""left"",""good_move"",3986.3,2581.3,2233.9,1405,347.4,""smooth"",""up"",""up"",""good_move"",5818.3,1831.8,1492.7,3986.5,339.1,""smooth"",""left"",""left"",""good_move"",8420.2,2601.9,2217.2,5818.3,384.7,""smooth"",""up"",""up"",""good_move"",11136,2715.7,2401.9,8420.3,313.8,""smooth"",""up"",""up"",""good_move"",13750.2,2614,2289.5,11136.2,324.5,""smooth"",""left"",""left"",""good_move""]","",""
"3333","","<div style=""width:500px;"">
  <p>What determined the result of this run?</p>
  </div>","100","html-slider-response","40","521573","0.0-10.0-1.0","64","1","2025-07-02 10:18:59","80fe4187154257d5fb01684ea91b68b9","151.56.228.130","Mozilla/5.0 (Windows NT 10.0; Win64; x64) AppleWebKit/537.36 (KHTML, like Gecko) Chrome/138.0.0.0 Safari/537.36","WebKit","Chrome","138.0.0.0","Windows","10.0","https://app.prolific.com/","it-IT,it;q=0.9,en-US;q=0.8,en;q=0.7,homepage;q=0.6,homepage_is_newtabpage;q=0.5,http://it.search.yahoo.com?type=198484&fr=spigot-yhp-ch;q=0.4,http://it.search.yahoo.com?type=198484&fr=spigot;q=0.3,session;q=0.2,fi;q=0.1,ru;q=0.1,de;q=0.1,es;q=0.1","58d3bc1642648b0001f21ca4","683db6dfa200031b80f2a654","6865075685cb8ab1bd5c86df","58d3bc1642648b0001f21ca4","2025-07-02T10:27:41.238Z","","","","","","AttribQ","","","","","","","","","","","","","","","","","","","","","","","","","","","","","","","","","","","","","","50"
"2030","","<div style=""width:500px;"">
  <p>How much control did you have over the ball?</p>
  </div>","100","html-slider-response","41","523603","0.0-10.0-2.0","64","1","2025-07-02 10:18:59","80fe4187154257d5fb01684ea91b68b9","151.56.228.130","Mozilla/5.0 (Windows NT 10.0; Win64; x64) AppleWebKit/537.36 (KHTML, like Gecko) Chrome/138.0.0.0 Safari/537.36","WebKit","Chrome","138.0.0.0","Windows","10.0","https://app.prolific.com/","it-IT,it;q=0.9,en-US;q=0.8,en;q=0.7,homepage;q=0.6,homepage_is_newtabpage;q=0.5,http://it.search.yahoo.com?type=198484&fr=spigot-yhp-ch;q=0.4,http://it.search.yahoo.com?type=198484&fr=spigot;q=0.3,session;q=0.2,fi;q=0.1,ru;q=0.1,de;q=0.1,es;q=0.1","58d3bc1642648b0001f21ca4","683db6dfa200031b80f2a654","6865075685cb8ab1bd5c86df","58d3bc1642648b0001f21ca4","2025-07-02T10:27:43.268Z","","","","","","ControlQ","","","","","","","","","","","","","","","","","","","","","","","","","","","","","","","","","","","","","","50"
"4411","","<div style=""width:500px;"">
  <p>How would you describe your current emotional state?</p>
  </div>","17","html-slider-response","42","528015","0.0-10.0-3.0","64","1","2025-07-02 10:18:59","80fe4187154257d5fb01684ea91b68b9","151.56.228.130","Mozilla/5.0 (Windows NT 10.0; Win64; x64) AppleWebKit/537.36 (KHTML, like Gecko) Chrome/138.0.0.0 Safari/537.36","WebKit","Chrome","138.0.0.0","Windows","10.0","https://app.prolific.com/","it-IT,it;q=0.9,en-US;q=0.8,en;q=0.7,homepage;q=0.6,homepage_is_newtabpage;q=0.5,http://it.search.yahoo.com?type=198484&fr=spigot-yhp-ch;q=0.4,http://it.search.yahoo.com?type=198484&fr=spigot;q=0.3,session;q=0.2,fi;q=0.1,ru;q=0.1,de;q=0.1,es;q=0.1","58d3bc1642648b0001f21ca4","683db6dfa200031b80f2a654","6865075685cb8ab1bd5c86df","58d3bc1642648b0001f21ca4","2025-07-02T10:27:47.680Z","","","","","","StressQ","","","","","","","","","","","","","","","","","","","","","","","","","","","","","","","","","","","","","","50"
"3686","","<div style=""width:500px;"">
  <p>What best describes how you currently feel?</p>
  </div>","95","html-slider-response","43","531702","0.0-10.0-4.0","64","1","2025-07-02 10:18:59","80fe4187154257d5fb01684ea91b68b9","151.56.228.130","Mozilla/5.0 (Windows NT 10.0; Win64; x64) AppleWebKit/537.36 (KHTML, like Gecko) Chrome/138.0.0.0 Safari/537.36","WebKit","Chrome","138.0.0.0","Windows","10.0","https://app.prolific.com/","it-IT,it;q=0.9,en-US;q=0.8,en;q=0.7,homepage;q=0.6,homepage_is_newtabpage;q=0.5,http://it.search.yahoo.com?type=198484&fr=spigot-yhp-ch;q=0.4,http://it.search.yahoo.com?type=198484&fr=spigot;q=0.3,session;q=0.2,fi;q=0.1,ru;q=0.1,de;q=0.1,es;q=0.1","58d3bc1642648b0001f21ca4","683db6dfa200031b80f2a654","6865075685cb8ab1bd5c86df","58d3bc1642648b0001f21ca4","2025-07-02T10:27:51.367Z","","","","","","MotivationQ","","","","","","","","","","","","","","","","","","","","","","","","","","","","","","","","","","","","","","50"
"","","","","ctl-task-cpt","44","571193","0.0-10.0-0.1","64","1","2025-07-02 10:18:59","80fe4187154257d5fb01684ea91b68b9","151.56.228.130","Mozilla/5.0 (Windows NT 10.0; Win64; x64) AppleWebKit/537.36 (KHTML, like Gecko) Chrome/138.0.0.0 Safari/537.36","WebKit","Chrome","138.0.0.0","Windows","10.0","https://app.prolific.com/","it-IT,it;q=0.9,en-US;q=0.8,en;q=0.7,homepage;q=0.6,homepage_is_newtabpage;q=0.5,http://it.search.yahoo.com?type=198484&fr=spigot-yhp-ch;q=0.4,http://it.search.yahoo.com?type=198484&fr=spigot;q=0.3,session;q=0.2,fi;q=0.1,ru;q=0.1,de;q=0.1,es;q=0.1","58d3bc1642648b0001f21ca4","683db6dfa200031b80f2a654","6865075685cb8ab1bd5c86df","58d3bc1642648b0001f21ca4","2025-07-02T10:28:30.858Z","","","","","","","","","","","","","","","","win-only","1","g1:NE,g2:SW","0.9","2","0","533369.7","987.6","5990.4","36475.5","1","4","4","6","2","4","3","11","8","0.08333333333333333","940.8","3000","1315","[""down"",""left""]","{""num_key_presses"":6,""num_perfect"":5,""num_errors"":1,""num_randdir"":0,""num_randdir_good_moves"":0,""num_whilered"":0,""num_whileblue"":1,""num_blue"":5,""num_good_moves"":6}","[415.57142857142856,403.47767857142856,0.1,419.57142857142856,392.47767857142856,102.7,419.57142857142856,392.47767857142856,207.6,421.57142857142856,392.47767857142856,308.5,470.57142857142856,378.47767857142856,413.1,470.57142857142856,378.47767857142856,517.8,475.57142857142856,373.47767857142856,618.8,491.57142857142856,372.47767857142856,722.7,53.57142857142857,688.4776785714286,822.8,41.57142857142857,707.4776785714286,927.8,50.57142857142857,707.4776785714286,1027.9,62.57142857142857,707.4776785714286,1132.8,116.57142857142857,694.4776785714286,1238.4,116.57142857142857,694.4776785714286,1338.4,137.57142857142856,678.4776785714286,1442.8,157.57142857142856,661.4776785714286,1543.1,159.57142857142856,661.4776785714286,1643.8,159.57142857142856,661.4776785714286,1748.9,159.57142857142856,661.4776785714286,1852.6,159.57142857142856,661.4776785714286,1952.7,159.57142857142856,661.4776785714286,2052.7,159.57142857142856,661.4776785714286,2152.7,159.57142857142856,661.4776785714286,2252.7,159.57142857142856,661.4776785714286,2359.1,159.57142857142856,661.4776785714286,2463.1,159.57142857142856,661.4776785714286,2563.4,159.57142857142856,661.4776785714286,2668.1,159.57142857142856,661.4776785714286,2768.6,159.57142857142856,661.4776785714286,2873,159.57142857142856,661.4776785714286,2973.5,159.57142857142856,661.4776785714286,3077.6,236.57142857142856,667.4776785714286,3177.7,327.57142857142856,660.4776785714286,3277.9,327.57142857142856,662.4776785714286,3383,332.57142857142856,657.4776785714286,3483,332.57142857142856,657.4776785714286,3583.7,333.57142857142856,657.4776785714286,3688.4,346.57142857142856,661.4776785714286,3793.7,369.57142857142856,674.4776785714286,3898.1,370.57142857142856,674.4776785714286,3998.2,370.57142857142856,674.4776785714286,4098.7,370.57142857142856,674.4776785714286,4202.5,370.57142857142856,674.4776785714286,4302.6,370.57142857142856,674.4776785714286,4402.7,371.57142857142856,670.4776785714286,4502.7,363.57142857142856,661.4776785714286,4608.4,363.57142857142856,661.4776785714286,4712.9,363.57142857142856,661.4776785714286,4813.5,363.57142857142856,661.4776785714286,4918]","[1326.9,1326.9,1000,0,327,""smooth"",""down"",""down"",""good_move"",4349.9,3022.8,2727.7,1327.1,295.1,""smooth"",""left"",""left"",""good_move"",11149.3,6799.2,3022.3,7784.8,342.2,""smooth"",""down"",""down"",""good_move"",13680.6,2531.2,2225.7,11149.4,305.5,""while_blue"",""left"",""left"",""good_move"",15986.3,2305.5,1933.6,13680.8,371.9,""smooth"",""down"",""down"",""good_move"",30400.3,14413.8,2579.5,27449.9,370.9,""smooth"",""left"",""left"",""good_move""]","",""
"4804","","<div style=""width:500px;"">
  <p>What determined the result of this run?</p>
  </div>","84","html-slider-response","45","575998","0.0-10.0-1.1","64","1","2025-07-02 10:18:59","80fe4187154257d5fb01684ea91b68b9","151.56.228.130","Mozilla/5.0 (Windows NT 10.0; Win64; x64) AppleWebKit/537.36 (KHTML, like Gecko) Chrome/138.0.0.0 Safari/537.36","WebKit","Chrome","138.0.0.0","Windows","10.0","https://app.prolific.com/","it-IT,it;q=0.9,en-US;q=0.8,en;q=0.7,homepage;q=0.6,homepage_is_newtabpage;q=0.5,http://it.search.yahoo.com?type=198484&fr=spigot-yhp-ch;q=0.4,http://it.search.yahoo.com?type=198484&fr=spigot;q=0.3,session;q=0.2,fi;q=0.1,ru;q=0.1,de;q=0.1,es;q=0.1","58d3bc1642648b0001f21ca4","683db6dfa200031b80f2a654","6865075685cb8ab1bd5c86df","58d3bc1642648b0001f21ca4","2025-07-02T10:28:35.663Z","","","","","","AttribQ","","","","","","","","","","","","","","","","","","","","","","","","","","","","","","","","","","","","","","50"
"3045","","<div style=""width:500px;"">
  <p>How much control did you have over the ball?</p>
  </div>","93","html-slider-response","46","579044","0.0-10.0-2.1","64","1","2025-07-02 10:18:59","80fe4187154257d5fb01684ea91b68b9","151.56.228.130","Mozilla/5.0 (Windows NT 10.0; Win64; x64) AppleWebKit/537.36 (KHTML, like Gecko) Chrome/138.0.0.0 Safari/537.36","WebKit","Chrome","138.0.0.0","Windows","10.0","https://app.prolific.com/","it-IT,it;q=0.9,en-US;q=0.8,en;q=0.7,homepage;q=0.6,homepage_is_newtabpage;q=0.5,http://it.search.yahoo.com?type=198484&fr=spigot-yhp-ch;q=0.4,http://it.search.yahoo.com?type=198484&fr=spigot;q=0.3,session;q=0.2,fi;q=0.1,ru;q=0.1,de;q=0.1,es;q=0.1","58d3bc1642648b0001f21ca4","683db6dfa200031b80f2a654","6865075685cb8ab1bd5c86df","58d3bc1642648b0001f21ca4","2025-07-02T10:28:38.709Z","","","","","","ControlQ","","","","","","","","","","","","","","","","","","","","","","","","","","","","","","","","","","","","","","50"
"3319","","<div style=""width:500px;"">
  <p>How would you describe your current emotional state?</p>
  </div>","15","html-slider-response","47","582364","0.0-10.0-3.1","64","1","2025-07-02 10:18:59","80fe4187154257d5fb01684ea91b68b9","151.56.228.130","Mozilla/5.0 (Windows NT 10.0; Win64; x64) AppleWebKit/537.36 (KHTML, like Gecko) Chrome/138.0.0.0 Safari/537.36","WebKit","Chrome","138.0.0.0","Windows","10.0","https://app.prolific.com/","it-IT,it;q=0.9,en-US;q=0.8,en;q=0.7,homepage;q=0.6,homepage_is_newtabpage;q=0.5,http://it.search.yahoo.com?type=198484&fr=spigot-yhp-ch;q=0.4,http://it.search.yahoo.com?type=198484&fr=spigot;q=0.3,session;q=0.2,fi;q=0.1,ru;q=0.1,de;q=0.1,es;q=0.1","58d3bc1642648b0001f21ca4","683db6dfa200031b80f2a654","6865075685cb8ab1bd5c86df","58d3bc1642648b0001f21ca4","2025-07-02T10:28:42.029Z","","","","","","StressQ","","","","","","","","","","","","","","","","","","","","","","","","","","","","","","","","","","","","","","50"
"2163","","<div style=""width:500px;"">
  <p>What best describes how you currently feel?</p>
  </div>","100","html-slider-response","48","584528","0.0-10.0-4.1","64","1","2025-07-02 10:18:59","80fe4187154257d5fb01684ea91b68b9","151.56.228.130","Mozilla/5.0 (Windows NT 10.0; Win64; x64) AppleWebKit/537.36 (KHTML, like Gecko) Chrome/138.0.0.0 Safari/537.36","WebKit","Chrome","138.0.0.0","Windows","10.0","https://app.prolific.com/","it-IT,it;q=0.9,en-US;q=0.8,en;q=0.7,homepage;q=0.6,homepage_is_newtabpage;q=0.5,http://it.search.yahoo.com?type=198484&fr=spigot-yhp-ch;q=0.4,http://it.search.yahoo.com?type=198484&fr=spigot;q=0.3,session;q=0.2,fi;q=0.1,ru;q=0.1,de;q=0.1,es;q=0.1","58d3bc1642648b0001f21ca4","683db6dfa200031b80f2a654","6865075685cb8ab1bd5c86df","58d3bc1642648b0001f21ca4","2025-07-02T10:28:44.193Z","","","","","","MotivationQ","","","","","","","","","","","","","","","","","","","","","","","","","","","","","","","","","","","","","","50"
"","","","","ctl-task-cpt","49","635565","0.0-10.0-0.2","64","1","2025-07-02 10:18:59","80fe4187154257d5fb01684ea91b68b9","151.56.228.130","Mozilla/5.0 (Windows NT 10.0; Win64; x64) AppleWebKit/537.36 (KHTML, like Gecko) Chrome/138.0.0.0 Safari/537.36","WebKit","Chrome","138.0.0.0","Windows","10.0","https://app.prolific.com/","it-IT,it;q=0.9,en-US;q=0.8,en;q=0.7,homepage;q=0.6,homepage_is_newtabpage;q=0.5,http://it.search.yahoo.com?type=198484&fr=spigot-yhp-ch;q=0.4,http://it.search.yahoo.com?type=198484&fr=spigot;q=0.3,session;q=0.2,fi;q=0.1,ru;q=0.1,de;q=0.1,es;q=0.1","58d3bc1642648b0001f21ca4","683db6dfa200031b80f2a654","6865075685cb8ab1bd5c86df","58d3bc1642648b0001f21ca4","2025-07-02T10:29:35.230Z","","","","","","","","","","","","","","","","win-only","3","g1:SW,g2:NE","0.8","3","0","586195.6","624.8","5625.3","48020.5","1","4","4","6","2","-4","-4","7","11","0.05303030303030303","1601.7","3000","-3015","[""up"",""right""]","{""num_key_presses"":7,""num_perfect"":5,""num_errors"":0,""num_randdir"":2,""num_randdir_good_moves"":1,""num_whilered"":0,""num_whileblue"":0,""num_blue"":6,""num_good_moves"":6}","[425.57142857142856,416.47767857142856,0.1,425.57142857142856,416.47767857142856,100.9,422.57142857142856,416.47767857142856,206,416.57142857142856,418.47767857142856,306.1,415.57142857142856,418.47767857142856,410.5,414.57142857142856,419.47767857142856,510.8,414.57142857142856,419.47767857142856,611.3,414.57142857142856,419.47767857142856,715.6,414.57142857142856,419.47767857142856,816.6,414.57142857142856,419.47767857142856,920.5,414.57142857142856,419.47767857142856,1021.5,414.57142857142856,419.47767857142856,1125.8,414.57142857142856,419.47767857142856,1225.8,607.5714285714286,340.47767857142856,1326.3,771.5714285714286,173.47767857142856,1430.5,779.5714285714286,124.47767857142857,1531.4,768.5714285714286,95.47767857142857,1635.8,745.5714285714286,156.47767857142856,1740.7,672.5714285714286,358.47767857142856,1841.1,607.5714285714286,400.47767857142856,1945.4,607.5714285714286,400.47767857142856,2045.8,613.5714285714286,401.47767857142856,2151.2,617.5714285714286,406.47767857142856,2251.2,639.5714285714286,423.47767857142856,2355.7,680.5714285714286,443.47767857142856,2461.2,678.5714285714286,444.47767857142856,2565.8,684.5714285714286,434.47767857142856,2666.2,684.5714285714286,433.47767857142856,2770.7,684.5714285714286,433.47767857142856,2870.7,684.5714285714286,433.47767857142856,2975.4,704.5714285714286,451.47767857142856,3077.3,704.5714285714286,453.47767857142856,3180.6,706.5714285714286,451.47767857142856,3280.6,712.5714285714286,445.47767857142856,3380.8,712.5714285714286,442.47767857142856,3481,712.5714285714286,442.47767857142856,3585.4,712.5714285714286,442.47767857142856,3685.5,712.5714285714286,442.47767857142856,3785.5,712.5714285714286,442.47767857142856,3891.3,711.5714285714286,442.47767857142856,3995.5,710.5714285714286,442.47767857142856,4101,710.5714285714286,442.47767857142856,4201.1,710.5714285714286,442.47767857142856,4301.2,695.5714285714286,436.47767857142856,4406.2,695.5714285714286,436.47767857142856,4506.5,695.5714285714286,436.47767857142856,4610.8,695.5714285714286,436.47767857142856,4716,695.5714285714286,436.47767857142856,4816.3,695.5714285714286,436.47767857142856,4920.5]","[1513.4,1513.4,1000,0,513.4,""oops"",""up"",""right"",""good_move"",4383,2869.4,2532.3,1513.6,337.1,""oops"",""up"",""down"",""bad_move"",17106.6,12723.4,2507.7,14260.8,338.1,""smooth"",""up"",""up"",""good_move"",24671.8,7565,3140.2,21150,381.6,""smooth"",""up"",""up"",""good_move"",33966.3,9294.3,2596.1,31069.9,300.3,""smooth"",""right"",""right"",""good_move"",36574.3,2607.8,2030.1,33966.5,577.7,""smooth"",""up"",""up"",""good_move"",39399.8,2825.3,2462.6,36574.5,362.7,""smooth"",""up"",""up"",""good_move""]","",""
"1729","","<div style=""width:500px;"">
  <p>What determined the result of this run?</p>
  </div>","69","html-slider-response","50","637295","0.0-10.0-1.2","64","1","2025-07-02 10:18:59","80fe4187154257d5fb01684ea91b68b9","151.56.228.130","Mozilla/5.0 (Windows NT 10.0; Win64; x64) AppleWebKit/537.36 (KHTML, like Gecko) Chrome/138.0.0.0 Safari/537.36","WebKit","Chrome","138.0.0.0","Windows","10.0","https://app.prolific.com/","it-IT,it;q=0.9,en-US;q=0.8,en;q=0.7,homepage;q=0.6,homepage_is_newtabpage;q=0.5,http://it.search.yahoo.com?type=198484&fr=spigot-yhp-ch;q=0.4,http://it.search.yahoo.com?type=198484&fr=spigot;q=0.3,session;q=0.2,fi;q=0.1,ru;q=0.1,de;q=0.1,es;q=0.1","58d3bc1642648b0001f21ca4","683db6dfa200031b80f2a654","6865075685cb8ab1bd5c86df","58d3bc1642648b0001f21ca4","2025-07-02T10:29:36.960Z","","","","","","AttribQ","","","","","","","","","","","","","","","","","","","","","","","","","","","","","","","","","","","","","","50"
"1670","","<div style=""width:500px;"">
  <p>How much control did you have over the ball?</p>
  </div>","85","html-slider-response","51","638966","0.0-10.0-2.2","64","1","2025-07-02 10:18:59","80fe4187154257d5fb01684ea91b68b9","151.56.228.130","Mozilla/5.0 (Windows NT 10.0; Win64; x64) AppleWebKit/537.36 (KHTML, like Gecko) Chrome/138.0.0.0 Safari/537.36","WebKit","Chrome","138.0.0.0","Windows","10.0","https://app.prolific.com/","it-IT,it;q=0.9,en-US;q=0.8,en;q=0.7,homepage;q=0.6,homepage_is_newtabpage;q=0.5,http://it.search.yahoo.com?type=198484&fr=spigot-yhp-ch;q=0.4,http://it.search.yahoo.com?type=198484&fr=spigot;q=0.3,session;q=0.2,fi;q=0.1,ru;q=0.1,de;q=0.1,es;q=0.1","58d3bc1642648b0001f21ca4","683db6dfa200031b80f2a654","6865075685cb8ab1bd5c86df","58d3bc1642648b0001f21ca4","2025-07-02T10:29:38.631Z","","","","","","ControlQ","","","","","","","","","","","","","","","","","","","","","","","","","","","","","","","","","","","","","","50"
"1781","","<div style=""width:500px;"">
  <p>How would you describe your current emotional state?</p>
  </div>","39","html-slider-response","52","640748","0.0-10.0-3.2","64","1","2025-07-02 10:18:59","80fe4187154257d5fb01684ea91b68b9","151.56.228.130","Mozilla/5.0 (Windows NT 10.0; Win64; x64) AppleWebKit/537.36 (KHTML, like Gecko) Chrome/138.0.0.0 Safari/537.36","WebKit","Chrome","138.0.0.0","Windows","10.0","https://app.prolific.com/","it-IT,it;q=0.9,en-US;q=0.8,en;q=0.7,homepage;q=0.6,homepage_is_newtabpage;q=0.5,http://it.search.yahoo.com?type=198484&fr=spigot-yhp-ch;q=0.4,http://it.search.yahoo.com?type=198484&fr=spigot;q=0.3,session;q=0.2,fi;q=0.1,ru;q=0.1,de;q=0.1,es;q=0.1","58d3bc1642648b0001f21ca4","683db6dfa200031b80f2a654","6865075685cb8ab1bd5c86df","58d3bc1642648b0001f21ca4","2025-07-02T10:29:40.413Z","","","","","","StressQ","","","","","","","","","","","","","","","","","","","","","","","","","","","","","","","","","","","","","","50"
"1989","","<div style=""width:500px;"">
  <p>What best describes how you currently feel?</p>
  </div>","87","html-slider-response","53","642737","0.0-10.0-4.2","64","1","2025-07-02 10:18:59","80fe4187154257d5fb01684ea91b68b9","151.56.228.130","Mozilla/5.0 (Windows NT 10.0; Win64; x64) AppleWebKit/537.36 (KHTML, like Gecko) Chrome/138.0.0.0 Safari/537.36","WebKit","Chrome","138.0.0.0","Windows","10.0","https://app.prolific.com/","it-IT,it;q=0.9,en-US;q=0.8,en;q=0.7,homepage;q=0.6,homepage_is_newtabpage;q=0.5,http://it.search.yahoo.com?type=198484&fr=spigot-yhp-ch;q=0.4,http://it.search.yahoo.com?type=198484&fr=spigot;q=0.3,session;q=0.2,fi;q=0.1,ru;q=0.1,de;q=0.1,es;q=0.1","58d3bc1642648b0001f21ca4","683db6dfa200031b80f2a654","6865075685cb8ab1bd5c86df","58d3bc1642648b0001f21ca4","2025-07-02T10:29:42.402Z","","","","","","MotivationQ","","","","","","","","","","","","","","","","","","","","","","","","","","","","","","","","","","","","","","50"
"","","","","ctl-task-cpt","54","682171","0.0-10.0-0.3","64","1","2025-07-02 10:18:59","80fe4187154257d5fb01684ea91b68b9","151.56.228.130","Mozilla/5.0 (Windows NT 10.0; Win64; x64) AppleWebKit/537.36 (KHTML, like Gecko) Chrome/138.0.0.0 Safari/537.36","WebKit","Chrome","138.0.0.0","Windows","10.0","https://app.prolific.com/","it-IT,it;q=0.9,en-US;q=0.8,en;q=0.7,homepage;q=0.6,homepage_is_newtabpage;q=0.5,http://it.search.yahoo.com?type=198484&fr=spigot-yhp-ch;q=0.4,http://it.search.yahoo.com?type=198484&fr=spigot;q=0.3,session;q=0.2,fi;q=0.1,ru;q=0.1,de;q=0.1,es;q=0.1","58d3bc1642648b0001f21ca4","683db6dfa200031b80f2a654","6865075685cb8ab1bd5c86df","58d3bc1642648b0001f21ca4","2025-07-02T10:30:21.836Z","","","","","","","","","","","","","","","","win-only","2","g1:SE,g2:NW","0.7","4","0","644405.3","674.7","5676.1","36416.2","1","4","8","6","2","8","8","15","7","0.11363636363636363","817","3000","680","[""left"",""up""]","{""num_key_presses"":8,""num_perfect"":6,""num_errors"":0,""num_randdir"":2,""num_randdir_good_moves"":1,""num_whilered"":0,""num_whileblue"":0,""num_blue"":3,""num_good_moves"":7}","[417.57142857142856,410.47767857142856,0.2,416.57142857142856,410.47767857142856,100.6,423.57142857142856,432.47767857142856,200.9,424.57142857142856,450.47767857142856,306.2,468.57142857142856,477.47767857142856,411.2,511.57142857142856,585.4776785714286,517,299.57142857142856,328.47767857142856,620.6,82.57142857142857,106.47767857142857,720.7,82.57142857142857,105.47767857142857,826.4,142.57142857142856,221.47767857142856,930.8,377.57142857142856,468.47767857142856,1030.9,418.57142857142856,503.47767857142856,1131.2,491.57142857142856,518.4776785714286,1231.7,530.5714285714286,531.4776785714286,1336.3,530.5714285714286,531.4776785714286,1436.4,552.5714285714286,538.4776785714286,1541.3,717.5714285714286,586.4776785714286,1641.3,736.5714285714286,591.4776785714286,1745.5,738.5714285714286,589.4776785714286,1846.9,968.5714285714286,618.4776785714286,1950.7,976.5714285714286,609.4776785714286,2050.7,976.5714285714286,609.4776785714286,2151,976.5714285714286,609.4776785714286,2251.7,976.5714285714286,609.4776785714286,2355.7,976.5714285714286,609.4776785714286,2456.1,976.5714285714286,609.4776785714286,2561.4,976.5714285714286,609.4776785714286,2666.5,976.5714285714286,609.4776785714286,2770.9,976.5714285714286,609.4776785714286,2870.9,976.5714285714286,609.4776785714286,2976.4,976.5714285714286,609.4776785714286,3081,976.5714285714286,609.4776785714286,3181.1,976.5714285714286,609.4776785714286,3281.2,976.5714285714286,609.4776785714286,3386.1,976.5714285714286,609.4776785714286,3490.9,976.5714285714286,609.4776785714286,3591.1,976.5714285714286,609.4776785714286,3691.3,976.5714285714286,609.4776785714286,3791.4,976.5714285714286,609.4776785714286,3896.5,976.5714285714286,609.4776785714286,4001.4,976.5714285714286,609.4776785714286,4105.7,976.5714285714286,609.4776785714286,4211.1,976.5714285714286,609.4776785714286,4315.6,976.5714285714286,609.4776785714286,4415.6,976.5714285714286,609.4776785714286,4516.2,976.5714285714286,609.4776785714286,4616.2,976.5714285714286,609.4776785714286,4721.2,976.5714285714286,609.4776785714286,4821.3,976.5714285714286,609.4776785714286,4925.5]","[4799.2,4799.2,2491.3,2005.1,302.8,""oops"",""up"",""right"",""bad_move"",7760.9,2961.5,2628.8,4799.4,332.7,""smooth"",""up"",""up"",""good_move"",10179,2418,2140.2,7761,277.8,""oops"",""up"",""left"",""good_move"",12577.7,2398.5,2132.4,10179.2,266.1,""smooth"",""up"",""up"",""good_move"",14413.5,1835.7,1470.9,12577.8,364.8,""smooth"",""left"",""left"",""good_move"",17917.4,3503.9,3217.5,14413.5,286.4,""smooth"",""left"",""left"",""good_move"",20683.4,2765.8,2506,17917.6,259.8,""smooth"",""up"",""up"",""good_move"",30652.7,9969.2,2838.4,27539.5,274.8,""smooth"",""left"",""left"",""good_move""]","",""
"2692","","<div style=""width:500px;"">
  <p>What determined the result of this run?</p>
  </div>","90","html-slider-response","55","684863","0.0-10.0-1.3","64","1","2025-07-02 10:18:59","80fe4187154257d5fb01684ea91b68b9","151.56.228.130","Mozilla/5.0 (Windows NT 10.0; Win64; x64) AppleWebKit/537.36 (KHTML, like Gecko) Chrome/138.0.0.0 Safari/537.36","WebKit","Chrome","138.0.0.0","Windows","10.0","https://app.prolific.com/","it-IT,it;q=0.9,en-US;q=0.8,en;q=0.7,homepage;q=0.6,homepage_is_newtabpage;q=0.5,http://it.search.yahoo.com?type=198484&fr=spigot-yhp-ch;q=0.4,http://it.search.yahoo.com?type=198484&fr=spigot;q=0.3,session;q=0.2,fi;q=0.1,ru;q=0.1,de;q=0.1,es;q=0.1","58d3bc1642648b0001f21ca4","683db6dfa200031b80f2a654","6865075685cb8ab1bd5c86df","58d3bc1642648b0001f21ca4","2025-07-02T10:30:24.528Z","","","","","","AttribQ","","","","","","","","","","","","","","","","","","","","","","","","","","","","","","","","","","","","","","50"
"1856","","<div style=""width:500px;"">
  <p>How much control did you have over the ball?</p>
  </div>","82","html-slider-response","56","686720","0.0-10.0-2.3","64","1","2025-07-02 10:18:59","80fe4187154257d5fb01684ea91b68b9","151.56.228.130","Mozilla/5.0 (Windows NT 10.0; Win64; x64) AppleWebKit/537.36 (KHTML, like Gecko) Chrome/138.0.0.0 Safari/537.36","WebKit","Chrome","138.0.0.0","Windows","10.0","https://app.prolific.com/","it-IT,it;q=0.9,en-US;q=0.8,en;q=0.7,homepage;q=0.6,homepage_is_newtabpage;q=0.5,http://it.search.yahoo.com?type=198484&fr=spigot-yhp-ch;q=0.4,http://it.search.yahoo.com?type=198484&fr=spigot;q=0.3,session;q=0.2,fi;q=0.1,ru;q=0.1,de;q=0.1,es;q=0.1","58d3bc1642648b0001f21ca4","683db6dfa200031b80f2a654","6865075685cb8ab1bd5c86df","58d3bc1642648b0001f21ca4","2025-07-02T10:30:26.385Z","","","","","","ControlQ","","","","","","","","","","","","","","","","","","","","","","","","","","","","","","","","","","","","","","50"
"5215","","<div style=""width:500px;"">
  <p>How would you describe your current emotional state?</p>
  </div>","27","html-slider-response","57","691936","0.0-10.0-3.3","64","1","2025-07-02 10:18:59","80fe4187154257d5fb01684ea91b68b9","151.56.228.130","Mozilla/5.0 (Windows NT 10.0; Win64; x64) AppleWebKit/537.36 (KHTML, like Gecko) Chrome/138.0.0.0 Safari/537.36","WebKit","Chrome","138.0.0.0","Windows","10.0","https://app.prolific.com/","it-IT,it;q=0.9,en-US;q=0.8,en;q=0.7,homepage;q=0.6,homepage_is_newtabpage;q=0.5,http://it.search.yahoo.com?type=198484&fr=spigot-yhp-ch;q=0.4,http://it.search.yahoo.com?type=198484&fr=spigot;q=0.3,session;q=0.2,fi;q=0.1,ru;q=0.1,de;q=0.1,es;q=0.1","58d3bc1642648b0001f21ca4","683db6dfa200031b80f2a654","6865075685cb8ab1bd5c86df","58d3bc1642648b0001f21ca4","2025-07-02T10:30:31.601Z","","","","","","StressQ","","","","","","","","","","","","","","","","","","","","","","","","","","","","","","","","","","","","","","50"
"2446","","<div style=""width:500px;"">
  <p>What best describes how you currently feel?</p>
  </div>","90","html-slider-response","58","694382","0.0-10.0-4.3","64","1","2025-07-02 10:18:59","80fe4187154257d5fb01684ea91b68b9","151.56.228.130","Mozilla/5.0 (Windows NT 10.0; Win64; x64) AppleWebKit/537.36 (KHTML, like Gecko) Chrome/138.0.0.0 Safari/537.36","WebKit","Chrome","138.0.0.0","Windows","10.0","https://app.prolific.com/","it-IT,it;q=0.9,en-US;q=0.8,en;q=0.7,homepage;q=0.6,homepage_is_newtabpage;q=0.5,http://it.search.yahoo.com?type=198484&fr=spigot-yhp-ch;q=0.4,http://it.search.yahoo.com?type=198484&fr=spigot;q=0.3,session;q=0.2,fi;q=0.1,ru;q=0.1,de;q=0.1,es;q=0.1","58d3bc1642648b0001f21ca4","683db6dfa200031b80f2a654","6865075685cb8ab1bd5c86df","58d3bc1642648b0001f21ca4","2025-07-02T10:30:34.048Z","","","","","","MotivationQ","","","","","","","","","","","","","","","","","","","","","","","","","","","","","","","","","","","","","","50"
"","","","","ctl-task-cpt","59","734841","0.0-10.0-0.4","64","1","2025-07-02 10:18:59","80fe4187154257d5fb01684ea91b68b9","151.56.228.130","Mozilla/5.0 (Windows NT 10.0; Win64; x64) AppleWebKit/537.36 (KHTML, like Gecko) Chrome/138.0.0.0 Safari/537.36","WebKit","Chrome","138.0.0.0","Windows","10.0","https://app.prolific.com/","it-IT,it;q=0.9,en-US;q=0.8,en;q=0.7,homepage;q=0.6,homepage_is_newtabpage;q=0.5,http://it.search.yahoo.com?type=198484&fr=spigot-yhp-ch;q=0.4,http://it.search.yahoo.com?type=198484&fr=spigot;q=0.3,session;q=0.2,fi;q=0.1,ru;q=0.1,de;q=0.1,es;q=0.1","58d3bc1642648b0001f21ca4","683db6dfa200031b80f2a654","6865075685cb8ab1bd5c86df","58d3bc1642648b0001f21ca4","2025-07-02T10:31:14.506Z","","","","","","","","","","","","","","","","win-only","3","g1:SW,g2:NE","0.6","5","0","696050.4","873.9","5875.6","37440.2","1","4","4","6","2","-4","-5","10","15","0.07575757575757576","753.7","3000","-3015","[""up"",""right""]","{""num_key_presses"":10,""num_perfect"":5,""num_errors"":1,""num_randdir"":4,""num_randdir_good_moves"":1,""num_whilered"":0,""num_whileblue"":1,""num_blue"":2,""num_good_moves"":6}","[421.57142857142856,422.47767857142856,0.1,421.57142857142856,422.47767857142856,101.8,409.57142857142856,412.47767857142856,206.7,414.57142857142856,409.47767857142856,312.3,465.57142857142856,370.47767857142856,416.6,573.5714285714286,266.47767857142856,522.3,719.5714285714286,129.47767857142856,626.6,765.5714285714286,81.47767857142857,726.8,764.5714285714286,81.47767857142857,831.2,717.5714285714286,155.47767857142856,931.5,537.5714285714286,500.47767857142856,1032,531.5714285714286,506.47767857142856,1132,531.5714285714286,506.47767857142856,1232.2,555.5714285714286,505.47767857142856,1336.7,577.5714285714286,509.47767857142856,1437.3,605.5714285714286,493.47767857142856,1541.9,605.5714285714286,493.47767857142856,1647.3,605.5714285714286,493.47767857142856,1752,605.5714285714286,493.47767857142856,1856.5,599.5714285714286,488.47767857142856,1957.3,599.5714285714286,488.47767857142856,2061.2,599.5714285714286,486.47767857142856,2161.9,598.5714285714286,481.47767857142856,2261.9,598.5714285714286,481.47767857142856,2366.4,598.5714285714286,482.47767857142856,2466.5,636.5714285714286,493.47767857142856,2566.6,794.5714285714286,521.4776785714286,2672.3,816.5714285714286,524.4776785714286,2776.5,816.5714285714286,524.4776785714286,2882.2,818.5714285714286,520.4776785714286,2987.3,818.5714285714286,520.4776785714286,3091.4,818.5714285714286,520.4776785714286,3191.7,818.5714285714286,520.4776785714286,3291.7,818.5714285714286,520.4776785714286,3396.2,818.5714285714286,520.4776785714286,3497.1,818.5714285714286,520.4776785714286,3601.8,818.5714285714286,520.4776785714286,3702,818.5714285714286,520.4776785714286,3807,818.5714285714286,520.4776785714286,3907,818.5714285714286,520.4776785714286,4007.1,818.5714285714286,520.4776785714286,4111.9,818.5714285714286,520.4776785714286,4217.2,818.5714285714286,520.4776785714286,4321.2,818.5714285714286,520.4776785714286,4421.7,816.5714285714286,512.4776785714286,4526.3,816.5714285714286,512.4776785714286,4627.1,816.5714285714286,512.4776785714286,4732.3,816.5714285714286,512.4776785714286,4836.9,816.5714285714286,512.4776785714286,4937.1]","[1338.9,1338.9,1000,0,338.9,""smooth"",""up"",""up"",""good_move"",8274.2,6935.1,2948.5,5045.3,280.4,""smooth"",""right"",""right"",""good_move"",11091.3,2816.8,2375.9,8274.5,440.9,""oops"",""up"",""down"",""bad_move"",13689.1,2597.7,2232,11091.4,365.7,""smooth"",""up"",""up"",""good_move"",16029.9,2340.6,2028.3,13689.3,312.3,""smooth"",""up"",""up"",""good_move"",18632.8,2602.8,2257.9,16030,344.9,""smooth"",""right"",""right"",""good_move"",21538.6,2905.7,2593.8,18632.9,311.9,""oops"",""right"",""down"",""bad_move"",24943.4,3404.6,3193.8,21538.8,210.8,""oops"",""up"",""up"",""good_move"",28066.2,3122.6,2916.2,24943.6,206.4,""while_blue"",""up"",""left"",""bad_move"",29775.2,1708.8,1376.9,28066.4,331.9,""oops"",""right"",""down"",""bad_move""]","",""
"3042","","<div style=""width:500px;"">
  <p>What determined the result of this run?</p>
  </div>","36","html-slider-response","60","737884","0.0-10.0-1.4","64","1","2025-07-02 10:18:59","80fe4187154257d5fb01684ea91b68b9","151.56.228.130","Mozilla/5.0 (Windows NT 10.0; Win64; x64) AppleWebKit/537.36 (KHTML, like Gecko) Chrome/138.0.0.0 Safari/537.36","WebKit","Chrome","138.0.0.0","Windows","10.0","https://app.prolific.com/","it-IT,it;q=0.9,en-US;q=0.8,en;q=0.7,homepage;q=0.6,homepage_is_newtabpage;q=0.5,http://it.search.yahoo.com?type=198484&fr=spigot-yhp-ch;q=0.4,http://it.search.yahoo.com?type=198484&fr=spigot;q=0.3,session;q=0.2,fi;q=0.1,ru;q=0.1,de;q=0.1,es;q=0.1","58d3bc1642648b0001f21ca4","683db6dfa200031b80f2a654","6865075685cb8ab1bd5c86df","58d3bc1642648b0001f21ca4","2025-07-02T10:31:17.549Z","","","","","","AttribQ","","","","","","","","","","","","","","","","","","","","","","","","","","","","","","","","","","","","","","50"
"2826","","<div style=""width:500px;"">
  <p>How much control did you have over the ball?</p>
  </div>","44","html-slider-response","61","740711","0.0-10.0-2.4","64","1","2025-07-02 10:18:59","80fe4187154257d5fb01684ea91b68b9","151.56.228.130","Mozilla/5.0 (Windows NT 10.0; Win64; x64) AppleWebKit/537.36 (KHTML, like Gecko) Chrome/138.0.0.0 Safari/537.36","WebKit","Chrome","138.0.0.0","Windows","10.0","https://app.prolific.com/","it-IT,it;q=0.9,en-US;q=0.8,en;q=0.7,homepage;q=0.6,homepage_is_newtabpage;q=0.5,http://it.search.yahoo.com?type=198484&fr=spigot-yhp-ch;q=0.4,http://it.search.yahoo.com?type=198484&fr=spigot;q=0.3,session;q=0.2,fi;q=0.1,ru;q=0.1,de;q=0.1,es;q=0.1","58d3bc1642648b0001f21ca4","683db6dfa200031b80f2a654","6865075685cb8ab1bd5c86df","58d3bc1642648b0001f21ca4","2025-07-02T10:31:20.376Z","","","","","","ControlQ","","","","","","","","","","","","","","","","","","","","","","","","","","","","","","","","","","","","","","50"
"1869","","<div style=""width:500px;"">
  <p>How would you describe your current emotional state?</p>
  </div>","59","html-slider-response","62","742581","0.0-10.0-3.4","64","1","2025-07-02 10:18:59","80fe4187154257d5fb01684ea91b68b9","151.56.228.130","Mozilla/5.0 (Windows NT 10.0; Win64; x64) AppleWebKit/537.36 (KHTML, like Gecko) Chrome/138.0.0.0 Safari/537.36","WebKit","Chrome","138.0.0.0","Windows","10.0","https://app.prolific.com/","it-IT,it;q=0.9,en-US;q=0.8,en;q=0.7,homepage;q=0.6,homepage_is_newtabpage;q=0.5,http://it.search.yahoo.com?type=198484&fr=spigot-yhp-ch;q=0.4,http://it.search.yahoo.com?type=198484&fr=spigot;q=0.3,session;q=0.2,fi;q=0.1,ru;q=0.1,de;q=0.1,es;q=0.1","58d3bc1642648b0001f21ca4","683db6dfa200031b80f2a654","6865075685cb8ab1bd5c86df","58d3bc1642648b0001f21ca4","2025-07-02T10:31:22.246Z","","","","","","StressQ","","","","","","","","","","","","","","","","","","","","","","","","","","","","","","","","","","","","","","50"
"1475","","<div style=""width:500px;"">
  <p>What best describes how you currently feel?</p>
  </div>","84","html-slider-response","63","744057","0.0-10.0-4.4","64","1","2025-07-02 10:18:59","80fe4187154257d5fb01684ea91b68b9","151.56.228.130","Mozilla/5.0 (Windows NT 10.0; Win64; x64) AppleWebKit/537.36 (KHTML, like Gecko) Chrome/138.0.0.0 Safari/537.36","WebKit","Chrome","138.0.0.0","Windows","10.0","https://app.prolific.com/","it-IT,it;q=0.9,en-US;q=0.8,en;q=0.7,homepage;q=0.6,homepage_is_newtabpage;q=0.5,http://it.search.yahoo.com?type=198484&fr=spigot-yhp-ch;q=0.4,http://it.search.yahoo.com?type=198484&fr=spigot;q=0.3,session;q=0.2,fi;q=0.1,ru;q=0.1,de;q=0.1,es;q=0.1","58d3bc1642648b0001f21ca4","683db6dfa200031b80f2a654","6865075685cb8ab1bd5c86df","58d3bc1642648b0001f21ca4","2025-07-02T10:31:23.722Z","","","","","","MotivationQ","","","","","","","","","","","","","","","","","","","","","","","","","","","","","","","","","","","","","","50"
"","","","","ctl-task-cpt","64","781596","0.0-10.0-0.5","64","1","2025-07-02 10:18:59","80fe4187154257d5fb01684ea91b68b9","151.56.228.130","Mozilla/5.0 (Windows NT 10.0; Win64; x64) AppleWebKit/537.36 (KHTML, like Gecko) Chrome/138.0.0.0 Safari/537.36","WebKit","Chrome","138.0.0.0","Windows","10.0","https://app.prolific.com/","it-IT,it;q=0.9,en-US;q=0.8,en;q=0.7,homepage;q=0.6,homepage_is_newtabpage;q=0.5,http://it.search.yahoo.com?type=198484&fr=spigot-yhp-ch;q=0.4,http://it.search.yahoo.com?type=198484&fr=spigot;q=0.3,session;q=0.2,fi;q=0.1,ru;q=0.1,de;q=0.1,es;q=0.1","58d3bc1642648b0001f21ca4","683db6dfa200031b80f2a654","6865075685cb8ab1bd5c86df","58d3bc1642648b0001f21ca4","2025-07-02T10:32:01.261Z","","","","","","","","","","","","","","","","win-only","1","g1:NE,g2:SW","0.5","6","0","745724.7","566.7","5570.3","34521.3","1","4","8","6","2","8","8","18","10","0.13636363636363635","871","3000","560","[""down"",""left""]","{""num_key_presses"":8,""num_perfect"":5,""num_errors"":0,""num_randdir"":3,""num_randdir_good_moves"":2,""num_whilered"":0,""num_whileblue"":0,""num_blue"":3,""num_good_moves"":7}","[426.57142857142856,416.47767857142856,0,422.57142857142856,417.47767857142856,103.6,417.57142857142856,454.47767857142856,203.6,468.57142857142856,455.47767857142856,303.6,630.5714285714286,231.47767857142856,408.6,556.5714285714286,255.47767857142856,508.9,236.57142857142856,672.4776785714286,609.1,187.57142857142856,674.4776785714286,709.1,87.57142857142857,710.4776785714286,813.3,74.57142857142857,732.4776785714286,913.4,76.57142857142857,728.4776785714286,1013.9,76.57142857142857,728.4776785714286,1114.1,87.57142857142857,715.4776785714286,1214.2,159.57142857142856,695.4776785714286,1319.2,238.57142857142856,695.4776785714286,1423.8,238.57142857142856,695.4776785714286,1528.5,239.57142857142856,688.4776785714286,1628.6,241.57142857142856,687.4776785714286,1728.7,248.57142857142856,687.4776785714286,1834.1,307.57142857142856,700.4776785714286,1934.3,514.5714285714286,750.4776785714286,2038.5,520.5714285714286,752.4776785714286,2139,524.5714285714286,753.4776785714286,2243.8,521.5714285714286,754.4776785714286,2344.4,457.57142857142856,730.4776785714286,2448.7,457.57142857142856,730.4776785714286,2550,461.57142857142856,720.4776785714286,2653.5,463.57142857142856,720.4776785714286,2753.5,475.57142857142856,723.4776785714286,2858.6,477.57142857142856,726.4776785714286,2959.1,477.57142857142856,726.4776785714286,3059.4,477.57142857142856,726.4776785714286,3159.4,477.57142857142856,726.4776785714286,3259.6,477.57142857142856,726.4776785714286,3359.7,477.57142857142856,726.4776785714286,3463.7,477.57142857142856,726.4776785714286,3564,477.57142857142856,726.4776785714286,3668.5,477.57142857142856,726.4776785714286,3769,477.57142857142856,726.4776785714286,3875,477.57142857142856,726.4776785714286,3978.4,477.57142857142856,726.4776785714286,4078.4,477.57142857142856,726.4776785714286,4178.4,477.57142857142856,726.4776785714286,4278.4,477.57142857142856,726.4776785714286,4378.4,477.57142857142856,726.4776785714286,4478.5,477.57142857142856,726.4776785714286,4584.3,438.57142857142856,759.4776785714286,4689.2,438.57142857142856,759.4776785714286,4794.2,438.57142857142856,759.4776785714286,4898.6]","[1385.3,1385.3,1000,0,385.3,""smooth"",""down"",""down"",""good_move"",3806.8,2421.3,2144.7,1385.5,276.6,""smooth"",""left"",""left"",""good_move"",6281.8,2474.8,2204.3,3807,270.5,""oops"",""down"",""up"",""bad_move"",16163.2,9881.1,2295.2,13615.7,252.3,""smooth"",""down"",""down"",""good_move"",18607.9,2444.6,2152.8,16163.4,291.8,""smooth"",""down"",""down"",""good_move"",20928.8,2320.7,2046.9,18608.1,273.8,""oops"",""left"",""left"",""good_move"",23678.7,2749.6,2338.7,20929.1,410.9,""smooth"",""down"",""down"",""good_move"",28864.6,5185.8,1919.1,26625.6,319.9,""oops"",""left"",""left"",""good_move""]","",""
"1317","","<div style=""width:500px;"">
  <p>What determined the result of this run?</p>
  </div>","71","html-slider-response","65","782913","0.0-10.0-1.5","64","1","2025-07-02 10:18:59","80fe4187154257d5fb01684ea91b68b9","151.56.228.130","Mozilla/5.0 (Windows NT 10.0; Win64; x64) AppleWebKit/537.36 (KHTML, like Gecko) Chrome/138.0.0.0 Safari/537.36","WebKit","Chrome","138.0.0.0","Windows","10.0","https://app.prolific.com/","it-IT,it;q=0.9,en-US;q=0.8,en;q=0.7,homepage;q=0.6,homepage_is_newtabpage;q=0.5,http://it.search.yahoo.com?type=198484&fr=spigot-yhp-ch;q=0.4,http://it.search.yahoo.com?type=198484&fr=spigot;q=0.3,session;q=0.2,fi;q=0.1,ru;q=0.1,de;q=0.1,es;q=0.1","58d3bc1642648b0001f21ca4","683db6dfa200031b80f2a654","6865075685cb8ab1bd5c86df","58d3bc1642648b0001f21ca4","2025-07-02T10:32:02.578Z","","","","","","AttribQ","","","","","","","","","","","","","","","","","","","","","","","","","","","","","","","","","","","","","","50"
"1816","","<div style=""width:500px;"">
  <p>How much control did you have over the ball?</p>
  </div>","71","html-slider-response","66","784730","0.0-10.0-2.5","64","1","2025-07-02 10:18:59","80fe4187154257d5fb01684ea91b68b9","151.56.228.130","Mozilla/5.0 (Windows NT 10.0; Win64; x64) AppleWebKit/537.36 (KHTML, like Gecko) Chrome/138.0.0.0 Safari/537.36","WebKit","Chrome","138.0.0.0","Windows","10.0","https://app.prolific.com/","it-IT,it;q=0.9,en-US;q=0.8,en;q=0.7,homepage;q=0.6,homepage_is_newtabpage;q=0.5,http://it.search.yahoo.com?type=198484&fr=spigot-yhp-ch;q=0.4,http://it.search.yahoo.com?type=198484&fr=spigot;q=0.3,session;q=0.2,fi;q=0.1,ru;q=0.1,de;q=0.1,es;q=0.1","58d3bc1642648b0001f21ca4","683db6dfa200031b80f2a654","6865075685cb8ab1bd5c86df","58d3bc1642648b0001f21ca4","2025-07-02T10:32:04.395Z","","","","","","ControlQ","","","","","","","","","","","","","","","","","","","","","","","","","","","","","","","","","","","","","","50"
"2557","","<div style=""width:500px;"">
  <p>How would you describe your current emotional state?</p>
  </div>","42","html-slider-response","67","787287","0.0-10.0-3.5","64","1","2025-07-02 10:18:59","80fe4187154257d5fb01684ea91b68b9","151.56.228.130","Mozilla/5.0 (Windows NT 10.0; Win64; x64) AppleWebKit/537.36 (KHTML, like Gecko) Chrome/138.0.0.0 Safari/537.36","WebKit","Chrome","138.0.0.0","Windows","10.0","https://app.prolific.com/","it-IT,it;q=0.9,en-US;q=0.8,en;q=0.7,homepage;q=0.6,homepage_is_newtabpage;q=0.5,http://it.search.yahoo.com?type=198484&fr=spigot-yhp-ch;q=0.4,http://it.search.yahoo.com?type=198484&fr=spigot;q=0.3,session;q=0.2,fi;q=0.1,ru;q=0.1,de;q=0.1,es;q=0.1","58d3bc1642648b0001f21ca4","683db6dfa200031b80f2a654","6865075685cb8ab1bd5c86df","58d3bc1642648b0001f21ca4","2025-07-02T10:32:06.952Z","","","","","","StressQ","","","","","","","","","","","","","","","","","","","","","","","","","","","","","","","","","","","","","","50"
"2088","","<div style=""width:500px;"">
  <p>What best describes how you currently feel?</p>
  </div>","90","html-slider-response","68","789376","0.0-10.0-4.5","64","1","2025-07-02 10:18:59","80fe4187154257d5fb01684ea91b68b9","151.56.228.130","Mozilla/5.0 (Windows NT 10.0; Win64; x64) AppleWebKit/537.36 (KHTML, like Gecko) Chrome/138.0.0.0 Safari/537.36","WebKit","Chrome","138.0.0.0","Windows","10.0","https://app.prolific.com/","it-IT,it;q=0.9,en-US;q=0.8,en;q=0.7,homepage;q=0.6,homepage_is_newtabpage;q=0.5,http://it.search.yahoo.com?type=198484&fr=spigot-yhp-ch;q=0.4,http://it.search.yahoo.com?type=198484&fr=spigot;q=0.3,session;q=0.2,fi;q=0.1,ru;q=0.1,de;q=0.1,es;q=0.1","58d3bc1642648b0001f21ca4","683db6dfa200031b80f2a654","6865075685cb8ab1bd5c86df","58d3bc1642648b0001f21ca4","2025-07-02T10:32:09.041Z","","","","","","MotivationQ","","","","","","","","","","","","","","","","","","","","","","","","","","","","","","","","","","","","","","50"
"","","","","ctl-task-cpt","69","827894","0.0-10.0-0.6","64","1","2025-07-02 10:18:59","80fe4187154257d5fb01684ea91b68b9","151.56.228.130","Mozilla/5.0 (Windows NT 10.0; Win64; x64) AppleWebKit/537.36 (KHTML, like Gecko) Chrome/138.0.0.0 Safari/537.36","WebKit","Chrome","138.0.0.0","Windows","10.0","https://app.prolific.com/","it-IT,it;q=0.9,en-US;q=0.8,en;q=0.7,homepage;q=0.6,homepage_is_newtabpage;q=0.5,http://it.search.yahoo.com?type=198484&fr=spigot-yhp-ch;q=0.4,http://it.search.yahoo.com?type=198484&fr=spigot;q=0.3,session;q=0.2,fi;q=0.1,ru;q=0.1,de;q=0.1,es;q=0.1","58d3bc1642648b0001f21ca4","683db6dfa200031b80f2a654","6865075685cb8ab1bd5c86df","58d3bc1642648b0001f21ca4","2025-07-02T10:32:47.559Z","","","","","","","","","","","","","","","","win-only","0","g1:NW,g2:SE","0.4","7","0","791043.9","673.7","5675.7","35500.6","1","4","8","6","2","-8","-8","10","18","0.07575757575757576","551.2","3000","-3015","[""down"",""right""]","{""num_key_presses"":9,""num_perfect"":3,""num_errors"":0,""num_randdir"":6,""num_randdir_good_moves"":3,""num_whilered"":0,""num_whileblue"":0,""num_blue"":1,""num_good_moves"":6}","[415.57142857142856,422.47767857142856,0.1,415.57142857142856,420.47767857142856,102.2,415.57142857142856,419.47767857142856,206.4,452.57142857142856,491.47767857142856,307.2,715.5714285714286,729.4776785714286,412,731.5714285714286,745.4776785714286,512.2,732.5714285714286,745.4776785714286,617.7,726.5714285714286,744.4776785714286,722.1,666.5714285714286,715.4776785714286,826.7,666.5714285714286,715.4776785714286,931.7,669.5714285714286,710.4776785714286,1031.8,669.5714285714286,710.4776785714286,1136.7,669.5714285714286,710.4776785714286,1237,669.5714285714286,704.4776785714286,1342.2,669.5714285714286,704.4776785714286,1446.9,669.5714285714286,704.4776785714286,1551.7,669.5714285714286,704.4776785714286,1652.4,669.5714285714286,704.4776785714286,1756.8,669.5714285714286,704.4776785714286,1856.8,666.5714285714286,700.4776785714286,1961.6,665.5714285714286,699.4776785714286,2061.9,665.5714285714286,699.4776785714286,2167.3,665.5714285714286,699.4776785714286,2267.3,665.5714285714286,699.4776785714286,2371.5,665.5714285714286,699.4776785714286,2472,665.5714285714286,699.4776785714286,2572.1,665.5714285714286,699.4776785714286,2677.2,665.5714285714286,699.4776785714286,2777.2,665.5714285714286,699.4776785714286,2882.2,665.5714285714286,699.4776785714286,2982.2,665.5714285714286,699.4776785714286,3086.7,665.5714285714286,699.4776785714286,3187.2,665.5714285714286,699.4776785714286,3287.3,665.5714285714286,699.4776785714286,3392,665.5714285714286,699.4776785714286,3496.7,665.5714285714286,699.4776785714286,3596.7,665.5714285714286,699.4776785714286,3697.2,665.5714285714286,699.4776785714286,3797.2,665.5714285714286,699.4776785714286,3898,665.5714285714286,699.4776785714286,4001.8,665.5714285714286,699.4776785714286,4101.9,665.5714285714286,699.4776785714286,4202.3,665.5714285714286,699.4776785714286,4307.1,665.5714285714286,699.4776785714286,4407.1,665.5714285714286,699.4776785714286,4507.2,665.5714285714286,699.4776785714286,4607.2,665.5714285714286,699.4776785714286,4712.2,665.5714285714286,699.4776785714286,4816.7,665.5714285714286,699.4776785714286,4917.4]","[1480.7,1480.7,1000,0,480.8,""oops"",""down"",""up"",""bad_move"",3906.8,2425.8,2131.7,1481,294.1,""oops"",""down"",""down"",""good_move"",6232.6,2325.6,2043,3907,282.6,""oops"",""down"",""up"",""bad_move"",8607.3,2374.8,2128.6,6232.6,246.2,""smooth"",""down"",""down"",""good_move"",11039.2,2431.7,2085,8607.5,346.7,""oops"",""down"",""right"",""good_move"",18327.9,7288.6,2874,15150.2,303.7,""oops"",""down"",""right"",""good_move"",21407.6,3079.6,2771.4,18328.1,308.2,""oops"",""down"",""up"",""bad_move"",25061.5,3653.7,3408,21407.8,245.7,""smooth"",""down"",""down"",""good_move"",27438.6,2376.9,2065.4,25061.7,311.5,""smooth"",""down"",""down"",""good_move""]","",""
"1605","","<div style=""width:500px;"">
  <p>What determined the result of this run?</p>
  </div>","22","html-slider-response","70","829500","0.0-10.0-1.6","64","1","2025-07-02 10:18:59","80fe4187154257d5fb01684ea91b68b9","151.56.228.130","Mozilla/5.0 (Windows NT 10.0; Win64; x64) AppleWebKit/537.36 (KHTML, like Gecko) Chrome/138.0.0.0 Safari/537.36","WebKit","Chrome","138.0.0.0","Windows","10.0","https://app.prolific.com/","it-IT,it;q=0.9,en-US;q=0.8,en;q=0.7,homepage;q=0.6,homepage_is_newtabpage;q=0.5,http://it.search.yahoo.com?type=198484&fr=spigot-yhp-ch;q=0.4,http://it.search.yahoo.com?type=198484&fr=spigot;q=0.3,session;q=0.2,fi;q=0.1,ru;q=0.1,de;q=0.1,es;q=0.1","58d3bc1642648b0001f21ca4","683db6dfa200031b80f2a654","6865075685cb8ab1bd5c86df","58d3bc1642648b0001f21ca4","2025-07-02T10:32:49.165Z","","","","","","AttribQ","","","","","","","","","","","","","","","","","","","","","","","","","","","","","","","","","","","","","","50"
"1115","","<div style=""width:500px;"">
  <p>How much control did you have over the ball?</p>
