"rt","response_timestamp","stimulus","response","trial_type","trial_index","time_elapsed","internal_node_id","run_id","condition","recorded_at","source_code_version","ip","user_agent","device","browser","browser_version","platform","platform_version","referer","accept_language","PROLIFIC_PID","STUDY_ID","SESSION_ID","prolific_id","realtime","view_history","question_order","consent","success","question_id","eventType","responses","item_order","radio_event_ids","radio_event_times","key_event_times","mouse_event_times","straightlining","zigzagging","honeypot","which_type","canvas_config","goals_layout","control_level","trial_number","tutorial_trial_number","trial_start_time","phase1_start_time","phase2_start_time","phase3_start_time","goal_1_value","goal_1_distance","goal_2_value","goal_2_distance","goal_selected","outcome","outcome_total","participant_final_score","participant_initial_score","participant_final_score_prop","goal_choice_rt","allocated_time","allocated_time_remaining","goal_direction","counts","mouse_movements","key_presses","correct","slider_start","sub_question"
"4983","1751451702823","<p style='font-size:40px;line-height:1.25'><strong>Welcome to the experiment!</strong></p><p style='font-size:1.1em;line-height:1.25'>Thank you for your interest in our experiment! Before you begin, it is important that we obtain your informed consent to participate in the study.</p><p style='font-size:1.1em;line-height:1.25'>On the next screen will be an <strong>information sheet</strong> for you to read. To participate in the study we need you to read this information sheet and the following consent form carefully. If you agree with all the statements, please click the <strong>I agree</strong> button.</p><p style='font-size:1.1em;line-height:1.25'>Press <strong>Next</strong> to read the information sheet.</p>","0","custom-html-button-response","0","4989","0.0-0.0","149","1","2025-07-02 10:21:19","80fe4187154257d5fb01684ea91b68b9","86.15.199.15","Mozilla/5.0 (Windows NT 10.0; Win64; x64) AppleWebKit/537.36 (KHTML, like Gecko) Chrome/137.0.0.0 Safari/537.36","WebKit","Chrome","137.0.0.0","Windows","10.0","https://app.prolific.com/","en-GB,en;q=0.9,bn-BD;q=0.8,bn;q=0.7,en-US;q=0.6","5b395ede06f9f90001fb8709","683db6dfa200031b80f2a654","6865075fbba92057c1061f25","5b395ede06f9f90001fb8709","2025-07-02T10:21:42.826Z","","","","","","","","","","","","","","","","","","","","","","","","","","","","","","","","","","","","","","","","","","","","",""
"63340","","","","instructions","1","68332","0.0-1.0","149","1","2025-07-02 10:21:19","80fe4187154257d5fb01684ea91b68b9","86.15.199.15","Mozilla/5.0 (Windows NT 10.0; Win64; x64) AppleWebKit/537.36 (KHTML, like Gecko) Chrome/137.0.0.0 Safari/537.36","WebKit","Chrome","137.0.0.0","Windows","10.0","https://app.prolific.com/","en-GB,en;q=0.9,bn-BD;q=0.8,bn;q=0.7,en-US;q=0.6","5b395ede06f9f90001fb8709","683db6dfa200031b80f2a654","6865075fbba92057c1061f25","5b395ede06f9f90001fb8709","","[{""page_index"":0,""viewing_time"":60179},{""page_index"":1,""viewing_time"":3160}]","","","","","","","","","","","","","","","","","","","","","","","","","","","","","","","","","","","","","","","","","","","",""
"3259","","","{""Q0"":"""",""Q1"":"""",""Q2"":"""",""Q3"":"""",""Q4"":"""",""Q5"":"""",""Q6"":""I agree""}","survey-multi-choice","2","71597","0.0-2.0","149","1","2025-07-02 10:21:19","80fe4187154257d5fb01684ea91b68b9","86.15.199.15","Mozilla/5.0 (Windows NT 10.0; Win64; x64) AppleWebKit/537.36 (KHTML, like Gecko) Chrome/137.0.0.0 Safari/537.36","WebKit","Chrome","137.0.0.0","Windows","10.0","https://app.prolific.com/","en-GB,en;q=0.9,bn-BD;q=0.8,bn;q=0.7,en-US;q=0.6","5b395ede06f9f90001fb8709","683db6dfa200031b80f2a654","6865075fbba92057c1061f25","5b395ede06f9f90001fb8709","","","[0,1,2,3,4,5,6]","true","","","","","","","","","","","","","","","","","","","","","","","","","","","","","","","","","","","","","","","","","",""
"38353","","","","fullscreen","3","110959","0.0-4.0","149","1","2025-07-02 10:21:19","80fe4187154257d5fb01684ea91b68b9","86.15.199.15","Mozilla/5.0 (Windows NT 10.0; Win64; x64) AppleWebKit/537.36 (KHTML, like Gecko) Chrome/137.0.0.0 Safari/537.36","WebKit","Chrome","137.0.0.0","Windows","10.0","https://app.prolific.com/","en-GB,en;q=0.9,bn-BD;q=0.8,bn;q=0.7,en-US;q=0.6","5b395ede06f9f90001fb8709","683db6dfa200031b80f2a654","6865075fbba92057c1061f25","5b395ede06f9f90001fb8709","","","","","true","","","","","","","","","","","","","","","","","","","","","","","","","","","","","","","","","","","","","","","","",""
"3981","1751451812779"," <p style='font-size:1.1em;line-height:1.25'>Thank you for completing the consent form and closing all other tabs.</p><p style='font-size:1.1em;line-height:1.25'>We will now invite you to fill in some demographic information and questionnaires, before starting the game.<br>This will take about 5 minutes.<br></p><p style='font-size:1.1em;line-height:1.25'>Press the <strong>Next</strong> button to continue.</p>","0","custom-html-button-response","4","114944","0.0-5.0","149","1","2025-07-02 10:21:19","80fe4187154257d5fb01684ea91b68b9","86.15.199.15","Mozilla/5.0 (Windows NT 10.0; Win64; x64) AppleWebKit/537.36 (KHTML, like Gecko) Chrome/137.0.0.0 Safari/537.36","WebKit","Chrome","137.0.0.0","Windows","10.0","https://app.prolific.com/","en-GB,en;q=0.9,bn-BD;q=0.8,bn;q=0.7,en-US;q=0.6","5b395ede06f9f90001fb8709","683db6dfa200031b80f2a654","6865075fbba92057c1061f25","5b395ede06f9f90001fb8709","2025-07-02T10:23:32.780Z","","","","","","","","","","","","","","","","","","","","","","","","","","","","","","","","","","","","","","","","","","","","",""
"3438","","","{""age"":""28""}","survey-text","5","118398","0.0-6.0-0.0","149","1","2025-07-02 10:21:19","80fe4187154257d5fb01684ea91b68b9","86.15.199.15","Mozilla/5.0 (Windows NT 10.0; Win64; x64) AppleWebKit/537.36 (KHTML, like Gecko) Chrome/137.0.0.0 Safari/537.36","WebKit","Chrome","137.0.0.0","Windows","10.0","https://app.prolific.com/","en-GB,en;q=0.9,bn-BD;q=0.8,bn;q=0.7,en-US;q=0.6","5b395ede06f9f90001fb8709","683db6dfa200031b80f2a654","6865075fbba92057c1061f25","5b395ede06f9f90001fb8709","","","","","","0","demographics","","","","","","","","","","","","","","","","","","","","","","","","","","","","","","","","","","","","","","",""
"3802","","","{""gender_identity"":""female/woman""}","survey-multi-choice","6","122203","0.0-6.0-1.0","149","1","2025-07-02 10:21:19","80fe4187154257d5fb01684ea91b68b9","86.15.199.15","Mozilla/5.0 (Windows NT 10.0; Win64; x64) AppleWebKit/537.36 (KHTML, like Gecko) Chrome/137.0.0.0 Safari/537.36","WebKit","Chrome","137.0.0.0","Windows","10.0","https://app.prolific.com/","en-GB,en;q=0.9,bn-BD;q=0.8,bn;q=0.7,en-US;q=0.6","5b395ede06f9f90001fb8709","683db6dfa200031b80f2a654","6865075fbba92057c1061f25","5b395ede06f9f90001fb8709","","","[0]","","","1","demographics","","","","","","","","","","","","","","","","","","","","","","","","","","","","","","","","","","","","","","",""
"1718","","","{""assigned_sex"":""female""}","survey-multi-choice","7","123925","0.0-6.0-2.0","149","1","2025-07-02 10:21:19","80fe4187154257d5fb01684ea91b68b9","86.15.199.15","Mozilla/5.0 (Windows NT 10.0; Win64; x64) AppleWebKit/537.36 (KHTML, like Gecko) Chrome/137.0.0.0 Safari/537.36","WebKit","Chrome","137.0.0.0","Windows","10.0","https://app.prolific.com/","en-GB,en;q=0.9,bn-BD;q=0.8,bn;q=0.7,en-US;q=0.6","5b395ede06f9f90001fb8709","683db6dfa200031b80f2a654","6865075fbba92057c1061f25","5b395ede06f9f90001fb8709","","","[0]","","","2","demographics","","","","","","","","","","","","","","","","","","","","","","","","","","","","","","","","","","","","","","",""
"2017","","","{""menstrual_cycle"":""Yes""}","survey-multi-choice","8","125947","0.0-6.0-3.0","149","1","2025-07-02 10:21:19","80fe4187154257d5fb01684ea91b68b9","86.15.199.15","Mozilla/5.0 (Windows NT 10.0; Win64; x64) AppleWebKit/537.36 (KHTML, like Gecko) Chrome/137.0.0.0 Safari/537.36","WebKit","Chrome","137.0.0.0","Windows","10.0","https://app.prolific.com/","en-GB,en;q=0.9,bn-BD;q=0.8,bn;q=0.7,en-US;q=0.6","5b395ede06f9f90001fb8709","683db6dfa200031b80f2a654","6865075fbba92057c1061f25","5b395ede06f9f90001fb8709","","","[0]","","","4","demographics","","","","","","","","","","","","","","","","","","","","","","","","","","","","","","","","","","","","","","",""
"3331","","","{""education"":""Bachelor's Degree (e.g., BA)""}","survey-multi-choice","9","129282","0.0-6.0-4.0","149","1","2025-07-02 10:21:19","80fe4187154257d5fb01684ea91b68b9","86.15.199.15","Mozilla/5.0 (Windows NT 10.0; Win64; x64) AppleWebKit/537.36 (KHTML, like Gecko) Chrome/137.0.0.0 Safari/537.36","WebKit","Chrome","137.0.0.0","Windows","10.0","https://app.prolific.com/","en-GB,en;q=0.9,bn-BD;q=0.8,bn;q=0.7,en-US;q=0.6","5b395ede06f9f90001fb8709","683db6dfa200031b80f2a654","6865075fbba92057c1061f25","5b395ede06f9f90001fb8709","","","[0]","","","5","demographics","","","","","","","","","","","","","","","","","","","","","","","","","","","","","","","","","","","","","","",""
"5408","","","{""education"":""Bachelor's Degree (e.g., BA)""}","survey-multi-choice","10","134694","0.0-6.0-5.0","149","1","2025-07-02 10:21:19","80fe4187154257d5fb01684ea91b68b9","86.15.199.15","Mozilla/5.0 (Windows NT 10.0; Win64; x64) AppleWebKit/537.36 (KHTML, like Gecko) Chrome/137.0.0.0 Safari/537.36","WebKit","Chrome","137.0.0.0","Windows","10.0","https://app.prolific.com/","en-GB,en;q=0.9,bn-BD;q=0.8,bn;q=0.7,en-US;q=0.6","5b395ede06f9f90001fb8709","683db6dfa200031b80f2a654","6865075fbba92057c1061f25","5b395ede06f9f90001fb8709","2025-07-02T10:23:52.530Z","","[0]","","","6","demographics","","","","","","","","","","","","","","","","","","","","","","","","","","","","","","","","","","","","","","",""
"11254","","","{""mental_health_condition"":""yes"",""mental_health_treatment"":""no"",""psychiatric_medication"":""no""}","survey-text","11","145961","0.0-7.0-0.0","149","1","2025-07-02 10:21:19","80fe4187154257d5fb01684ea91b68b9","86.15.199.15","Mozilla/5.0 (Windows NT 10.0; Win64; x64) AppleWebKit/537.36 (KHTML, like Gecko) Chrome/137.0.0.0 Safari/537.36","WebKit","Chrome","137.0.0.0","Windows","10.0","https://app.prolific.com/","en-GB,en;q=0.9,bn-BD;q=0.8,bn;q=0.7,en-US;q=0.6","5b395ede06f9f90001fb8709","683db6dfa200031b80f2a654","6865075fbba92057c1061f25","5b395ede06f9f90001fb8709","2025-07-02T10:24:03.797Z","","","","","1","mental_health","","","","","","","","","","","","","","","","","","","","","","","","","","","","","","","","","","","","","","",""
"4245","","","{""depression_history"":[""Yes""]}","survey-multi-select","12","150215","0.0-7.0-1.0","149","1","2025-07-02 10:21:19","80fe4187154257d5fb01684ea91b68b9","86.15.199.15","Mozilla/5.0 (Windows NT 10.0; Win64; x64) AppleWebKit/537.36 (KHTML, like Gecko) Chrome/137.0.0.0 Safari/537.36","WebKit","Chrome","137.0.0.0","Windows","10.0","https://app.prolific.com/","en-GB,en;q=0.9,bn-BD;q=0.8,bn;q=0.7,en-US;q=0.6","5b395ede06f9f90001fb8709","683db6dfa200031b80f2a654","6865075fbba92057c1061f25","5b395ede06f9f90001fb8709","","","[0]","","","","mental_health","","","","","","","","","","","","","","","","","","","","","","","","","","","","","","","","","","","","","","",""
"7971","","","{""depression_episodes"":""more than 5"",""depression_recent"":""Currently experiencing an episode""}","survey-multi-choice","13","158192","0.0-7.0-2.0-0.0","149","1","2025-07-02 10:21:19","80fe4187154257d5fb01684ea91b68b9","86.15.199.15","Mozilla/5.0 (Windows NT 10.0; Win64; x64) AppleWebKit/537.36 (KHTML, like Gecko) Chrome/137.0.0.0 Safari/537.36","WebKit","Chrome","137.0.0.0","Windows","10.0","https://app.prolific.com/","en-GB,en;q=0.9,bn-BD;q=0.8,bn;q=0.7,en-US;q=0.6","5b395ede06f9f90001fb8709","683db6dfa200031b80f2a654","6865075fbba92057c1061f25","5b395ede06f9f90001fb8709","2025-07-02T10:24:16.028Z","","[0,1]","","","3","mental_health","","","","","","","","","","","","","","","","","","","","","","","","","","","","","","","","","","","","","","",""
"73095","","","","survey-template","14","231294","0.0-7.0-3.0","149","1","2025-07-02 10:21:19","80fe4187154257d5fb01684ea91b68b9","86.15.199.15","Mozilla/5.0 (Windows NT 10.0; Win64; x64) AppleWebKit/537.36 (KHTML, like Gecko) Chrome/137.0.0.0 Safari/537.36","WebKit","Chrome","137.0.0.0","Windows","10.0","https://app.prolific.com/","en-GB,en;q=0.9,bn-BD;q=0.8,bn;q=0.7,en-US;q=0.6","5b395ede06f9f90001fb8709","683db6dfa200031b80f2a654","6865075fbba92057c1061f25","5b395ede06f9f90001fb8709","2025-07-02T10:25:29.130Z","","","","","","ius","{""Q01"":""4"",""Q02"":""4"",""Q03"":""4"",""Q04"":""4"",""Q05"":""3"",""Q06"":""3"",""Q07"":""4"",""Q08"":""0"",""Q09"":""3"",""Q10"":""3"",""Q11"":""4"",""Q12"":""3"",""Q13"":""4""}","[0,1,2,3,4,5,6,7,8,9,10,11,12]","[""Q01"",""Q02"",""Q03"",""Q04"",""Q05"",""Q06"",""Q07"",""Q08"",""Q09"",""Q10"",""Q11"",""Q12"",""Q13""]","[43483,46334.19999998808,48396.80000001192,51678.90000003576,53898.30000001192,56154.5,58169.40000003576,60191.80000001192,62486.30000001192,64719.10000002384,67499.69999998808,70252.19999998808,72453.10000002384]","[]","[43483,46334.19999998808,48396.80000001192,51678.90000003576,53898.30000001192,56154.5,58169.40000003576,60191.80000001192,62486.30000001192,64719.10000002384,67039.10000002384,67499.69999998808,70252.19999998808,72453.10000002384,73091.90000003576]","0.5384615384615384","0.5","0","","","","","","","","","","","","","","","","","","","","","","","","","","","","","",""
"2484","1751451931616","<p style='font-size:1.1em;line-height:1.25'>In the following, we will ask you a few questions relating to your experiences over the past month.<br></p><p style='font-size:1.1em;line-height:1.25'>Press the <strong>Next</strong> button to continue.</p>","0","custom-html-button-response","15","233781","0.0-7.0-4.0","149","1","2025-07-02 10:21:19","80fe4187154257d5fb01684ea91b68b9","86.15.199.15","Mozilla/5.0 (Windows NT 10.0; Win64; x64) AppleWebKit/537.36 (KHTML, like Gecko) Chrome/137.0.0.0 Safari/537.36","WebKit","Chrome","137.0.0.0","Windows","10.0","https://app.prolific.com/","en-GB,en;q=0.9,bn-BD;q=0.8,bn;q=0.7,en-US;q=0.6","5b395ede06f9f90001fb8709","683db6dfa200031b80f2a654","6865075fbba92057c1061f25","5b395ede06f9f90001fb8709","2025-07-02T10:25:31.617Z","","","","","","","","","","","","","","","","","","","","","","","","","","","","","","","","","","","","","","","","","","","","",""
"37921.30000001192","","","","survey-template","16","271707","0.0-7.0-5.0","149","1","2025-07-02 10:21:19","80fe4187154257d5fb01684ea91b68b9","86.15.199.15","Mozilla/5.0 (Windows NT 10.0; Win64; x64) AppleWebKit/537.36 (KHTML, like Gecko) Chrome/137.0.0.0 Safari/537.36","WebKit","Chrome","137.0.0.0","Windows","10.0","https://app.prolific.com/","en-GB,en;q=0.9,bn-BD;q=0.8,bn;q=0.7,en-US;q=0.6","5b395ede06f9f90001fb8709","683db6dfa200031b80f2a654","6865075fbba92057c1061f25","5b395ede06f9f90001fb8709","2025-07-02T10:26:09.543Z","","","","","","pss","{""Q01"":""3"",""Q02"":""4"",""Q03"":""4"",""Q04"":""3"",""Q05"":""3"",""Q06"":""3"",""Q07"":""2"",""Q08"":""3"",""Q09"":""2"",""Q10"":""4""}","[0,1,2,3,4,5,6,7,8,9]","[""Q01"",""Q02"",""Q03"",""Q04"",""Q05"",""Q06"",""Q07"",""Q07"",""Q08"",""Q09"",""Q10""]","[4733.399999976158,7634.800000011921,9835.899999976158,13020.399999976158,16231.399999976158,19080.100000023842,23123.899999976158,25033.80000001192,27781.100000023842,31990.600000023842,36329.10000002384]","[]","[2.199999988079071,4733.399999976158,7634.800000011921,9835.899999976158,13020.399999976158,16231.399999976158,19080.100000023842,21668.600000023842,22868.5,23123.899999976158,23560.600000023842,25033.80000001192,27781.100000023842,31990.600000023842,35308.30000001192,35876.30000001192,36329.10000002384,36876.5,37918.30000001192]","0.3","0.4444444444444444","0","","","","","","","","","","","","","","","","","","","","","","","","","","","","","",""
"6514","1751451976060","<p style='font-size:1.1em;line-height:1.25'>Thank you for your answers! Now we will ask you a few more questions relating to your feelings in the last 24 hours.<br></p><p style='font-size:1.1em;line-height:1.25'>Press the <strong>Next</strong> button to continue.</p>","0","custom-html-button-response","17","278224","0.0-7.0-6.0","149","1","2025-07-02 10:21:19","80fe4187154257d5fb01684ea91b68b9","86.15.199.15","Mozilla/5.0 (Windows NT 10.0; Win64; x64) AppleWebKit/537.36 (KHTML, like Gecko) Chrome/137.0.0.0 Safari/537.36","WebKit","Chrome","137.0.0.0","Windows","10.0","https://app.prolific.com/","en-GB,en;q=0.9,bn-BD;q=0.8,bn;q=0.7,en-US;q=0.6","5b395ede06f9f90001fb8709","683db6dfa200031b80f2a654","6865075fbba92057c1061f25","5b395ede06f9f90001fb8709","2025-07-02T10:26:16.060Z","","","","","","","","","","","","","","","","","","","","","","","","","","","","","","","","","","","","","","","","","","","","",""
"58060.09999996424","","","","survey-template","18","336290","0.0-7.0-7.0","149","1","2025-07-02 10:21:19","80fe4187154257d5fb01684ea91b68b9","86.15.199.15","Mozilla/5.0 (Windows NT 10.0; Win64; x64) AppleWebKit/537.36 (KHTML, like Gecko) Chrome/137.0.0.0 Safari/537.36","WebKit","Chrome","137.0.0.0","Windows","10.0","https://app.prolific.com/","en-GB,en;q=0.9,bn-BD;q=0.8,bn;q=0.7,en-US;q=0.6","5b395ede06f9f90001fb8709","683db6dfa200031b80f2a654","6865075fbba92057c1061f25","5b395ede06f9f90001fb8709","2025-07-02T10:27:14.126Z","","","","","","drsp","{""Q01"":""5"",""Q02"":""5"",""Q03"":""5"",""Q04"":""5"",""Q05"":""4"",""Q06"":""3"",""Q07"":""2"",""Q08"":""0"",""Q09"":""4"",""Q10"":""3"",""Q11"":""4"",""Q12"":""2"",""Q13"":""2"",""Q14"":""5"",""Q15"":""2"",""Q16"":""5"",""Q17"":""3"",""Q18"":""5"",""Q19"":""4"",""Q20"":""3"",""Q21"":""2""}","[0,1,2,3,4,5,6,7,8,9,10,11,12,13,14,15,16,17,18,19,20]","[""Q01"",""Q02"",""Q03"",""Q04"",""Q05"",""Q06"",""Q06"",""Q06"",""Q07"",""Q08"",""Q09"",""Q10"",""Q11"",""Q12"",""Q13"",""Q12"",""Q14"",""Q15"",""Q16"",""Q19"",""Q18"",""Q19"",""Q20"",""Q21"",""Q17""]","[2357.2999999523163,3994.699999988079,4958.899999976158,5707.5,7086.5,9619.399999976158,10028.699999988079,10556.5,13230.899999976158,15124,17382.19999998808,19330.899999976158,21962.799999952316,26634.5,29587.899999976158,29927,32221.69999998808,37038.69999998808,39043,45472.39999997616,45861.19999998808,46715.39999997616,50248.69999998808,53494.59999996424,57078.69999998808]","[]","[1.7999999523162842,2357.2999999523163,3994.699999988079,4958.899999976158,5707.5,7086.5,9619.399999976158,10028.699999988079,10556.5,13230.899999976158,15124,17382.19999998808,19330.899999976158,20788,21962.799999952316,26634.5,29587.899999976158,29927,32221.69999998808,37038.69999998808,39043,40441.299999952316,42331.09999996424,45472.39999997616,45861.19999998808,46715.39999997616,50248.69999998808,53494.59999996424,54041.89999997616,57078.69999998808,58054.799999952316]","0.3333333333333333","0.4","0","","","","","","","","","","","","","","","","","","","","","","","","","","","","","",""
"8108.5","","","","survey-template","19","344402","0.0-7.0-8.0","149","1","2025-07-02 10:21:19","80fe4187154257d5fb01684ea91b68b9","86.15.199.15","Mozilla/5.0 (Windows NT 10.0; Win64; x64) AppleWebKit/537.36 (KHTML, like Gecko) Chrome/137.0.0.0 Safari/537.36","WebKit","Chrome","137.0.0.0","Windows","10.0","https://app.prolific.com/","en-GB,en;q=0.9,bn-BD;q=0.8,bn;q=0.7,en-US;q=0.6","5b395ede06f9f90001fb8709","683db6dfa200031b80f2a654","6865075fbba92057c1061f25","5b395ede06f9f90001fb8709","2025-07-02T10:27:22.238Z","","","","","","stress","{""Q01"":""4"",""Q02"":""5"",""Q03"":""5""}","[0,1,2]","[""Q01"",""Q02"",""Q03"",""Q03""]","[4142.599999964237,5785.299999952316,7228.599999964237,7687.899999976158]","[]","[4142.599999964237,5785.299999952316,7228.599999964237,7687.899999976158,8107.199999988079]","0.3333333333333333","0.5","0","","","","","","","","","","","","","","","","","","","","","","","","","","","","","",""
"51158","","","","instructions","20","395563","0.0-8.0-0.0","149","1","2025-07-02 10:21:19","80fe4187154257d5fb01684ea91b68b9","86.15.199.15","Mozilla/5.0 (Windows NT 10.0; Win64; x64) AppleWebKit/537.36 (KHTML, like Gecko) Chrome/137.0.0.0 Safari/537.36","WebKit","Chrome","137.0.0.0","Windows","10.0","https://app.prolific.com/","en-GB,en;q=0.9,bn-BD;q=0.8,bn;q=0.7,en-US;q=0.6","5b395ede06f9f90001fb8709","683db6dfa200031b80f2a654","6865075fbba92057c1061f25","5b395ede06f9f90001fb8709","","[{""page_index"":0,""viewing_time"":18557},{""page_index"":1,""viewing_time"":14457},{""page_index"":2,""viewing_time"":6858},{""page_index"":3,""viewing_time"":11285}]","","","","","","","","","","","","","","","","","","","","","","","","","","","","","","","","","","","","","","","","","","","",""
"","","","","ctl-task-cpt","21","438804","0.0-8.0-1.0","149","1","2025-07-02 10:21:19","80fe4187154257d5fb01684ea91b68b9","86.15.199.15","Mozilla/5.0 (Windows NT 10.0; Win64; x64) AppleWebKit/537.36 (KHTML, like Gecko) Chrome/137.0.0.0 Safari/537.36","WebKit","Chrome","137.0.0.0","Windows","10.0","https://app.prolific.com/","en-GB,en;q=0.9,bn-BD;q=0.8,bn;q=0.7,en-US;q=0.6","5b395ede06f9f90001fb8709","683db6dfa200031b80f2a654","6865075fbba92057c1061f25","5b395ede06f9f90001fb8709","","","","","","","","","","","","","","","","","win-only","2","g1:SE,g2:NW","1","0","1","413484","3251.1","7259.6","40230.2","2","4","4","6","2","4","0","0","0","0","4008.5","4000","1290","[""left"",""up""]","{""num_key_presses"":9,""num_perfect"":5,""num_errors"":4,""num_randdir"":0,""num_randdir_good_moves"":0,""num_whilered"":0,""num_whileblue"":1,""num_blue"":4,""num_good_moves"":6}","[691.5397321428571,709.3366071428571,0.3,691.5397321428571,709.3366071428571,104.7,691.5397321428571,709.3366071428571,210.3,691.5397321428571,709.3366071428571,315.1,691.5397321428571,709.3366071428571,424.4,691.5397321428571,709.3366071428571,524.6,691.5397321428571,709.3366071428571,628.3,691.5397321428571,709.3366071428571,730.2,691.5397321428571,709.3366071428571,830.4,691.5397321428571,709.3366071428571,939.5,691.5397321428571,709.3366071428571,1040.3,691.5397321428571,709.3366071428571,1145.4,691.5397321428571,709.3366071428571,1250.5,691.5397321428571,709.3366071428571,1350.5,691.5397321428571,709.3366071428571,1450.6,691.5397321428571,709.3366071428571,1553.7,691.5397321428571,709.3366071428571,1657.5,691.5397321428571,709.3366071428571,1760,741.5397321428571,845.3366071428571,1860.1,799.5397321428571,951.3366071428571,1960.2,825.5397321428571,997.3366071428571,2065.1,923.5397321428571,1047.3366071428572,2173.9,919.5397321428571,1113.3366071428572,2275.6,693.5397321428571,1163.3366071428572,2375.8,531.5397321428571,1033.3366071428572,2480.6,479.53973214285713,1005.3366071428571,2585.3,347.53973214285713,855.3366071428571,2686.1,321.53973214285713,835.3366071428571,2792.1,243.53973214285713,777.3366071428571,2895,209.53973214285713,749.3366071428571,2995.5,209.53973214285713,749.3366071428571,3100.3,209.53973214285713,749.3366071428571,3200.5,167.53973214285713,641.3366071428571,3304.7,157.53973214285713,617.3366071428571,3407.7,141.53973214285713,609.3366071428571,3508,135.53973214285713,611.3366071428571,3611,135.53973214285713,611.3366071428571,3715,135.53973214285713,611.3366071428571,3815,135.53973214285713,611.3366071428571,3915.3]","[557.7,557.6,1000,0.1,-442.4,""error"",""-"",""-"",""no_move"",8739,8181,1918.5,8271.7,-1451.2,""error"",""-"",""-"",""no_move"",15941,7201.8,1954.1,13192.4,794.5,""smooth"",""up"",""up"",""good_move"",16326.5,384.8,2346.2,15941.7,-1961.4,""error"",""-"",""-"",""no_move"",20715.5,4388.6,2569.2,17328.6,817.7,""smooth"",""up"",""up"",""good_move"",23383.7,2668,2222.3,20715.9,445.6,""smooth"",""left"",""left"",""good_move"",26457.6,3073.5,2487.8,23384.1,585.7,""while_blue"",""left"",""left"",""good_move"",30037.1,3579.3,2973.2,26457.8,606.1,""smooth"",""left"",""left"",""good_move"",32871.7,2834.4,2416.9,30037.4,417.5,""smooth"",""up"",""up"",""good_move""]","","",""
"10075","","","","instructions","22","448879","0.0-8.0-2.0","149","1","2025-07-02 10:21:19","80fe4187154257d5fb01684ea91b68b9","86.15.199.15","Mozilla/5.0 (Windows NT 10.0; Win64; x64) AppleWebKit/537.36 (KHTML, like Gecko) Chrome/137.0.0.0 Safari/537.36","WebKit","Chrome","137.0.0.0","Windows","10.0","https://app.prolific.com/","en-GB,en;q=0.9,bn-BD;q=0.8,bn;q=0.7,en-US;q=0.6","5b395ede06f9f90001fb8709","683db6dfa200031b80f2a654","6865075fbba92057c1061f25","5b395ede06f9f90001fb8709","","[{""page_index"":0,""viewing_time"":10074}]","","","","","","","","","","","","","","","","","","","","","","","","","","","","","","","","","","","","","","","","","","","",""
"","","","","ctl-task-cpt","23","488456","0.0-8.0-3.0","149","1","2025-07-02 10:21:19","80fe4187154257d5fb01684ea91b68b9","86.15.199.15","Mozilla/5.0 (Windows NT 10.0; Win64; x64) AppleWebKit/537.36 (KHTML, like Gecko) Chrome/137.0.0.0 Safari/537.36","WebKit","Chrome","137.0.0.0","Windows","10.0","https://app.prolific.com/","en-GB,en;q=0.9,bn-BD;q=0.8,bn;q=0.7,en-US;q=0.6","5b395ede06f9f90001fb8709","683db6dfa200031b80f2a654","6865075fbba92057c1061f25","5b395ede06f9f90001fb8709","","","","","","","","","","","","","","","","","win-only","2","g1:SE,g2:NW","0.35","0","3","466797.3","2626","6636","36571.9","2","4","8","6","2","-8","-8","0","0","0","4010","4000","-2595","[""left"",""up""]","{""num_key_presses"":8,""num_perfect"":3,""num_errors"":0,""num_randdir"":5,""num_randdir_good_moves"":2,""num_whilered"":0,""num_whileblue"":0,""num_blue"":1,""num_good_moves"":5}","[699.5397321428571,705.3366071428571,0.2,699.5397321428571,705.3366071428571,104.9,699.5397321428571,705.3366071428571,205.7,699.5397321428571,705.3366071428571,307.4,699.5397321428571,705.3366071428571,408.1,699.5397321428571,705.3366071428571,510.2,699.5397321428571,705.3366071428571,624,699.5397321428571,705.3366071428571,724.3,699.5397321428571,705.3366071428571,830.2,699.5397321428571,705.3366071428571,930.3,699.5397321428571,705.3366071428571,1040.8,699.5397321428571,705.3366071428571,1145.4,699.5397321428571,705.3366071428571,1257,699.5397321428571,705.3366071428571,1357,699.5397321428571,705.3366071428571,1459.1,699.5397321428571,705.3366071428571,1560.1,699.5397321428571,705.3366071428571,1665.4,699.5397321428571,705.3366071428571,1775.5,659.5397321428571,491.33660714285713,1875.8,653.5397321428571,461.33660714285713,1980.5,653.5397321428571,461.33660714285713,2084.5,645.5397321428571,447.33660714285713,2184.5,645.5397321428571,447.33660714285713,2284.7,645.5397321428571,447.33660714285713,2390.2,645.5397321428571,447.33660714285713,2491.6,641.5397321428571,443.33660714285713,2592.1,609.5397321428571,403.33660714285713,2694.3,607.5397321428571,399.33660714285713,2794.8,607.5397321428571,399.33660714285713,2895.1,607.5397321428571,399.33660714285713,3001.2,607.5397321428571,399.33660714285713,3102.4,607.5397321428571,399.33660714285713,3208.5,607.5397321428571,399.33660714285713,3309.7,607.5397321428571,399.33660714285713,3409.8,607.5397321428571,399.33660714285713,3510,607.5397321428571,399.33660714285713,3611.1,607.5397321428571,399.33660714285713,3715.5,607.5397321428571,399.33660714285713,3815.5,607.5397321428571,399.33660714285713,3919.3]","[1634.7,1634.7,1000,0,634.7,""smooth"",""up"",""up"",""good_move"",8569.3,6934.4,2950.5,5269,349.8,""oops"",""up"",""left"",""good_move"",11738,3168.6,2426.2,8569.5,742.4,""oops"",""up"",""down"",""bad_move"",15349,3610.4,3030.8,11738.6,579.6,""oops"",""left"",""left"",""good_move"",18377.5,3028.1,2490,15349.4,538.1,""oops"",""left"",""right"",""bad_move"",21255.8,2877.8,2222.5,18378,655.3,""smooth"",""up"",""up"",""good_move"",24096.6,2840.2,2448.1,21256.4,392.1,""oops"",""up"",""right"",""bad_move"",26590,2493,1859.3,24097,633.7,""smooth"",""up"",""up"",""good_move""]","","",""
"41138","","","","instructions","24","529594","0.0-8.0-4.0","149","1","2025-07-02 10:21:19","80fe4187154257d5fb01684ea91b68b9","86.15.199.15","Mozilla/5.0 (Windows NT 10.0; Win64; x64) AppleWebKit/537.36 (KHTML, like Gecko) Chrome/137.0.0.0 Safari/537.36","WebKit","Chrome","137.0.0.0","Windows","10.0","https://app.prolific.com/","en-GB,en;q=0.9,bn-BD;q=0.8,bn;q=0.7,en-US;q=0.6","5b395ede06f9f90001fb8709","683db6dfa200031b80f2a654","6865075fbba92057c1061f25","5b395ede06f9f90001fb8709","","[{""page_index"":0,""viewing_time"":20126},{""page_index"":1,""viewing_time"":21011}]","","","","","","","","","","","","","","","","","","","","","","","","","","","","","","","","","","","","","","","","","","","",""
"8982","","","{""green_ball"":[""Ball always moves in the direction I press"",""Ball sometimes shakes and moves in a random direction""]}","survey-multi-select","25","538582","0.0-8.0-5.0-0.0","149","1","2025-07-02 10:21:19","80fe4187154257d5fb01684ea91b68b9","86.15.199.15","Mozilla/5.0 (Windows NT 10.0; Win64; x64) AppleWebKit/537.36 (KHTML, like Gecko) Chrome/137.0.0.0 Safari/537.36","WebKit","Chrome","137.0.0.0","Windows","10.0","https://app.prolific.com/","en-GB,en;q=0.9,bn-BD;q=0.8,bn;q=0.7,en-US;q=0.6","5b395ede06f9f90001fb8709","683db6dfa200031b80f2a654","6865075fbba92057c1061f25","5b395ede06f9f90001fb8709","","","[0]","","","","quiz","","","","","","","","","","","","","","","","","","","","","","","","","","","","","","","","","","","","","false","",""
"3577","","<p align='center'><b>INCORRECT.</b> Usually the green ball moves in the indicated direction, but sometimes it shakes and moves randomly. </p>","0","html-button-response","26","542163","0.0-8.0-5.0-1.0","149","1","2025-07-02 10:21:19","80fe4187154257d5fb01684ea91b68b9","86.15.199.15","Mozilla/5.0 (Windows NT 10.0; Win64; x64) AppleWebKit/537.36 (KHTML, like Gecko) Chrome/137.0.0.0 Safari/537.36","WebKit","Chrome","137.0.0.0","Windows","10.0","https://app.prolific.com/","en-GB,en;q=0.9,bn-BD;q=0.8,bn;q=0.7,en-US;q=0.6","5b395ede06f9f90001fb8709","683db6dfa200031b80f2a654","6865075fbba92057c1061f25","5b395ede06f9f90001fb8709","","","","","","","","","","","","","","","","","","","","","","","","","","","","","","","","","","","","","","","","","","","","","",""
"2722","","","{""green_ball"":[""Ball sometimes shakes and moves in a random direction""]}","survey-multi-select","27","544890","0.0-8.0-5.1-0.1","149","1","2025-07-02 10:21:19","80fe4187154257d5fb01684ea91b68b9","86.15.199.15","Mozilla/5.0 (Windows NT 10.0; Win64; x64) AppleWebKit/537.36 (KHTML, like Gecko) Chrome/137.0.0.0 Safari/537.36","WebKit","Chrome","137.0.0.0","Windows","10.0","https://app.prolific.com/","en-GB,en;q=0.9,bn-BD;q=0.8,bn;q=0.7,en-US;q=0.6","5b395ede06f9f90001fb8709","683db6dfa200031b80f2a654","6865075fbba92057c1061f25","5b395ede06f9f90001fb8709","","","[0]","","","","quiz","","","","","","","","","","","","","","","","","","","","","","","","","","","","","","","","","","","","","true","",""
"1387","","<p align='center'><b>CORRECT!</b> Indeed, the green ball may sometimes shake and move in a random direction.</p>","0","html-button-response","28","546279","0.0-8.0-5.1-1.1","149","1","2025-07-02 10:21:19","80fe4187154257d5fb01684ea91b68b9","86.15.199.15","Mozilla/5.0 (Windows NT 10.0; Win64; x64) AppleWebKit/537.36 (KHTML, like Gecko) Chrome/137.0.0.0 Safari/537.36","WebKit","Chrome","137.0.0.0","Windows","10.0","https://app.prolific.com/","en-GB,en;q=0.9,bn-BD;q=0.8,bn;q=0.7,en-US;q=0.6","5b395ede06f9f90001fb8709","683db6dfa200031b80f2a654","6865075fbba92057c1061f25","5b395ede06f9f90001fb8709","","","","","","","","","","","","","","","","","","","","","","","","","","","","","","","","","","","","","","","","","","","","","",""
"5467","","","{""yellow_ball"":[""Ball doesn‘t move and I get -1 penalty point""]}","survey-multi-select","29","551750","0.0-8.0-6.0-0.0","149","1","2025-07-02 10:21:19","80fe4187154257d5fb01684ea91b68b9","86.15.199.15","Mozilla/5.0 (Windows NT 10.0; Win64; x64) AppleWebKit/537.36 (KHTML, like Gecko) Chrome/137.0.0.0 Safari/537.36","WebKit","Chrome","137.0.0.0","Windows","10.0","https://app.prolific.com/","en-GB,en;q=0.9,bn-BD;q=0.8,bn;q=0.7,en-US;q=0.6","5b395ede06f9f90001fb8709","683db6dfa200031b80f2a654","6865075fbba92057c1061f25","5b395ede06f9f90001fb8709","","","[0]","","","","quiz","","","","","","","","","","","","","","","","","","","","","","","","","","","","","","","","","","","","","true","",""
"1715","","<p align='center'><b>CORRECT!</b> Indeed, the yellow ball never moves and you receive a penalty.</p>","0","html-button-response","30","553468","0.0-8.0-6.0-1.0","149","1","2025-07-02 10:21:19","80fe4187154257d5fb01684ea91b68b9","86.15.199.15","Mozilla/5.0 (Windows NT 10.0; Win64; x64) AppleWebKit/537.36 (KHTML, like Gecko) Chrome/137.0.0.0 Safari/537.36","WebKit","Chrome","137.0.0.0","Windows","10.0","https://app.prolific.com/","en-GB,en;q=0.9,bn-BD;q=0.8,bn;q=0.7,en-US;q=0.6","5b395ede06f9f90001fb8709","683db6dfa200031b80f2a654","6865075fbba92057c1061f25","5b395ede06f9f90001fb8709","","","","","","","","","","","","","","","","","","","","","","","","","","","","","","","","","","","","","","","","","","","","","",""
"3942","","","{""blue_ball"":[""Ball doesn‘t move and I get -1 penalty point""]}","survey-multi-select","31","557414","0.0-8.0-7.0-0.0","149","1","2025-07-02 10:21:19","80fe4187154257d5fb01684ea91b68b9","86.15.199.15","Mozilla/5.0 (Windows NT 10.0; Win64; x64) AppleWebKit/537.36 (KHTML, like Gecko) Chrome/137.0.0.0 Safari/537.36","WebKit","Chrome","137.0.0.0","Windows","10.0","https://app.prolific.com/","en-GB,en;q=0.9,bn-BD;q=0.8,bn;q=0.7,en-US;q=0.6","5b395ede06f9f90001fb8709","683db6dfa200031b80f2a654","6865075fbba92057c1061f25","5b395ede06f9f90001fb8709","","","[0]","","","","quiz","","","","","","","","","","","","","","","","","","","","","","","","","","","","","","","","","","","","","false","",""
"1567","","<p align='center'><b>INCORRECT.</b> The blue ball always shakes and moves randomly.</p>","0","html-button-response","32","558985","0.0-8.0-7.0-1.0","149","1","2025-07-02 10:21:19","80fe4187154257d5fb01684ea91b68b9","86.15.199.15","Mozilla/5.0 (Windows NT 10.0; Win64; x64) AppleWebKit/537.36 (KHTML, like Gecko) Chrome/137.0.0.0 Safari/537.36","WebKit","Chrome","137.0.0.0","Windows","10.0","https://app.prolific.com/","en-GB,en;q=0.9,bn-BD;q=0.8,bn;q=0.7,en-US;q=0.6","5b395ede06f9f90001fb8709","683db6dfa200031b80f2a654","6865075fbba92057c1061f25","5b395ede06f9f90001fb8709","","","","","","","","","","","","","","","","","","","","","","","","","","","","","","","","","","","","","","","","","","","","","",""
"3121","","","{""blue_ball"":[""Ball always shakes and moves in a random direction""]}","survey-multi-select","33","562109","0.0-8.0-7.1-0.1","149","1","2025-07-02 10:21:19","80fe4187154257d5fb01684ea91b68b9","86.15.199.15","Mozilla/5.0 (Windows NT 10.0; Win64; x64) AppleWebKit/537.36 (KHTML, like Gecko) Chrome/137.0.0.0 Safari/537.36","WebKit","Chrome","137.0.0.0","Windows","10.0","https://app.prolific.com/","en-GB,en;q=0.9,bn-BD;q=0.8,bn;q=0.7,en-US;q=0.6","5b395ede06f9f90001fb8709","683db6dfa200031b80f2a654","6865075fbba92057c1061f25","5b395ede06f9f90001fb8709","","","[0]","","","","quiz","","","","","","","","","","","","","","","","","","","","","","","","","","","","","","","","","","","","","true","",""
"2155","","<p align='center'><b>CORRECT!</b> Indeed, the blue ball always shakes and moves in a random direction. Also there is a penalty of -1 point.</p>","0","html-button-response","34","564267","0.0-8.0-7.1-1.1","149","1","2025-07-02 10:21:19","80fe4187154257d5fb01684ea91b68b9","86.15.199.15","Mozilla/5.0 (Windows NT 10.0; Win64; x64) AppleWebKit/537.36 (KHTML, like Gecko) Chrome/137.0.0.0 Safari/537.36","WebKit","Chrome","137.0.0.0","Windows","10.0","https://app.prolific.com/","en-GB,en;q=0.9,bn-BD;q=0.8,bn;q=0.7,en-US;q=0.6","5b395ede06f9f90001fb8709","683db6dfa200031b80f2a654","6865075fbba92057c1061f25","5b395ede06f9f90001fb8709","","","","","","","","","","","","","","","","","","","","","","","","","","","","","","","","","","","","","","","","","","","","","",""
"3875","","","{""bonus"":[""When I reach 50% of points""]}","survey-multi-select","35","568146","0.0-8.0-8.0-0.0","149","1","2025-07-02 10:21:19","80fe4187154257d5fb01684ea91b68b9","86.15.199.15","Mozilla/5.0 (Windows NT 10.0; Win64; x64) AppleWebKit/537.36 (KHTML, like Gecko) Chrome/137.0.0.0 Safari/537.36","WebKit","Chrome","137.0.0.0","Windows","10.0","https://app.prolific.com/","en-GB,en;q=0.9,bn-BD;q=0.8,bn;q=0.7,en-US;q=0.6","5b395ede06f9f90001fb8709","683db6dfa200031b80f2a654","6865075fbba92057c1061f25","5b395ede06f9f90001fb8709","","","[0]","","","","quiz","","","","","","","","","","","","","","","","","","","","","","","","","","","","","","","","","","","","","true","",""
"1310","","<p align='center'><b>CORRECT!</b> Indeed, you receive 2 pounds extra when you reach 50% of points.</p>","0","html-button-response","36","569459","0.0-8.0-8.0-1.0","149","1","2025-07-02 10:21:19","80fe4187154257d5fb01684ea91b68b9","86.15.199.15","Mozilla/5.0 (Windows NT 10.0; Win64; x64) AppleWebKit/537.36 (KHTML, like Gecko) Chrome/137.0.0.0 Safari/537.36","WebKit","Chrome","137.0.0.0","Windows","10.0","https://app.prolific.com/","en-GB,en;q=0.9,bn-BD;q=0.8,bn;q=0.7,en-US;q=0.6","5b395ede06f9f90001fb8709","683db6dfa200031b80f2a654","6865075fbba92057c1061f25","5b395ede06f9f90001fb8709","","","","","","","","","","","","","","","","","","","","","","","","","","","","","","","","","","","","","","","","","","","","","",""
"1939","","","","instructions","37","571400","0.0-8.0-9.0","149","1","2025-07-02 10:21:19","80fe4187154257d5fb01684ea91b68b9","86.15.199.15","Mozilla/5.0 (Windows NT 10.0; Win64; x64) AppleWebKit/537.36 (KHTML, like Gecko) Chrome/137.0.0.0 Safari/537.36","WebKit","Chrome","137.0.0.0","Windows","10.0","https://app.prolific.com/","en-GB,en;q=0.9,bn-BD;q=0.8,bn;q=0.7,en-US;q=0.6","5b395ede06f9f90001fb8709","683db6dfa200031b80f2a654","6865075fbba92057c1061f25","5b395ede06f9f90001fb8709","","[{""page_index"":0,""viewing_time"":1939}]","","","","","","","","","","","","","","","","","","","","","","","","","","","","","","","","","","","","","","","","","","","",""
"16367","","<p>Before you start with this game please answer the following three questions yourself. </p>
  <p>Through this game, we measure several aspects of your cognitive performance, such as reaction times, multi-tasking capabilities </p>
  <p>and the ability to assess the situation you are in.</p>
  <p></p>
  <p><b>How good do you usually are in such tasks?</b></p>","27","html-slider-response","38","587770","0.0-9.0-0.0","149","1","2025-07-02 10:21:19","80fe4187154257d5fb01684ea91b68b9","86.15.199.15","Mozilla/5.0 (Windows NT 10.0; Win64; x64) AppleWebKit/537.36 (KHTML, like Gecko) Chrome/137.0.0.0 Safari/537.36","WebKit","Chrome","137.0.0.0","Windows","10.0","https://app.prolific.com/","en-GB,en;q=0.9,bn-BD;q=0.8,bn;q=0.7,en-US;q=0.6","5b395ede06f9f90001fb8709","683db6dfa200031b80f2a654","6865075fbba92057c1061f25","5b395ede06f9f90001fb8709","2025-07-02T10:31:25.606Z","","","","","","PreSkillQ","","","","","","","","","","","","","","","","","","","","","","","","","","","","","","","","","","","","","","50",""
"5685","","<div style=""width:500px;"">
  <p>How well do you think you will perform in this task compared to other participants?</p>
  </div>","35","html-slider-response","39","593458","0.0-9.0-1.0","149","1","2025-07-02 10:21:19","80fe4187154257d5fb01684ea91b68b9","86.15.199.15","Mozilla/5.0 (Windows NT 10.0; Win64; x64) AppleWebKit/537.36 (KHTML, like Gecko) Chrome/137.0.0.0 Safari/537.36","WebKit","Chrome","137.0.0.0","Windows","10.0","https://app.prolific.com/","en-GB,en;q=0.9,bn-BD;q=0.8,bn;q=0.7,en-US;q=0.6","5b395ede06f9f90001fb8709","683db6dfa200031b80f2a654","6865075fbba92057c1061f25","5b395ede06f9f90001fb8709","2025-07-02T10:31:31.294Z","","","","","","PrePerfQ","","","","","","","","","","","","","","","","","","","","","","","","","","","","","","","","","","","","","","50",""
"4821","","<div style=""width:500px;"">
  <p>What best describes how you currently feel?</p>
  </div>","12","html-slider-response","40","598282","0.0-9.0-2.0","149","1","2025-07-02 10:21:19","80fe4187154257d5fb01684ea91b68b9","86.15.199.15","Mozilla/5.0 (Windows NT 10.0; Win64; x64) AppleWebKit/537.36 (KHTML, like Gecko) Chrome/137.0.0.0 Safari/537.36","WebKit","Chrome","137.0.0.0","Windows","10.0","https://app.prolific.com/","en-GB,en;q=0.9,bn-BD;q=0.8,bn;q=0.7,en-US;q=0.6","5b395ede06f9f90001fb8709","683db6dfa200031b80f2a654","6865075fbba92057c1061f25","5b395ede06f9f90001fb8709","2025-07-02T10:31:36.118Z","","","","","","PreMotivationQ","","","","","","","","","","","","","","","","","","","","","","","","","","","","","","","","","","","","","","50",""
"","","","","ctl-task-cpt","41","631106","0.0-10.0-0.0","149","1","2025-07-02 10:21:19","80fe4187154257d5fb01684ea91b68b9","86.15.199.15","Mozilla/5.0 (Windows NT 10.0; Win64; x64) AppleWebKit/537.36 (KHTML, like Gecko) Chrome/137.0.0.0 Safari/537.36","WebKit","Chrome","137.0.0.0","Windows","10.0","https://app.prolific.com/","en-GB,en;q=0.9,bn-BD;q=0.8,bn;q=0.7,en-US;q=0.6","5b395ede06f9f90001fb8709","683db6dfa200031b80f2a654","6865075fbba92057c1061f25","5b395ede06f9f90001fb8709","2025-07-02T10:32:08.942Z","","","","","","","","","","","","","","","","win-only","2","g1:SE,g2:NW","1","1","0","616202.2","5548.7","10552.5","29803","1","4","4","6","2","4","3","3","0","0.022727272727272728","3437.8","3000","230","[""left"",""up""]","{""num_key_presses"":7,""num_perfect"":6,""num_errors"":1,""num_randdir"":0,""num_randdir_good_moves"":0,""num_whilered"":0,""num_whileblue"":0,""num_blue"":0,""num_good_moves"":6}","[703.5397321428571,703.3366071428571,0.4,703.5397321428571,703.3366071428571,100.9,703.5397321428571,703.3366071428571,201.4,703.5397321428571,703.3366071428571,303,703.5397321428571,703.3366071428571,407.5,703.5397321428571,703.3366071428571,522.5,703.5397321428571,703.3366071428571,627.1,703.5397321428571,703.3366071428571,737.9,703.5397321428571,703.3366071428571,838.2,703.5397321428571,703.3366071428571,942.5,703.5397321428571,703.3366071428571,1051.3,703.5397321428571,703.3366071428571,1151.8,703.5397321428571,703.3366071428571,1252.2,703.5397321428571,703.3366071428571,1357.8,661.5397321428571,563.3366071428571,1462.1,545.5397321428571,461.33660714285713,1562.4,505.53973214285713,419.33660714285713,1668.3,501.53973214285713,415.33660714285713,1773.1,529.5397321428571,573.3366071428571,1878,565.5397321428571,673.3366071428571,1985.8,565.5397321428571,673.3366071428571,2086,565.5397321428571,673.3366071428571,2187.2,565.5397321428571,673.3366071428571,2287.7,565.5397321428571,673.3366071428571,2392.7,565.5397321428571,673.3366071428571,2493,565.5397321428571,673.3366071428571,2593,565.5397321428571,673.3366071428571,2702.4,565.5397321428571,673.3366071428571,2802.6,349.53973214285713,429.33660714285713,2907.1,265.53973214285713,293.33660714285713,3020.5,251.53973214285713,233.33660714285713,3122.6,207.53973214285713,213.33660714285713,3222.8,173.53973214285713,167.33660714285713,3327.4,173.53973214285713,167.33660714285713,3428,173.53973214285713,167.33660714285713,3528.1,173.53973214285713,167.33660714285713,3635.8,173.53973214285713,167.33660714285713,3736.5,173.53973214285713,167.33660714285713,3837.3,173.53973214285713,167.33660714285713,3937.4,173.53973214285713,167.33660714285713,4042.1,173.53973214285713,167.33660714285713,4142.6,173.53973214285713,167.33660714285713,4242.7,173.53973214285713,167.33660714285713,4353.7,173.53973214285713,167.33660714285713,4457.1,173.53973214285713,167.33660714285713,4557.8,173.53973214285713,167.33660714285713,4662.9,173.53973214285713,167.33660714285713,4771.6,173.53973214285713,167.33660714285713,4871.7,173.53973214285713,167.33660714285713,4973.2]","[336.4,336.4,1000,0,-663.6,""error"",""-"",""-"",""no_move"",4208.4,3871.8,2206.9,1338.6,662.9,""smooth"",""up"",""up"",""good_move"",7220.5,3011.5,2393.7,4209,617.8,""smooth"",""up"",""up"",""good_move"",10239.7,3018.9,2470.1,7220.8,548.8,""smooth"",""up"",""up"",""good_move"",12895.9,2655.9,2089.6,10240.1,566.2,""smooth"",""left"",""left"",""good_move"",15767.5,2871.2,2339.4,12896.3,531.8,""smooth"",""left"",""left"",""good_move"",19145.8,3378,2891.6,15767.9,486.3,""smooth"",""left"",""left"",""good_move""]","","",""
"6228","","<div style=""width:500px;"">
  <p>What determined the result of this run?</p>
  </div>","81","html-slider-response","42","637337","0.0-10.0-1.0","149","1","2025-07-02 10:21:19","80fe4187154257d5fb01684ea91b68b9","86.15.199.15","Mozilla/5.0 (Windows NT 10.0; Win64; x64) AppleWebKit/537.36 (KHTML, like Gecko) Chrome/137.0.0.0 Safari/537.36","WebKit","Chrome","137.0.0.0","Windows","10.0","https://app.prolific.com/","en-GB,en;q=0.9,bn-BD;q=0.8,bn;q=0.7,en-US;q=0.6","5b395ede06f9f90001fb8709","683db6dfa200031b80f2a654","6865075fbba92057c1061f25","5b395ede06f9f90001fb8709","2025-07-02T10:32:15.173Z","","","","","","AttribQ","","","","","","","","","","","","","","","","","","","","","","","","","","","","","","","","","","","","","","50",""
"4871","","<div style=""width:500px;"">
  <p>How much control did you have over the ball?</p>
  </div>","84","html-slider-response","43","642210","0.0-10.0-2.0","149","1","2025-07-02 10:21:19","80fe4187154257d5fb01684ea91b68b9","86.15.199.15","Mozilla/5.0 (Windows NT 10.0; Win64; x64) AppleWebKit/537.36 (KHTML, like Gecko) Chrome/137.0.0.0 Safari/537.36","WebKit","Chrome","137.0.0.0","Windows","10.0","https://app.prolific.com/","en-GB,en;q=0.9,bn-BD;q=0.8,bn;q=0.7,en-US;q=0.6","5b395ede06f9f90001fb8709","683db6dfa200031b80f2a654","6865075fbba92057c1061f25","5b395ede06f9f90001fb8709","2025-07-02T10:32:20.047Z","","","","","","ControlQ","","","","","","","","","","","","","","","","","","","","","","","","","","","","","","","","","","","","","","50",""
"3589","","<div style=""width:500px;"">
  <p>How would you describe your current emotional state?</p>
  </div>","57","html-slider-response","44","645802","0.0-10.0-3.0","149","1","2025-07-02 10:21:19","80fe4187154257d5fb01684ea91b68b9","86.15.199.15","Mozilla/5.0 (Windows NT 10.0; Win64; x64) AppleWebKit/537.36 (KHTML, like Gecko) Chrome/137.0.0.0 Safari/537.36","WebKit","Chrome","137.0.0.0","Windows","10.0","https://app.prolific.com/","en-GB,en;q=0.9,bn-BD;q=0.8,bn;q=0.7,en-US;q=0.6","5b395ede06f9f90001fb8709","683db6dfa200031b80f2a654","6865075fbba92057c1061f25","5b395ede06f9f90001fb8709","2025-07-02T10:32:23.638Z","","","","","","StressQ","","","","","","","","","","","","","","","","","","","","","","","","","","","","","","","","","","","","","","50",""
"4268","","<div style=""width:500px;"">
  <p>What best describes how you currently feel?</p>
  </div>","35","html-slider-response","45","650073","0.0-10.0-4.0","149","1","2025-07-02 10:21:19","80fe4187154257d5fb01684ea91b68b9","86.15.199.15","Mozilla/5.0 (Windows NT 10.0; Win64; x64) AppleWebKit/537.36 (KHTML, like Gecko) Chrome/137.0.0.0 Safari/537.36","WebKit","Chrome","137.0.0.0","Windows","10.0","https://app.prolific.com/","en-GB,en;q=0.9,bn-BD;q=0.8,bn;q=0.7,en-US;q=0.6","5b395ede06f9f90001fb8709","683db6dfa200031b80f2a654","6865075fbba92057c1061f25","5b395ede06f9f90001fb8709","2025-07-02T10:32:27.909Z","","","","","","MotivationQ","","","","","","","","","","","","","","","","","","","","","","","","","","","","","","","","","","","","","","50",""
"","","","","ctl-task-cpt","46","704810","0.0-10.0-0.1","149","1","2025-07-02 10:21:19","80fe4187154257d5fb01684ea91b68b9","86.15.199.15","Mozilla/5.0 (Windows NT 10.0; Win64; x64) AppleWebKit/537.36 (KHTML, like Gecko) Chrome/137.0.0.0 Safari/537.36","WebKit","Chrome","137.0.0.0","Windows","10.0","https://app.prolific.com/","en-GB,en;q=0.9,bn-BD;q=0.8,bn;q=0.7,en-US;q=0.6","5b395ede06f9f90001fb8709","683db6dfa200031b80f2a654","6865075fbba92057c1061f25","5b395ede06f9f90001fb8709","2025-07-02T10:33:22.646Z","","","","","","","","","","","","","","","","win-only","0","g1:NW,g2:SE","0.9","2","0","667994.4","18439.9","23440.8","51721.2","1","4","8","6","2","-8","-10","0","3","0","3802.3","3000","-2265","[""down"",""right""]","{""num_key_presses"":9,""num_perfect"":6,""num_errors"":2,""num_randdir"":1,""num_randdir_good_moves"":0,""num_whilered"":0,""num_whileblue"":1,""num_blue"":2,""num_good_moves"":6}","[705.5397321428571,687.3366071428571,0.5,705.5397321428571,687.3366071428571,100.8,705.5397321428571,687.3366071428571,209,705.5397321428571,687.3366071428571,310.9,705.5397321428571,687.3366071428571,414.7,705.5397321428571,687.3366071428571,519.9,647.5397321428571,585.3366071428571,621.4,533.5397321428571,509.33660714285713,727.4,475.53973214285713,467.33660714285713,831.7,461.53973214285713,463.33660714285713,931.8,457.53973214285713,461.33660714285713,1036.3,423.53973214285713,419.33660714285713,1147.1,373.53973214285713,261.33660714285713,1251.3,349.53973214285713,217.33660714285713,1351.4,347.53973214285713,215.33660714285713,1465.5,347.53973214285713,215.33660714285713,1566.5,271.53973214285713,201.33660714285713,1682.9,145.53973214285713,167.33660714285713,1786.3,143.53973214285713,167.33660714285713,1887.5,143.53973214285713,169.33660714285713,2003.5,163.53973214285713,185.33660714285713,2107.3,177.53973214285713,195.33660714285713,2218.4,177.53973214285713,195.33660714285713,2321,177.53973214285713,195.33660714285713,2421.6,177.53973214285713,187.33660714285713,2521.8,177.53973214285713,187.33660714285713,2633.9,177.53973214285713,187.33660714285713,2735,177.53973214285713,187.33660714285713,2836.8,177.53973214285713,187.33660714285713,2936.9,177.53973214285713,187.33660714285713,3052.1,771.5397321428571,803.3366071428571,3156.8,1297.5397321428572,1367.3366071428572,3267.8,1357.5397321428572,1379.3366071428572,3368.2,1389.5397321428572,1425.3366071428572,3476.6,1351.5397321428572,1397.3366071428572,3581.6,1329.5397321428572,1369.3366071428572,3684.2,1329.5397321428572,1369.3366071428572,3786.4,1329.5397321428572,1369.3366071428572,3901.2,1329.5397321428572,1369.3366071428572,4006,1329.5397321428572,1369.3366071428572,4116.8,1329.5397321428572,1369.3366071428572,4221.4,1329.5397321428572,1369.3366071428572,4335.4,1329.5397321428572,1369.3366071428572,4436.7,1329.5397321428572,1369.3366071428572,4541.1,1329.5397321428572,1369.3366071428572,4651.4,1329.5397321428572,1369.3366071428572,4755.8,1329.5397321428572,1369.3366071428572,4856.2,1329.5397321428572,1369.3366071428572,4956.3]","[1372.6,1372.7,1000,0,372.7,""smooth"",""down"",""down"",""good_move"",4204.6,2831.4,2241,1373.2,590.4,""smooth"",""down"",""down"",""good_move"",7320.8,3116,2792,4204.9,324,""smooth"",""down"",""down"",""good_move"",10138.3,2817.2,2287,7321.1,530.2,""oops"",""right"",""left"",""bad_move"",12697.7,2558.8,1907.1,10138.9,651.7,""smooth"",""left"",""left"",""bad_move"",18687.2,5989.2,2600.2,15578.3,508.7,""smooth"",""right"",""right"",""good_move"",21794.3,3106.6,2727,18687.7,379.6,""while_blue"",""right"",""right"",""good_move"",22470.8,676.2,2674.2,21794.6,-1998,""error"",""-"",""-"",""no_move"",25733.4,3262.5,1683.7,23477.4,572.3,""smooth"",""right"",""right"",""good_move""]","","",""
"4322","","<div style=""width:500px;"">
  <p>What determined the result of this run?</p>
  </div>","32","html-slider-response","47","709135","0.0-10.0-1.1","149","1","2025-07-02 10:21:19","80fe4187154257d5fb01684ea91b68b9","86.15.199.15","Mozilla/5.0 (Windows NT 10.0; Win64; x64) AppleWebKit/537.36 (KHTML, like Gecko) Chrome/137.0.0.0 Safari/537.36","WebKit","Chrome","137.0.0.0","Windows","10.0","https://app.prolific.com/","en-GB,en;q=0.9,bn-BD;q=0.8,bn;q=0.7,en-US;q=0.6","5b395ede06f9f90001fb8709","683db6dfa200031b80f2a654","6865075fbba92057c1061f25","5b395ede06f9f90001fb8709","2025-07-02T10:33:26.971Z","","","","","","AttribQ","","","","","","","","","","","","","","","","","","","","","","","","","","","","","","","","","","","","","","50",""
"4422","","<div style=""width:500px;"">
  <p>How much control did you have over the ball?</p>
  </div>","38","html-slider-response","48","713559","0.0-10.0-2.1","149","1","2025-07-02 10:21:19","80fe4187154257d5fb01684ea91b68b9","86.15.199.15","Mozilla/5.0 (Windows NT 10.0; Win64; x64) AppleWebKit/537.36 (KHTML, like Gecko) Chrome/137.0.0.0 Safari/537.36","WebKit","Chrome","137.0.0.0","Windows","10.0","https://app.prolific.com/","en-GB,en;q=0.9,bn-BD;q=0.8,bn;q=0.7,en-US;q=0.6","5b395ede06f9f90001fb8709","683db6dfa200031b80f2a654","6865075fbba92057c1061f25","5b395ede06f9f90001fb8709","2025-07-02T10:33:31.395Z","","","","","","ControlQ","","","","","","","","","","","","","","","","","","","","","","","","","","","","","","","","","","","","","","50",""
"3038","","<div style=""width:500px;"">
  <p>How would you describe your current emotional state?</p>
  </div>","75","html-slider-response","49","716600","0.0-10.0-3.1","149","1","2025-07-02 10:21:19","80fe4187154257d5fb01684ea91b68b9","86.15.199.15","Mozilla/5.0 (Windows NT 10.0; Win64; x64) AppleWebKit/537.36 (KHTML, like Gecko) Chrome/137.0.0.0 Safari/537.36","WebKit","Chrome","137.0.0.0","Windows","10.0","https://app.prolific.com/","en-GB,en;q=0.9,bn-BD;q=0.8,bn;q=0.7,en-US;q=0.6","5b395ede06f9f90001fb8709","683db6dfa200031b80f2a654","6865075fbba92057c1061f25","5b395ede06f9f90001fb8709","2025-07-02T10:33:34.436Z","","","","","","StressQ","","","","","","","","","","","","","","","","","","","","","","","","","","","","","","","","","","","","","","50",""
"4881","","<div style=""width:500px;"">
  <p>What best describes how you currently feel?</p>
  </div>","19","html-slider-response","50","721484","0.0-10.0-4.1","149","1","2025-07-02 10:21:19","80fe4187154257d5fb01684ea91b68b9","86.15.199.15","Mozilla/5.0 (Windows NT 10.0; Win64; x64) AppleWebKit/537.36 (KHTML, like Gecko) Chrome/137.0.0.0 Safari/537.36","WebKit","Chrome","137.0.0.0","Windows","10.0","https://app.prolific.com/","en-GB,en;q=0.9,bn-BD;q=0.8,bn;q=0.7,en-US;q=0.6","5b395ede06f9f90001fb8709","683db6dfa200031b80f2a654","6865075fbba92057c1061f25","5b395ede06f9f90001fb8709","2025-07-02T10:33:39.321Z","","","","","","MotivationQ","","","","","","","","","","","","","","","","","","","","","","","","","","","","","","","","","","","","","","50",""
"","","","","ctl-task-cpt","51","744136","0.0-10.0-0.2","149","1","2025-07-02 10:21:19","80fe4187154257d5fb01684ea91b68b9","86.15.199.15","Mozilla/5.0 (Windows NT 10.0; Win64; x64) AppleWebKit/537.36 (KHTML, like Gecko) Chrome/137.0.0.0 Safari/537.36","WebKit","Chrome","137.0.0.0","Windows","10.0","https://app.prolific.com/","en-GB,en;q=0.9,bn-BD;q=0.8,bn;q=0.7,en-US;q=0.6","5b395ede06f9f90001fb8709","683db6dfa200031b80f2a654","6865075fbba92057c1061f25","5b395ede06f9f90001fb8709","2025-07-02T10:34:01.972Z","","","","","","","","","","","","","","","","win-only","1","g1:NE,g2:SW","0.8","3","0","739405.8","1845.5","6846.9","19626.3","1","4","4","6","1","1","1","1","0","0.007575757575757576","2433.8","3000","1105","[""up"",""right""]","{""num_key_presses"":4,""num_perfect"":3,""num_errors"":0,""num_randdir"":1,""num_randdir_good_moves"":1,""num_whilered"":0,""num_whileblue"":0,""num_blue"":1,""num_good_moves"":4}","[691.5397321428571,699.3366071428571,0.2,691.5397321428571,699.3366071428571,106.4,691.5397321428571,699.3366071428571,213.3,691.5397321428571,699.3366071428571,326.2,691.5397321428571,699.3366071428571,431.9,691.5397321428571,699.3366071428571,539.1,691.5397321428571,699.3366071428571,640.2,691.5397321428571,699.3366071428571,741,691.5397321428571,699.3366071428571,859.7,691.5397321428571,699.3366071428571,972.1,675.5397321428571,703.3366071428571,1072.5,443.53973214285713,841.3366071428571,1174.2,373.53973214285713,925.3366071428571,1275.3,373.53973214285713,925.3366071428571,1375.9,439.53973214285713,875.3366071428571,1476,1087.5397321428572,407.33660714285713,1580,1087.5397321428572,407.33660714285713,1681.2,1087.5397321428572,407.33660714285713,1781.2,1349.5397321428572,95.33660714285713,1885.4,1405.5397321428572,23.336607142857133,1990.3,1423.5397321428572,13.336607142857133,2095.1,1403.5397321428572,43.33660714285713,2197.5,1297.5397321428572,117.33660714285713,2300.5,1297.5397321428572,117.33660714285713,2401.2,1297.5397321428572,117.33660714285713,2507.1,1297.5397321428572,117.33660714285713,2611.2,1297.5397321428572,117.33660714285713,2722.8,1297.5397321428572,117.33660714285713,2823.2,1297.5397321428572,117.33660714285713,2939,1297.5397321428572,117.33660714285713,3040.7,1297.5397321428572,117.33660714285713,3142,1297.5397321428572,117.33660714285713,3246,1297.5397321428572,117.33660714285713,3351,1297.5397321428572,117.33660714285713,3455.1,1297.5397321428572,117.33660714285713,3555.6,1297.5397321428572,117.33660714285713,3666.2,1297.5397321428572,117.33660714285713,3772.1,1297.5397321428572,117.33660714285713,3875.1,1297.5397321428572,117.33660714285713,3975.9,1297.5397321428572,117.33660714285713,4091.1,1297.5397321428572,117.33660714285713,4199.6,1297.5397321428572,117.33660714285713,4305.9,1297.5397321428572,117.33660714285713,4410.7,1297.5397321428572,117.33660714285713,4515.6,1297.5397321428572,117.33660714285713,4627,1297.5397321428572,117.33660714285713,4730.9,1297.5397321428572,117.33660714285713,4831,1297.5397321428572,117.33660714285713,4934.9]","[1749,1749.1,1000,0,749.1,""oops"",""up"",""right"",""good_move"",7328.3,5578.9,2065.5,4694,568.8,""smooth"",""up"",""up"",""good_move"",10096.7,2768.1,2207.3,7328.6,560.8,""smooth"",""up"",""up"",""good_move"",12643.7,2546.7,1847.5,10097.1,699.1,""smooth"",""right"",""right"",""good_move""]","","",""
"5031","","<div style=""width:500px;"">
  <p>What determined the result of this run?</p>
  </div>","44","html-slider-response","52","749168","0.0-10.0-1.2","149","1","2025-07-02 10:21:19","80fe4187154257d5fb01684ea91b68b9","86.15.199.15","Mozilla/5.0 (Windows NT 10.0; Win64; x64) AppleWebKit/537.36 (KHTML, like Gecko) Chrome/137.0.0.0 Safari/537.36","WebKit","Chrome","137.0.0.0","Windows","10.0","https://app.prolific.com/","en-GB,en;q=0.9,bn-BD;q=0.8,bn;q=0.7,en-US;q=0.6","5b395ede06f9f90001fb8709","683db6dfa200031b80f2a654","6865075fbba92057c1061f25","5b395ede06f9f90001fb8709","2025-07-02T10:34:07.004Z","","","","","","AttribQ","","","","","","","","","","","","","","","","","","","","","","","","","","","","","","","","","","","","","","50",""
"5537","","<div style=""width:500px;"">
  <p>How much control did you have over the ball?</p>
  </div>","59","html-slider-response","53","754707","0.0-10.0-2.2","149","1","2025-07-02 10:21:19","80fe4187154257d5fb01684ea91b68b9","86.15.199.15","Mozilla/5.0 (Windows NT 10.0; Win64; x64) AppleWebKit/537.36 (KHTML, like Gecko) Chrome/137.0.0.0 Safari/537.36","WebKit","Chrome","137.0.0.0","Windows","10.0","https://app.prolific.com/","en-GB,en;q=0.9,bn-BD;q=0.8,bn;q=0.7,en-US;q=0.6","5b395ede06f9f90001fb8709","683db6dfa200031b80f2a654","6865075fbba92057c1061f25","5b395ede06f9f90001fb8709","2025-07-02T10:34:12.543Z","","","","","","ControlQ","","","","","","","","","","","","","","","","","","","","","","","","","","","","","","","","","","","","","","50",""
"4872","","<div style=""width:500px;"">
  <p>How would you describe your current emotional state?</p>
  </div>","50","html-slider-response","54","759580","0.0-10.0-3.2","149","1","2025-07-02 10:21:19","80fe4187154257d5fb01684ea91b68b9","86.15.199.15","Mozilla/5.0 (Windows NT 10.0; Win64; x64) AppleWebKit/537.36 (KHTML, like Gecko) Chrome/137.0.0.0 Safari/537.36","WebKit","Chrome","137.0.0.0","Windows","10.0","https://app.prolific.com/","en-GB,en;q=0.9,bn-BD;q=0.8,bn;q=0.7,en-US;q=0.6","5b395ede06f9f90001fb8709","683db6dfa200031b80f2a654","6865075fbba92057c1061f25","5b395ede06f9f90001fb8709","2025-07-02T10:34:17.417Z","","","","","","StressQ","","","","","","","","","","","","","","","","","","","","","","","","","","","","","","","","","","","","","","50",""
"3333","","<div style=""width:500px;"">
  <p>What best describes how you currently feel?</p>
  </div>","50","html-slider-response","55","762916","0.0-10.0-4.2","149","1","2025-07-02 10:21:19","80fe4187154257d5fb01684ea91b68b9","86.15.199.15","Mozilla/5.0 (Windows NT 10.0; Win64; x64) AppleWebKit/537.36 (KHTML, like Gecko) Chrome/137.0.0.0 Safari/537.36","WebKit","Chrome","137.0.0.0","Windows","10.0","https://app.prolific.com/","en-GB,en;q=0.9,bn-BD;q=0.8,bn;q=0.7,en-US;q=0.6","5b395ede06f9f90001fb8709","683db6dfa200031b80f2a654","6865075fbba92057c1061f25","5b395ede06f9f90001fb8709","2025-07-02T10:34:20.752Z","","","","","","MotivationQ","","","","","","","","","","","","","","","","","","","","","","","","","","","","","","","","","","","","","","50",""
"","","","","ctl-task-cpt","56","790153","0.0-10.0-0.3","149","1","2025-07-02 10:21:19","80fe4187154257d5fb01684ea91b68b9","86.15.199.15","Mozilla/5.0 (Windows NT 10.0; Win64; x64) AppleWebKit/537.36 (KHTML, like Gecko) Chrome/137.0.0.0 Safari/537.36","WebKit","Chrome","137.0.0.0","Windows","10.0","https://app.prolific.com/","en-GB,en;q=0.9,bn-BD;q=0.8,bn;q=0.7,en-US;q=0.6","5b395ede06f9f90001fb8709","683db6dfa200031b80f2a654","6865075fbba92057c1061f25","5b395ede06f9f90001fb8709","2025-07-02T10:34:47.989Z","","","","","","","","","","","","","","","","win-only","3","g1:SW,g2:NE","0.7","4","0","780835.6","2315.9","7319.3","24221.4","1","4","8","6","1","1","1","2","1","0.015151515151515152","1437.2","3000","1380","[""down"",""left""]","{""num_key_presses"":4,""num_perfect"":4,""num_errors"":0,""num_randdir"":0,""num_randdir_good_moves"":0,""num_whilered"":0,""num_whileblue"":0,""num_blue"":2,""num_good_moves"":4}","[717.5397321428571,711.3366071428571,0.3,717.5397321428571,711.3366071428571,100.1,717.5397321428571,711.3366071428571,202,717.5397321428571,711.3366071428571,313.9,717.5397321428571,711.3366071428571,424.7,717.5397321428571,711.3366071428571,533.3,717.5397321428571,711.3366071428571,633.9,717.5397321428571,711.3366071428571,734.4,375.53973214285713,1043.3366071428572,835.1,235.53973214285713,1213.3366071428572,936.6,203.53973214285713,1241.3366071428572,1041.9,179.53973214285713,1265.3366071428572,1145.4,153.53973214285713,1289.3366071428572,1248.1,151.53973214285713,1291.3366071428572,1351.9,151.53973214285713,1291.3366071428572,1470.4,151.53973214285713,1291.3366071428572,1570.4,151.53973214285713,1291.3366071428572,1685.3,151.53973214285713,1291.3366071428572,1785.8,151.53973214285713,1291.3366071428572,1887.8,151.53973214285713,1291.3366071428572,1991.3,151.53973214285713,1291.3366071428572,2091.9,151.53973214285713,1291.3366071428572,2195.4,151.53973214285713,1291.3366071428572,2301.2,151.53973214285713,1291.3366071428572,2419.1,151.53973214285713,1291.3366071428572,2520.3,151.53973214285713,1291.3366071428572,2625.6,151.53973214285713,1291.3366071428572,2730.5,151.53973214285713,1291.3366071428572,2839.1,151.53973214285713,1291.3366071428572,2941,151.53973214285713,1291.3366071428572,3054.1,151.53973214285713,1291.3366071428572,3155.3,-258.46026785714287,873.3366071428571,3255.4,-268.46026785714287,841.3366071428571,3359.5,-268.46026785714287,841.3366071428571,3460.3,-268.46026785714287,841.3366071428571,3561.4,-268.46026785714287,841.3366071428571,3665.1,-268.46026785714287,841.3366071428571,3770.7,-268.46026785714287,841.3366071428571,3889.2,-268.46026785714287,841.3366071428571,3989.6,-268.46026785714287,841.3366071428571,4104.1,-268.46026785714287,841.3366071428571,4204.4,-268.46026785714287,841.3366071428571,4305.1,-268.46026785714287,841.3366071428571,4405.9,-268.46026785714287,841.3366071428571,4510.4,-268.46026785714287,841.3366071428571,4610.7,-268.46026785714287,841.3366071428571,4711.6,-268.46026785714287,841.3366071428571,4812,-268.46026785714287,841.3366071428571,4916.1]","[3775.8,3775.8,1447.4,2005.9,322.5,""smooth"",""down"",""down"",""good_move"",7202.7,3426.3,2563.3,3776.4,863.1,""smooth"",""down"",""down"",""good_move"",13137.7,5934.7,2506.1,10098,533.7,""smooth"",""left"",""left"",""good_move"",16758.7,3620.6,2905.3,13138.1,715.3,""smooth"",""left"",""left"",""good_move""]","","",""
"6999","","<div style=""width:500px;"">
  <p>What determined the result of this run?</p>
  </div>","81","html-slider-response","57","797154","0.0-10.0-1.3","149","1","2025-07-02 10:21:19","80fe4187154257d5fb01684ea91b68b9","86.15.199.15","Mozilla/5.0 (Windows NT 10.0; Win64; x64) AppleWebKit/537.36 (KHTML, like Gecko) Chrome/137.0.0.0 Safari/537.36","WebKit","Chrome","137.0.0.0","Windows","10.0","https://app.prolific.com/","en-GB,en;q=0.9,bn-BD;q=0.8,bn;q=0.7,en-US;q=0.6","5b395ede06f9f90001fb8709","683db6dfa200031b80f2a654","6865075fbba92057c1061f25","5b395ede06f9f90001fb8709","2025-07-02T10:34:54.990Z","","","","","","AttribQ","","","","","","","","","","","","","","","","","","","","","","","","","","","","","","","","","","","","","","50",""
"8324","","<div style=""width:500px;"">
  <p>How much control did you have over the ball?</p>
  </div>","91","html-slider-response","58","805479","0.0-10.0-2.3","149","1","2025-07-02 10:21:19","80fe4187154257d5fb01684ea91b68b9","86.15.199.15","Mozilla/5.0 (Windows NT 10.0; Win64; x64) AppleWebKit/537.36 (KHTML, like Gecko) Chrome/137.0.0.0 Safari/537.36","WebKit","Chrome","137.0.0.0","Windows","10.0","https://app.prolific.com/","en-GB,en;q=0.9,bn-BD;q=0.8,bn;q=0.7,en-US;q=0.6","5b395ede06f9f90001fb8709","683db6dfa200031b80f2a654","6865075fbba92057c1061f25","5b395ede06f9f90001fb8709","2025-07-02T10:35:03.316Z","","","","","","ControlQ","","","","","","","","","","","","","","","","","","","","","","","","","","","","","","","","","","","","","","50",""
"4372","","<div style=""width:500px;"">
  <p>How would you describe your current emotional state?</p>
  </div>","45","html-slider-response","59","809854","0.0-10.0-3.3","149","1","2025-07-02 10:21:19","80fe4187154257d5fb01684ea91b68b9","86.15.199.15","Mozilla/5.0 (Windows NT 10.0; Win64; x64) AppleWebKit/537.36 (KHTML, like Gecko) Chrome/137.0.0.0 Safari/537.36","WebKit","Chrome","137.0.0.0","Windows","10.0","https://app.prolific.com/","en-GB,en;q=0.9,bn-BD;q=0.8,bn;q=0.7,en-US;q=0.6","5b395ede06f9f90001fb8709","683db6dfa200031b80f2a654","6865075fbba92057c1061f25","5b395ede06f9f90001fb8709","2025-07-02T10:35:07.690Z","","","","","","StressQ","","","","","","","","","","","","","","","","","","","","","","","","","","","","","","","","","","","","","","50",""
"6204","","<div style=""width:500px;"">
  <p>What best describes how you currently feel?</p>
  </div>","50","html-slider-response","60","816060","0.0-10.0-4.3","149","1","2025-07-02 10:21:19","80fe4187154257d5fb01684ea91b68b9","86.15.199.15","Mozilla/5.0 (Windows NT 10.0; Win64; x64) AppleWebKit/537.36 (KHTML, like Gecko) Chrome/137.0.0.0 Safari/537.36","WebKit","Chrome","137.0.0.0","Windows","10.0","https://app.prolific.com/","en-GB,en;q=0.9,bn-BD;q=0.8,bn;q=0.7,en-US;q=0.6","5b395ede06f9f90001fb8709","683db6dfa200031b80f2a654","6865075fbba92057c1061f25","5b395ede06f9f90001fb8709","2025-07-02T10:35:13.896Z","","","","","","MotivationQ","","","","","","","","","","","","","","","","","","","","","","","","","","","","","","","","","","","","","","50",""
"","","","","ctl-task-cpt","61","859770","0.0-10.0-0.4","149","1","2025-07-02 10:21:19","80fe4187154257d5fb01684ea91b68b9","86.15.199.15","Mozilla/5.0 (Windows NT 10.0; Win64; x64) AppleWebKit/537.36 (KHTML, like Gecko) Chrome/137.0.0.0 Safari/537.36","WebKit","Chrome","137.0.0.0","Windows","10.0","https://app.prolific.com/","en-GB,en;q=0.9,bn-BD;q=0.8,bn;q=0.7,en-US;q=0.6","5b395ede06f9f90001fb8709","683db6dfa200031b80f2a654","6865075fbba92057c1061f25","5b395ede06f9f90001fb8709","2025-07-02T10:35:57.606Z","","","","","","","","","","","","","","","","win-only","0","g1:NW,g2:SE","0.6","5","0","833979","17700.6","22701","40686.6","1","4","8","6","1","1","1","3","2","0.022727272727272728","2288.4","3000","425","[""left"",""up""]","{""num_key_presses"":6,""num_perfect"":3,""num_errors"":0,""num_randdir"":3,""num_randdir_good_moves"":2,""num_whilered"":0,""num_whileblue"":0,""num_blue"":0,""num_good_moves"":5}","[693.5397321428571,701.3366071428571,0.3,693.5397321428571,701.3366071428571,100.4,693.5397321428571,701.3366071428571,208.2,693.5397321428571,701.3366071428571,320.1,693.5397321428571,701.3366071428571,420.4,693.5397321428571,701.3366071428571,521.4,693.5397321428571,701.3366071428571,628.1,693.5397321428571,701.3366071428571,730.7,693.5397321428571,701.3366071428571,834.8,693.5397321428571,701.3366071428571,936,693.5397321428571,701.3366071428571,1060.3,693.5397321428571,701.3366071428571,1179.9,693.5397321428571,701.3366071428571,1280.2,693.5397321428571,701.3366071428571,1380.7,693.5397321428571,701.3366071428571,1488.8,679.5397321428571,689.3366071428571,1602.5,295.53973214285713,375.33660714285713,1715.8,267.53973214285713,349.33660714285713,1825.9,215.53973214285713,227.33660714285713,1933,203.53973214285713,185.33660714285713,2040.2,199.53973214285713,175.33660714285713,2140.5,199.53973214285713,175.33660714285713,2241.4,199.53973214285713,175.33660714285713,2360.6,199.53973214285713,175.33660714285713,2460.9,199.53973214285713,175.33660714285713,2566.8,199.53973214285713,175.33660714285713,2670.2,199.53973214285713,175.33660714285713,2770.4,199.53973214285713,175.33660714285713,2870.4,199.53973214285713,175.33660714285713,2973.1,365.53973214285713,409.33660714285713,3088.6,497.53973214285713,545.3366071428571,3191.8,557.5397321428571,573.3366071428571,3298.3,567.5397321428571,567.3366071428571,3399.7,691.5397321428571,499.33660714285713,3508.4,691.5397321428571,491.33660714285713,3629.5,691.5397321428571,491.33660714285713,3731.4,691.5397321428571,491.33660714285713,3835.3,691.5397321428571,491.33660714285713,3936.4,691.5397321428571,491.33660714285713,4039.1,691.5397321428571,491.33660714285713,4139.4,691.5397321428571,491.33660714285713,4240.7,691.5397321428571,491.33660714285713,4343.3,691.5397321428571,491.33660714285713,4460.9,691.5397321428571,491.33660714285713,4562.2,691.5397321428571,491.33660714285713,4665.5,691.5397321428571,491.33660714285713,4770,691.5397321428571,491.33660714285713,4870.9,691.5397321428571,491.33660714285713,4975]","[1809.9,1809.9,1000,0,810,""smooth"",""up"",""up"",""good_move"",4924.7,3114.1,2389.5,1810.6,724.6,""oops"",""up"",""down"",""bad_move"",7918.2,2993.2,2108.1,4925.1,885,""oops"",""up"",""left"",""good_move"",10880,2961.3,2320.4,7918.7,640.9,""smooth"",""up"",""up"",""good_move"",14652.3,3772,3124.7,10880.3,647.4,""oops"",""left"",""left"",""good_move"",17865.6,3213,2876.5,14652.7,336.5,""smooth"",""up"",""up"",""good_move""]","","",""
"3691","","<div style=""width:500px;"">
  <p>What determined the result of this run?</p>
  </div>","47","html-slider-response","62","863463","0.0-10.0-1.4","149","1","2025-07-02 10:21:19","80fe4187154257d5fb01684ea91b68b9","86.15.199.15","Mozilla/5.0 (Windows NT 10.0; Win64; x64) AppleWebKit/537.36 (KHTML, like Gecko) Chrome/137.0.0.0 Safari/537.36","WebKit","Chrome","137.0.0.0","Windows","10.0","https://app.prolific.com/","en-GB,en;q=0.9,bn-BD;q=0.8,bn;q=0.7,en-US;q=0.6","5b395ede06f9f90001fb8709","683db6dfa200031b80f2a654","6865075fbba92057c1061f25","5b395ede06f9f90001fb8709","2025-07-02T10:36:01.299Z","","","","","","AttribQ","","","","","","","","","","","","","","","","","","","","","","","","","","","","","","","","","","","","","","50",""
"3843","","<div style=""width:500px;"">
  <p>How much control did you have over the ball?</p>
  </div>","59","html-slider-response","63","867308","0.0-10.0-2.4","149","1","2025-07-02 10:21:19","80fe4187154257d5fb01684ea91b68b9","86.15.199.15","Mozilla/5.0 (Windows NT 10.0; Win64; x64) AppleWebKit/537.36 (KHTML, like Gecko) Chrome/137.0.0.0 Safari/537.36","WebKit","Chrome","137.0.0.0","Windows","10.0","https://app.prolific.com/","en-GB,en;q=0.9,bn-BD;q=0.8,bn;q=0.7,en-US;q=0.6","5b395ede06f9f90001fb8709","683db6dfa200031b80f2a654","6865075fbba92057c1061f25","5b395ede06f9f90001fb8709","2025-07-02T10:36:05.145Z","","","","","","ControlQ","","","","","","","","","","","","","","","","","","","","","","","","","","","","","","","","","","","","","","50",""
"4869","","<div style=""width:500px;"">
  <p>How would you describe your current emotional state?</p>
  </div>","53","html-slider-response","64","872180","0.0-10.0-3.4","149","1","2025-07-02 10:21:19","80fe4187154257d5fb01684ea91b68b9","86.15.199.15","Mozilla/5.0 (Windows NT 10.0; Win64; x64) AppleWebKit/537.36 (KHTML, like Gecko) Chrome/137.0.0.0 Safari/537.36","WebKit","Chrome","137.0.0.0","Windows","10.0","https://app.prolific.com/","en-GB,en;q=0.9,bn-BD;q=0.8,bn;q=0.7,en-US;q=0.6","5b395ede06f9f90001fb8709","683db6dfa200031b80f2a654","6865075fbba92057c1061f25","5b395ede06f9f90001fb8709","2025-07-02T10:36:10.016Z","","","","","","StressQ","","","","","","","","","","","","","","","","","","","","","","","","","","","","","","","","","","","","","","50",""
"3680","","<div style=""width:500px;"">
  <p>What best describes how you currently feel?</p>
  </div>","41","html-slider-response","65","875863","0.0-10.0-4.4","149","1","2025-07-02 10:21:19","80fe4187154257d5fb01684ea91b68b9","86.15.199.15","Mozilla/5.0 (Windows NT 10.0; Win64; x64) AppleWebKit/537.36 (KHTML, like Gecko) Chrome/137.0.0.0 Safari/537.36","WebKit","Chrome","137.0.0.0","Windows","10.0","https://app.prolific.com/","en-GB,en;q=0.9,bn-BD;q=0.8,bn;q=0.7,en-US;q=0.6","5b395ede06f9f90001fb8709","683db6dfa200031b80f2a654","6865075fbba92057c1061f25","5b395ede06f9f90001fb8709","2025-07-02T10:36:13.699Z","","","","","","MotivationQ","","","","","","","","","","","","","","","","","","","","","","","","","","","","","","","","","","","","","","50",""
"","","","","ctl-task-cpt","66","911671","0.0-10.0-0.5","149","1","2025-07-02 10:21:19","80fe4187154257d5fb01684ea91b68b9","86.15.199.15","Mozilla/5.0 (Windows NT 10.0; Win64; x64) AppleWebKit/537.36 (KHTML, like Gecko) Chrome/137.0.0.0 Safari/537.36","WebKit","Chrome","137.0.0.0","Windows","10.0","https://app.prolific.com/","en-GB,en;q=0.9,bn-BD;q=0.8,bn;q=0.7,en-US;q=0.6","5b395ede06f9f90001fb8709","683db6dfa200031b80f2a654","6865075fbba92057c1061f25","5b395ede06f9f90001fb8709","2025-07-02T10:36:49.507Z","","","","","","","","","","","","","","","","win-only","1","g1:NE,g2:SW","0.5","6","0","893783.1","2558.9","7562.2","32787.2","1","4","4","6","1","-1","-1","2","3","0.015151515151515152","2443.9","3000","-1860","[""up"",""right""]","{""num_key_presses"":8,""num_perfect"":4,""num_errors"":0,""num_randdir"":4,""num_randdir_good_moves"":1,""num_whilered"":0,""num_whileblue"":0,""num_blue"":0,""num_good_moves"":5}","[707.5397321428571,693.3366071428571,0.1,707.5397321428571,693.3366071428571,105.4,707.5397321428571,693.3366071428571,205.5,707.5397321428571,693.3366071428571,309.5,707.5397321428571,693.3366071428571,416.4,707.5397321428571,693.3366071428571,517.5,707.5397321428571,693.3366071428571,622.7,707.5397321428571,693.3366071428571,739.8,707.5397321428571,693.3366071428571,839.8,707.5397321428571,693.3366071428571,941.6,707.5397321428571,693.3366071428571,1055.3,707.5397321428571,693.3366071428571,1156.5,707.5397321428571,693.3366071428571,1258.7,707.5397321428571,693.3366071428571,1373.4,707.5397321428571,693.3366071428571,1474.6,707.5397321428571,693.3366071428571,1583.2,707.5397321428571,693.3366071428571,1688.3,711.5397321428571,661.3366071428571,1792.6,1083.5397321428572,79.33660714285713,1907.1,1145.5397321428572,69.33660714285713,2009.4,1257.5397321428572,61.33660714285713,2110.3,1335.5397321428572,181.33660714285713,2216.3,1343.5397321428572,189.33660714285713,2317.6,1343.5397321428572,189.33660714285713,2417.8,1343.5397321428572,189.33660714285713,2522.3,1343.5397321428572,189.33660714285713,2625.3,1343.5397321428572,189.33660714285713,2728.5,1343.5397321428572,189.33660714285713,2828.7,1343.5397321428572,189.33660714285713,2942.8,1343.5397321428572,189.33660714285713,3048,1343.5397321428572,189.33660714285713,3165.3,1343.5397321428572,189.33660714285713,3269.5,1343.5397321428572,189.33660714285713,3373.1,1343.5397321428572,189.33660714285713,3473.2,1343.5397321428572,189.33660714285713,3592.6,1343.5397321428572,189.33660714285713,3697.5,1343.5397321428572,189.33660714285713,3810.3,1343.5397321428572,189.33660714285713,3914.8,1343.5397321428572,189.33660714285713,4019,1343.5397321428572,189.33660714285713,4131.1,1343.5397321428572,189.33660714285713,4231.9,1343.5397321428572,189.33660714285713,4341.5,1343.5397321428572,189.33660714285713,4443.7,1343.5397321428572,189.33660714285713,4564.7,1343.5397321428572,189.33660714285713,4677.9,1343.5397321428572,189.33660714285713,4779.9,1343.5397321428572,189.33660714285713,4884.8,1343.5397321428572,189.33660714285713,4986.9]","[1724.4,1724.4,1000,0,724.4,""smooth"",""right"",""right"",""good_move"",4543.6,2818.9,2078.9,1724.7,740,""oops"",""up"",""down"",""bad_move"",7383.6,2839.6,2188.5,4544,651.1,""oops"",""right"",""left"",""bad_move"",10614.8,3230.7,2647.2,7384.2,583.5,""smooth"",""up"",""up"",""good_move"",13496.9,2881.5,2365.8,10615.4,515.7,""oops"",""up"",""down"",""bad_move"",16521.3,3024,2471.8,13497.4,552.1,""smooth"",""up"",""up"",""good_move"",19904,3382.4,2834,16521.6,548.4,""oops"",""up"",""right"",""good_move"",22888,2983.9,2650,19904.2,333.8,""smooth"",""up"",""up"",""good_move""]","","",""
"4972","","<div style=""width:500px;"">
  <p>What determined the result of this run?</p>
  </div>","12","html-slider-response","67","916645","0.0-10.0-1.5","149","1","2025-07-02 10:21:19","80fe4187154257d5fb01684ea91b68b9","86.15.199.15","Mozilla/5.0 (Windows NT 10.0; Win64; x64) AppleWebKit/537.36 (KHTML, like Gecko) Chrome/137.0.0.0 Safari/537.36","WebKit","Chrome","137.0.0.0","Windows","10.0","https://app.prolific.com/","en-GB,en;q=0.9,bn-BD;q=0.8,bn;q=0.7,en-US;q=0.6","5b395ede06f9f90001fb8709","683db6dfa200031b80f2a654","6865075fbba92057c1061f25","5b395ede06f9f90001fb8709","2025-07-02T10:36:54.481Z","","","","","","AttribQ","","","","","","","","","","","","","","","","","","","","","","","","","","","","","","","","","","","","","","50",""
"3497","","<div style=""width:500px;"">
  <p>How much control did you have over the ball?</p>
  </div>","20","html-slider-response","68","920145","0.0-10.0-2.5","149","1","2025-07-02 10:21:19","80fe4187154257d5fb01684ea91b68b9","86.15.199.15","Mozilla/5.0 (Windows NT 10.0; Win64; x64) AppleWebKit/537.36 (KHTML, like Gecko) Chrome/137.0.0.0 Safari/537.36","WebKit","Chrome","137.0.0.0","Windows","10.0","https://app.prolific.com/","en-GB,en;q=0.9,bn-BD;q=0.8,bn;q=0.7,en-US;q=0.6","5b395ede06f9f90001fb8709","683db6dfa200031b80f2a654","6865075fbba92057c1061f25","5b395ede06f9f90001fb8709","2025-07-02T10:36:57.981Z","","","","","","ControlQ","","","","","","","","","","","","","","","","","","","","","","","","","","","","","","","","","","","","","","50",""
"3165","","<div style=""width:500px;"">
  <p>How would you describe your current emotional state?</p>
  </div>","59","html-slider-response","69","923312","0.0-10.0-3.5","149","1","2025-07-02 10:21:19","80fe4187154257d5fb01684ea91b68b9","86.15.199.15","Mozilla/5.0 (Windows NT 10.0; Win64; x64) AppleWebKit/537.36 (KHTML, like Gecko) Chrome/137.0.0.0 Safari/537.36","WebKit","Chrome","137.0.0.0","Windows","10.0","https://app.prolific.com/","en-GB,en;q=0.9,bn-BD;q=0.8,bn;q=0.7,en-US;q=0.6","5b395ede06f9f90001fb8709","683db6dfa200031b80f2a654","6865075fbba92057c1061f25","5b395ede06f9f90001fb8709","2025-07-02T10:37:01.149Z","","","","","","StressQ","","","","","","","","","","","","","","","","","","","","","","","","","","","","","","","","","","","","","","50",""
"3515","","<div style=""width:500px;"">
  <p>What best describes how you currently feel?</p>
  </div>","11","html-slider-response","70","926830","0.0-10.0-4.5","149","1","2025-07-02 10:21:19","80fe4187154257d5fb01684ea91b68b9","86.15.199.15","Mozilla/5.0 (Windows NT 10.0; Win64; x64) AppleWebKit/537.36 (KHTML, like Gecko) Chrome/137.0.0.0 Safari/537.36","WebKit","Chrome","137.0.0.0","Windows","10.0","https://app.prolific.com/","en-GB,en;q=0.9,bn-BD;q=0.8,bn;q=0.7,en-US;q=0.6","5b395ede06f9f90001fb8709","683db6dfa200031b80f2a654","6865075fbba92057c1061f25","5b395ede06f9f90001fb8709","2025-07-02T10:37:04.666Z","","","","","","MotivationQ","","","","","","","","","","","","","","","","","","","","","","","","","","","","","","","","","","","","","","50",""
"","","","","ctl-task-cpt","71","969105","0.0-10.0-0.6","149","1","2025-07-02 10:21:19","80fe4187154257d5fb01684ea91b68b9","86.15.199.15","Mozilla/5.0 (Windows NT 10.0; Win64; x64) AppleWebKit/537.36 (KHTML, like Gecko) Chrome/137.0.0.0 Safari/537.36","WebKit","Chrome","137.0.0.0","Windows","10.0","https://app.prolific.com/","en-GB,en;q=0.9,bn-BD;q=0.8,bn;q=0.7,en-US;q=0.6","5b395ede06f9f90001fb8709","683db6dfa200031b80f2a654","6865075fbba92057c1061f25","5b395ede06f9f90001fb8709","2025-07-02T10:37:46.941Z","","","","","","","","","","","","","","","","win-only","0","g1:NW,g2:SE","0.4","7","0","944750.4","2015.8","7024.4","39257.5","1","4","8","6","1","-1","-2","0","2","0","2078.1","3000","-1875","[""left"",""up""]","{""num_key_presses"":10,""num_perfect"":4,""num_errors"":1,""num_randdir"":5,""num_randdir_good_moves"":0,""num_whilered"":0,""num_whileblue"":1,""num_blue"":1,""num_good_moves"":4}","[703.5397321428571,715.3366071428571,0.3,703.5397321428571,715.3366071428571,119.4,703.5397321428571,715.3366071428571,222.2,703.5397321428571,715.3366071428571,323.5,703.5397321428571,715.3366071428571,440.1,703.5397321428571,715.3366071428571,540.7,703.5397321428571,715.3366071428571,659.2,703.5397321428571,715.3366071428571,762.7,703.5397321428571,715.3366071428571,863.8,703.5397321428571,715.3366071428571,968.5,703.5397321428571,715.3366071428571,1073.5,703.5397321428571,715.3366071428571,1177.8,703.5397321428571,715.3366071428571,1288.1,717.5397321428571,773.3366071428571,1388.8,449.53973214285713,497.33660714285713,1492.5,287.53973214285713,205.33660714285713,1595.7,287.53973214285713,205.33660714285713,1706.4,287.53973214285713,205.33660714285713,1806.9,189.53973214285713,171.33660714285713,1912.1,177.53973214285713,165.33660714285713,2016.2,177.53973214285713,165.33660714285713,2122.9,177.53973214285713,165.33660714285713,2224.2,177.53973214285713,165.33660714285713,2336.5,177.53973214285713,165.33660714285713,2436.8,177.53973214285713,165.33660714285713,2542.1,177.53973214285713,165.33660714285713,2643.4,177.53973214285713,165.33660714285713,2749.8,177.53973214285713,165.33660714285713,2850.4,177.53973214285713,165.33660714285713,2951.6,177.53973214285713,165.33660714285713,3057,177.53973214285713,165.33660714285713,3174.7,177.53973214285713,165.33660714285713,3291.8,177.53973214285713,165.33660714285713,3394.4,177.53973214285713,165.33660714285713,3503.6,-122.46026785714287,185.33660714285713,3608.9,-174.46026785714287,175.33660714285713,3709,-174.46026785714287,175.33660714285713,3823.8,-174.46026785714287,175.33660714285713,3924.3,-174.46026785714287,175.33660714285713,4026.3,-174.46026785714287,175.33660714285713,4126.8,-174.46026785714287,175.33660714285713,4228.6,-174.46026785714287,175.33660714285713,4339.4,-174.46026785714287,175.33660714285713,4441.9,-174.46026785714287,175.33660714285713,4558.4,-174.46026785714287,175.33660714285713,4663.5,-174.46026785714287,175.33660714285713,4767.5,-174.46026785714287,175.33660714285713,4868.3,-174.46026785714287,175.33660714285713,4972.4]","[2016,2016,1000,0,1016,""oops"",""up"",""down"",""bad_move"",4532.2,2515.2,1908.6,2017,606.6,""smooth"",""up"",""up"",""good_move"",6888.5,2355.6,1461.9,4532.9,893.7,""smooth"",""up"",""up"",""good_move"",9742.8,2853.9,2329.8,6888.9,524.1,""oops"",""up"",""down"",""bad_move"",12846.2,3103.4,2554.8,9742.9,548.6,""smooth"",""up"",""up"",""good_move"",16273.4,3426.7,2911,12846.7,515.7,""oops"",""left"",""down"",""bad_move"",19373.5,3099.8,2546,16273.8,553.7,""smooth"",""left"",""left"",""good_move"",22111.8,2737.9,2184.6,19373.9,553.3,""oops"",""left"",""down"",""bad_move"",25870.5,3758.3,3300.4,22112.3,457.9,""while_blue"",""left"",""down"",""bad_move"",29254.2,3383.3,2801.3,25870.9,582,""oops"",""left"",""down"",""bad_move""]","","",""
"2589","","<div style=""width:500px;"">
  <p>What determined the result of this run?</p>
  </div>","2","html-slider-response","72","971696","0.0-10.0-1.6","149","1","2025-07-02 10:21:19","80fe4187154257d5fb01684ea91b68b9","86.15.199.15","Mozilla/5.0 (Windows NT 10.0; Win64; x64) AppleWebKit/537.36 (KHTML, like Gecko) Chrome/137.0.0.0 Safari/537.36","WebKit","Chrome","137.0.0.0","Windows","10.0","https://app.prolific.com/","en-GB,en;q=0.9,bn-BD;q=0.8,bn;q=0.7,en-US;q=0.6","5b395ede06f9f90001fb8709","683db6dfa200031b80f2a654","6865075fbba92057c1061f25","5b395ede06f9f90001fb8709","2025-07-02T10:37:49.532Z","","","","","","AttribQ","","","","","","","","","","","","","","","","","","","","","","","","","","","","","","","","","","","","","","50",""
"1891","","<div style=""width:500px;"">
  <p>How much control did you have over the ball?</p>
  </div>","4","html-slider-response","73","973589","0.0-10.0-2.6","149","1","2025-07-02 10:21:19","80fe4187154257d5fb01684ea91b68b9","86.15.199.15","Mozilla/5.0 (Windows NT 10.0; Win64; x64) AppleWebKit/537.36 (KHTML, like Gecko) Chrome/137.0.0.0 Safari/537.36","WebKit","Chrome","137.0.0.0","Windows","10.0","https://app.prolific.com/","en-GB,en;q=0.9,bn-BD;q=0.8,bn;q=0.7,en-US;q=0.6","5b395ede06f9f90001fb8709","683db6dfa200031b80f2a654","6865075fbba92057c1061f25","5b395ede06f9f90001fb8709","2025-07-02T10:37:51.425Z","","","","","","ControlQ","","","","","","","","","","","","","","","","","","","","","","","","","","","","","","","","","","","","","","50",""
"2547","","<div style=""width:500px;"">
  <p>How would you describe your current emotional state?</p>
  </div>","84","html-slider-response","74","976139","0.0-10.0-3.6","149","1","2025-07-02 10:21:19","80fe4187154257d5fb01684ea91b68b9","86.15.199.15","Mozilla/5.0 (Windows NT 10.0; Win64; x64) AppleWebKit/537.36 (KHTML, like Gecko) Chrome/137.0.0.0 Safari/537.36","WebKit","Chrome","137.0.0.0","Windows","10.0","https://app.prolific.com/","en-GB,en;q=0.9,bn-BD;q=0.8,bn;q=0.7,en-US;q=0.6","5b395ede06f9f90001fb8709","683db6dfa200031b80f2a654","6865075fbba92057c1061f25","5b395ede06f9f90001fb8709","2025-07-02T10:37:53.975Z","","","","","","StressQ","","","","","","","","","","","","","","","","","","","","","","","","","","","","","","","","","","","","","","50",""
"1107","","<div style=""width:500px;"">
  <p>What best describes how you currently feel?</p>
  </div>","21","html-slider-response","75","977248","0.0-10.0-4.6","149","1","2025-07-02 10:21:19","80fe4187154257d5fb01684ea91b68b9","86.15.199.15","Mozilla/5.0 (Windows NT 10.0; Win64; x64) AppleWebKit/537.36 (KHTML, like Gecko) Chrome/137.0.0.0 Safari/537.36","WebKit","Chrome","137.0.0.0","Windows","10.0","https://app.prolific.com/","en-GB,en;q=0.9,bn-BD;q=0.8,bn;q=0.7,en-US;q=0.6","5b395ede06f9f90001fb8709","683db6dfa200031b80f2a654","6865075fbba92057c1061f25","5b395ede06f9f90001fb8709","2025-07-02T10:37:55.084Z","","","","","","MotivationQ","","","","","","","","","","","","","","","","","","","","","","","","","","","","","","","","","","","","","","50",""
"","","","","ctl-task-cpt","76","1032598","0.0-10.0-0.7","149","1","2025-07-02 10:21:19","80fe4187154257d5fb01684ea91b68b9","86.15.199.15","Mozilla/5.0 (Windows NT 10.0; Win64; x64) AppleWebKit/537.36 (KHTML, like Gecko) Chrome/137.0.0.0 Safari/537.36","WebKit","Chrome","137.0.0.0","Windows","10.0","https://app.prolific.com/","en-GB,en;q=0.9,bn-BD;q=0.8,bn;q=0.7,en-US;q=0.6","5b395ede06f9f90001fb8709","683db6dfa200031b80f2a654","6865075fbba92057c1061f25","5b395ede06f9f90001fb8709","2025-07-02T10:38:50.434Z","","","","","","","","","","","","","","","","win-only","0","g1:NW,g2:SE","0.3","8","0","995168.1","2651.7","7655.3","52325.2","1","4","4","6","1","-1","-1","0","0","0","1768.3","3000","-1825","[""left"",""up""]","{""num_key_presses"":10,""num_perfect"":3,""num_errors"":0,""num_randdir"":7,""num_randdir_good_moves"":2,""num_whilered"":0,""num_whileblue"":0,""num_blue"":3,""num_good_moves"":5}","[705.5397321428571,703.3366071428571,0.2,705.5397321428571,703.3366071428571,108.4,705.5397321428571,703.3366071428571,215.2,705.5397321428571,703.3366071428571,325.7,705.5397321428571,703.3366071428571,430.2,705.5397321428571,703.3366071428571,534.5,705.5397321428571,703.3366071428571,636.1,705.5397321428571,703.3366071428571,737.9,705.5397321428571,703.3366071428571,838.8,705.5397321428571,703.3366071428571,941.1,705.5397321428571,703.3366071428571,1057.8,705.5397321428571,703.3366071428571,1163.9,507.53973214285713,333.33660714285713,1267.1,331.53973214285713,189.33660714285713,1370.9,247.53973214285713,153.33660714285713,1471.9,197.53973214285713,145.33660714285713,1575.7,181.53973214285713,145.33660714285713,1686.4,181.53973214285713,145.33660714285713,1791.8,181.53973214285713,145.33660714285713,1900.6,181.53973214285713,145.33660714285713,2005.8,181.53973214285713,145.33660714285713,2110.5,181.53973214285713,145.33660714285713,2216.7,181.53973214285713,145.33660714285713,2321,181.53973214285713,145.33660714285713,2427.4,181.53973214285713,145.33660714285713,2527.8,181.53973214285713,145.33660714285713,2639.1,181.53973214285713,145.33660714285713,2742.4,181.53973214285713,145.33660714285713,2843.6,181.53973214285713,145.33660714285713,2948.5,181.53973214285713,145.33660714285713,3050.6,181.53973214285713,145.33660714285713,3154.3,181.53973214285713,145.33660714285713,3263.2,181.53973214285713,145.33660714285713,3367.2,181.53973214285713,145.33660714285713,3472.9,181.53973214285713,145.33660714285713,3579.5,181.53973214285713,145.33660714285713,3683.8,181.53973214285713,145.33660714285713,3785.9,181.53973214285713,145.33660714285713,3891,181.53973214285713,145.33660714285713,4011,181.53973214285713,145.33660714285713,4118.6,181.53973214285713,145.33660714285713,4221.5,181.53973214285713,145.33660714285713,4324.8,181.53973214285713,145.33660714285713,4434.9,181.53973214285713,145.33660714285713,4539,181.53973214285713,145.33660714285713,4642.1,181.53973214285713,145.33660714285713,4764.6,181.53973214285713,145.33660714285713,4868.4,181.53973214285713,145.33660714285713,4978.8]","[1642.9,1643,1000,0,643,""oops"",""up"",""right"",""bad_move"",4707.7,3064,2538.7,1643.7,525.3,""oops"",""up"",""right"",""bad_move"",7361.8,2653.9,2144.6,4707.9,509.3,""oops"",""up"",""down"",""bad_move"",10795,3432.6,2797.2,7362.4,635.4,""smooth"",""up"",""up"",""good_move"",18503.5,7707.9,3439,14640,424.5,""smooth"",""left"",""left"",""good_move"",20951.2,2447.2,1769,18504.1,678.1,""oops"",""left"",""up"",""good_move"",23721.8,2770.1,2399.8,20951.7,370.3,""oops"",""left"",""up"",""good_move"",30945.1,7223.1,2695.5,27685.7,564,""smooth"",""left"",""left"",""good_move"",34270.4,3324.9,2988.9,30945.5,336,""oops"",""left"",""right"",""bad_move"",41915.8,7644.8,3052.8,37651.6,1211.4,""oops"",""left"",""down"",""bad_move""]","","",""
"5957","","<div style=""width:500px;"">
  <p>What determined the result of this run?</p>
  </div>","7","html-slider-response","77","1038558","0.0-10.0-1.7","149","1","2025-07-02 10:21:19","80fe4187154257d5fb01684ea91b68b9","86.15.199.15","Mozilla/5.0 (Windows NT 10.0; Win64; x64) AppleWebKit/537.36 (KHTML, like Gecko) Chrome/137.0.0.0 Safari/537.36","WebKit","Chrome","137.0.0.0","Windows","10.0","https://app.prolific.com/","en-GB,en;q=0.9,bn-BD;q=0.8,bn;q=0.7,en-US;q=0.6","5b395ede06f9f90001fb8709","683db6dfa200031b80f2a654","6865075fbba92057c1061f25","5b395ede06f9f90001fb8709","2025-07-02T10:38:56.394Z","","","","","","AttribQ","","","","","","","","","","","","","","","","","","","","","","","","","","","","","","","","","","","","","","50",""
"4033","","<div style=""width:500px;"">
  <p>How much control did you have over the ball?</p>
  </div>","9","html-slider-response","78","1042594","0.0-10.0-2.7","149","1","2025-07-02 10:21:19","80fe4187154257d5fb01684ea91b68b9","86.15.199.15","Mozilla/5.0 (Windows NT 10.0; Win64; x64) AppleWebKit/537.36 (KHTML, like Gecko) Chrome/137.0.0.0 Safari/537.36","WebKit","Chrome","137.0.0.0","Windows","10.0","https://app.prolific.com/","en-GB,en;q=0.9,bn-BD;q=0.8,bn;q=0.7,en-US;q=0.6","5b395ede06f9f90001fb8709","683db6dfa200031b80f2a654","6865075fbba92057c1061f25","5b395ede06f9f90001fb8709","2025-07-02T10:39:00.430Z","","","","","","ControlQ","","","","","","","","","","","","","","","","","","","","","","","","","","","","","","","","","","","","","","50",""
"3364","","<div style=""width:500px;"">
  <p>How would you describe your current emotional state?</p>
  </div>","84","html-slider-response","79","1045960","0.0-10.0-3.7","149","1","2025-07-02 10:21:19","80fe4187154257d5fb01684ea91b68b9","86.15.199.15","Mozilla/5.0 (Windows NT 10.0; Win64; x64) AppleWebKit/537.36 (KHTML, like Gecko) Chrome/137.0.0.0 Safari/537.36","WebKit","Chrome","137.0.0.0","Windows","10.0","https://app.prolific.com/","en-GB,en;q=0.9,bn-BD;q=0.8,bn;q=0.7,en-US;q=0.6","5b395ede06f9f90001fb8709","683db6dfa200031b80f2a654","6865075fbba92057c1061f25","5b395ede06f9f90001fb8709","2025-07-02T10:39:03.796Z","","","","","","StressQ","","","","","","","","","","","","","","","","","","","","","","","","","","","","","","","","","","","","","","50",""
"6319","","<div style=""width:500px;"">
  <p>What best describes how you currently feel?</p>
  </div>","8","html-slider-response","80","1052282","0.0-10.0-4.7","149","1","2025-07-02 10:21:19","80fe4187154257d5fb01684ea91b68b9","86.15.199.15","Mozilla/5.0 (Windows NT 10.0; Win64; x64) AppleWebKit/537.36 (KHTML, like Gecko) Chrome/137.0.0.0 Safari/537.36","WebKit","Chrome","137.0.0.0","Windows","10.0","https://app.prolific.com/","en-GB,en;q=0.9,bn-BD;q=0.8,bn;q=0.7,en-US;q=0.6","5b395ede06f9f90001fb8709","683db6dfa200031b80f2a654","6865075fbba92057c1061f25","5b395ede06f9f90001fb8709","2025-07-02T10:39:10.118Z","","","","","","MotivationQ","","","","","","","","","","","","","","","","","","","","","","","","","","","","","","","","","","","","","","50",""
"","","","","ctl-task-cpt","81","1077375","0.0-10.0-0.8","149","1","2025-07-02 10:21:19","80fe4187154257d5fb01684ea91b68b9","86.15.199.15","Mozilla/5.0 (Windows NT 10.0; Win64; x64) AppleWebKit/537.36 (KHTML, like Gecko) Chrome/137.0.0.0 Safari/537.36","WebKit","Chrome","137.0.0.0","Windows","10.0","https://app.prolific.com/","en-GB,en;q=0.9,bn-BD;q=0.8,bn;q=0.7,en-US;q=0.6","5b395ede06f9f90001fb8709","683db6dfa200031b80f2a654","6865075fbba92057c1061f25","5b395ede06f9f90001fb8709","2025-07-02T10:39:35.211Z","","","","","","","","","","","","","","","","win-only","0","g1:NW,g2:SE","0.4","9","0","1070201.1","2501","7502.7","22042.3","1","4","4","6","1","1","1","1","0","0.007575757575757576","2946.8","3000","2000","[""left"",""up""]","{""num_key_presses"":4,""num_perfect"":2,""num_errors"":0,""num_randdir"":2,""num_randdir_good_moves"":2,""num_whilered"":0,""num_whileblue"":0,""num_blue"":1,""num_good_moves"":4}","[705.5397321428571,695.3366071428571,0.4,705.5397321428571,695.3366071428571,112,705.5397321428571,695.3366071428571,216.9,705.5397321428571,695.3366071428571,317.8,705.5397321428571,695.3366071428571,428,705.5397321428571,695.3366071428571,529.3,705.5397321428571,695.3366071428571,638.1,705.5397321428571,695.3366071428571,745.5,705.5397321428571,695.3366071428571,852.2,705.5397321428571,695.3366071428571,952.2,679.5397321428571,655.3366071428571,1061.3,227.53973214285713,-48.66339285714287,1169.1,97.53973214285713,-142.66339285714287,1276.4,73.53973214285713,-144.66339285714287,1379.5,65.53973214285713,11.336607142857133,1484.2,107.53973214285713,89.33660714285713,1585.8,107.53973214285713,89.33660714285713,1698.6,107.53973214285713,89.33660714285713,1802.4,107.53973214285713,89.33660714285713,1907.9,107.53973214285713,89.33660714285713,2008.9,107.53973214285713,89.33660714285713,2114.2,133.53973214285713,107.33660714285713,2226.5,293.53973214285713,177.33660714285713,2338.3,331.53973214285713,219.33660714285713,2444.1,271.53973214285713,189.33660714285713,2548,145.53973214285713,99.33660714285713,2651.4,135.53973214285713,85.33660714285713,2758.8,135.53973214285713,85.33660714285713,2869.2,135.53973214285713,85.33660714285713,2970,135.53973214285713,85.33660714285713,3077.9,135.53973214285713,85.33660714285713,3179.4,135.53973214285713,85.33660714285713,3285.3,135.53973214285713,85.33660714285713,3392,135.53973214285713,85.33660714285713,3496.8,135.53973214285713,85.33660714285713,3600.3,135.53973214285713,85.33660714285713,3702.3,135.53973214285713,85.33660714285713,3802.8,135.53973214285713,85.33660714285713,3906.2,135.53973214285713,85.33660714285713,4012,135.53973214285713,85.33660714285713,4116.4,135.53973214285713,85.33660714285713,4221.8,135.53973214285713,85.33660714285713,4329.8,135.53973214285713,85.33660714285713,4438.8,135.53973214285713,85.33660714285713,4546,135.53973214285713,85.33660714285713,4653.5,135.53973214285713,85.33660714285713,4753.6,135.53973214285713,85.33660714285713,4859.5,135.53973214285713,85.33660714285713,4968.5]","[1607.7,1607.7,1000,0,607.7,""oops"",""left"",""left"",""good_move"",4588.5,2980.6,2594.2,1608,386.3,""smooth"",""left"",""left"",""good_move"",8006.5,3417.9,2814.8,4588.6,603.1,""oops"",""up"",""up"",""good_move"",14379,6371.9,2273.5,11509.6,595.9,""smooth"",""up"",""up"",""good_move""]","","",""
"2578","","<div style=""width:500px;"">
  <p>What determined the result of this run?</p>
  </div>","77","html-slider-response","82","1079955","0.0-10.0-1.8","149","1","2025-07-02 10:21:19","80fe4187154257d5fb01684ea91b68b9","86.15.199.15","Mozilla/5.0 (Windows NT 10.0; Win64; x64) AppleWebKit/537.36 (KHTML, like Gecko) Chrome/137.0.0.0 Safari/537.36","WebKit","Chrome","137.0.0.0","Windows","10.0","https://app.prolific.com/","en-GB,en;q=0.9,bn-BD;q=0.8,bn;q=0.7,en-US;q=0.6","5b395ede06f9f90001fb8709","683db6dfa200031b80f2a654","6865075fbba92057c1061f25","5b395ede06f9f90001fb8709","2025-07-02T10:39:37.791Z","","","","","","AttribQ","","","","","","","","","","","","","","","","","","","","","","","","","","","","","","","","","","","","","","50",""
"2070","","<div style=""width:500px;"">
  <p>How much control did you have over the ball?</p>
  </div>","96","html-slider-response","83","1082027","0.0-10.0-2.8","149","1","2025-07-02 10:21:19","80fe4187154257d5fb01684ea91b68b9","86.15.199.15","Mozilla/5.0 (Windows NT 10.0; Win64; x64) AppleWebKit/537.36 (KHTML, like Gecko) Chrome/137.0.0.0 Safari/537.36","WebKit","Chrome","137.0.0.0","Windows","10.0","https://app.prolific.com/","en-GB,en;q=0.9,bn-BD;q=0.8,bn;q=0.7,en-US;q=0.6","5b395ede06f9f90001fb8709","683db6dfa200031b80f2a654","6865075fbba92057c1061f25","5b395ede06f9f90001fb8709","2025-07-02T10:39:39.864Z","","","","","","ControlQ","","","","","","","","","","","","","","","","","","","","","","","","","","","","","","","","","","","","","","50",""
"2037","","<div style=""width:500px;"">
  <p>How would you describe your current emotional state?</p>
  </div>","45","html-slider-response","84","1084068","0.0-10.0-3.8","149","1","2025-07-02 10:21:19","80fe4187154257d5fb01684ea91b68b9","86.15.199.15","Mozilla/5.0 (Windows NT 10.0; Win64; x64) AppleWebKit/537.36 (KHTML, like Gecko) Chrome/137.0.0.0 Safari/537.36","WebKit","Chrome","137.0.0.0","Windows","10.0","https://app.prolific.com/","en-GB,en;q=0.9,bn-BD;q=0.8,bn;q=0.7,en-US;q=0.6","5b395ede06f9f90001fb8709","683db6dfa200031b80f2a654","6865075fbba92057c1061f25","5b395ede06f9f90001fb8709","2025-07-02T10:39:41.904Z","","","","","","StressQ","","","","","","","","","","","","","","","","","","","","","","","","","","","","","","","","","","","","","","50",""
"2060","","<div style=""width:500px;"">
  <p>What best describes how you currently feel?</p>
  </div>","48","html-slider-response","85","1086129","0.0-10.0-4.8","149","1","2025-07-02 10:21:19","80fe4187154257d5fb01684ea91b68b9","86.15.199.15","Mozilla/5.0 (Windows NT 10.0; Win64; x64) AppleWebKit/537.36 (KHTML, like Gecko) Chrome/137.0.0.0 Safari/537.36","WebKit","Chrome","137.0.0.0","Windows","10.0","https://app.prolific.com/","en-GB,en;q=0.9,bn-BD;q=0.8,bn;q=0.7,en-US;q=0.6","5b395ede06f9f90001fb8709","683db6dfa200031b80f2a654","6865075fbba92057c1061f25","5b395ede06f9f90001fb8709","2025-07-02T10:39:43.965Z","","","","","","MotivationQ","","","","","","","","","","","","","","","","","","","","","","","","","","","","","","","","","","","","","","50",""
