"rt","response_timestamp","stimulus","response","trial_type","trial_index","time_elapsed","internal_node_id","run_id","condition","recorded_at","source_code_version","ip","user_agent","device","browser","browser_version","platform","platform_version","referer","accept_language","PROLIFIC_PID","STUDY_ID","SESSION_ID","prolific_id","realtime","view_history","question_order","consent","success","question_id","eventType","responses","item_order","radio_event_ids","radio_event_times","key_event_times","mouse_event_times","straightlining","zigzagging","honeypot","which_type","canvas_config","goals_layout","control_level","trial_number","tutorial_trial_number","trial_start_time","phase1_start_time","phase2_start_time","phase3_start_time","goal_1_value","goal_1_distance","goal_2_value","goal_2_distance","goal_selected","outcome","outcome_total","participant_final_score","participant_initial_score","participant_final_score_prop","goal_choice_rt","allocated_time","allocated_time_remaining","goal_direction","counts","mouse_movements","key_presses","correct","slider_start"
"15474","1751451745043","<p style='font-size:40px;line-height:1.25'><strong>Welcome to the experiment!</strong></p><p style='font-size:1.1em;line-height:1.25'>Thank you for your interest in our experiment! Before you begin, it is important that we obtain your informed consent to participate in the study.</p><p style='font-size:1.1em;line-height:1.25'>On the next screen will be an <strong>information sheet</strong> for you to read. To participate in the study we need you to read this information sheet and the following consent form carefully. If you agree with all the statements, please click the <strong>I agree</strong> button.</p><p style='font-size:1.1em;line-height:1.25'>Press <strong>Next</strong> to read the information sheet.</p>","0","custom-html-button-response","0","15475","0.0-0.0","130","1","2025-07-02 10:20:19","80fe4187154257d5fb01684ea91b68b9","82.131.14.68","Mozilla/5.0 (Windows NT 10.0; Win64; x64) AppleWebKit/537.36 (KHTML, like Gecko) Chrome/134.0.0.0 Safari/537.36 OPR/119.0.0.0","WebKit","Opera","119.0.0.0","Windows","10.0","https://app.prolific.com/","en-US,en;q=0.9","5b5393228fb8db0001a81c7e","683db6dfa200031b80f2a654","686507729b3cf6295ba98d05","5b5393228fb8db0001a81c7e","2025-07-02T10:22:25.044Z","","","","","","","","","","","","","","","","","","","","","","","","","","","","","","","","","","","","","","","","","","","",""
"2994","","","","instructions","1","18470","0.0-1.0","130","1","2025-07-02 10:20:19","80fe4187154257d5fb01684ea91b68b9","82.131.14.68","Mozilla/5.0 (Windows NT 10.0; Win64; x64) AppleWebKit/537.36 (KHTML, like Gecko) Chrome/134.0.0.0 Safari/537.36 OPR/119.0.0.0","WebKit","Opera","119.0.0.0","Windows","10.0","https://app.prolific.com/","en-US,en;q=0.9","5b5393228fb8db0001a81c7e","683db6dfa200031b80f2a654","686507729b3cf6295ba98d05","5b5393228fb8db0001a81c7e","","[{""page_index"":0,""viewing_time"":2045},{""page_index"":1,""viewing_time"":949}]","","","","","","","","","","","","","","","","","","","","","","","","","","","","","","","","","","","","","","","","","","",""
"2754","","","{""Q0"":"""",""Q1"":"""",""Q2"":"""",""Q3"":"""",""Q4"":"""",""Q5"":"""",""Q6"":""I agree""}","survey-multi-choice","2","21226","0.0-2.0","130","1","2025-07-02 10:20:19","80fe4187154257d5fb01684ea91b68b9","82.131.14.68","Mozilla/5.0 (Windows NT 10.0; Win64; x64) AppleWebKit/537.36 (KHTML, like Gecko) Chrome/134.0.0.0 Safari/537.36 OPR/119.0.0.0","WebKit","Opera","119.0.0.0","Windows","10.0","https://app.prolific.com/","en-US,en;q=0.9","5b5393228fb8db0001a81c7e","683db6dfa200031b80f2a654","686507729b3cf6295ba98d05","5b5393228fb8db0001a81c7e","","","[0,1,2,3,4,5,6]","true","","","","","","","","","","","","","","","","","","","","","","","","","","","","","","","","","","","","","","","","",""
"6833","","","","fullscreen","3","29067","0.0-4.0","130","1","2025-07-02 10:20:19","80fe4187154257d5fb01684ea91b68b9","82.131.14.68","Mozilla/5.0 (Windows NT 10.0; Win64; x64) AppleWebKit/537.36 (KHTML, like Gecko) Chrome/134.0.0.0 Safari/537.36 OPR/119.0.0.0","WebKit","Opera","119.0.0.0","Windows","10.0","https://app.prolific.com/","en-US,en;q=0.9","5b5393228fb8db0001a81c7e","683db6dfa200031b80f2a654","686507729b3cf6295ba98d05","5b5393228fb8db0001a81c7e","","","","","true","","","","","","","","","","","","","","","","","","","","","","","","","","","","","","","","","","","","","","","",""
"2453","1751451761089"," <p style='font-size:1.1em;line-height:1.25'>Thank you for completing the consent form and closing all other tabs.</p><p style='font-size:1.1em;line-height:1.25'>We will now invite you to fill in some demographic information and questionnaires, before starting the game.<br>This will take about 5 minutes.<br></p><p style='font-size:1.1em;line-height:1.25'>Press the <strong>Next</strong> button to continue.</p>","0","custom-html-button-response","4","31521","0.0-5.0","130","1","2025-07-02 10:20:19","80fe4187154257d5fb01684ea91b68b9","82.131.14.68","Mozilla/5.0 (Windows NT 10.0; Win64; x64) AppleWebKit/537.36 (KHTML, like Gecko) Chrome/134.0.0.0 Safari/537.36 OPR/119.0.0.0","WebKit","Opera","119.0.0.0","Windows","10.0","https://app.prolific.com/","en-US,en;q=0.9","5b5393228fb8db0001a81c7e","683db6dfa200031b80f2a654","686507729b3cf6295ba98d05","5b5393228fb8db0001a81c7e","2025-07-02T10:22:41.089Z","","","","","","","","","","","","","","","","","","","","","","","","","","","","","","","","","","","","","","","","","","","",""
"1910","","","{""age"":""30""}","survey-text","5","33433","0.0-6.0-0.0","130","1","2025-07-02 10:20:19","80fe4187154257d5fb01684ea91b68b9","82.131.14.68","Mozilla/5.0 (Windows NT 10.0; Win64; x64) AppleWebKit/537.36 (KHTML, like Gecko) Chrome/134.0.0.0 Safari/537.36 OPR/119.0.0.0","WebKit","Opera","119.0.0.0","Windows","10.0","https://app.prolific.com/","en-US,en;q=0.9","5b5393228fb8db0001a81c7e","683db6dfa200031b80f2a654","686507729b3cf6295ba98d05","5b5393228fb8db0001a81c7e","","","","","","0","demographics","","","","","","","","","","","","","","","","","","","","","","","","","","","","","","","","","","","","","",""
"2327","","","{""gender_identity"":""male/man""}","survey-multi-choice","6","35761","0.0-6.0-1.0","130","1","2025-07-02 10:20:19","80fe4187154257d5fb01684ea91b68b9","82.131.14.68","Mozilla/5.0 (Windows NT 10.0; Win64; x64) AppleWebKit/537.36 (KHTML, like Gecko) Chrome/134.0.0.0 Safari/537.36 OPR/119.0.0.0","WebKit","Opera","119.0.0.0","Windows","10.0","https://app.prolific.com/","en-US,en;q=0.9","5b5393228fb8db0001a81c7e","683db6dfa200031b80f2a654","686507729b3cf6295ba98d05","5b5393228fb8db0001a81c7e","","","[0]","","","1","demographics","","","","","","","","","","","","","","","","","","","","","","","","","","","","","","","","","","","","","",""
"3307","","","{""assigned_sex"":""male""}","survey-multi-choice","7","39068","0.0-6.0-2.0","130","1","2025-07-02 10:20:19","80fe4187154257d5fb01684ea91b68b9","82.131.14.68","Mozilla/5.0 (Windows NT 10.0; Win64; x64) AppleWebKit/537.36 (KHTML, like Gecko) Chrome/134.0.0.0 Safari/537.36 OPR/119.0.0.0","WebKit","Opera","119.0.0.0","Windows","10.0","https://app.prolific.com/","en-US,en;q=0.9","5b5393228fb8db0001a81c7e","683db6dfa200031b80f2a654","686507729b3cf6295ba98d05","5b5393228fb8db0001a81c7e","","","[0]","","","2","demographics","","","","","","","","","","","","","","","","","","","","","","","","","","","","","","","","","","","","","",""
"4525","","","{""menstrual_cycle"":""No""}","survey-multi-choice","8","43594","0.0-6.0-3.0","130","1","2025-07-02 10:20:19","80fe4187154257d5fb01684ea91b68b9","82.131.14.68","Mozilla/5.0 (Windows NT 10.0; Win64; x64) AppleWebKit/537.36 (KHTML, like Gecko) Chrome/134.0.0.0 Safari/537.36 OPR/119.0.0.0","WebKit","Opera","119.0.0.0","Windows","10.0","https://app.prolific.com/","en-US,en;q=0.9","5b5393228fb8db0001a81c7e","683db6dfa200031b80f2a654","686507729b3cf6295ba98d05","5b5393228fb8db0001a81c7e","","","[0]","","","4","demographics","","","","","","","","","","","","","","","","","","","","","","","","","","","","","","","","","","","","","",""
"17041","","","{""education"":""Higher National Diploma""}","survey-multi-choice","9","60635","0.0-6.0-4.0","130","1","2025-07-02 10:20:19","80fe4187154257d5fb01684ea91b68b9","82.131.14.68","Mozilla/5.0 (Windows NT 10.0; Win64; x64) AppleWebKit/537.36 (KHTML, like Gecko) Chrome/134.0.0.0 Safari/537.36 OPR/119.0.0.0","WebKit","Opera","119.0.0.0","Windows","10.0","https://app.prolific.com/","en-US,en;q=0.9","5b5393228fb8db0001a81c7e","683db6dfa200031b80f2a654","686507729b3cf6295ba98d05","5b5393228fb8db0001a81c7e","","","[0]","","","5","demographics","","","","","","","","","","","","","","","","","","","","","","","","","","","","","","","","","","","","","",""
"6495","","","{""education"":""Bachelor's Degree (e.g., BA)""}","survey-multi-choice","10","67131","0.0-6.0-5.0","130","1","2025-07-02 10:20:19","80fe4187154257d5fb01684ea91b68b9","82.131.14.68","Mozilla/5.0 (Windows NT 10.0; Win64; x64) AppleWebKit/537.36 (KHTML, like Gecko) Chrome/134.0.0.0 Safari/537.36 OPR/119.0.0.0","WebKit","Opera","119.0.0.0","Windows","10.0","https://app.prolific.com/","en-US,en;q=0.9","5b5393228fb8db0001a81c7e","683db6dfa200031b80f2a654","686507729b3cf6295ba98d05","5b5393228fb8db0001a81c7e","2025-07-02T10:23:16.700Z","","[0]","","","6","demographics","","","","","","","","","","","","","","","","","","","","","","","","","","","","","","","","","","","","","",""
"33942","","","{""mental_health_condition"":""Schizoaffective Disorder"",""mental_health_treatment"":""Not really"",""psychiatric_medication"":""no""}","survey-text","11","101075","0.0-7.0-0.0","130","1","2025-07-02 10:20:19","80fe4187154257d5fb01684ea91b68b9","82.131.14.68","Mozilla/5.0 (Windows NT 10.0; Win64; x64) AppleWebKit/537.36 (KHTML, like Gecko) Chrome/134.0.0.0 Safari/537.36 OPR/119.0.0.0","WebKit","Opera","119.0.0.0","Windows","10.0","https://app.prolific.com/","en-US,en;q=0.9","5b5393228fb8db0001a81c7e","683db6dfa200031b80f2a654","686507729b3cf6295ba98d05","5b5393228fb8db0001a81c7e","2025-07-02T10:23:50.643Z","","","","","1","mental_health","","","","","","","","","","","","","","","","","","","","","","","","","","","","","","","","","","","","","",""
"8572","","","{""depression_history"":[""Yes""]}","survey-multi-select","12","109649","0.0-7.0-1.0","130","1","2025-07-02 10:20:19","80fe4187154257d5fb01684ea91b68b9","82.131.14.68","Mozilla/5.0 (Windows NT 10.0; Win64; x64) AppleWebKit/537.36 (KHTML, like Gecko) Chrome/134.0.0.0 Safari/537.36 OPR/119.0.0.0","WebKit","Opera","119.0.0.0","Windows","10.0","https://app.prolific.com/","en-US,en;q=0.9","5b5393228fb8db0001a81c7e","683db6dfa200031b80f2a654","686507729b3cf6295ba98d05","5b5393228fb8db0001a81c7e","","","[0]","","","","mental_health","","","","","","","","","","","","","","","","","","","","","","","","","","","","","","","","","","","","","",""
"16313","","","{""depression_episodes"":""more than 5"",""depression_recent"":""Currently experiencing an episode""}","survey-multi-choice","13","125963","0.0-7.0-2.0-0.0","130","1","2025-07-02 10:20:19","80fe4187154257d5fb01684ea91b68b9","82.131.14.68","Mozilla/5.0 (Windows NT 10.0; Win64; x64) AppleWebKit/537.36 (KHTML, like Gecko) Chrome/134.0.0.0 Safari/537.36 OPR/119.0.0.0","WebKit","Opera","119.0.0.0","Windows","10.0","https://app.prolific.com/","en-US,en;q=0.9","5b5393228fb8db0001a81c7e","683db6dfa200031b80f2a654","686507729b3cf6295ba98d05","5b5393228fb8db0001a81c7e","2025-07-02T10:24:15.531Z","","[0,1]","","","3","mental_health","","","","","","","","","","","","","","","","","","","","","","","","","","","","","","","","","","","","","",""
"82062.70000004768","","","","survey-template","14","208029","0.0-7.0-3.0","130","1","2025-07-02 10:20:19","80fe4187154257d5fb01684ea91b68b9","82.131.14.68","Mozilla/5.0 (Windows NT 10.0; Win64; x64) AppleWebKit/537.36 (KHTML, like Gecko) Chrome/134.0.0.0 Safari/537.36 OPR/119.0.0.0","WebKit","Opera","119.0.0.0","Windows","10.0","https://app.prolific.com/","en-US,en;q=0.9","5b5393228fb8db0001a81c7e","683db6dfa200031b80f2a654","686507729b3cf6295ba98d05","5b5393228fb8db0001a81c7e","2025-07-02T10:25:37.597Z","","","","","","ius","{""Q01"":""3"",""Q02"":""3"",""Q03"":""3"",""Q04"":""2"",""Q05"":""3"",""Q06"":""3"",""Q07"":""3"",""Q08"":""0"",""Q09"":""3"",""Q10"":""3"",""Q11"":""3"",""Q12"":""3"",""Q13"":""3""}","[0,1,2,3,4,5,6,7,8,9,10,11,12]","[""Q01"",""Q02"",""Q03"",""Q04"",""Q05"",""Q06"",""Q07"",""Q08"",""Q09"",""Q10"",""Q11"",""Q12"",""Q13""]","[19869.30000001192,21043.700000047684,25476.700000047684,35772.80000001192,42453.60000002384,47268.700000047684,51493.5,54677,59693.30000001192,62964.90000003576,73605.70000004768,77476.40000003576,81333.5]","[]","[12941.800000011921,19869.30000001192,21043.700000047684,25476.700000047684,35772.80000001192,41573.90000003576,42453.60000002384,47268.700000047684,51493.5,53383.10000002384,54677,59693.30000001192,62964.90000003576,73605.70000004768,77476.40000003576,81333.5,82061.30000001192]","0.8461538461538461","0.16666666666666666","0","","","","","","","","","","","","","","","","","","","","","","","","","","","","",""
"2717","1751451940315","<p style='font-size:1.1em;line-height:1.25'>In the following, we will ask you a few questions relating to your experiences over the past month.<br></p><p style='font-size:1.1em;line-height:1.25'>Press the <strong>Next</strong> button to continue.</p>","0","custom-html-button-response","15","210747","0.0-7.0-4.0","130","1","2025-07-02 10:20:19","80fe4187154257d5fb01684ea91b68b9","82.131.14.68","Mozilla/5.0 (Windows NT 10.0; Win64; x64) AppleWebKit/537.36 (KHTML, like Gecko) Chrome/134.0.0.0 Safari/537.36 OPR/119.0.0.0","WebKit","Opera","119.0.0.0","Windows","10.0","https://app.prolific.com/","en-US,en;q=0.9","5b5393228fb8db0001a81c7e","683db6dfa200031b80f2a654","686507729b3cf6295ba98d05","5b5393228fb8db0001a81c7e","2025-07-02T10:25:40.315Z","","","","","","","","","","","","","","","","","","","","","","","","","","","","","","","","","","","","","","","","","","","",""
"85182.80000001192","","","","survey-template","16","295931","0.0-7.0-5.0","130","1","2025-07-02 10:20:19","80fe4187154257d5fb01684ea91b68b9","82.131.14.68","Mozilla/5.0 (Windows NT 10.0; Win64; x64) AppleWebKit/537.36 (KHTML, like Gecko) Chrome/134.0.0.0 Safari/537.36 OPR/119.0.0.0","WebKit","Opera","119.0.0.0","Windows","10.0","https://app.prolific.com/","en-US,en;q=0.9","5b5393228fb8db0001a81c7e","683db6dfa200031b80f2a654","686507729b3cf6295ba98d05","5b5393228fb8db0001a81c7e","2025-07-02T10:27:05.499Z","","","","","","pss","{""Q01"":""2"",""Q02"":""2"",""Q03"":""3"",""Q04"":""2"",""Q05"":""2"",""Q06"":""2"",""Q07"":""2"",""Q08"":""2"",""Q09"":""2"",""Q10"":""2""}","[0,1,2,3,4,5,6,7,8,9]","[""Q01"",""Q02"",""Q03"",""Q04"",""Q05"",""Q06"",""Q07"",""Q08"",""Q10"",""Q09""]","[38829.90000003576,46143,50158.80000001192,58375.40000003576,65080.60000002384,74169.19999998808,77910.19999998808,78759,81661.69999998808,83981.90000003576]","[]","[0,37487.40000003576,38829.90000003576,46143,50158.80000001192,58375.40000003576,65080.60000002384,74169.19999998808,77910.19999998808,78759,79606.40000003576,80576,81661.69999998808,82774.30000001192,83559.30000001192,83981.90000003576,85181.90000003576]","0.9","0.2222222222222222","0","","","","","","","","","","","","","","","","","","","","","","","","","","","","",""
"1670","1751452027170","<p style='font-size:1.1em;line-height:1.25'>Thank you for your answers! Now we will ask you a few more questions relating to your feelings in the last 24 hours.<br></p><p style='font-size:1.1em;line-height:1.25'>Press the <strong>Next</strong> button to continue.</p>","0","custom-html-button-response","17","297602","0.0-7.0-6.0","130","1","2025-07-02 10:20:19","80fe4187154257d5fb01684ea91b68b9","82.131.14.68","Mozilla/5.0 (Windows NT 10.0; Win64; x64) AppleWebKit/537.36 (KHTML, like Gecko) Chrome/134.0.0.0 Safari/537.36 OPR/119.0.0.0","WebKit","Opera","119.0.0.0","Windows","10.0","https://app.prolific.com/","en-US,en;q=0.9","5b5393228fb8db0001a81c7e","683db6dfa200031b80f2a654","686507729b3cf6295ba98d05","5b5393228fb8db0001a81c7e","2025-07-02T10:27:07.170Z","","","","","","","","","","","","","","","","","","","","","","","","","","","","","","","","","","","","","","","","","","","",""
"109657.40000003576","","","","survey-template","18","407262","0.0-7.0-7.0","130","1","2025-07-02 10:20:19","80fe4187154257d5fb01684ea91b68b9","82.131.14.68","Mozilla/5.0 (Windows NT 10.0; Win64; x64) AppleWebKit/537.36 (KHTML, like Gecko) Chrome/134.0.0.0 Safari/537.36 OPR/119.0.0.0","WebKit","Opera","119.0.0.0","Windows","10.0","https://app.prolific.com/","en-US,en;q=0.9","5b5393228fb8db0001a81c7e","683db6dfa200031b80f2a654","686507729b3cf6295ba98d05","5b5393228fb8db0001a81c7e","2025-07-02T10:28:56.830Z","","","","","","drsp","{""Q01"":""3"",""Q02"":""3"",""Q03"":""3"",""Q04"":""3"",""Q05"":""1"",""Q06"":""2"",""Q07"":""3"",""Q08"":""1"",""Q09"":""4"",""Q10"":""3"",""Q11"":""3"",""Q12"":""2"",""Q13"":""3"",""Q14"":""3"",""Q15"":""2"",""Q16"":""2"",""Q17"":""2"",""Q18"":""0"",""Q19"":""3"",""Q20"":""3"",""Q21"":""2""}","[0,1,2,3,4,5,6,7,8,9,10,11,12,13,14,15,16,17,18,19,20]","[""Q01"",""Q02"",""Q03"",""Q04"",""Q05"",""Q05"",""Q06"",""Q07"",""Q08"",""Q09"",""Q09"",""Q10"",""Q11"",""Q11"",""Q12"",""Q13"",""Q14"",""Q15"",""Q16"",""Q17"",""Q18"",""Q18"",""Q19"",""Q20"",""Q21""]","[9892.800000011921,10967.300000011921,13199.700000047684,14655.800000011921,17005.5,20214.200000047684,26813,30201,32784.200000047684,40028.80000001192,41430,44734.700000047684,46783,48254.700000047684,52022.40000003576,55208.200000047684,62062.60000002384,65806.80000001192,69789.60000002384,71032.30000001192,76335.60000002384,83815.70000004768,98205.40000003576,104014.90000003576,108805]","[]","[0.10000002384185791,9892.800000011921,10967.300000011921,13199.700000047684,14655.800000011921,17005.5,18920.5,20214.200000047684,26813,29359.5,30201,32784.200000047684,40028.80000001192,41430,44734.700000047684,46783,47734.90000003576,48254.700000047684,52022.40000003576,55208.200000047684,62062.60000002384,65806.80000001192,69789.60000002384,71032.30000001192,76335.60000002384,82895.30000001192,83815.70000004768,98205.40000003576,104014.90000003576,108805,109655.20000004768]","0.5238095238095238","0.35","0","","","","","","","","","","","","","","","","","","","","","","","","","","","","",""
"23612.30000001192","","","","survey-template","19","430875","0.0-7.0-8.0","130","1","2025-07-02 10:20:19","80fe4187154257d5fb01684ea91b68b9","82.131.14.68","Mozilla/5.0 (Windows NT 10.0; Win64; x64) AppleWebKit/537.36 (KHTML, like Gecko) Chrome/134.0.0.0 Safari/537.36 OPR/119.0.0.0","WebKit","Opera","119.0.0.0","Windows","10.0","https://app.prolific.com/","en-US,en;q=0.9","5b5393228fb8db0001a81c7e","683db6dfa200031b80f2a654","686507729b3cf6295ba98d05","5b5393228fb8db0001a81c7e","2025-07-02T10:29:20.443Z","","","","","","stress","{""Q01"":""2"",""Q02"":""3"",""Q03"":""2""}","[0,1,2]","[""Q01"",""Q02"",""Q03""]","[5539.899999976158,15228,22715.399999976158]","[]","[5539.899999976158,15228,22715.399999976158,23611.69999998808]","1","0","0","","","","","","","","","","","","","","","","","","","","","","","","","","","","",""
"70870","","","","instructions","20","501747","0.0-8.0-0.0","130","1","2025-07-02 10:20:19","80fe4187154257d5fb01684ea91b68b9","82.131.14.68","Mozilla/5.0 (Windows NT 10.0; Win64; x64) AppleWebKit/537.36 (KHTML, like Gecko) Chrome/134.0.0.0 Safari/537.36 OPR/119.0.0.0","WebKit","Opera","119.0.0.0","Windows","10.0","https://app.prolific.com/","en-US,en;q=0.9","5b5393228fb8db0001a81c7e","683db6dfa200031b80f2a654","686507729b3cf6295ba98d05","5b5393228fb8db0001a81c7e","","[{""page_index"":0,""viewing_time"":25134},{""page_index"":1,""viewing_time"":18297},{""page_index"":2,""viewing_time"":8874},{""page_index"":3,""viewing_time"":18566}]","","","","","","","","","","","","","","","","","","","","","","","","","","","","","","","","","","","","","","","","","","",""
"","","","","ctl-task-cpt","21","526381","0.0-8.0-1.0","130","1","2025-07-02 10:20:19","80fe4187154257d5fb01684ea91b68b9","82.131.14.68","Mozilla/5.0 (Windows NT 10.0; Win64; x64) AppleWebKit/537.36 (KHTML, like Gecko) Chrome/134.0.0.0 Safari/537.36 OPR/119.0.0.0","WebKit","Opera","119.0.0.0","Windows","10.0","https://app.prolific.com/","en-US,en;q=0.9","5b5393228fb8db0001a81c7e","683db6dfa200031b80f2a654","686507729b3cf6295ba98d05","5b5393228fb8db0001a81c7e","","","","","","","","","","","","","","","","","win-only","1","g1:NE,g2:SW","1","0","1","502135.1","6388.5","10392.3","21628.2","2","4","4","6","1","2","2","2","0","0.015151515151515152","2532.1","4000","2380","[""up"",""right""]","{""num_key_presses"":4,""num_perfect"":4,""num_errors"":0,""num_randdir"":0,""num_randdir_good_moves"":0,""num_whilered"":0,""num_whileblue"":0,""num_blue"":0,""num_good_moves"":4}","[551.6785637991769,557.9285685675485,0.2,551.6785637991769,557.9285685675485,103.6,551.6785637991769,557.9285685675485,213,551.6785637991769,557.9285685675485,317.2,551.6785637991769,557.9285685675485,417.8,551.6785637991769,557.9285685675485,522,551.6785637991769,557.9285685675485,622.8,551.6785637991769,557.9285685675485,726.9,551.6785637991769,557.9285685675485,829.6,551.6785637991769,557.9285685675485,931.9,551.6785637991769,557.9285685675485,1032.2,551.6785637991769,557.9285685675485,1132.5,551.6785637991769,557.9285685675485,1234,551.6785637991769,557.9285685675485,1337.6,550.4285637991769,557.9285685675485,1437.6,521.6785637991769,600.4285685675485,1537.8,479.1785637991769,699.1785685675485,1638.1,394.1785637991769,835.4285685675485,1738.6,285.4285637991769,966.6785685675485,1857.7,286.6785637991769,959.1785685675485,1957.9,789.1785637991769,292.9285685675485,2075.4,901.6785637991769,171.6785685675485,2176.8,980.4285637991769,105.42856856754848,2281.4,1006.6785637991769,90.42856856754848,2388.4,1015.4285637991769,85.42856856754848,2493.9,1015.4285637991769,85.42856856754848,2600.2,1015.4285637991769,85.42856856754848,2703.1,1015.4285637991769,85.42856856754848,2807.9,1007.9285637991769,101.67856856754848,2915.1,992.9285637991769,167.9285685675485,3017.4,980.4285637991769,201.6785685675485,3122.2,974.1785637991769,255.4285685675485,3224,974.1785637991769,255.4285685675485,3324.6,974.1785637991769,255.4285685675485,3426.1,974.1785637991769,255.4285685675485,3527,974.1785637991769,255.4285685675485,3627.6,974.1785637991769,255.4285685675485,3736.2,974.1785637991769,255.4285685675485,3837.5,974.1785637991769,255.4285685675485,3937.5]","[1548.3,1548.3,1000,0,548.3,""smooth"",""right"",""right"",""good_move"",5327.3,3778.8,3278.3,1548.5,500.5,""smooth"",""up"",""up"",""good_move"",8428.7,3101,2605.9,5327.7,495.1,""smooth"",""up"",""up"",""good_move"",11141.1,2712.1,2303.9,8429,408.2,""smooth"",""right"",""right"",""good_move""]","",""
"26340","","","","instructions","22","552722","0.0-8.0-2.0","130","1","2025-07-02 10:20:19","80fe4187154257d5fb01684ea91b68b9","82.131.14.68","Mozilla/5.0 (Windows NT 10.0; Win64; x64) AppleWebKit/537.36 (KHTML, like Gecko) Chrome/134.0.0.0 Safari/537.36 OPR/119.0.0.0","WebKit","Opera","119.0.0.0","Windows","10.0","https://app.prolific.com/","en-US,en;q=0.9","5b5393228fb8db0001a81c7e","683db6dfa200031b80f2a654","686507729b3cf6295ba98d05","5b5393228fb8db0001a81c7e","","[{""page_index"":0,""viewing_time"":26340}]","","","","","","","","","","","","","","","","","","","","","","","","","","","","","","","","","","","","","","","","","","",""
"","","","","ctl-task-cpt","23","604579","0.0-8.0-3.0","130","1","2025-07-02 10:20:19","80fe4187154257d5fb01684ea91b68b9","82.131.14.68","Mozilla/5.0 (Windows NT 10.0; Win64; x64) AppleWebKit/537.36 (KHTML, like Gecko) Chrome/134.0.0.0 Safari/537.36 OPR/119.0.0.0","WebKit","Opera","119.0.0.0","Windows","10.0","https://app.prolific.com/","en-US,en;q=0.9","5b5393228fb8db0001a81c7e","683db6dfa200031b80f2a654","686507729b3cf6295ba98d05","5b5393228fb8db0001a81c7e","","","","","","","","","","","","","","","","","win-only","1","g1:NE,g2:SW","0.35","0","3","553108.6","1238.8","5242.2","48850.8","2","4","8","6","2","-8","-8","0","0","0","2447.7","4000","-2440","[""down"",""left""]","{""num_key_presses"":8,""num_perfect"":3,""num_errors"":0,""num_randdir"":5,""num_randdir_good_moves"":2,""num_whilered"":0,""num_whileblue"":0,""num_blue"":5,""num_good_moves"":5}","[551.6785637991769,556.6785685675485,0.1,551.6785637991769,556.6785685675485,103.2,551.6785637991769,556.6785685675485,211.7,551.6785637991769,556.6785685675485,311.8,551.6785637991769,556.6785685675485,412.8,551.6785637991769,556.6785685675485,513.1,551.6785637991769,556.6785685675485,615.9,551.6785637991769,556.6785685675485,717.1,551.6785637991769,556.6785685675485,823.3,572.9285637991769,552.9285685675485,923.5,686.6785637991769,509.1785685675485,1027,885.4285637991769,390.4285685675485,1132.9,847.9285637991769,411.6785685675485,1237.4,285.4285637991769,854.1785685675485,1342.7,25.4285637991769,1075.4285685675484,1454.2,6.678563799176899,1089.1785685675484,1563.7,102.9285637991769,1020.4285685675485,1668.4,136.6785637991769,1005.4285685675485,1773.3,199.1785637991769,966.6785685675485,1879.4,196.6785637991769,967.9285685675485,1980.6,115.4285637991769,1019.1785685675485,2081.5,114.1785637991769,1020.4285685675485,2182.7,114.1785637991769,1020.4285685675485,2283.1,114.1785637991769,1020.4285685675485,2387.2,114.1785637991769,1020.4285685675485,2487.4,114.1785637991769,1020.4285685675485,2592.6,381.6785637991769,912.9285685675485,2695.5,964.1785637991769,692.9285685675485,2797.1,1215.4285637991768,645.4285685675485,2897.1,1390.4285637991768,620.4285685675485,3001.7,1395.4285637991768,619.1785685675485,3102,1395.4285637991768,619.1785685675485,3207.3,1395.4285637991768,619.1785685675485,3308.3,1395.4285637991768,619.1785685675485,3412.4,1395.4285637991768,619.1785685675485,3512.8,1395.4285637991768,619.1785685675485,3618.2,1395.4285637991768,619.1785685675485,3722.4,1395.4285637991768,619.1785685675485,3831.3,1395.4285637991768,619.1785685675485,3932.2]","[1410,1410,1000,0,410,""oops"",""left"",""left"",""good_move"",7195.8,5785.6,2450.1,4342.9,402.8,""smooth"",""down"",""down"",""good_move"",13788.4,6592.4,2276.1,11118.7,393.6,""smooth"",""down"",""down"",""good_move"",19900.6,6112,2203.6,17329.9,367.1,""smooth"",""left"",""left"",""good_move"",23661.7,3761,2453.1,19900.7,1307.9,""oops"",""down"",""up"",""bad_move"",30908.6,7246.7,2379.6,28174.2,354.8,""oops"",""left"",""left"",""good_move"",34404.3,3495.7,2524.3,30908.6,971.4,""oops"",""down"",""up"",""bad_move"",37660.3,3256,2740,34404.3,516,""oops"",""down"",""up"",""bad_move""]","",""
"43575","","","","instructions","24","648155","0.0-8.0-4.0","130","1","2025-07-02 10:20:19","80fe4187154257d5fb01684ea91b68b9","82.131.14.68","Mozilla/5.0 (Windows NT 10.0; Win64; x64) AppleWebKit/537.36 (KHTML, like Gecko) Chrome/134.0.0.0 Safari/537.36 OPR/119.0.0.0","WebKit","Opera","119.0.0.0","Windows","10.0","https://app.prolific.com/","en-US,en;q=0.9","5b5393228fb8db0001a81c7e","683db6dfa200031b80f2a654","686507729b3cf6295ba98d05","5b5393228fb8db0001a81c7e","","[{""page_index"":0,""viewing_time"":16751},{""page_index"":1,""viewing_time"":26824}]","","","","","","","","","","","","","","","","","","","","","","","","","","","","","","","","","","","","","","","","","","",""
"16509","","","{""green_ball"":[""Ball always moves in the direction I press"",""Ball sometimes shakes and moves in a random direction""]}","survey-multi-select","25","664665","0.0-8.0-5.0-0.0","130","1","2025-07-02 10:20:19","80fe4187154257d5fb01684ea91b68b9","82.131.14.68","Mozilla/5.0 (Windows NT 10.0; Win64; x64) AppleWebKit/537.36 (KHTML, like Gecko) Chrome/134.0.0.0 Safari/537.36 OPR/119.0.0.0","WebKit","Opera","119.0.0.0","Windows","10.0","https://app.prolific.com/","en-US,en;q=0.9","5b5393228fb8db0001a81c7e","683db6dfa200031b80f2a654","686507729b3cf6295ba98d05","5b5393228fb8db0001a81c7e","","","[0]","","","","quiz","","","","","","","","","","","","","","","","","","","","","","","","","","","","","","","","","","","","","false",""
"7296","","<p align='center'><b>INCORRECT.</b> Usually the green ball moves in the indicated direction, but sometimes it shakes and moves randomly. </p>","0","html-button-response","26","671962","0.0-8.0-5.0-1.0","130","1","2025-07-02 10:20:19","80fe4187154257d5fb01684ea91b68b9","82.131.14.68","Mozilla/5.0 (Windows NT 10.0; Win64; x64) AppleWebKit/537.36 (KHTML, like Gecko) Chrome/134.0.0.0 Safari/537.36 OPR/119.0.0.0","WebKit","Opera","119.0.0.0","Windows","10.0","https://app.prolific.com/","en-US,en;q=0.9","5b5393228fb8db0001a81c7e","683db6dfa200031b80f2a654","686507729b3cf6295ba98d05","5b5393228fb8db0001a81c7e","","","","","","","","","","","","","","","","","","","","","","","","","","","","","","","","","","","","","","","","","","","","",""
"7382","","","{""green_ball"":[""Ball always shakes and moves in a random direction"",""Ball always moves in the direction I press""]}","survey-multi-select","27","679345","0.0-8.0-5.1-0.1","130","1","2025-07-02 10:20:19","80fe4187154257d5fb01684ea91b68b9","82.131.14.68","Mozilla/5.0 (Windows NT 10.0; Win64; x64) AppleWebKit/537.36 (KHTML, like Gecko) Chrome/134.0.0.0 Safari/537.36 OPR/119.0.0.0","WebKit","Opera","119.0.0.0","Windows","10.0","https://app.prolific.com/","en-US,en;q=0.9","5b5393228fb8db0001a81c7e","683db6dfa200031b80f2a654","686507729b3cf6295ba98d05","5b5393228fb8db0001a81c7e","","","[0]","","","","quiz","","","","","","","","","","","","","","","","","","","","","","","","","","","","","","","","","","","","","false",""
"6776","","<p align='center'><b>INCORRECT.</b> Usually the green ball moves in the indicated direction, but sometimes it shakes and moves randomly. </p>","0","html-button-response","28","686122","0.0-8.0-5.1-1.1","130","1","2025-07-02 10:20:19","80fe4187154257d5fb01684ea91b68b9","82.131.14.68","Mozilla/5.0 (Windows NT 10.0; Win64; x64) AppleWebKit/537.36 (KHTML, like Gecko) Chrome/134.0.0.0 Safari/537.36 OPR/119.0.0.0","WebKit","Opera","119.0.0.0","Windows","10.0","https://app.prolific.com/","en-US,en;q=0.9","5b5393228fb8db0001a81c7e","683db6dfa200031b80f2a654","686507729b3cf6295ba98d05","5b5393228fb8db0001a81c7e","","","","","","","","","","","","","","","","","","","","","","","","","","","","","","","","","","","","","","","","","","","","",""
"3400","","","{""green_ball"":[""Ball always moves in the direction I press"",""Ball sometimes shakes and moves in a random direction""]}","survey-multi-select","29","689523","0.0-8.0-5.2-0.2","130","1","2025-07-02 10:20:19","80fe4187154257d5fb01684ea91b68b9","82.131.14.68","Mozilla/5.0 (Windows NT 10.0; Win64; x64) AppleWebKit/537.36 (KHTML, like Gecko) Chrome/134.0.0.0 Safari/537.36 OPR/119.0.0.0","WebKit","Opera","119.0.0.0","Windows","10.0","https://app.prolific.com/","en-US,en;q=0.9","5b5393228fb8db0001a81c7e","683db6dfa200031b80f2a654","686507729b3cf6295ba98d05","5b5393228fb8db0001a81c7e","","","[0]","","","","quiz","","","","","","","","","","","","","","","","","","","","","","","","","","","","","","","","","","","","","false",""
"823","","<p align='center'><b>INCORRECT.</b> Usually the green ball moves in the indicated direction, but sometimes it shakes and moves randomly. </p>","0","html-button-response","30","690347","0.0-8.0-5.2-1.2","130","1","2025-07-02 10:20:19","80fe4187154257d5fb01684ea91b68b9","82.131.14.68","Mozilla/5.0 (Windows NT 10.0; Win64; x64) AppleWebKit/537.36 (KHTML, like Gecko) Chrome/134.0.0.0 Safari/537.36 OPR/119.0.0.0","WebKit","Opera","119.0.0.0","Windows","10.0","https://app.prolific.com/","en-US,en;q=0.9","5b5393228fb8db0001a81c7e","683db6dfa200031b80f2a654","686507729b3cf6295ba98d05","5b5393228fb8db0001a81c7e","","","","","","","","","","","","","","","","","","","","","","","","","","","","","","","","","","","","","","","","","","","","",""
"1183","","","{""green_ball"":[""Ball always moves in the direction I press""]}","survey-multi-select","31","691531","0.0-8.0-5.3-0.3","130","1","2025-07-02 10:20:19","80fe4187154257d5fb01684ea91b68b9","82.131.14.68","Mozilla/5.0 (Windows NT 10.0; Win64; x64) AppleWebKit/537.36 (KHTML, like Gecko) Chrome/134.0.0.0 Safari/537.36 OPR/119.0.0.0","WebKit","Opera","119.0.0.0","Windows","10.0","https://app.prolific.com/","en-US,en;q=0.9","5b5393228fb8db0001a81c7e","683db6dfa200031b80f2a654","686507729b3cf6295ba98d05","5b5393228fb8db0001a81c7e","","","[0]","","","","quiz","","","","","","","","","","","","","","","","","","","","","","","","","","","","","","","","","","","","","false",""
"911","","<p align='center'><b>INCORRECT.</b> Usually the green ball moves in the indicated direction, but sometimes it shakes and moves randomly. </p>","0","html-button-response","32","692443","0.0-8.0-5.3-1.3","130","1","2025-07-02 10:20:19","80fe4187154257d5fb01684ea91b68b9","82.131.14.68","Mozilla/5.0 (Windows NT 10.0; Win64; x64) AppleWebKit/537.36 (KHTML, like Gecko) Chrome/134.0.0.0 Safari/537.36 OPR/119.0.0.0","WebKit","Opera","119.0.0.0","Windows","10.0","https://app.prolific.com/","en-US,en;q=0.9","5b5393228fb8db0001a81c7e","683db6dfa200031b80f2a654","686507729b3cf6295ba98d05","5b5393228fb8db0001a81c7e","","","","","","","","","","","","","","","","","","","","","","","","","","","","","","","","","","","","","","","","","","","","",""
"1485","","","{""green_ball"":[""Ball sometimes shakes and moves in a random direction""]}","survey-multi-select","33","693931","0.0-8.0-5.4-0.4","130","1","2025-07-02 10:20:19","80fe4187154257d5fb01684ea91b68b9","82.131.14.68","Mozilla/5.0 (Windows NT 10.0; Win64; x64) AppleWebKit/537.36 (KHTML, like Gecko) Chrome/134.0.0.0 Safari/537.36 OPR/119.0.0.0","WebKit","Opera","119.0.0.0","Windows","10.0","https://app.prolific.com/","en-US,en;q=0.9","5b5393228fb8db0001a81c7e","683db6dfa200031b80f2a654","686507729b3cf6295ba98d05","5b5393228fb8db0001a81c7e","","","[0]","","","","quiz","","","","","","","","","","","","","","","","","","","","","","","","","","","","","","","","","","","","","true",""
"4343","","<p align='center'><b>CORRECT!</b> Indeed, the green ball may sometimes shake and move in a random direction.</p>","0","html-button-response","34","698274","0.0-8.0-5.4-1.4","130","1","2025-07-02 10:20:19","80fe4187154257d5fb01684ea91b68b9","82.131.14.68","Mozilla/5.0 (Windows NT 10.0; Win64; x64) AppleWebKit/537.36 (KHTML, like Gecko) Chrome/134.0.0.0 Safari/537.36 OPR/119.0.0.0","WebKit","Opera","119.0.0.0","Windows","10.0","https://app.prolific.com/","en-US,en;q=0.9","5b5393228fb8db0001a81c7e","683db6dfa200031b80f2a654","686507729b3cf6295ba98d05","5b5393228fb8db0001a81c7e","","","","","","","","","","","","","","","","","","","","","","","","","","","","","","","","","","","","","","","","","","","","",""
"11511","","","{""yellow_ball"":[""Ball doesn‘t move and I get -1 penalty point""]}","survey-multi-select","35","709786","0.0-8.0-6.0-0.0","130","1","2025-07-02 10:20:19","80fe4187154257d5fb01684ea91b68b9","82.131.14.68","Mozilla/5.0 (Windows NT 10.0; Win64; x64) AppleWebKit/537.36 (KHTML, like Gecko) Chrome/134.0.0.0 Safari/537.36 OPR/119.0.0.0","WebKit","Opera","119.0.0.0","Windows","10.0","https://app.prolific.com/","en-US,en;q=0.9","5b5393228fb8db0001a81c7e","683db6dfa200031b80f2a654","686507729b3cf6295ba98d05","5b5393228fb8db0001a81c7e","","","[0]","","","","quiz","","","","","","","","","","","","","","","","","","","","","","","","","","","","","","","","","","","","","true",""
"1103","","<p align='center'><b>CORRECT!</b> Indeed, the yellow ball never moves and you receive a penalty.</p>","0","html-button-response","36","710890","0.0-8.0-6.0-1.0","130","1","2025-07-02 10:20:19","80fe4187154257d5fb01684ea91b68b9","82.131.14.68","Mozilla/5.0 (Windows NT 10.0; Win64; x64) AppleWebKit/537.36 (KHTML, like Gecko) Chrome/134.0.0.0 Safari/537.36 OPR/119.0.0.0","WebKit","Opera","119.0.0.0","Windows","10.0","https://app.prolific.com/","en-US,en;q=0.9","5b5393228fb8db0001a81c7e","683db6dfa200031b80f2a654","686507729b3cf6295ba98d05","5b5393228fb8db0001a81c7e","","","","","","","","","","","","","","","","","","","","","","","","","","","","","","","","","","","","","","","","","","","","",""
"5416","","","{""blue_ball"":[""Ball doesn‘t move and I get -1 penalty point""]}","survey-multi-select","37","716306","0.0-8.0-7.0-0.0","130","1","2025-07-02 10:20:19","80fe4187154257d5fb01684ea91b68b9","82.131.14.68","Mozilla/5.0 (Windows NT 10.0; Win64; x64) AppleWebKit/537.36 (KHTML, like Gecko) Chrome/134.0.0.0 Safari/537.36 OPR/119.0.0.0","WebKit","Opera","119.0.0.0","Windows","10.0","https://app.prolific.com/","en-US,en;q=0.9","5b5393228fb8db0001a81c7e","683db6dfa200031b80f2a654","686507729b3cf6295ba98d05","5b5393228fb8db0001a81c7e","","","[0]","","","","quiz","","","","","","","","","","","","","","","","","","","","","","","","","","","","","","","","","","","","","false",""
"919","","<p align='center'><b>INCORRECT.</b> The blue ball always shakes and moves randomly.</p>","0","html-button-response","38","717226","0.0-8.0-7.0-1.0","130","1","2025-07-02 10:20:19","80fe4187154257d5fb01684ea91b68b9","82.131.14.68","Mozilla/5.0 (Windows NT 10.0; Win64; x64) AppleWebKit/537.36 (KHTML, like Gecko) Chrome/134.0.0.0 Safari/537.36 OPR/119.0.0.0","WebKit","Opera","119.0.0.0","Windows","10.0","https://app.prolific.com/","en-US,en;q=0.9","5b5393228fb8db0001a81c7e","683db6dfa200031b80f2a654","686507729b3cf6295ba98d05","5b5393228fb8db0001a81c7e","","","","","","","","","","","","","","","","","","","","","","","","","","","","","","","","","","","","","","","","","","","","",""
"10950","","","{""blue_ball"":[""Ball sometimes shakes and moves in a random direction""]}","survey-multi-select","39","728178","0.0-8.0-7.1-0.1","130","1","2025-07-02 10:20:19","80fe4187154257d5fb01684ea91b68b9","82.131.14.68","Mozilla/5.0 (Windows NT 10.0; Win64; x64) AppleWebKit/537.36 (KHTML, like Gecko) Chrome/134.0.0.0 Safari/537.36 OPR/119.0.0.0","WebKit","Opera","119.0.0.0","Windows","10.0","https://app.prolific.com/","en-US,en;q=0.9","5b5393228fb8db0001a81c7e","683db6dfa200031b80f2a654","686507729b3cf6295ba98d05","5b5393228fb8db0001a81c7e","","","[0]","","","","quiz","","","","","","","","","","","","","","","","","","","","","","","","","","","","","","","","","","","","","false",""
"1039","","<p align='center'><b>INCORRECT.</b> The blue ball always shakes and moves randomly.</p>","0","html-button-response","40","729218","0.0-8.0-7.1-1.1","130","1","2025-07-02 10:20:19","80fe4187154257d5fb01684ea91b68b9","82.131.14.68","Mozilla/5.0 (Windows NT 10.0; Win64; x64) AppleWebKit/537.36 (KHTML, like Gecko) Chrome/134.0.0.0 Safari/537.36 OPR/119.0.0.0","WebKit","Opera","119.0.0.0","Windows","10.0","https://app.prolific.com/","en-US,en;q=0.9","5b5393228fb8db0001a81c7e","683db6dfa200031b80f2a654","686507729b3cf6295ba98d05","5b5393228fb8db0001a81c7e","","","","","","","","","","","","","","","","","","","","","","","","","","","","","","","","","","","","","","","","","","","","",""
"1904","","","{""blue_ball"":[""Ball always shakes and moves in a random direction""]}","survey-multi-select","41","731122","0.0-8.0-7.2-0.2","130","1","2025-07-02 10:20:19","80fe4187154257d5fb01684ea91b68b9","82.131.14.68","Mozilla/5.0 (Windows NT 10.0; Win64; x64) AppleWebKit/537.36 (KHTML, like Gecko) Chrome/134.0.0.0 Safari/537.36 OPR/119.0.0.0","WebKit","Opera","119.0.0.0","Windows","10.0","https://app.prolific.com/","en-US,en;q=0.9","5b5393228fb8db0001a81c7e","683db6dfa200031b80f2a654","686507729b3cf6295ba98d05","5b5393228fb8db0001a81c7e","","","[0]","","","","quiz","","","","","","","","","","","","","","","","","","","","","","","","","","","","","","","","","","","","","true",""
"3383","","<p align='center'><b>CORRECT!</b> Indeed, the blue ball always shakes and moves in a random direction. Also there is a penalty of -1 point.</p>","0","html-button-response","42","734506","0.0-8.0-7.2-1.2","130","1","2025-07-02 10:20:19","80fe4187154257d5fb01684ea91b68b9","82.131.14.68","Mozilla/5.0 (Windows NT 10.0; Win64; x64) AppleWebKit/537.36 (KHTML, like Gecko) Chrome/134.0.0.0 Safari/537.36 OPR/119.0.0.0","WebKit","Opera","119.0.0.0","Windows","10.0","https://app.prolific.com/","en-US,en;q=0.9","5b5393228fb8db0001a81c7e","683db6dfa200031b80f2a654","686507729b3cf6295ba98d05","5b5393228fb8db0001a81c7e","","","","","","","","","","","","","","","","","","","","","","","","","","","","","","","","","","","","","","","","","","","","",""
"4183","","","{""bonus"":[""When I reach 50% of points""]}","survey-multi-select","43","738690","0.0-8.0-8.0-0.0","130","1","2025-07-02 10:20:19","80fe4187154257d5fb01684ea91b68b9","82.131.14.68","Mozilla/5.0 (Windows NT 10.0; Win64; x64) AppleWebKit/537.36 (KHTML, like Gecko) Chrome/134.0.0.0 Safari/537.36 OPR/119.0.0.0","WebKit","Opera","119.0.0.0","Windows","10.0","https://app.prolific.com/","en-US,en;q=0.9","5b5393228fb8db0001a81c7e","683db6dfa200031b80f2a654","686507729b3cf6295ba98d05","5b5393228fb8db0001a81c7e","","","[0]","","","","quiz","","","","","","","","","","","","","","","","","","","","","","","","","","","","","","","","","","","","","true",""
"1088","","<p align='center'><b>CORRECT!</b> Indeed, you receive 2 pounds extra when you reach 50% of points.</p>","0","html-button-response","44","739779","0.0-8.0-8.0-1.0","130","1","2025-07-02 10:20:19","80fe4187154257d5fb01684ea91b68b9","82.131.14.68","Mozilla/5.0 (Windows NT 10.0; Win64; x64) AppleWebKit/537.36 (KHTML, like Gecko) Chrome/134.0.0.0 Safari/537.36 OPR/119.0.0.0","WebKit","Opera","119.0.0.0","Windows","10.0","https://app.prolific.com/","en-US,en;q=0.9","5b5393228fb8db0001a81c7e","683db6dfa200031b80f2a654","686507729b3cf6295ba98d05","5b5393228fb8db0001a81c7e","","","","","","","","","","","","","","","","","","","","","","","","","","","","","","","","","","","","","","","","","","","","",""
"1879","","","","instructions","45","741658","0.0-8.0-9.0","130","1","2025-07-02 10:20:19","80fe4187154257d5fb01684ea91b68b9","82.131.14.68","Mozilla/5.0 (Windows NT 10.0; Win64; x64) AppleWebKit/537.36 (KHTML, like Gecko) Chrome/134.0.0.0 Safari/537.36 OPR/119.0.0.0","WebKit","Opera","119.0.0.0","Windows","10.0","https://app.prolific.com/","en-US,en;q=0.9","5b5393228fb8db0001a81c7e","683db6dfa200031b80f2a654","686507729b3cf6295ba98d05","5b5393228fb8db0001a81c7e","","[{""page_index"":0,""viewing_time"":1878}]","","","","","","","","","","","","","","","","","","","","","","","","","","","","","","","","","","","","","","","","","","",""
"9909","","<p>Before you start with this game please answer the following three questions yourself. </p>
  <p>Through this game, we measure several aspects of your cognitive performance, such as reaction times, multi-tasking capabilities </p>
  <p>and the ability to assess the situation you are in.</p>
  <p></p>
  <p><b>How good do you usually are in such tasks?</b></p>","67","html-slider-response","46","751569","0.0-9.0-0.0","130","1","2025-07-02 10:20:19","80fe4187154257d5fb01684ea91b68b9","82.131.14.68","Mozilla/5.0 (Windows NT 10.0; Win64; x64) AppleWebKit/537.36 (KHTML, like Gecko) Chrome/134.0.0.0 Safari/537.36 OPR/119.0.0.0","WebKit","Opera","119.0.0.0","Windows","10.0","https://app.prolific.com/","en-US,en;q=0.9","5b5393228fb8db0001a81c7e","683db6dfa200031b80f2a654","686507729b3cf6295ba98d05","5b5393228fb8db0001a81c7e","2025-07-02T10:34:41.137Z","","","","","","PreSkillQ","","","","","","","","","","","","","","","","","","","","","","","","","","","","","","","","","","","","","","50"
"9137","","<div style=""width:500px;"">
  <p>How well do you think you will perform in this task compared to other participants?</p>
  </div>","55","html-slider-response","47","760706","0.0-9.0-1.0","130","1","2025-07-02 10:20:19","80fe4187154257d5fb01684ea91b68b9","82.131.14.68","Mozilla/5.0 (Windows NT 10.0; Win64; x64) AppleWebKit/537.36 (KHTML, like Gecko) Chrome/134.0.0.0 Safari/537.36 OPR/119.0.0.0","WebKit","Opera","119.0.0.0","Windows","10.0","https://app.prolific.com/","en-US,en;q=0.9","5b5393228fb8db0001a81c7e","683db6dfa200031b80f2a654","686507729b3cf6295ba98d05","5b5393228fb8db0001a81c7e","2025-07-02T10:34:50.274Z","","","","","","PrePerfQ","","","","","","","","","","","","","","","","","","","","","","","","","","","","","","","","","","","","","","50"
"3606","","<div style=""width:500px;"">
  <p>What best describes how you currently feel?</p>
  </div>","55","html-slider-response","48","764312","0.0-9.0-2.0","130","1","2025-07-02 10:20:19","80fe4187154257d5fb01684ea91b68b9","82.131.14.68","Mozilla/5.0 (Windows NT 10.0; Win64; x64) AppleWebKit/537.36 (KHTML, like Gecko) Chrome/134.0.0.0 Safari/537.36 OPR/119.0.0.0","WebKit","Opera","119.0.0.0","Windows","10.0","https://app.prolific.com/","en-US,en;q=0.9","5b5393228fb8db0001a81c7e","683db6dfa200031b80f2a654","686507729b3cf6295ba98d05","5b5393228fb8db0001a81c7e","2025-07-02T10:34:53.880Z","","","","","","PreMotivationQ","","","","","","","","","","","","","","","","","","","","","","","","","","","","","","","","","","","","","","50"
"","","","","ctl-task-cpt","49","791366","0.0-10.0-0.0","130","1","2025-07-02 10:20:19","80fe4187154257d5fb01684ea91b68b9","82.131.14.68","Mozilla/5.0 (Windows NT 10.0; Win64; x64) AppleWebKit/537.36 (KHTML, like Gecko) Chrome/134.0.0.0 Safari/537.36 OPR/119.0.0.0","WebKit","Opera","119.0.0.0","Windows","10.0","https://app.prolific.com/","en-US,en;q=0.9","5b5393228fb8db0001a81c7e","683db6dfa200031b80f2a654","686507729b3cf6295ba98d05","5b5393228fb8db0001a81c7e","2025-07-02T10:35:20.934Z","","","","","","","","","","","","","","","","win-only","0","g1:NW,g2:SE","1","1","0","764699.9","1197.9","6200.7","24037","1","4","8","6","1","1","0","0","0","0","2073.5","3000","1255","[""left"",""up""]","{""num_key_presses"":5,""num_perfect"":4,""num_errors"":1,""num_randdir"":0,""num_randdir_good_moves"":0,""num_whilered"":0,""num_whileblue"":0,""num_blue"":1,""num_good_moves"":4}","[555.4285637991769,560.4285685675485,0.1,555.4285637991769,560.4285685675485,100.5,555.4285637991769,560.4285685675485,202.4,555.4285637991769,560.4285685675485,314.4,799.1785637991769,579.1785685675485,434.3,1025.4285637991768,576.6785685675485,537.8,1324.1785637991768,520.4285685675485,642.8,1332.9285637991768,517.9285685675485,750.6,1297.9285637991768,500.4285685675485,856.2,1011.6785637991769,471.6785685675485,963.3,905.4285637991769,449.1785685675485,1064.2,905.4285637991769,449.1785685675485,1168.3,905.4285637991769,449.1785685675485,1272.2,897.9285637991769,449.1785685675485,1372.7,761.6785637991769,450.4285685675485,1477.2,552.9285637991769,406.6785685675485,1578.1,444.1785637991769,377.9285685675485,1683.4,316.6785637991769,292.9285685675485,1788.1,100.4285637991769,125.42856856754848,1892.8,57.9285637991769,95.42856856754848,1993.6,57.9285637991769,95.42856856754848,2108.3,57.9285637991769,95.42856856754848,2208.3,319.1785637991769,280.4285685675485,2318.3,1155.4285637991768,537.9285685675485,2422.3,1587.9285637991768,624.1785685675485,2524.2,1589.1785637991768,624.1785685675485,2628.2,1589.1785637991768,624.1785685675485,2733,1589.1785637991768,624.1785685675485,2835.4,1589.1785637991768,624.1785685675485,2937.7,1589.1785637991768,624.1785685675485,3042.4,1589.1785637991768,624.1785685675485,3143.4,1589.1785637991768,624.1785685675485,3252.1,1567.9285637991768,625.4285685675485,3352.7,1567.9285637991768,625.4285685675485,3453,1567.9285637991768,625.4285685675485,3562.3,1567.9285637991768,625.4285685675485,3665.6,1567.9285637991768,625.4285685675485,3775.6,1567.9285637991768,625.4285685675485,3879.3,1567.9285637991768,625.4285685675485,3980.8,1567.9285637991768,625.4285685675485,4086.9,1567.9285637991768,625.4285685675485,4188.5,1567.9285637991768,625.4285685675485,4293.9,1567.9285637991768,625.4285685675485,4397.6,1567.9285637991768,625.4285685675485,4501.6,1567.9285637991768,625.4285685675485,4610.6,1567.9285637991768,625.4285685675485,4713.1,1567.9285637991768,625.4285685675485,4813.4,1567.9285637991768,625.4285685675485,4921.8]","[439.6,439.6,1000,0,-560.4,""error"",""-"",""-"",""no_move"",4262.3,3822.5,2300.8,1445.1,516.4,""smooth"",""left"",""left"",""good_move"",11560.4,7297.8,2647,8514.4,399,""smooth"",""up"",""up"",""good_move"",14630.6,3069.9,2176.8,11560.7,893.1,""smooth"",""left"",""left"",""good_move"",17719,3088.3,2678.3,14630.7,410,""smooth"",""up"",""up"",""good_move""]","",""
"4963","","<div style=""width:500px;"">
  <p>What determined the result of this run?</p>
  </div>","87","html-slider-response","50","796330","0.0-10.0-1.0","130","1","2025-07-02 10:20:19","80fe4187154257d5fb01684ea91b68b9","82.131.14.68","Mozilla/5.0 (Windows NT 10.0; Win64; x64) AppleWebKit/537.36 (KHTML, like Gecko) Chrome/134.0.0.0 Safari/537.36 OPR/119.0.0.0","WebKit","Opera","119.0.0.0","Windows","10.0","https://app.prolific.com/","en-US,en;q=0.9","5b5393228fb8db0001a81c7e","683db6dfa200031b80f2a654","686507729b3cf6295ba98d05","5b5393228fb8db0001a81c7e","2025-07-02T10:35:25.898Z","","","","","","AttribQ","","","","","","","","","","","","","","","","","","","","","","","","","","","","","","","","","","","","","","50"
"3992","","<div style=""width:500px;"">
  <p>How much control did you have over the ball?</p>
  </div>","86","html-slider-response","51","800322","0.0-10.0-2.0","130","1","2025-07-02 10:20:19","80fe4187154257d5fb01684ea91b68b9","82.131.14.68","Mozilla/5.0 (Windows NT 10.0; Win64; x64) AppleWebKit/537.36 (KHTML, like Gecko) Chrome/134.0.0.0 Safari/537.36 OPR/119.0.0.0","WebKit","Opera","119.0.0.0","Windows","10.0","https://app.prolific.com/","en-US,en;q=0.9","5b5393228fb8db0001a81c7e","683db6dfa200031b80f2a654","686507729b3cf6295ba98d05","5b5393228fb8db0001a81c7e","2025-07-02T10:35:29.890Z","","","","","","ControlQ","","","","","","","","","","","","","","","","","","","","","","","","","","","","","","","","","","","","","","50"
"4256","","<div style=""width:500px;"">
  <p>How would you describe your current emotional state?</p>
  </div>","89","html-slider-response","52","804578","0.0-10.0-3.0","130","1","2025-07-02 10:20:19","80fe4187154257d5fb01684ea91b68b9","82.131.14.68","Mozilla/5.0 (Windows NT 10.0; Win64; x64) AppleWebKit/537.36 (KHTML, like Gecko) Chrome/134.0.0.0 Safari/537.36 OPR/119.0.0.0","WebKit","Opera","119.0.0.0","Windows","10.0","https://app.prolific.com/","en-US,en;q=0.9","5b5393228fb8db0001a81c7e","683db6dfa200031b80f2a654","686507729b3cf6295ba98d05","5b5393228fb8db0001a81c7e","2025-07-02T10:35:34.146Z","","","","","","StressQ","","","","","","","","","","","","","","","","","","","","","","","","","","","","","","","","","","","","","","50"
"3807","","<div style=""width:500px;"">
  <p>What best describes how you currently feel?</p>
  </div>","67","html-slider-response","53","808386","0.0-10.0-4.0","130","1","2025-07-02 10:20:19","80fe4187154257d5fb01684ea91b68b9","82.131.14.68","Mozilla/5.0 (Windows NT 10.0; Win64; x64) AppleWebKit/537.36 (KHTML, like Gecko) Chrome/134.0.0.0 Safari/537.36 OPR/119.0.0.0","WebKit","Opera","119.0.0.0","Windows","10.0","https://app.prolific.com/","en-US,en;q=0.9","5b5393228fb8db0001a81c7e","683db6dfa200031b80f2a654","686507729b3cf6295ba98d05","5b5393228fb8db0001a81c7e","2025-07-02T10:35:37.954Z","","","","","","MotivationQ","","","","","","","","","","","","","","","","","","","","","","","","","","","","","","","","","","","","","","50"
"","","","","ctl-task-cpt","54","858511","0.0-10.0-0.1","130","1","2025-07-02 10:20:19","80fe4187154257d5fb01684ea91b68b9","82.131.14.68","Mozilla/5.0 (Windows NT 10.0; Win64; x64) AppleWebKit/537.36 (KHTML, like Gecko) Chrome/134.0.0.0 Safari/537.36 OPR/119.0.0.0","WebKit","Opera","119.0.0.0","Windows","10.0","https://app.prolific.com/","en-US,en;q=0.9","5b5393228fb8db0001a81c7e","683db6dfa200031b80f2a654","686507729b3cf6295ba98d05","5b5393228fb8db0001a81c7e","2025-07-02T10:36:28.079Z","","","","","","","","","","","","","","","","win-only","3","g1:SW,g2:NE","0.9","2","0","808773.9","993.7","6002","47108.6","1","4","4","6","2","4","4","4","0","0.030303030303030304","1868.4","3000","1125","[""up"",""right""]","{""num_key_presses"":6,""num_perfect"":5,""num_errors"":0,""num_randdir"":1,""num_randdir_good_moves"":1,""num_whilered"":0,""num_whileblue"":0,""num_blue"":7,""num_good_moves"":6}","[547.9285637991769,565.4285685675485,0.1,547.9285637991769,565.4285685675485,101,547.9285637991769,565.4285685675485,201.4,547.9285637991769,565.4285685675485,301.8,546.6785637991769,567.9285685675485,402.5,484.1785637991769,686.6785685675485,502.7,460.4285637991769,745.4285685675485,606.5,460.4285637991769,745.4285685675485,707.1,879.1785637991769,327.9285685675485,816.9,997.9285637991769,181.6785685675485,920.2,1000.4285637991769,162.9285685675485,1022.5,1010.4285637991769,126.67856856754848,1138.2,1011.6785637991769,124.17856856754848,1244,1011.6785637991769,124.17856856754848,1351.3,1011.6785637991769,124.17856856754848,1452.5,1011.6785637991769,124.17856856754848,1552.8,1011.6785637991769,124.17856856754848,1656.7,1011.6785637991769,124.17856856754848,1757.4,1011.6785637991769,124.17856856754848,1869.3,1011.6785637991769,124.17856856754848,1977.4,1011.6785637991769,124.17856856754848,2100.7,1052.9285637991768,177.9285685675485,2208.3,1200.4285637991768,262.9285685675485,2311.6,1216.6785637991768,265.4285685675485,2411.9,1216.6785637991768,265.4285685675485,2517.7,1216.6785637991768,265.4285685675485,2618.3,1216.6785637991768,265.4285685675485,2722.1,1216.6785637991768,265.4285685675485,2822.2,1216.6785637991768,265.4285685675485,2925.1,1216.6785637991768,265.4285685675485,3036.8,1216.6785637991768,265.4285685675485,3143,1216.6785637991768,265.4285685675485,3252.7,1216.6785637991768,265.4285685675485,3355.9,1216.6785637991768,265.4285685675485,3457.6,1216.6785637991768,265.4285685675485,3569.5,1216.6785637991768,265.4285685675485,3671.9,1216.6785637991768,265.4285685675485,3772.9,1216.6785637991768,265.4285685675485,3877.5,1216.6785637991768,265.4285685675485,3995.2,1216.6785637991768,265.4285685675485,4105.4,1216.6785637991768,265.4285685675485,4207.5,1216.6785637991768,265.4285685675485,4320.4,1216.6785637991768,265.4285685675485,4421.7,1216.6785637991768,265.4285685675485,4522,1216.6785637991768,265.4285685675485,4622.3,1216.6785637991768,265.4285685675485,4741.8,1216.6785637991768,265.4285685675485,4855,1216.6785637991768,265.4285685675485,4956.6]","[1415.3,1415.3,1000,0,415.3,""oops"",""up"",""right"",""good_move"",25637.2,24221.6,2724.1,22463.7,449.4,""smooth"",""up"",""up"",""good_move"",28355.1,2717.7,2349.8,25637.4,367.9,""smooth"",""up"",""up"",""good_move"",31261,2905.9,2493.3,28355.1,412.6,""smooth"",""right"",""right"",""good_move"",34132.2,2869.4,2436.9,31262.8,432.5,""smooth"",""right"",""right"",""good_move"",40978.6,6846.3,2848.3,37744.5,385.8,""smooth"",""up"",""up"",""good_move""]","",""
"4634","","<div style=""width:500px;"">
  <p>What determined the result of this run?</p>
  </div>","87","html-slider-response","55","863147","0.0-10.0-1.1","130","1","2025-07-02 10:20:19","80fe4187154257d5fb01684ea91b68b9","82.131.14.68","Mozilla/5.0 (Windows NT 10.0; Win64; x64) AppleWebKit/537.36 (KHTML, like Gecko) Chrome/134.0.0.0 Safari/537.36 OPR/119.0.0.0","WebKit","Opera","119.0.0.0","Windows","10.0","https://app.prolific.com/","en-US,en;q=0.9","5b5393228fb8db0001a81c7e","683db6dfa200031b80f2a654","686507729b3cf6295ba98d05","5b5393228fb8db0001a81c7e","2025-07-02T10:36:32.715Z","","","","","","AttribQ","","","","","","","","","","","","","","","","","","","","","","","","","","","","","","","","","","","","","","50"
"2046","","<div style=""width:500px;"">
  <p>How much control did you have over the ball?</p>
  </div>","84","html-slider-response","56","865194","0.0-10.0-2.1","130","1","2025-07-02 10:20:19","80fe4187154257d5fb01684ea91b68b9","82.131.14.68","Mozilla/5.0 (Windows NT 10.0; Win64; x64) AppleWebKit/537.36 (KHTML, like Gecko) Chrome/134.0.0.0 Safari/537.36 OPR/119.0.0.0","WebKit","Opera","119.0.0.0","Windows","10.0","https://app.prolific.com/","en-US,en;q=0.9","5b5393228fb8db0001a81c7e","683db6dfa200031b80f2a654","686507729b3cf6295ba98d05","5b5393228fb8db0001a81c7e","2025-07-02T10:36:34.762Z","","","","","","ControlQ","","","","","","","","","","","","","","","","","","","","","","","","","","","","","","","","","","","","","","50"
"2934","","<div style=""width:500px;"">
  <p>How would you describe your current emotional state?</p>
  </div>","50","html-slider-response","57","868128","0.0-10.0-3.1","130","1","2025-07-02 10:20:19","80fe4187154257d5fb01684ea91b68b9","82.131.14.68","Mozilla/5.0 (Windows NT 10.0; Win64; x64) AppleWebKit/537.36 (KHTML, like Gecko) Chrome/134.0.0.0 Safari/537.36 OPR/119.0.0.0","WebKit","Opera","119.0.0.0","Windows","10.0","https://app.prolific.com/","en-US,en;q=0.9","5b5393228fb8db0001a81c7e","683db6dfa200031b80f2a654","686507729b3cf6295ba98d05","5b5393228fb8db0001a81c7e","2025-07-02T10:36:37.696Z","","","","","","StressQ","","","","","","","","","","","","","","","","","","","","","","","","","","","","","","","","","","","","","","50"
"2920","","<div style=""width:500px;"">
  <p>What best describes how you currently feel?</p>
  </div>","58","html-slider-response","58","871049","0.0-10.0-4.1","130","1","2025-07-02 10:20:19","80fe4187154257d5fb01684ea91b68b9","82.131.14.68","Mozilla/5.0 (Windows NT 10.0; Win64; x64) AppleWebKit/537.36 (KHTML, like Gecko) Chrome/134.0.0.0 Safari/537.36 OPR/119.0.0.0","WebKit","Opera","119.0.0.0","Windows","10.0","https://app.prolific.com/","en-US,en;q=0.9","5b5393228fb8db0001a81c7e","683db6dfa200031b80f2a654","686507729b3cf6295ba98d05","5b5393228fb8db0001a81c7e","2025-07-02T10:36:40.618Z","","","","","","MotivationQ","","","","","","","","","","","","","","","","","","","","","","","","","","","","","","","","","","","","","","50"
"","","","","ctl-task-cpt","59","908132","0.0-10.0-0.2","130","1","2025-07-02 10:20:19","80fe4187154257d5fb01684ea91b68b9","82.131.14.68","Mozilla/5.0 (Windows NT 10.0; Win64; x64) AppleWebKit/537.36 (KHTML, like Gecko) Chrome/134.0.0.0 Safari/537.36 OPR/119.0.0.0","WebKit","Opera","119.0.0.0","Windows","10.0","https://app.prolific.com/","en-US,en;q=0.9","5b5393228fb8db0001a81c7e","683db6dfa200031b80f2a654","686507729b3cf6295ba98d05","5b5393228fb8db0001a81c7e","2025-07-02T10:37:17.700Z","","","","","","","","","","","","","","","","win-only","1","g1:NE,g2:SW","0.8","3","0","871437.5","872","5886.8","34077.7","1","4","4","6","2","4","4","8","4","0.06060606060606061","2823.7","3000","340","[""down"",""left""]","{""num_key_presses"":10,""num_perfect"":8,""num_errors"":0,""num_randdir"":2,""num_randdir_good_moves"":0,""num_whilered"":0,""num_whileblue"":0,""num_blue"":0,""num_good_moves"":8}","[560.4285637991769,539.1785685675485,0.2,560.4285637991769,539.1785685675485,106.9,560.4285637991769,539.1785685675485,208.9,561.6785637991769,537.9285685675485,313.8,899.1785637991769,470.4285685675485,413.9,1245.4285637991768,434.1785685675485,514.1,1257.9285637991768,434.1785685675485,626.9,1257.9285637991768,434.1785685675485,728.1,1257.9285637991768,434.1785685675485,828.2,1257.9285637991768,434.1785685675485,933.5,1257.9285637991768,434.1785685675485,1033.8,1257.9285637991768,434.1785685675485,1149.7,1257.9285637991768,434.1785685675485,1254.1,1257.9285637991768,434.1785685675485,1354.6,1257.9285637991768,434.1785685675485,1459.3,1257.9285637991768,434.1785685675485,1568.7,1257.9285637991768,434.1785685675485,1691.3,1257.9285637991768,434.1785685675485,1794.1,1257.9285637991768,434.1785685675485,1894.7,1249.1785637991768,437.9285685675485,1994.9,401.6785637991769,640.4285685675485,2098.9,266.6785637991769,765.4285685675485,2199.5,155.4285637991769,866.6785685675485,2311.8,116.6785637991769,1000.4285685675485,2415.8,115.4285637991769,1022.9285685675485,2528.2,115.4285637991769,1022.9285685675485,2629.9,115.4285637991769,1022.9285685675485,2734.8,115.4285637991769,1022.9285685675485,2849.4,115.4285637991769,1022.9285685675485,2953.9,115.4285637991769,1022.9285685675485,3059,779.1785637991769,825.4285685675485,3160,1521.6785637991768,649.1785685675485,3264.3,1534.1785637991768,645.4285685675485,3390.6,1534.1785637991768,645.4285685675485,3494,1534.1785637991768,645.4285685675485,3599,1534.1785637991768,645.4285685675485,3699.9,1534.1785637991768,645.4285685675485,3801.3,1534.1785637991768,645.4285685675485,3904.5,1534.1785637991768,645.4285685675485,4009.2,1534.1785637991768,645.4285685675485,4113.2,1534.1785637991768,645.4285685675485,4220.7,1534.1785637991768,645.4285685675485,4323.6,1534.1785637991768,645.4285685675485,4430.1,1534.1785637991768,645.4285685675485,4534.8,1534.1785637991768,645.4285685675485,4639.5,1534.1785637991768,645.4285685675485,4747.1,1534.1785637991768,645.4285685675485,4848.2,1534.1785637991768,645.4285685675485,4949.6]","[1391.7,1391.7,1000,0,391.7,""smooth"",""left"",""left"",""good_move"",3758.4,2366.5,1976.2,1391.9,390.3,""smooth"",""down"",""down"",""good_move"",7187.3,3428.6,3033.8,3758.7,394.8,""smooth"",""left"",""left"",""good_move"",9871.1,2683.7,2336,7187.4,347.7,""oops"",""down"",""up"",""bad_move"",12914.4,3043.2,2710.3,9871.2,332.9,""smooth"",""down"",""down"",""good_move"",16718.1,3803.6,3434.1,12914.5,369.5,""smooth"",""left"",""left"",""good_move"",19614.2,2895.9,2554.1,16718.3,341.8,""oops"",""down"",""right"",""bad_move"",22622.3,3007.8,2625.7,19614.5,382.1,""smooth"",""down"",""down"",""good_move"",25404.4,2782,2378.9,22622.4,403.1,""smooth"",""left"",""left"",""good_move"",28059.2,2654.7,2279.8,25404.5,374.9,""smooth"",""down"",""down"",""good_move""]","",""
"19022","","<div style=""width:500px;"">
  <p>What determined the result of this run?</p>
  </div>","65","html-slider-response","60","927154","0.0-10.0-1.2","130","1","2025-07-02 10:20:19","80fe4187154257d5fb01684ea91b68b9","82.131.14.68","Mozilla/5.0 (Windows NT 10.0; Win64; x64) AppleWebKit/537.36 (KHTML, like Gecko) Chrome/134.0.0.0 Safari/537.36 OPR/119.0.0.0","WebKit","Opera","119.0.0.0","Windows","10.0","https://app.prolific.com/","en-US,en;q=0.9","5b5393228fb8db0001a81c7e","683db6dfa200031b80f2a654","686507729b3cf6295ba98d05","5b5393228fb8db0001a81c7e","2025-07-02T10:37:36.722Z","","","","","","AttribQ","","","","","","","","","","","","","","","","","","","","","","","","","","","","","","","","","","","","","","50"
"3336","","<div style=""width:500px;"">
  <p>How much control did you have over the ball?</p>
  </div>","65","html-slider-response","61","930491","0.0-10.0-2.2","130","1","2025-07-02 10:20:19","80fe4187154257d5fb01684ea91b68b9","82.131.14.68","Mozilla/5.0 (Windows NT 10.0; Win64; x64) AppleWebKit/537.36 (KHTML, like Gecko) Chrome/134.0.0.0 Safari/537.36 OPR/119.0.0.0","WebKit","Opera","119.0.0.0","Windows","10.0","https://app.prolific.com/","en-US,en;q=0.9","5b5393228fb8db0001a81c7e","683db6dfa200031b80f2a654","686507729b3cf6295ba98d05","5b5393228fb8db0001a81c7e","2025-07-02T10:37:40.059Z","","","","","","ControlQ","","","","","","","","","","","","","","","","","","","","","","","","","","","","","","","","","","","","","","50"
"2462","","<div style=""width:500px;"">
  <p>How would you describe your current emotional state?</p>
  </div>","50","html-slider-response","62","932953","0.0-10.0-3.2","130","1","2025-07-02 10:20:19","80fe4187154257d5fb01684ea91b68b9","82.131.14.68","Mozilla/5.0 (Windows NT 10.0; Win64; x64) AppleWebKit/537.36 (KHTML, like Gecko) Chrome/134.0.0.0 Safari/537.36 OPR/119.0.0.0","WebKit","Opera","119.0.0.0","Windows","10.0","https://app.prolific.com/","en-US,en;q=0.9","5b5393228fb8db0001a81c7e","683db6dfa200031b80f2a654","686507729b3cf6295ba98d05","5b5393228fb8db0001a81c7e","2025-07-02T10:37:42.521Z","","","","","","StressQ","","","","","","","","","","","","","","","","","","","","","","","","","","","","","","","","","","","","","","50"
"2674","","<div style=""width:500px;"">
  <p>What best describes how you currently feel?</p>
  </div>","52","html-slider-response","63","935628","0.0-10.0-4.2","130","1","2025-07-02 10:20:19","80fe4187154257d5fb01684ea91b68b9","82.131.14.68","Mozilla/5.0 (Windows NT 10.0; Win64; x64) AppleWebKit/537.36 (KHTML, like Gecko) Chrome/134.0.0.0 Safari/537.36 OPR/119.0.0.0","WebKit","Opera","119.0.0.0","Windows","10.0","https://app.prolific.com/","en-US,en;q=0.9","5b5393228fb8db0001a81c7e","683db6dfa200031b80f2a654","686507729b3cf6295ba98d05","5b5393228fb8db0001a81c7e","2025-07-02T10:37:45.196Z","","","","","","MotivationQ","","","","","","","","","","","","","","","","","","","","","","","","","","","","","","","","","","","","","","50"
"","","","","ctl-task-cpt","64","955485","0.0-10.0-0.3","130","1","2025-07-02 10:20:19","80fe4187154257d5fb01684ea91b68b9","82.131.14.68","Mozilla/5.0 (Windows NT 10.0; Win64; x64) AppleWebKit/537.36 (KHTML, like Gecko) Chrome/134.0.0.0 Safari/537.36 OPR/119.0.0.0","WebKit","Opera","119.0.0.0","Windows","10.0","https://app.prolific.com/","en-US,en;q=0.9","5b5393228fb8db0001a81c7e","683db6dfa200031b80f2a654","686507729b3cf6295ba98d05","5b5393228fb8db0001a81c7e","2025-07-02T10:38:05.053Z","","","","","","","","","","","","","","","","win-only","3","g1:SW,g2:NE","0.7","4","0","936015.1","964.2","5967.1","16837.2","1","4","8","6","1","1","1","9","8","0.06818181818181818","5002.9","3000","1735","[""down"",""left""]","{""num_key_presses"":4,""num_perfect"":2,""num_errors"":0,""num_randdir"":2,""num_randdir_good_moves"":2,""num_whilered"":0,""num_whileblue"":0,""num_blue"":0,""num_good_moves"":4}","[561.6785637991769,555.4285685675485,0.3,561.6785637991769,555.4285685675485,103.4,561.6785637991769,555.4285685675485,205,561.6785637991769,555.4285685675485,307,561.6785637991769,555.4285685675485,411.6,561.6785637991769,555.4285685675485,524.9,561.6785637991769,555.4285685675485,625.4,561.6785637991769,555.4285685675485,728.4,561.6785637991769,555.4285685675485,831.6,561.6785637991769,555.4285685675485,932,561.6785637991769,555.4285685675485,1041.3,561.6785637991769,555.4285685675485,1141.3,561.6785637991769,555.4285685675485,1242.2,561.6785637991769,555.4285685675485,1346.6,561.6785637991769,555.4285685675485,1447.3,561.6785637991769,555.4285685675485,1561.4,561.6785637991769,555.4285685675485,1663.3,561.6785637991769,555.4285685675485,1767,561.6785637991769,555.4285685675485,1871.2,561.6785637991769,555.4285685675485,1977.4,561.6785637991769,555.4285685675485,2082.2,561.6785637991769,555.4285685675485,2182.6,561.6785637991769,555.4285685675485,2299,561.6785637991769,555.4285685675485,2402.2,561.6785637991769,555.4285685675485,2516.2,561.6785637991769,555.4285685675485,2622,561.6785637991769,555.4285685675485,2727.6,561.6785637991769,555.4285685675485,2832.4,561.6785637991769,555.4285685675485,2941.6,561.6785637991769,555.4285685675485,3044.6,561.6785637991769,555.4285685675485,3147.7,561.6785637991769,555.4285685675485,3268.3,561.6785637991769,555.4285685675485,3383.1,561.6785637991769,555.4285685675485,3486.2,561.6785637991769,555.4285685675485,3586.9,561.6785637991769,555.4285685675485,3687.9,561.6785637991769,555.4285685675485,3791.2,561.6785637991769,555.4285685675485,3897.9,561.6785637991769,555.4285685675485,4001,561.6785637991769,555.4285685675485,4102.9,561.6785637991769,555.4285685675485,4206.9,561.6785637991769,555.4285685675485,4311.3,561.6785637991769,555.4285685675485,4411.8,561.6785637991769,555.4285685675485,4513.2,561.6785637991769,555.4285685675485,4616.2,560.4285637991769,555.4285685675485,4717.2,1409.1785637991768,546.6785685675485,4834.4,1415.4285637991768,442.9285685675485,4936.2]","[1520.6,1520.6,1000,0,520.6,""smooth"",""down"",""down"",""good_move"",4748.1,3227.2,2873.9,1520.9,353.3,""oops"",""left"",""left"",""good_move"",7967,3218.9,2807.8,4748.2,411.1,""oops"",""left"",""left"",""good_move"",10732.7,2765.6,2335.1,7967.1,430.5,""smooth"",""down"",""down"",""good_move""]","",""
"9180","","<div style=""width:500px;"">
  <p>What determined the result of this run?</p>
  </div>","68","html-slider-response","65","964666","0.0-10.0-1.3","130","1","2025-07-02 10:20:19","80fe4187154257d5fb01684ea91b68b9","82.131.14.68","Mozilla/5.0 (Windows NT 10.0; Win64; x64) AppleWebKit/537.36 (KHTML, like Gecko) Chrome/134.0.0.0 Safari/537.36 OPR/119.0.0.0","WebKit","Opera","119.0.0.0","Windows","10.0","https://app.prolific.com/","en-US,en;q=0.9","5b5393228fb8db0001a81c7e","683db6dfa200031b80f2a654","686507729b3cf6295ba98d05","5b5393228fb8db0001a81c7e","2025-07-02T10:38:14.234Z","","","","","","AttribQ","","","","","","","","","","","","","","","","","","","","","","","","","","","","","","","","","","","","","","50"
"3231","","<div style=""width:500px;"">
  <p>How much control did you have over the ball?</p>
  </div>","65","html-slider-response","66","967898","0.0-10.0-2.3","130","1","2025-07-02 10:20:19","80fe4187154257d5fb01684ea91b68b9","82.131.14.68","Mozilla/5.0 (Windows NT 10.0; Win64; x64) AppleWebKit/537.36 (KHTML, like Gecko) Chrome/134.0.0.0 Safari/537.36 OPR/119.0.0.0","WebKit","Opera","119.0.0.0","Windows","10.0","https://app.prolific.com/","en-US,en;q=0.9","5b5393228fb8db0001a81c7e","683db6dfa200031b80f2a654","686507729b3cf6295ba98d05","5b5393228fb8db0001a81c7e","2025-07-02T10:38:17.466Z","","","","","","ControlQ","","","","","","","","","","","","","","","","","","","","","","","","","","","","","","","","","","","","","","50"
"1358","","<div style=""width:500px;"">
  <p>How would you describe your current emotional state?</p>
  </div>","50","html-slider-response","67","969257","0.0-10.0-3.3","130","1","2025-07-02 10:20:19","80fe4187154257d5fb01684ea91b68b9","82.131.14.68","Mozilla/5.0 (Windows NT 10.0; Win64; x64) AppleWebKit/537.36 (KHTML, like Gecko) Chrome/134.0.0.0 Safari/537.36 OPR/119.0.0.0","WebKit","Opera","119.0.0.0","Windows","10.0","https://app.prolific.com/","en-US,en;q=0.9","5b5393228fb8db0001a81c7e","683db6dfa200031b80f2a654","686507729b3cf6295ba98d05","5b5393228fb8db0001a81c7e","2025-07-02T10:38:18.825Z","","","","","","StressQ","","","","","","","","","","","","","","","","","","","","","","","","","","","","","","","","","","","","","","50"
"1145","","<div style=""width:500px;"">
  <p>What best describes how you currently feel?</p>
  </div>","50","html-slider-response","68","970402","0.0-10.0-4.3","130","1","2025-07-02 10:20:19","80fe4187154257d5fb01684ea91b68b9","82.131.14.68","Mozilla/5.0 (Windows NT 10.0; Win64; x64) AppleWebKit/537.36 (KHTML, like Gecko) Chrome/134.0.0.0 Safari/537.36 OPR/119.0.0.0","WebKit","Opera","119.0.0.0","Windows","10.0","https://app.prolific.com/","en-US,en;q=0.9","5b5393228fb8db0001a81c7e","683db6dfa200031b80f2a654","686507729b3cf6295ba98d05","5b5393228fb8db0001a81c7e","2025-07-02T10:38:19.970Z","","","","","","MotivationQ","","","","","","","","","","","","","","","","","","","","","","","","","","","","","","","","","","","","","","50"
"","","","","ctl-task-cpt","69","1006161","0.0-10.0-0.4","130","1","2025-07-02 10:20:19","80fe4187154257d5fb01684ea91b68b9","82.131.14.68","Mozilla/5.0 (Windows NT 10.0; Win64; x64) AppleWebKit/537.36 (KHTML, like Gecko) Chrome/134.0.0.0 Safari/537.36 OPR/119.0.0.0","WebKit","Opera","119.0.0.0","Windows","10.0","https://app.prolific.com/","en-US,en;q=0.9","5b5393228fb8db0001a81c7e","683db6dfa200031b80f2a654","686507729b3cf6295ba98d05","5b5393228fb8db0001a81c7e","2025-07-02T10:38:55.729Z","","","","","","","","","","","","","","","","win-only","1","g1:NE,g2:SW","0.6","5","0","970789.7","910.2","5910.5","32735.5","1","4","8","6","2","8","7","16","9","0.12121212121212122","1334.9","3000","420","[""down"",""left""]","{""num_key_presses"":10,""num_perfect"":6,""num_errors"":1,""num_randdir"":3,""num_randdir_good_moves"":2,""num_whilered"":0,""num_whileblue"":1,""num_blue"":1,""num_good_moves"":8}","[555.4285637991769,551.6785685675485,0.2,555.4285637991769,551.6785685675485,101.2,555.4285637991769,551.6785685675485,201.3,555.4285637991769,551.6785685675485,304.7,555.4285637991769,551.6785685675485,405.1,522.9285637991769,569.1785685675485,507.1,411.6785637991769,767.9285685675485,610.2,360.4285637991769,830.4285685675485,710.2,262.9285637991769,872.9285685675485,815,251.6785637991769,880.4285685675485,916.2,217.9285637991769,926.6785685675485,1021,135.4285637991769,990.4285685675485,1128.3,125.4285637991769,1005.4285685675485,1230.2,125.4285637991769,1005.4285685675485,1331.8,125.4285637991769,1005.4285685675485,1435.9,125.4285637991769,1005.4285685675485,1541,125.4285637991769,1005.4285685675485,1645.4,125.4285637991769,1005.4285685675485,1750.7,125.4285637991769,1005.4285685675485,1855.3,125.4285637991769,1005.4285685675485,1960.6,125.4285637991769,1005.4285685675485,2067.8,125.4285637991769,1005.4285685675485,2170.3,125.4285637991769,1005.4285685675485,2270.7,125.4285637991769,1005.4285685675485,2375.3,125.4285637991769,1005.4285685675485,2486.6,125.4285637991769,1005.4285685675485,2591.2,125.4285637991769,1005.4285685675485,2696.7,125.4285637991769,1005.4285685675485,2800.5,125.4285637991769,1005.4285685675485,2905.2,125.4285637991769,1005.4285685675485,3005.5,125.4285637991769,1005.4285685675485,3105.5,125.4285637991769,1005.4285685675485,3205.8,125.4285637991769,1005.4285685675485,3310.2,125.4285637991769,1005.4285685675485,3410.7,125.4285637991769,1005.4285685675485,3526.6,125.4285637991769,1005.4285685675485,3630.3,125.4285637991769,1005.4285685675485,3735,125.4285637991769,1005.4285685675485,3835.2,125.4285637991769,1005.4285685675485,3935.6,125.4285637991769,1005.4285685675485,4036,125.4285637991769,1005.4285685675485,4140,125.4285637991769,1005.4285685675485,4240.3,125.4285637991769,1005.4285685675485,4341.2,125.4285637991769,1005.4285685675485,4463.1,125.4285637991769,1005.4285685675485,4571.9,125.4285637991769,1005.4285685675485,4675.1,125.4285637991769,1005.4285685675485,4779.7,125.4285637991769,1005.4285685675485,4880.2,125.4285637991769,1005.4285685675485,4986.2]","[1374.6,1374.6,1000,0,374.6,""smooth"",""left"",""left"",""good_move"",4814.7,3439.9,3009.4,1374.8,430.5,""smooth"",""left"",""left"",""good_move"",7454.4,2639.6,2249.2,4814.8,390.4,""smooth"",""down"",""down"",""good_move"",10280.3,2825.7,2477.6,7454.6,348.1,""while_blue"",""down"",""up"",""bad_move"",12900.9,2620.3,2173.5,10280.6,446.8,""smooth"",""down"",""down"",""good_move"",15731.5,2830.5,2399.1,12901,431.4,""oops"",""down"",""down"",""good_move"",18752.2,3020.5,2628.1,15731.7,392.4,""oops"",""left"",""up"",""bad_move"",21855.1,3102.8,2684.5,18752.3,418.3,""smooth"",""down"",""down"",""good_move"",24608.3,2753.1,2370.6,21855.2,382.5,""oops"",""left"",""left"",""good_move"",26702,2093.4,1690,24608.6,403.5,""smooth"",""down"",""down"",""good_move""]","",""
"4063","","<div style=""width:500px;"">
  <p>What determined the result of this run?</p>
  </div>","60","html-slider-response","70","1010225","0.0-10.0-1.4","130","1","2025-07-02 10:20:19","80fe4187154257d5fb01684ea91b68b9","82.131.14.68","Mozilla/5.0 (Windows NT 10.0; Win64; x64) AppleWebKit/537.36 (KHTML, like Gecko) Chrome/134.0.0.0 Safari/537.36 OPR/119.0.0.0","WebKit","Opera","119.0.0.0","Windows","10.0","https://app.prolific.com/","en-US,en;q=0.9","5b5393228fb8db0001a81c7e","683db6dfa200031b80f2a654","686507729b3cf6295ba98d05","5b5393228fb8db0001a81c7e","2025-07-02T10:38:59.793Z","","","","","","AttribQ","","","","","","","","","","","","","","","","","","","","","","","","","","","","","","","","","","","","","","50"
"2136","","<div style=""width:500px;"">
  <p>How much control did you have over the ball?</p>
  </div>","60","html-slider-response","71","1012362","0.0-10.0-2.4","130","1","2025-07-02 10:20:19","80fe4187154257d5fb01684ea91b68b9","82.131.14.68","Mozilla/5.0 (Windows NT 10.0; Win64; x64) AppleWebKit/537.36 (KHTML, like Gecko) Chrome/134.0.0.0 Safari/537.36 OPR/119.0.0.0","WebKit","Opera","119.0.0.0","Windows","10.0","https://app.prolific.com/","en-US,en;q=0.9","5b5393228fb8db0001a81c7e","683db6dfa200031b80f2a654","686507729b3cf6295ba98d05","5b5393228fb8db0001a81c7e","2025-07-02T10:39:01.930Z","","","","","","ControlQ","","","","","","","","","","","","","","","","","","","","","","","","","","","","","","","","","","","","","","50"
"1534","","<div style=""width:500px;"">
  <p>How would you describe your current emotional state?</p>
  </div>","50","html-slider-response","72","1013896","0.0-10.0-3.4","130","1","2025-07-02 10:20:19","80fe4187154257d5fb01684ea91b68b9","82.131.14.68","Mozilla/5.0 (Windows NT 10.0; Win64; x64) AppleWebKit/537.36 (KHTML, like Gecko) Chrome/134.0.0.0 Safari/537.36 OPR/119.0.0.0","WebKit","Opera","119.0.0.0","Windows","10.0","https://app.prolific.com/","en-US,en;q=0.9","5b5393228fb8db0001a81c7e","683db6dfa200031b80f2a654","686507729b3cf6295ba98d05","5b5393228fb8db0001a81c7e","2025-07-02T10:39:03.464Z","","","","","","StressQ","","","","","","","","","","","","","","","","","","","","","","","","","","","","","","","","","","","","","","50"
"1273","","<div style=""width:500px;"">
  <p>What best describes how you currently feel?</p>
  </div>","50","html-slider-response","73","1015170","0.0-10.0-4.4","130","1","2025-07-02 10:20:19","80fe4187154257d5fb01684ea91b68b9","82.131.14.68","Mozilla/5.0 (Windows NT 10.0; Win64; x64) AppleWebKit/537.36 (KHTML, like Gecko) Chrome/134.0.0.0 Safari/537.36 OPR/119.0.0.0","WebKit","Opera","119.0.0.0","Windows","10.0","https://app.prolific.com/","en-US,en;q=0.9","5b5393228fb8db0001a81c7e","683db6dfa200031b80f2a654","686507729b3cf6295ba98d05","5b5393228fb8db0001a81c7e","2025-07-02T10:39:04.738Z","","","","","","MotivationQ","","","","","","","","","","","","","","","","","","","","","","","","","","","","","","","","","","","","","","50"
"","","","","ctl-task-cpt","74","1070010","0.0-10.0-0.5","130","1","2025-07-02 10:20:19","80fe4187154257d5fb01684ea91b68b9","82.131.14.68","Mozilla/5.0 (Windows NT 10.0; Win64; x64) AppleWebKit/537.36 (KHTML, like Gecko) Chrome/134.0.0.0 Safari/537.36 OPR/119.0.0.0","WebKit","Opera","119.0.0.0","Windows","10.0","https://app.prolific.com/","en-US,en;q=0.9","5b5393228fb8db0001a81c7e","683db6dfa200031b80f2a654","686507729b3cf6295ba98d05","5b5393228fb8db0001a81c7e","2025-07-02T10:39:59.578Z","","","","","","","","","","","","","","","","win-only","1","g1:NE,g2:SW","0.5","6","0","1015557.8","781.1","5785.8","51821.2","1","4","4","6","2","-4","-4","12","16","0.09090909090909091","1208.1","3000","-2225","[""down"",""left""]","{""num_key_presses"":10,""num_perfect"":5,""num_errors"":0,""num_randdir"":5,""num_randdir_good_moves"":2,""num_whilered"":0,""num_whileblue"":0,""num_blue"":5,""num_good_moves"":7}","[554.1785637991769,545.4285685675485,0,554.1785637991769,545.4285685675485,111.7,554.1785637991769,545.4285685675485,213.1,556.6785637991769,545.4285685675485,313.2,601.6785637991769,521.6785685675485,418.8,659.1785637991769,480.4285685675485,529,734.1785637991769,404.1785685675485,629.7,199.1785637991769,974.1785685675485,734.4,124.1785637991769,1044.1785685675484,835.7,90.4285637991769,1075.4285685675484,939.2,84.1785637991769,1075.4285685675484,1039.3,100.4285637991769,1026.6785685675484,1139.7,104.1785637991769,1021.6785685675485,1240,104.1785637991769,1021.6785685675485,1345.3,104.1785637991769,1021.6785685675485,1450.7,104.1785637991769,1021.6785685675485,1554.1,104.1785637991769,1021.6785685675485,1656,104.1785637991769,1021.6785685675485,1759.3,104.1785637991769,1021.6785685675485,1860.3,104.1785637991769,1021.6785685675485,1964,104.1785637991769,1021.6785685675485,2065.5,104.1785637991769,1021.6785685675485,2169.9,104.1785637991769,1021.6785685675485,2283.5,104.1785637991769,1021.6785685675485,2384.2,104.1785637991769,1021.6785685675485,2484.2,104.1785637991769,1021.6785685675485,2584.5,104.1785637991769,1021.6785685675485,2684.6,104.1785637991769,1021.6785685675485,2785.5,104.1785637991769,1021.6785685675485,2902.8,104.1785637991769,1021.6785685675485,3004.7,104.1785637991769,1021.6785685675485,3104.7,104.1785637991769,1021.6785685675485,3204.7,104.1785637991769,1021.6785685675485,3320.9,104.1785637991769,1021.6785685675485,3437.6,104.1785637991769,1021.6785685675485,3538.8,104.1785637991769,1021.6785685675485,3639.3,104.1785637991769,1021.6785685675485,3739.6,104.1785637991769,1021.6785685675485,3851.7,104.1785637991769,1021.6785685675485,3959.4,104.1785637991769,1021.6785685675485,4059.6,104.1785637991769,1021.6785685675485,4159.8,104.1785637991769,1021.6785685675485,4284,104.1785637991769,1021.6785685675485,4384.5,104.1785637991769,1021.6785685675485,4487.3,104.1785637991769,1021.6785685675485,4590,104.1785637991769,1021.6785685675485,4692.3,104.1785637991769,1021.6785685675485,4794.5,104.1785637991769,1021.6785685675485,4899.8]","[4600.8,4600.8,2200.5,2001.1,399.2,""smooth"",""down"",""down"",""good_move"",7112.1,2510.9,2028.5,4601.2,482.4,""oops"",""left"",""right"",""bad_move"",9612.7,2500.2,2190.8,7112.5,309.4,""oops"",""left"",""right"",""bad_move"",12526.4,2913.6,2549.1,9612.8,364.5,""oops"",""left"",""down"",""good_move"",19213.5,6687,2708.5,16120,385,""smooth"",""left"",""left"",""good_move"",22540.3,3326.6,2950.4,19213.7,376.2,""smooth"",""left"",""left"",""good_move"",25434.8,2893.9,2464.4,22540.9,429.5,""oops"",""left"",""right"",""bad_move"",31835.6,6400.6,2640.6,28856.7,338.3,""smooth"",""left"",""left"",""good_move"",38524.7,6689.1,2366,35829.4,329.3,""smooth"",""down"",""down"",""good_move"",43065.1,4540.1,1215.7,41432.6,416.8,""oops"",""left"",""left"",""good_move""]","",""
"5096","","<div style=""width:500px;"">
  <p>What determined the result of this run?</p>
  </div>","8","html-slider-response","75","1075106","0.0-10.0-1.5","130","1","2025-07-02 10:20:19","80fe4187154257d5fb01684ea91b68b9","82.131.14.68","Mozilla/5.0 (Windows NT 10.0; Win64; x64) AppleWebKit/537.36 (KHTML, like Gecko) Chrome/134.0.0.0 Safari/537.36 OPR/119.0.0.0","WebKit","Opera","119.0.0.0","Windows","10.0","https://app.prolific.com/","en-US,en;q=0.9","5b5393228fb8db0001a81c7e","683db6dfa200031b80f2a654","686507729b3cf6295ba98d05","5b5393228fb8db0001a81c7e","2025-07-02T10:40:04.674Z","","","","","","AttribQ","","","","","","","","","","","","","","","","","","","","","","","","","","","","","","","","","","","","","","50"
"2790","","<div style=""width:500px;"">
  <p>How much control did you have over the ball?</p>
  </div>","25","html-slider-response","76","1077897","0.0-10.0-2.5","130","1","2025-07-02 10:20:19","80fe4187154257d5fb01684ea91b68b9","82.131.14.68","Mozilla/5.0 (Windows NT 10.0; Win64; x64) AppleWebKit/537.36 (KHTML, like Gecko) Chrome/134.0.0.0 Safari/537.36 OPR/119.0.0.0","WebKit","Opera","119.0.0.0","Windows","10.0","https://app.prolific.com/","en-US,en;q=0.9","5b5393228fb8db0001a81c7e","683db6dfa200031b80f2a654","686507729b3cf6295ba98d05","5b5393228fb8db0001a81c7e","2025-07-02T10:40:07.465Z","","","","","","ControlQ","","","","","","","","","","","","","","","","","","","","","","","","","","","","","","","","","","","","","","50"
"2200","","<div style=""width:500px;"">
  <p>How would you describe your current emotional state?</p>
  </div>","50","html-slider-response","77","1080097","0.0-10.0-3.5","130","1","2025-07-02 10:20:19","80fe4187154257d5fb01684ea91b68b9","82.131.14.68","Mozilla/5.0 (Windows NT 10.0; Win64; x64) AppleWebKit/537.36 (KHTML, like Gecko) Chrome/134.0.0.0 Safari/537.36 OPR/119.0.0.0","WebKit","Opera","119.0.0.0","Windows","10.0","https://app.prolific.com/","en-US,en;q=0.9","5b5393228fb8db0001a81c7e","683db6dfa200031b80f2a654","686507729b3cf6295ba98d05","5b5393228fb8db0001a81c7e","2025-07-02T10:40:09.665Z","","","","","","StressQ","","","","","","","","","","","","","","","","","","","","","","","","","","","","","","","","","","","","","","50"
"1104","","<div style=""width:500px;"">
  <p>What best describes how you currently feel?</p>
  </div>","50","html-slider-response","78","1081202","0.0-10.0-4.5","130","1","2025-07-02 10:20:19","80fe4187154257d5fb01684ea91b68b9","82.131.14.68","Mozilla/5.0 (Windows NT 10.0; Win64; x64) AppleWebKit/537.36 (KHTML, like Gecko) Chrome/134.0.0.0 Safari/537.36 OPR/119.0.0.0","WebKit","Opera","119.0.0.0","Windows","10.0","https://app.prolific.com/","en-US,en;q=0.9","5b5393228fb8db0001a81c7e","683db6dfa200031b80f2a654","686507729b3cf6295ba98d05","5b5393228fb8db0001a81c7e","2025-07-02T10:40:10.770Z","","","","","","MotivationQ","","","","","","","","","","","","","","","","","","","","","","","","","","","","","","","","","","","","","","50"
"","","","","ctl-task-cpt","79","1113816","0.0-10.0-0.6","130","1","2025-07-02 10:20:19","80fe4187154257d5fb01684ea91b68b9","82.131.14.68","Mozilla/5.0 (Windows NT 10.0; Win64; x64) AppleWebKit/537.36 (KHTML, like Gecko) Chrome/134.0.0.0 Safari/537.36 OPR/119.0.0.0","WebKit","Opera","119.0.0.0","Windows","10.0","https://app.prolific.com/","en-US,en;q=0.9","5b5393228fb8db0001a81c7e","683db6dfa200031b80f2a654","686507729b3cf6295ba98d05","5b5393228fb8db0001a81c7e","2025-07-02T10:40:43.384Z","","","","","","","","","","","","","","","","win-only","0","g1:NW,g2:SE","0.4","7","0","1081588.9","813.6","5816.6","29581","1","4","4","6","2","-4","-5","7","12","0.05303030303030303","1526.2","3000","-2140","[""down"",""right""]","{""num_key_presses"":8,""num_perfect"":3,""num_errors"":1,""num_randdir"":4,""num_randdir_good_moves"":0,""num_whilered"":0,""num_whileblue"":0,""num_blue"":0,""num_good_moves"":3}","[554.1785637991769,565.4285685675485,0.1,554.1785637991769,565.4285685675485,104.4,554.1785637991769,565.4285685675485,206.5,554.1785637991769,565.4285685675485,307.2,554.1785637991769,565.4285685675485,419.7,554.1785637991769,565.4285685675485,522.3,620.4285637991769,621.6785685675485,640.2,690.4285637991769,710.4285685675485,742.4,705.4285637991769,749.1785685675485,842.5,845.4285637991769,937.9285685675485,946.4,970.4285637991769,1035.4285685675484,1046.7,970.4285637991769,1035.4285685675484,1147.1,970.4285637991769,1035.4285685675484,1251.7,970.4285637991769,1035.4285685675484,1352.6,970.4285637991769,1035.4285685675484,1461.9,970.4285637991769,1035.4285685675484,1563,970.4285637991769,1035.4285685675484,1667.1,995.4285637991769,1035.4285685675484,1767.2,1324.1785637991768,995.4285685675485,1872.9,1512.9285637991768,955.4285685675485,1975.9,1512.9285637991768,955.4285685675485,2088.9,1512.9285637991768,955.4285685675485,2192.3,1512.9285637991768,955.4285685675485,2297.1,1512.9285637991768,955.4285685675485,2403.5,1512.9285637991768,955.4285685675485,2506.5,1512.9285637991768,955.4285685675485,2607.6,1512.9285637991768,955.4285685675485,2712,1512.9285637991768,955.4285685675485,2822.6,1512.9285637991768,955.4285685675485,2926.5,1512.9285637991768,955.4285685675485,3026.8,1512.9285637991768,955.4285685675485,3127.2,1512.9285637991768,955.4285685675485,3240.8,1512.9285637991768,955.4285685675485,3341.9,1512.9285637991768,955.4285685675485,3442.2,1512.9285637991768,955.4285685675485,3542.7,1512.9285637991768,955.4285685675485,3666.5,1512.9285637991768,955.4285685675485,3766.6,1512.9285637991768,955.4285685675485,3866.7,1512.9285637991768,955.4285685675485,3972.5,1512.9285637991768,955.4285685675485,4077.8,1512.9285637991768,955.4285685675485,4177.8,1512.9285637991768,955.4285685675485,4294,1512.9285637991768,955.4285685675485,4395.3,1512.9285637991768,955.4285685675485,4496.8,1512.9285637991768,955.4285685675485,4597.1,1512.9285637991768,955.4285685675485,4697.2,1512.9285637991768,955.4285685675485,4797.8,1512.9285637991768,955.4285685675485,4901.9]","[460.1,460.1,1000,0,-539.9,""error"",""-"",""-"",""no_move"",4010.7,3550.5,1007.9,1469.8,1533,""oops"",""down"",""left"",""bad_move"",6750.6,2739.7,2182.7,4010.9,557,""smooth"",""down"",""down"",""good_move"",10147.6,3396.6,3007.8,6751.1,388.7,""smooth"",""right"",""right"",""good_move"",13201,3053.2,2677.9,10147.8,375.3,""oops"",""right"",""left"",""bad_move"",15668.4,2467.2,2047.6,13201.2,419.6,""smooth"",""right"",""right"",""good_move"",18109.7,2441.2,2024.2,15668.5,417,""oops"",""right"",""up"",""bad_move"",20755.9,2646,2261.8,18109.9,384.2,""oops"",""right"",""left"",""bad_move""]","",""
"2848","","<div style=""width:500px;"">
  <p>What determined the result of this run?</p>
  </div>","4","html-slider-response","80","1116665","0.0-10.0-1.6","130","1","2025-07-02 10:20:19","80fe4187154257d5fb01684ea91b68b9","82.131.14.68","Mozilla/5.0 (Windows NT 10.0; Win64; x64) AppleWebKit/537.36 (KHTML, like Gecko) Chrome/134.0.0.0 Safari/537.36 OPR/119.0.0.0","WebKit","Opera","119.0.0.0","Windows","10.0","https://app.prolific.com/","en-US,en;q=0.9","5b5393228fb8db0001a81c7e","683db6dfa200031b80f2a654","686507729b3cf6295ba98d05","5b5393228fb8db0001a81c7e","2025-07-02T10:40:46.233Z","","","","","","AttribQ","","","","","","","","","","","","","","","","","","","","","","","","","","","","","","","","","","","","","","50"
"2688","","<div style=""width:500px;"">
  <p>How much control did you have over the ball?</p>
  </div>","13","html-slider-response","81","1119353","0.0-10.0-2.6","130","1","2025-07-02 10:20:19","80fe4187154257d5fb01684ea91b68b9","82.131.14.68","Mozilla/5.0 (Windows NT 10.0; Win64; x64) AppleWebKit/537.36 (KHTML, like Gecko) Chrome/134.0.0.0 Safari/537.36 OPR/119.0.0.0","WebKit","Opera","119.0.0.0","Windows","10.0","https://app.prolific.com/","en-US,en;q=0.9","5b5393228fb8db0001a81c7e","683db6dfa200031b80f2a654","686507729b3cf6295ba98d05","5b5393228fb8db0001a81c7e","2025-07-02T10:40:48.921Z","","","","","","ControlQ","","","","","","","","","","","","","","","","","","","","","","","","","","","","","","","","","","","","","","50"
"2655","","<div style=""width:500px;"">
  <p>How would you describe your current emotional state?</p>
  </div>","80","html-slider-response","82","1122009","0.0-10.0-3.6","130","1","2025-07-02 10:20:19","80fe4187154257d5fb01684ea91b68b9","82.131.14.68","Mozilla/5.0 (Windows NT 10.0; Win64; x64) AppleWebKit/537.36 (KHTML, like Gecko) Chrome/134.0.0.0 Safari/537.36 OPR/119.0.0.0","WebKit","Opera","119.0.0.0","Windows","10.0","https://app.prolific.com/","en-US,en;q=0.9","5b5393228fb8db0001a81c7e","683db6dfa200031b80f2a654","686507729b3cf6295ba98d05","5b5393228fb8db0001a81c7e","2025-07-02T10:40:51.577Z","","","","","","StressQ","","","","","","","","","","","","","","","","","","","","","","","","","","","","","","","","","","","","","","50"
"3313","","<div style=""width:500px;"">
  <p>What best describes how you currently feel?</p>
  </div>","50","html-slider-response","83","1125322","0.0-10.0-4.6","130","1","2025-07-02 10:20:19","80fe4187154257d5fb01684ea91b68b9","82.131.14.68","Mozilla/5.0 (Windows NT 10.0; Win64; x64) AppleWebKit/537.36 (KHTML, like Gecko) Chrome/134.0.0.0 Safari/537.36 OPR/119.0.0.0","WebKit","Opera","119.0.0.0","Windows","10.0","https://app.prolific.com/","en-US,en;q=0.9","5b5393228fb8db0001a81c7e","683db6dfa200031b80f2a654","686507729b3cf6295ba98d05","5b5393228fb8db0001a81c7e","2025-07-02T10:40:54.890Z","","","","","","MotivationQ","","","","","","","","","","","","","","","","","","","","","","","","","","","","","","","","","","","","","","50"
"","","","","ctl-task-cpt","84","1161458","0.0-10.0-0.7","130","1","2025-07-02 10:20:19","80fe4187154257d5fb01684ea91b68b9","82.131.14.68","Mozilla/5.0 (Windows NT 10.0; Win64; x64) AppleWebKit/537.36 (KHTML, like Gecko) Chrome/134.0.0.0 Safari/537.36 OPR/119.0.0.0","WebKit","Opera","119.0.0.0","Windows","10.0","https://app.prolific.com/","en-US,en;q=0.9","5b5393228fb8db0001a81c7e","683db6dfa200031b80f2a654","686507729b3cf6295ba98d05","5b5393228fb8db0001a81c7e","2025-07-02T10:41:31.026Z","","","","","","","","","","","","","","","","win-only","1","g1:NE,g2:SW","0.3","8","0","1125709.3","2982.4","7985.5","33110.5","1","4","8","6","1","1","1","8","7","0.06060606060606061","1573.5","3000","625","[""up"",""right""]","{""num_key_presses"":8,""num_perfect"":3,""num_errors"":0,""num_randdir"":5,""num_randdir_good_moves"":3,""num_whilered"":0,""num_whileblue"":0,""num_blue"":0,""num_good_moves"":6}","[559.1785637991769,550.4285685675485,0.2,559.1785637991769,550.4285685675485,102.6,559.1785637991769,550.4285685675485,208.3,559.1785637991769,550.4285685675485,319.6,559.1785637991769,550.4285685675485,423.6,559.1785637991769,550.4285685675485,527.7,559.1785637991769,550.4285685675485,628.4,559.1785637991769,550.4285685675485,734.2,559.1785637991769,550.4285685675485,837.7,559.1785637991769,550.4285685675485,942.8,559.1785637991769,550.4285685675485,1043.3,699.1785637991769,400.4285685675485,1143.4,852.9285637991769,222.9285685675485,1243.4,875.4285637991769,195.4285685675485,1348.2,1020.4285637991769,136.6785685675485,1452.5,1055.4285637991768,116.67856856754848,1552.8,1055.4285637991768,116.67856856754848,1661.4,1055.4285637991768,116.67856856754848,1766.6,1055.4285637991768,116.67856856754848,1868.3,1055.4285637991768,116.67856856754848,1968.5,1055.4285637991768,116.67856856754848,2069.3,1055.4285637991768,116.67856856754848,2173.6,1055.4285637991768,116.67856856754848,2274.4,1055.4285637991768,116.67856856754848,2377.8,1055.4285637991768,116.67856856754848,2478.5,1055.4285637991768,116.67856856754848,2587.4,1055.4285637991768,116.67856856754848,2694.2,1055.4285637991768,116.67856856754848,2798.7,1055.4285637991768,116.67856856754848,2898.8,1055.4285637991768,116.67856856754848,3004.1,1055.4285637991768,116.67856856754848,3107.7,1055.4285637991768,116.67856856754848,3209.1,1055.4285637991768,116.67856856754848,3309.4,1055.4285637991768,116.67856856754848,3412.8,1055.4285637991768,116.67856856754848,3516.7,1055.4285637991768,116.67856856754848,3622.9,1055.4285637991768,116.67856856754848,3723.5,1055.4285637991768,116.67856856754848,3824.8,1055.4285637991768,116.67856856754848,3928.3,1055.4285637991768,116.67856856754848,4028.8,1055.4285637991768,116.67856856754848,4134.3,1055.4285637991768,116.67856856754848,4245.5,1055.4285637991768,116.67856856754848,4348.3,1055.4285637991768,116.67856856754848,4448.7,1055.4285637991768,116.67856856754848,4553.4,1055.4285637991768,116.67856856754848,4654.2,1055.4285637991768,116.67856856754848,4760.1,1055.4285637991768,116.67856856754848,4864,1055.4285637991768,116.67856856754848,4968.2]","[1531.2,1531.2,1000,0,531.2,""oops"",""right"",""left"",""bad_move"",4860.3,3328.9,2953.3,1531.4,375.6,""smooth"",""right"",""right"",""good_move"",8443.7,3583.3,3222.3,4860.4,361,""oops"",""right"",""up"",""good_move"",12237,3793.1,3405.7,8443.9,387.4,""oops"",""right"",""up"",""good_move"",15179.9,2942.9,2494.4,12237,448.5,""smooth"",""right"",""right"",""good_move"",18739.7,3559.6,3183,15180.1,376.6,""oops"",""right"",""down"",""bad_move"",21516.5,2776.7,2353.7,18739.8,423,""oops"",""right"",""right"",""good_move"",25004.9,3488.3,3116.7,21516.6,371.6,""smooth"",""up"",""up"",""good_move""]","",""
"3695","","<div style=""width:500px;"">
  <p>What determined the result of this run?</p>
  </div>","13","html-slider-response","85","1165153","0.0-10.0-1.7","130","1","2025-07-02 10:20:19","80fe4187154257d5fb01684ea91b68b9","82.131.14.68","Mozilla/5.0 (Windows NT 10.0; Win64; x64) AppleWebKit/537.36 (KHTML, like Gecko) Chrome/134.0.0.0 Safari/537.36 OPR/119.0.0.0","WebKit","Opera","119.0.0.0","Windows","10.0","https://app.prolific.com/","en-US,en;q=0.9","5b5393228fb8db0001a81c7e","683db6dfa200031b80f2a654","686507729b3cf6295ba98d05","5b5393228fb8db0001a81c7e","2025-07-02T10:41:34.721Z","","","","","","AttribQ","","","","","","","","","","","","","","","","","","","","","","","","","","","","","","","","","","","","","","50"
"3928","","<div style=""width:500px;"">
  <p>How much control did you have over the ball?</p>
  </div>","13","html-slider-response","86","1169081","0.0-10.0-2.7","130","1","2025-07-02 10:20:19","80fe4187154257d5fb01684ea91b68b9","82.131.14.68","Mozilla/5.0 (Windows NT 10.0; Win64; x64) AppleWebKit/537.36 (KHTML, like Gecko) Chrome/134.0.0.0 Safari/537.36 OPR/119.0.0.0","WebKit","Opera","119.0.0.0","Windows","10.0","https://app.prolific.com/","en-US,en;q=0.9","5b5393228fb8db0001a81c7e","683db6dfa200031b80f2a654","686507729b3cf6295ba98d05","5b5393228fb8db0001a81c7e","2025-07-02T10:41:38.649Z","","","","","","ControlQ","","","","","","","","","","","","","","","","","","","","","","","","","","","","","","","","","","","","","","50"
"2894","","<div style=""width:500px;"">
  <p>How would you describe your current emotional state?</p>
  </div>","84","html-slider-response","87","1171976","0.0-10.0-3.7","130","1","2025-07-02 10:20:19","80fe4187154257d5fb01684ea91b68b9","82.131.14.68","Mozilla/5.0 (Windows NT 10.0; Win64; x64) AppleWebKit/537.36 (KHTML, like Gecko) Chrome/134.0.0.0 Safari/537.36 OPR/119.0.0.0","WebKit","Opera","119.0.0.0","Windows","10.0","https://app.prolific.com/","en-US,en;q=0.9","5b5393228fb8db0001a81c7e","683db6dfa200031b80f2a654","686507729b3cf6295ba98d05","5b5393228fb8db0001a81c7e","2025-07-02T10:41:41.544Z","","","","","","StressQ","","","","","","","","","","","","","","","","","","","","","","","","","","","","","","","","","","","","","","50"
"3249","","<div style=""width:500px;"">
  <p>What best describes how you currently feel?</p>
  </div>","50","html-slider-response","88","1175225","0.0-10.0-4.7","130","1","2025-07-02 10:20:19","80fe4187154257d5fb01684ea91b68b9","82.131.14.68","Mozilla/5.0 (Windows NT 10.0; Win64; x64) AppleWebKit/537.36 (KHTML, like Gecko) Chrome/134.0.0.0 Safari/537.36 OPR/119.0.0.0","WebKit","Opera","119.0.0.0","Windows","10.0","https://app.prolific.com/","en-US,en;q=0.9","5b5393228fb8db0001a81c7e","683db6dfa200031b80f2a654","686507729b3cf6295ba98d05","5b5393228fb8db0001a81c7e","2025-07-02T10:41:44.794Z","","","","","","MotivationQ","","","","","","","","","","","","","","","","","","","","","","","","","","","","","","","","","","","","","","50"
