"rt","response_timestamp","stimulus","response","trial_type","trial_index","time_elapsed","internal_node_id","run_id","condition","recorded_at","source_code_version","ip","user_agent","device","browser","browser_version","platform","platform_version","referer","accept_language","PROLIFIC_PID","STUDY_ID","SESSION_ID","prolific_id","realtime","view_history","question_order","consent","success","question_id","eventType","responses","item_order","radio_event_ids","radio_event_times","key_event_times","mouse_event_times","straightlining","zigzagging","honeypot","which_type","canvas_config","goals_layout","control_level","trial_number","tutorial_trial_number","trial_start_time","phase1_start_time","phase2_start_time","phase3_start_time","goal_1_value","goal_1_distance","goal_2_value","goal_2_distance","goal_selected","outcome","outcome_total","participant_final_score","participant_initial_score","participant_final_score_prop","goal_choice_rt","allocated_time","allocated_time_remaining","goal_direction","counts","mouse_movements","key_presses","correct","slider_start"
"33983","1751451613224","<p style='font-size:40px;line-height:1.25'><strong>Welcome to the experiment!</strong></p><p style='font-size:1.1em;line-height:1.25'>Thank you for your interest in our experiment! Before you begin, it is important that we obtain your informed consent to participate in the study.</p><p style='font-size:1.1em;line-height:1.25'>On the next screen will be an <strong>information sheet</strong> for you to read. To participate in the study we need you to read this information sheet and the following consent form carefully. If you agree with all the statements, please click the <strong>I agree</strong> button.</p><p style='font-size:1.1em;line-height:1.25'>Press <strong>Next</strong> to read the information sheet.</p>","0","custom-html-button-response","0","33985","0.0-0.0","107","1","2025-07-02 10:19:34","80fe4187154257d5fb01684ea91b68b9","87.97.112.208","Mozilla/5.0 (Windows NT 10.0; Win64; x64; rv:140.0) Gecko/20100101 Firefox/140.0","","Firefox","140.0","Windows","10.0","https://app.prolific.com/","en-US,en;q=0.5","5bc4784e85214800017d8c1a","683db6dfa200031b80f2a654","686507893c1f1acf9d0bb649","5bc4784e85214800017d8c1a","2025-07-02T10:20:13.225Z","","","","","","","","","","","","","","","","","","","","","","","","","","","","","","","","","","","","","","","","","","","",""
"89341","","","","instructions","1","123328","0.0-1.0","107","1","2025-07-02 10:19:34","80fe4187154257d5fb01684ea91b68b9","87.97.112.208","Mozilla/5.0 (Windows NT 10.0; Win64; x64; rv:140.0) Gecko/20100101 Firefox/140.0","","Firefox","140.0","Windows","10.0","https://app.prolific.com/","en-US,en;q=0.5","5bc4784e85214800017d8c1a","683db6dfa200031b80f2a654","686507893c1f1acf9d0bb649","5bc4784e85214800017d8c1a","","[{""page_index"":0,""viewing_time"":81056},{""page_index"":1,""viewing_time"":8285}]","","","","","","","","","","","","","","","","","","","","","","","","","","","","","","","","","","","","","","","","","","",""
"35585","","","{""Q0"":"""",""Q1"":"""",""Q2"":"""",""Q3"":"""",""Q4"":"""",""Q5"":"""",""Q6"":""I agree""}","survey-multi-choice","2","158918","0.0-2.0","107","1","2025-07-02 10:19:34","80fe4187154257d5fb01684ea91b68b9","87.97.112.208","Mozilla/5.0 (Windows NT 10.0; Win64; x64; rv:140.0) Gecko/20100101 Firefox/140.0","","Firefox","140.0","Windows","10.0","https://app.prolific.com/","en-US,en;q=0.5","5bc4784e85214800017d8c1a","683db6dfa200031b80f2a654","686507893c1f1acf9d0bb649","5bc4784e85214800017d8c1a","","","[0,1,2,3,4,5,6]","true","","","","","","","","","","","","","","","","","","","","","","","","","","","","","","","","","","","","","","","","",""
"10494","","","","fullscreen","3","170487","0.0-4.0","107","1","2025-07-02 10:19:34","80fe4187154257d5fb01684ea91b68b9","87.97.112.208","Mozilla/5.0 (Windows NT 10.0; Win64; x64; rv:140.0) Gecko/20100101 Firefox/140.0","","Firefox","140.0","Windows","10.0","https://app.prolific.com/","en-US,en;q=0.5","5bc4784e85214800017d8c1a","683db6dfa200031b80f2a654","686507893c1f1acf9d0bb649","5bc4784e85214800017d8c1a","","","","","true","","","","","","","","","","","","","","","","","","","","","","","","","","","","","","","","","","","","","","","",""
"6599","1751451756327"," <p style='font-size:1.1em;line-height:1.25'>Thank you for completing the consent form and closing all other tabs.</p><p style='font-size:1.1em;line-height:1.25'>We will now invite you to fill in some demographic information and questionnaires, before starting the game.<br>This will take about 5 minutes.<br></p><p style='font-size:1.1em;line-height:1.25'>Press the <strong>Next</strong> button to continue.</p>","0","custom-html-button-response","4","177088","0.0-5.0","107","1","2025-07-02 10:19:34","80fe4187154257d5fb01684ea91b68b9","87.97.112.208","Mozilla/5.0 (Windows NT 10.0; Win64; x64; rv:140.0) Gecko/20100101 Firefox/140.0","","Firefox","140.0","Windows","10.0","https://app.prolific.com/","en-US,en;q=0.5","5bc4784e85214800017d8c1a","683db6dfa200031b80f2a654","686507893c1f1acf9d0bb649","5bc4784e85214800017d8c1a","2025-07-02T10:22:36.328Z","","","","","","","","","","","","","","","","","","","","","","","","","","","","","","","","","","","","","","","","","","","",""
"3888","","","{""age"":""35""}","survey-text","5","181046","0.0-6.0-0.0","107","1","2025-07-02 10:19:34","80fe4187154257d5fb01684ea91b68b9","87.97.112.208","Mozilla/5.0 (Windows NT 10.0; Win64; x64; rv:140.0) Gecko/20100101 Firefox/140.0","","Firefox","140.0","Windows","10.0","https://app.prolific.com/","en-US,en;q=0.5","5bc4784e85214800017d8c1a","683db6dfa200031b80f2a654","686507893c1f1acf9d0bb649","5bc4784e85214800017d8c1a","","","","","","0","demographics","","","","","","","","","","","","","","","","","","","","","","","","","","","","","","","","","","","","","",""
"3636","","","{""gender_identity"":""male/man""}","survey-multi-choice","6","184683","0.0-6.0-1.0","107","1","2025-07-02 10:19:34","80fe4187154257d5fb01684ea91b68b9","87.97.112.208","Mozilla/5.0 (Windows NT 10.0; Win64; x64; rv:140.0) Gecko/20100101 Firefox/140.0","","Firefox","140.0","Windows","10.0","https://app.prolific.com/","en-US,en;q=0.5","5bc4784e85214800017d8c1a","683db6dfa200031b80f2a654","686507893c1f1acf9d0bb649","5bc4784e85214800017d8c1a","","","[0]","","","1","demographics","","","","","","","","","","","","","","","","","","","","","","","","","","","","","","","","","","","","","",""
"4648","","","{""assigned_sex"":""male""}","survey-multi-choice","7","189337","0.0-6.0-2.0","107","1","2025-07-02 10:19:34","80fe4187154257d5fb01684ea91b68b9","87.97.112.208","Mozilla/5.0 (Windows NT 10.0; Win64; x64; rv:140.0) Gecko/20100101 Firefox/140.0","","Firefox","140.0","Windows","10.0","https://app.prolific.com/","en-US,en;q=0.5","5bc4784e85214800017d8c1a","683db6dfa200031b80f2a654","686507893c1f1acf9d0bb649","5bc4784e85214800017d8c1a","","","[0]","","","2","demographics","","","","","","","","","","","","","","","","","","","","","","","","","","","","","","","","","","","","","",""
"4277","","","{""menstrual_cycle"":""No""}","survey-multi-choice","8","193621","0.0-6.0-3.0","107","1","2025-07-02 10:19:34","80fe4187154257d5fb01684ea91b68b9","87.97.112.208","Mozilla/5.0 (Windows NT 10.0; Win64; x64; rv:140.0) Gecko/20100101 Firefox/140.0","","Firefox","140.0","Windows","10.0","https://app.prolific.com/","en-US,en;q=0.5","5bc4784e85214800017d8c1a","683db6dfa200031b80f2a654","686507893c1f1acf9d0bb649","5bc4784e85214800017d8c1a","","","[0]","","","4","demographics","","","","","","","","","","","","","","","","","","","","","","","","","","","","","","","","","","","","","",""
"7127","","","{""education"":""Bachelor's Degree (e.g., BA)""}","survey-multi-choice","9","200754","0.0-6.0-4.0","107","1","2025-07-02 10:19:34","80fe4187154257d5fb01684ea91b68b9","87.97.112.208","Mozilla/5.0 (Windows NT 10.0; Win64; x64; rv:140.0) Gecko/20100101 Firefox/140.0","","Firefox","140.0","Windows","10.0","https://app.prolific.com/","en-US,en;q=0.5","5bc4784e85214800017d8c1a","683db6dfa200031b80f2a654","686507893c1f1acf9d0bb649","5bc4784e85214800017d8c1a","","","[0]","","","5","demographics","","","","","","","","","","","","","","","","","","","","","","","","","","","","","","","","","","","","","",""
"16278","","","{""education"":""Higher National Diploma""}","survey-multi-choice","10","217043","0.0-6.0-5.0","107","1","2025-07-02 10:19:34","80fe4187154257d5fb01684ea91b68b9","87.97.112.208","Mozilla/5.0 (Windows NT 10.0; Win64; x64; rv:140.0) Gecko/20100101 Firefox/140.0","","Firefox","140.0","Windows","10.0","https://app.prolific.com/","en-US,en;q=0.5","5bc4784e85214800017d8c1a","683db6dfa200031b80f2a654","686507893c1f1acf9d0bb649","5bc4784e85214800017d8c1a","2025-07-02T10:23:16.283Z","","[0]","","","6","demographics","","","","","","","","","","","","","","","","","","","","","","","","","","","","","","","","","","","","","",""
"20943","","","{""mental_health_condition"":""no"",""mental_health_treatment"":""no"",""psychiatric_medication"":""no""}","survey-text","11","238011","0.0-7.0-0.0","107","1","2025-07-02 10:19:34","80fe4187154257d5fb01684ea91b68b9","87.97.112.208","Mozilla/5.0 (Windows NT 10.0; Win64; x64; rv:140.0) Gecko/20100101 Firefox/140.0","","Firefox","140.0","Windows","10.0","https://app.prolific.com/","en-US,en;q=0.5","5bc4784e85214800017d8c1a","683db6dfa200031b80f2a654","686507893c1f1acf9d0bb649","5bc4784e85214800017d8c1a","2025-07-02T10:23:37.251Z","","","","","1","mental_health","","","","","","","","","","","","","","","","","","","","","","","","","","","","","","","","","","","","","",""
"13144","","","{""depression_history"":[""Yes""]}","survey-multi-select","12","251159","0.0-7.0-1.0","107","1","2025-07-02 10:19:34","80fe4187154257d5fb01684ea91b68b9","87.97.112.208","Mozilla/5.0 (Windows NT 10.0; Win64; x64; rv:140.0) Gecko/20100101 Firefox/140.0","","Firefox","140.0","Windows","10.0","https://app.prolific.com/","en-US,en;q=0.5","5bc4784e85214800017d8c1a","683db6dfa200031b80f2a654","686507893c1f1acf9d0bb649","5bc4784e85214800017d8c1a","","","[0]","","","","mental_health","","","","","","","","","","","","","","","","","","","","","","","","","","","","","","","","","","","","","",""
"16062","","","{""depression_episodes"":""1-2"",""depression_recent"":""More than 1 year ago""}","survey-multi-choice","13","267229","0.0-7.0-2.0-0.0","107","1","2025-07-02 10:19:34","80fe4187154257d5fb01684ea91b68b9","87.97.112.208","Mozilla/5.0 (Windows NT 10.0; Win64; x64; rv:140.0) Gecko/20100101 Firefox/140.0","","Firefox","140.0","Windows","10.0","https://app.prolific.com/","en-US,en;q=0.5","5bc4784e85214800017d8c1a","683db6dfa200031b80f2a654","686507893c1f1acf9d0bb649","5bc4784e85214800017d8c1a","2025-07-02T10:24:06.469Z","","[0,1]","","","3","mental_health","","","","","","","","","","","","","","","","","","","","","","","","","","","","","","","","","","","","","",""
"72066","","","","survey-template","14","339306","0.0-7.0-3.0","107","1","2025-07-02 10:19:34","80fe4187154257d5fb01684ea91b68b9","87.97.112.208","Mozilla/5.0 (Windows NT 10.0; Win64; x64; rv:140.0) Gecko/20100101 Firefox/140.0","","Firefox","140.0","Windows","10.0","https://app.prolific.com/","en-US,en;q=0.5","5bc4784e85214800017d8c1a","683db6dfa200031b80f2a654","686507893c1f1acf9d0bb649","5bc4784e85214800017d8c1a","2025-07-02T10:25:18.546Z","","","","","","ius","{""Q01"":""3"",""Q02"":""3"",""Q03"":""3"",""Q04"":""2"",""Q05"":""1"",""Q06"":""2"",""Q07"":""3"",""Q08"":""0"",""Q09"":""1"",""Q10"":""2"",""Q11"":""1"",""Q12"":""3"",""Q13"":""3""}","[0,1,2,3,4,5,6,7,8,9,10,11,12]","[""Q01"",""Q01"",""Q02"",""Q03"",""Q04"",""Q05"",""Q06"",""Q07"",""Q08"",""Q09"",""Q10"",""Q11"",""Q12"",""Q13""]","[9731,11054,14395,17567,25931,32213,36259,40177,44727,51833,56078,59323,66127,69820]","[]","[9731,11054,14395,17567,25931,32213,36259,40177,44727,51833,56078,59323,66127,69820,72065]","0.46153846153846156","0.5833333333333334","0","","","","","","","","","","","","","","","","","","","","","","","","","","","","",""
"3784","1751451922340","<p style='font-size:1.1em;line-height:1.25'>In the following, we will ask you a few questions relating to your experiences over the past month.<br></p><p style='font-size:1.1em;line-height:1.25'>Press the <strong>Next</strong> button to continue.</p>","0","custom-html-button-response","15","343100","0.0-7.0-4.0","107","1","2025-07-02 10:19:34","80fe4187154257d5fb01684ea91b68b9","87.97.112.208","Mozilla/5.0 (Windows NT 10.0; Win64; x64; rv:140.0) Gecko/20100101 Firefox/140.0","","Firefox","140.0","Windows","10.0","https://app.prolific.com/","en-US,en;q=0.5","5bc4784e85214800017d8c1a","683db6dfa200031b80f2a654","686507893c1f1acf9d0bb649","5bc4784e85214800017d8c1a","2025-07-02T10:25:22.340Z","","","","","","","","","","","","","","","","","","","","","","","","","","","","","","","","","","","","","","","","","","","",""
"84846","","","","survey-template","16","427949","0.0-7.0-5.0","107","1","2025-07-02 10:19:34","80fe4187154257d5fb01684ea91b68b9","87.97.112.208","Mozilla/5.0 (Windows NT 10.0; Win64; x64; rv:140.0) Gecko/20100101 Firefox/140.0","","Firefox","140.0","Windows","10.0","https://app.prolific.com/","en-US,en;q=0.5","5bc4784e85214800017d8c1a","683db6dfa200031b80f2a654","686507893c1f1acf9d0bb649","5bc4784e85214800017d8c1a","2025-07-02T10:26:47.189Z","","","","","","pss","{""Q01"":""2"",""Q02"":""2"",""Q03"":""2"",""Q04"":""3"",""Q05"":""2"",""Q06"":""2"",""Q07"":""1"",""Q08"":""1"",""Q09"":""1"",""Q10"":""2""}","[0,1,2,3,4,5,6,7,8,9]","[""Q01"",""Q02"",""Q03"",""Q04"",""Q05"",""Q06"",""Q07"",""Q08"",""Q09"",""Q10""]","[18835,25403,34219,44032,52029,64177,64961,70265,78253,83877]","[]","[0,18835,25403,34219,44032,52029,57221,64177,64961,70265,78253,83877,84845]","0.6","0.4444444444444444","0","","","","","","","","","","","","","","","","","","","","","","","","","","","","",""
"3770","1751452010969","<p style='font-size:1.1em;line-height:1.25'>Thank you for your answers! Now we will ask you a few more questions relating to your feelings in the last 24 hours.<br></p><p style='font-size:1.1em;line-height:1.25'>Press the <strong>Next</strong> button to continue.</p>","0","custom-html-button-response","17","431729","0.0-7.0-6.0","107","1","2025-07-02 10:19:34","80fe4187154257d5fb01684ea91b68b9","87.97.112.208","Mozilla/5.0 (Windows NT 10.0; Win64; x64; rv:140.0) Gecko/20100101 Firefox/140.0","","Firefox","140.0","Windows","10.0","https://app.prolific.com/","en-US,en;q=0.5","5bc4784e85214800017d8c1a","683db6dfa200031b80f2a654","686507893c1f1acf9d0bb649","5bc4784e85214800017d8c1a","2025-07-02T10:26:50.970Z","","","","","","","","","","","","","","","","","","","","","","","","","","","","","","","","","","","","","","","","","","","",""
"86438","","","","survey-template","18","518173","0.0-7.0-7.0","107","1","2025-07-02 10:19:34","80fe4187154257d5fb01684ea91b68b9","87.97.112.208","Mozilla/5.0 (Windows NT 10.0; Win64; x64; rv:140.0) Gecko/20100101 Firefox/140.0","","Firefox","140.0","Windows","10.0","https://app.prolific.com/","en-US,en;q=0.5","5bc4784e85214800017d8c1a","683db6dfa200031b80f2a654","686507893c1f1acf9d0bb649","5bc4784e85214800017d8c1a","2025-07-02T10:28:17.413Z","","","","","","drsp","{""Q01"":""0"",""Q02"":""1"",""Q03"":""0"",""Q04"":""2"",""Q05"":""0"",""Q06"":""0"",""Q07"":""0"",""Q08"":""0"",""Q09"":""0"",""Q10"":""1"",""Q11"":""1"",""Q12"":""1"",""Q13"":""0"",""Q14"":""0"",""Q15"":""0"",""Q16"":""1"",""Q17"":""1"",""Q18"":""0"",""Q19"":""0"",""Q20"":""0"",""Q21"":""0""}","[0,1,2,3,4,5,6,7,8,9,10,11,12,13,14,15,16,17,18,19,20]","[""Q01"",""Q01"",""Q02"",""Q03"",""Q04"",""Q05"",""Q06"",""Q07"",""Q08"",""Q09"",""Q09"",""Q09"",""Q10"",""Q11"",""Q12"",""Q13"",""Q14"",""Q15"",""Q16"",""Q17"",""Q18"",""Q19"",""Q20"",""Q21""]","[10213,14499,16352,18194,21493,24418,27718,29176,30625,35698,36665,39654,43180,44638,49637,51655,56889,60989,63417,66029,74803,78515,81999,82825]","[]","[1,10213,13532,14499,16352,18194,21493,24418,27718,29176,30625,35698,36665,39654,43180,44638,49637,51655,56889,60989,63417,65555,66029,74803,78515,79597,81231,81743,81999,82825,86437]","0.6666666666666666","0.3","0","","","","","","","","","","","","","","","","","","","","","","","","","","","","",""
"27428","","","","survey-template","19","545612","0.0-7.0-8.0","107","1","2025-07-02 10:19:34","80fe4187154257d5fb01684ea91b68b9","87.97.112.208","Mozilla/5.0 (Windows NT 10.0; Win64; x64; rv:140.0) Gecko/20100101 Firefox/140.0","","Firefox","140.0","Windows","10.0","https://app.prolific.com/","en-US,en;q=0.5","5bc4784e85214800017d8c1a","683db6dfa200031b80f2a654","686507893c1f1acf9d0bb649","5bc4784e85214800017d8c1a","2025-07-02T10:28:44.852Z","","","","","","stress","{""Q01"":""1"",""Q02"":""2"",""Q03"":""3""}","[0,1,2]","[""Q01"",""Q02"",""Q03""]","[16830,20162,25834]","[]","[16830,20162,25834,27427]","0.6666666666666666","0","0","","","","","","","","","","","","","","","","","","","","","","","","","","","","",""
"124176","","","","instructions","20","669797","0.0-8.0-0.0","107","1","2025-07-02 10:19:34","80fe4187154257d5fb01684ea91b68b9","87.97.112.208","Mozilla/5.0 (Windows NT 10.0; Win64; x64; rv:140.0) Gecko/20100101 Firefox/140.0","","Firefox","140.0","Windows","10.0","https://app.prolific.com/","en-US,en;q=0.5","5bc4784e85214800017d8c1a","683db6dfa200031b80f2a654","686507893c1f1acf9d0bb649","5bc4784e85214800017d8c1a","","[{""page_index"":0,""viewing_time"":21907},{""page_index"":1,""viewing_time"":54460},{""page_index"":2,""viewing_time"":15688},{""page_index"":3,""viewing_time"":32121}]","","","","","","","","","","","","","","","","","","","","","","","","","","","","","","","","","","","","","","","","","","",""
"","","","","ctl-task-cpt","21","705188","0.0-8.0-1.0","107","1","2025-07-02 10:19:34","80fe4187154257d5fb01684ea91b68b9","87.97.112.208","Mozilla/5.0 (Windows NT 10.0; Win64; x64; rv:140.0) Gecko/20100101 Firefox/140.0","","Firefox","140.0","Windows","10.0","https://app.prolific.com/","en-US,en;q=0.5","5bc4784e85214800017d8c1a","683db6dfa200031b80f2a654","686507893c1f1acf9d0bb649","5bc4784e85214800017d8c1a","","","","","","","","","","","","","","","","","win-only","0","g1:NW,g2:SE","1","0","1","673776","4781","8794","32362","2","4","4","6","1","2","0","0","0","0","4013","4000","3265","[""left"",""up""]","{""num_key_presses"":6,""num_perfect"":4,""num_errors"":2,""num_randdir"":0,""num_randdir_good_moves"":0,""num_whilered"":0,""num_whileblue"":0,""num_blue"":2,""num_good_moves"":4}","[461.8571428571429,458.5571398053851,2,461.8571428571429,458.5571398053851,115,461.8571428571429,458.5571398053851,224,461.8571428571429,458.5571398053851,332,461.8571428571429,458.5571398053851,443,452.8571428571429,470.5571398053851,555,411.8571428571429,470.5571398053851,663,402.8571428571429,433.5571398053851,774,387.8571428571429,402.5571398053851,884,386.8571428571429,398.5571398053851,996,386.8571428571429,398.5571398053851,1105,386.8571428571429,398.5571398053851,1214,386.8571428571429,398.5571398053851,1320,451.8571428571429,414.5571398053851,1429,1033.857142857143,513.5571398053851,1539,1084.857142857143,515.5571398053851,1650,1092.857142857143,507.5571398053851,1761,1092.857142857143,506.5571398053851,1870,1092.857142857143,506.5571398053851,1979,1092.857142857143,506.5571398053851,2088,1092.857142857143,506.5571398053851,2196,1092.857142857143,504.5571398053851,2306,1092.857142857143,504.5571398053851,2414,1092.857142857143,504.5571398053851,2525,1092.857142857143,504.5571398053851,2631,1086.857142857143,503.5571398053851,2741,1069.857142857143,503.5571398053851,2853,1067.857142857143,503.5571398053851,2964,1067.857142857143,503.5571398053851,3074,1067.857142857143,503.5571398053851,3187,1048.857142857143,497.5571398053851,3297,1043.857142857143,494.5571398053851,3407,1043.857142857143,494.5571398053851,3519,1043.857142857143,494.5571398053851,3630,1043.857142857143,494.5571398053851,3741,1043.857142857143,494.5571398053851,3852,1043.857142857143,494.5571398053851,3964]","[3946,3946,3123.3,2016,-1193.3,""error"",""-"",""-"",""no_move"",8330,4384,2846.3,4948,535.7,""smooth"",""up"",""up"",""good_move"",8569,239,2877.6,8330,-2638.6,""error"",""-"",""-"",""no_move"",15938,7369,2393.1,13117,427.9,""smooth"",""up"",""up"",""good_move"",19218,3280,2568.1,15938,711.9,""smooth"",""left"",""left"",""good_move"",23282,4063,3353.5,19219,709.5,""smooth"",""left"",""left"",""good_move""]","",""
"19471","","","","instructions","22","724661","0.0-8.0-2.0","107","1","2025-07-02 10:19:34","80fe4187154257d5fb01684ea91b68b9","87.97.112.208","Mozilla/5.0 (Windows NT 10.0; Win64; x64; rv:140.0) Gecko/20100101 Firefox/140.0","","Firefox","140.0","Windows","10.0","https://app.prolific.com/","en-US,en;q=0.5","5bc4784e85214800017d8c1a","683db6dfa200031b80f2a654","686507893c1f1acf9d0bb649","5bc4784e85214800017d8c1a","","[{""page_index"":0,""viewing_time"":19471}]","","","","","","","","","","","","","","","","","","","","","","","","","","","","","","","","","","","","","","","","","","",""
"","","","","ctl-task-cpt","23","839575","0.0-8.0-3.0","107","1","2025-07-02 10:19:34","80fe4187154257d5fb01684ea91b68b9","87.97.112.208","Mozilla/5.0 (Windows NT 10.0; Win64; x64; rv:140.0) Gecko/20100101 Firefox/140.0","","Firefox","140.0","Windows","10.0","https://app.prolific.com/","en-US,en;q=0.5","5bc4784e85214800017d8c1a","683db6dfa200031b80f2a654","686507893c1f1acf9d0bb649","5bc4784e85214800017d8c1a","","","","","","","","","","","","","","","","","win-only","0","g1:NW,g2:SE","0.35","0","3","728622","1576","5580","111897","2","4","8","6","2","-8","-9","0","0","0","834","4000","-950","[""down"",""right""]","{""num_key_presses"":26,""num_perfect"":9,""num_errors"":1,""num_randdir"":16,""num_randdir_good_moves"":4,""num_whilered"":0,""num_whileblue"":1,""num_blue"":8,""num_good_moves"":13}","[460.8571428571429,467.5571398053851,0,460.8571428571429,467.5571398053851,109,460.8571428571429,467.5571398053851,221,588.8571428571429,614.5571398053851,333,676.8571428571429,681.5571398053851,445,782.8571428571429,770.5571398053851,555,830.8571428571429,831.5571398053851,661,842.8571428571429,841.5571398053851,770,842.8571428571429,841.5571398053851,882,842.8571428571429,841.5571398053851,991,904.8571428571429,815.5571398053851,1100,980.8571428571429,777.5571398053851,1210,984.8571428571429,773.5571398053851,1318,984.8571428571429,773.5571398053851,1427,984.8571428571429,773.5571398053851,1537,984.8571428571429,773.5571398053851,1649,984.8571428571429,773.5571398053851,1758,984.8571428571429,773.5571398053851,1868,984.8571428571429,773.5571398053851,1980,987.8571428571429,771.5571398053851,2092,987.8571428571429,771.5571398053851,2204,987.8571428571429,771.5571398053851,2314,987.8571428571429,771.5571398053851,2425,987.8571428571429,771.5571398053851,2536,987.8571428571429,771.5571398053851,2648,987.8571428571429,771.5571398053851,2753,975.8571428571429,768.5571398053851,2865,974.8571428571429,766.5571398053851,2977,974.8571428571429,766.5571398053851,3089,962.8571428571429,751.5571398053851,3199,960.8571428571429,750.5571398053851,3309,955.8571428571429,747.5571398053851,3415,951.8571428571429,744.5571398053851,3527,950.8571428571429,744.5571398053851,3637,949.8571428571429,744.5571398053851,3747,940.8571428571429,740.5571398053851,3859,940.8571428571429,740.5571398053851,3972]","[1529,1529,1000,0,529,""smooth"",""down"",""down"",""good_move"",4402,2873,2399,1529,474,""smooth"",""right"",""right"",""good_move"",7554,3152,2730.6,4402,421.4,""smooth"",""right"",""right"",""good_move"",9881,2327,1777.1,7554,549.9,""smooth"",""right"",""right"",""good_move"",12769,2888,2562.2,9881,325.8,""oops"",""down"",""down"",""good_move"",18618,5849,2545.7,15685,387.3,""oops"",""down"",""up"",""bad_move"",21673,3055,2675,18618,380,""while_blue"",""down"",""up"",""bad_move"",25377,3703,3203.6,21674,499.4,""oops"",""down"",""up"",""bad_move"",29025,3648,3208.8,25377,439.2,""oops"",""up"",""down"",""good_move"",34505,5480,1904.3,32154,446.7,""oops"",""up"",""left"",""bad_move"",37721,3216,2630.4,34505,585.6,""oops"",""up"",""left"",""bad_move"",44441,6720,2585.1,41430,425.9,""smooth"",""down"",""down"",""good_move"",47721,3280,2661.2,44441,618.8,""smooth"",""down"",""down"",""good_move"",50049,2328,1666.2,47721,661.8,""smooth"",""right"",""right"",""good_move"",53409,3359,2892.9,50050,466.1,""smooth"",""down"",""down"",""good_move"",56185,2776,2374.8,53409,401.2,""oops"",""right"",""up"",""bad_move"",59361,3176,2057.4,56185,1118.6,""oops"",""up"",""left"",""bad_move"",63153,3792,3436.7,59361,355.3,""oops"",""left"",""down"",""good_move"",66112,2959,2457.8,63153,501.2,""oops"",""right"",""left"",""bad_move"",76961,10848,2720,73736,505,""oops"",""right"",""left"",""bad_move"",86713,9752,1933.5,84230,549.5,""oops"",""right"",""right"",""good_move"",89249,2536,1845,86713,691,""oops"",""right"",""left"",""bad_move"",93009,3760,2861.1,89249,898.9,""smooth"",""down"",""right"",""good_move"",96297,3288,2868.5,93009,419.5,""oops"",""down"",""left"",""bad_move"",99913,3616,2994.3,96297,621.7,""oops"",""right"",""left"",""bad_move"",103144,3231,2736.7,99913,494.3,""oops"",""up"",""up"",""bad_move""]","",""
"53630","","","","instructions","24","893206","0.0-8.0-4.0","107","1","2025-07-02 10:19:34","80fe4187154257d5fb01684ea91b68b9","87.97.112.208","Mozilla/5.0 (Windows NT 10.0; Win64; x64; rv:140.0) Gecko/20100101 Firefox/140.0","","Firefox","140.0","Windows","10.0","https://app.prolific.com/","en-US,en;q=0.5","5bc4784e85214800017d8c1a","683db6dfa200031b80f2a654","686507893c1f1acf9d0bb649","5bc4784e85214800017d8c1a","","[{""page_index"":0,""viewing_time"":16401},{""page_index"":1,""viewing_time"":37229}]","","","","","","","","","","","","","","","","","","","","","","","","","","","","","","","","","","","","","","","","","","",""
"18610","","","{""green_ball"":[""Ball sometimes shakes and moves in a random direction""]}","survey-multi-select","25","911821","0.0-8.0-5.0-0.0","107","1","2025-07-02 10:19:34","80fe4187154257d5fb01684ea91b68b9","87.97.112.208","Mozilla/5.0 (Windows NT 10.0; Win64; x64; rv:140.0) Gecko/20100101 Firefox/140.0","","Firefox","140.0","Windows","10.0","https://app.prolific.com/","en-US,en;q=0.5","5bc4784e85214800017d8c1a","683db6dfa200031b80f2a654","686507893c1f1acf9d0bb649","5bc4784e85214800017d8c1a","","","[0]","","","","quiz","","","","","","","","","","","","","","","","","","","","","","","","","","","","","","","","","","","","","true",""
"2852","","<p align='center'><b>CORRECT!</b> Indeed, the green ball may sometimes shake and move in a random direction.</p>","0","html-button-response","26","914681","0.0-8.0-5.0-1.0","107","1","2025-07-02 10:19:34","80fe4187154257d5fb01684ea91b68b9","87.97.112.208","Mozilla/5.0 (Windows NT 10.0; Win64; x64; rv:140.0) Gecko/20100101 Firefox/140.0","","Firefox","140.0","Windows","10.0","https://app.prolific.com/","en-US,en;q=0.5","5bc4784e85214800017d8c1a","683db6dfa200031b80f2a654","686507893c1f1acf9d0bb649","5bc4784e85214800017d8c1a","","","","","","","","","","","","","","","","","","","","","","","","","","","","","","","","","","","","","","","","","","","","",""
"15455","","","{""yellow_ball"":[""Ball doesn‘t move and I get -1 penalty point""]}","survey-multi-select","27","930141","0.0-8.0-6.0-0.0","107","1","2025-07-02 10:19:34","80fe4187154257d5fb01684ea91b68b9","87.97.112.208","Mozilla/5.0 (Windows NT 10.0; Win64; x64; rv:140.0) Gecko/20100101 Firefox/140.0","","Firefox","140.0","Windows","10.0","https://app.prolific.com/","en-US,en;q=0.5","5bc4784e85214800017d8c1a","683db6dfa200031b80f2a654","686507893c1f1acf9d0bb649","5bc4784e85214800017d8c1a","","","[0]","","","","quiz","","","","","","","","","","","","","","","","","","","","","","","","","","","","","","","","","","","","","true",""
"1869","","<p align='center'><b>CORRECT!</b> Indeed, the yellow ball never moves and you receive a penalty.</p>","0","html-button-response","28","932016","0.0-8.0-6.0-1.0","107","1","2025-07-02 10:19:34","80fe4187154257d5fb01684ea91b68b9","87.97.112.208","Mozilla/5.0 (Windows NT 10.0; Win64; x64; rv:140.0) Gecko/20100101 Firefox/140.0","","Firefox","140.0","Windows","10.0","https://app.prolific.com/","en-US,en;q=0.5","5bc4784e85214800017d8c1a","683db6dfa200031b80f2a654","686507893c1f1acf9d0bb649","5bc4784e85214800017d8c1a","","","","","","","","","","","","","","","","","","","","","","","","","","","","","","","","","","","","","","","","","","","","",""
"13088","","","{""blue_ball"":[""Ball doesn‘t move and I get -1 penalty point""]}","survey-multi-select","29","945107","0.0-8.0-7.0-0.0","107","1","2025-07-02 10:19:34","80fe4187154257d5fb01684ea91b68b9","87.97.112.208","Mozilla/5.0 (Windows NT 10.0; Win64; x64; rv:140.0) Gecko/20100101 Firefox/140.0","","Firefox","140.0","Windows","10.0","https://app.prolific.com/","en-US,en;q=0.5","5bc4784e85214800017d8c1a","683db6dfa200031b80f2a654","686507893c1f1acf9d0bb649","5bc4784e85214800017d8c1a","","","[0]","","","","quiz","","","","","","","","","","","","","","","","","","","","","","","","","","","","","","","","","","","","","false",""
"5147","","<p align='center'><b>INCORRECT.</b> The blue ball always shakes and moves randomly.</p>","0","html-button-response","30","950260","0.0-8.0-7.0-1.0","107","1","2025-07-02 10:19:34","80fe4187154257d5fb01684ea91b68b9","87.97.112.208","Mozilla/5.0 (Windows NT 10.0; Win64; x64; rv:140.0) Gecko/20100101 Firefox/140.0","","Firefox","140.0","Windows","10.0","https://app.prolific.com/","en-US,en;q=0.5","5bc4784e85214800017d8c1a","683db6dfa200031b80f2a654","686507893c1f1acf9d0bb649","5bc4784e85214800017d8c1a","","","","","","","","","","","","","","","","","","","","","","","","","","","","","","","","","","","","","","","","","","","","",""
"7553","","","{""blue_ball"":[""Ball always shakes and moves in a random direction""]}","survey-multi-select","31","957815","0.0-8.0-7.1-0.1","107","1","2025-07-02 10:19:34","80fe4187154257d5fb01684ea91b68b9","87.97.112.208","Mozilla/5.0 (Windows NT 10.0; Win64; x64; rv:140.0) Gecko/20100101 Firefox/140.0","","Firefox","140.0","Windows","10.0","https://app.prolific.com/","en-US,en;q=0.5","5bc4784e85214800017d8c1a","683db6dfa200031b80f2a654","686507893c1f1acf9d0bb649","5bc4784e85214800017d8c1a","","","[0]","","","","quiz","","","","","","","","","","","","","","","","","","","","","","","","","","","","","","","","","","","","","true",""
"8477","","<p align='center'><b>CORRECT!</b> Indeed, the blue ball always shakes and moves in a random direction. Also there is a penalty of -1 point.</p>","0","html-button-response","32","966302","0.0-8.0-7.1-1.1","107","1","2025-07-02 10:19:34","80fe4187154257d5fb01684ea91b68b9","87.97.112.208","Mozilla/5.0 (Windows NT 10.0; Win64; x64; rv:140.0) Gecko/20100101 Firefox/140.0","","Firefox","140.0","Windows","10.0","https://app.prolific.com/","en-US,en;q=0.5","5bc4784e85214800017d8c1a","683db6dfa200031b80f2a654","686507893c1f1acf9d0bb649","5bc4784e85214800017d8c1a","","","","","","","","","","","","","","","","","","","","","","","","","","","","","","","","","","","","","","","","","","","","",""
"7521","","","{""bonus"":[""When I reach 50% of points""]}","survey-multi-select","33","973824","0.0-8.0-8.0-0.0","107","1","2025-07-02 10:19:34","80fe4187154257d5fb01684ea91b68b9","87.97.112.208","Mozilla/5.0 (Windows NT 10.0; Win64; x64; rv:140.0) Gecko/20100101 Firefox/140.0","","Firefox","140.0","Windows","10.0","https://app.prolific.com/","en-US,en;q=0.5","5bc4784e85214800017d8c1a","683db6dfa200031b80f2a654","686507893c1f1acf9d0bb649","5bc4784e85214800017d8c1a","","","[0]","","","","quiz","","","","","","","","","","","","","","","","","","","","","","","","","","","","","","","","","","","","","true",""
"2963","","<p align='center'><b>CORRECT!</b> Indeed, you receive 2 pounds extra when you reach 50% of points.</p>","0","html-button-response","34","976796","0.0-8.0-8.0-1.0","107","1","2025-07-02 10:19:34","80fe4187154257d5fb01684ea91b68b9","87.97.112.208","Mozilla/5.0 (Windows NT 10.0; Win64; x64; rv:140.0) Gecko/20100101 Firefox/140.0","","Firefox","140.0","Windows","10.0","https://app.prolific.com/","en-US,en;q=0.5","5bc4784e85214800017d8c1a","683db6dfa200031b80f2a654","686507893c1f1acf9d0bb649","5bc4784e85214800017d8c1a","","","","","","","","","","","","","","","","","","","","","","","","","","","","","","","","","","","","","","","","","","","","",""
"3245","","","","instructions","35","980041","0.0-8.0-9.0","107","1","2025-07-02 10:19:34","80fe4187154257d5fb01684ea91b68b9","87.97.112.208","Mozilla/5.0 (Windows NT 10.0; Win64; x64; rv:140.0) Gecko/20100101 Firefox/140.0","","Firefox","140.0","Windows","10.0","https://app.prolific.com/","en-US,en;q=0.5","5bc4784e85214800017d8c1a","683db6dfa200031b80f2a654","686507893c1f1acf9d0bb649","5bc4784e85214800017d8c1a","","[{""page_index"":0,""viewing_time"":3245}]","","","","","","","","","","","","","","","","","","","","","","","","","","","","","","","","","","","","","","","","","","",""
"21165","","<p>Before you start with this game please answer the following three questions yourself. </p>
  <p>Through this game, we measure several aspects of your cognitive performance, such as reaction times, multi-tasking capabilities </p>
  <p>and the ability to assess the situation you are in.</p>
  <p></p>
  <p><b>How good do you usually are in such tasks?</b></p>","79","html-slider-response","36","1001209","0.0-9.0-0.0","107","1","2025-07-02 10:19:34","80fe4187154257d5fb01684ea91b68b9","87.97.112.208","Mozilla/5.0 (Windows NT 10.0; Win64; x64; rv:140.0) Gecko/20100101 Firefox/140.0","","Firefox","140.0","Windows","10.0","https://app.prolific.com/","en-US,en;q=0.5","5bc4784e85214800017d8c1a","683db6dfa200031b80f2a654","686507893c1f1acf9d0bb649","5bc4784e85214800017d8c1a","2025-07-02T10:36:20.449Z","","","","","","PreSkillQ","","","","","","","","","","","","","","","","","","","","","","","","","","","","","","","","","","","","","","50"
"7874","","<div style=""width:500px;"">
  <p>How well do you think you will perform in this task compared to other participants?</p>
  </div>","58","html-slider-response","37","1009086","0.0-9.0-1.0","107","1","2025-07-02 10:19:34","80fe4187154257d5fb01684ea91b68b9","87.97.112.208","Mozilla/5.0 (Windows NT 10.0; Win64; x64; rv:140.0) Gecko/20100101 Firefox/140.0","","Firefox","140.0","Windows","10.0","https://app.prolific.com/","en-US,en;q=0.5","5bc4784e85214800017d8c1a","683db6dfa200031b80f2a654","686507893c1f1acf9d0bb649","5bc4784e85214800017d8c1a","2025-07-02T10:36:28.326Z","","","","","","PrePerfQ","","","","","","","","","","","","","","","","","","","","","","","","","","","","","","","","","","","","","","50"
"7586","","<div style=""width:500px;"">
  <p>What best describes how you currently feel?</p>
  </div>","73","html-slider-response","38","1016674","0.0-9.0-2.0","107","1","2025-07-02 10:19:34","80fe4187154257d5fb01684ea91b68b9","87.97.112.208","Mozilla/5.0 (Windows NT 10.0; Win64; x64; rv:140.0) Gecko/20100101 Firefox/140.0","","Firefox","140.0","Windows","10.0","https://app.prolific.com/","en-US,en;q=0.5","5bc4784e85214800017d8c1a","683db6dfa200031b80f2a654","686507893c1f1acf9d0bb649","5bc4784e85214800017d8c1a","2025-07-02T10:36:35.914Z","","","","","","PreMotivationQ","","","","","","","","","","","","","","","","","","","","","","","","","","","","","","","","","","","","","","50"
"","","","","ctl-task-cpt","39","1047656","0.0-10.0-0.0","107","1","2025-07-02 10:19:34","80fe4187154257d5fb01684ea91b68b9","87.97.112.208","Mozilla/5.0 (Windows NT 10.0; Win64; x64; rv:140.0) Gecko/20100101 Firefox/140.0","","Firefox","140.0","Windows","10.0","https://app.prolific.com/","en-US,en;q=0.5","5bc4784e85214800017d8c1a","683db6dfa200031b80f2a654","686507893c1f1acf9d0bb649","5bc4784e85214800017d8c1a","2025-07-02T10:37:06.896Z","","","","","","","","","","","","","","","","win-only","3","g1:SW,g2:NE","1","1","0","1020635","3429","8439","27978","1","4","4","6","2","4","4","4","0","0.030303030303030304","1144","3000","2150","[""up"",""right""]","{""num_key_presses"":6,""num_perfect"":6,""num_errors"":0,""num_randdir"":0,""num_randdir_good_moves"":0,""num_whilered"":0,""num_whileblue"":0,""num_blue"":1,""num_good_moves"":6}","[464.8571428571429,463.5571398053851,1,464.8571428571429,463.5571398053851,114,464.8571428571429,463.5571398053851,226,464.8571428571429,463.5571398053851,338,470.8571428571429,409.5571398053851,447,468.8571428571429,429.5571398053851,558,686.8571428571429,278.5571398053851,670,833.8571428571429,110.55713980538505,778,786.8571428571429,172.55713980538505,888,846.8571428571429,65.55713980538505,996,854.8571428571429,58.55713980538505,1103,854.8571428571429,58.55713980538505,1212,854.8571428571429,57.55713980538505,1324,854.8571428571429,81.55713980538505,1436,903.8571428571429,180.55713980538505,1547,943.8571428571429,285.5571398053851,1657,966.8571428571429,386.5571398053851,1766,982.8571428571429,410.5571398053851,1875,982.8571428571429,410.5571398053851,1988,998.8571428571429,426.5571398053851,2096,1000.8571428571429,426.5571398053851,2208,1000.8571428571429,426.5571398053851,2320,1000.8571428571429,426.5571398053851,2432,1000.8571428571429,426.5571398053851,2544,1000.8571428571429,426.5571398053851,2654,1000.8571428571429,426.5571398053851,2765,1000.8571428571429,426.5571398053851,2877,1000.8571428571429,426.5571398053851,2986,1000.8571428571429,426.5571398053851,3093,1000.8571428571429,426.5571398053851,3200,1000.8571428571429,426.5571398053851,3311,1000.8571428571429,426.5571398053851,3419,1000.8571428571429,426.5571398053851,3531,1000.8571428571429,426.5571398053851,3642,1000.8571428571429,426.5571398053851,3755,1000.8571428571429,426.5571398053851,3868,1000.8571428571429,426.5571398053851,3978,1000.8571428571429,426.5571398053851,4091,1000.8571428571429,426.5571398053851,4201,1000.8571428571429,426.5571398053851,4312,1000.8571428571429,426.5571398053851,4425,1000.8571428571429,426.5571398053851,4536,1000.8571428571429,426.5571398053851,4648,1000.8571428571429,426.5571398053851,4758,1000.8571428571429,426.5571398053851,4868,1000.8571428571429,426.5571398053851,4979]","[1503,1503,1000,0,503,""smooth"",""up"",""up"",""good_move"",7366,5863,1751.9,5207,407.1,""smooth"",""up"",""up"",""good_move"",10551,3185,1948,7366,1237,""smooth"",""up"",""up"",""good_move"",13639,3088,2618.5,10551,469.5,""smooth"",""right"",""right"",""good_move"",16574,2935,2460.5,13639,474.5,""smooth"",""right"",""right"",""good_move"",19254,2680,2222.3,16574,457.7,""smooth"",""right"",""right"",""good_move""]","",""
"5327","","<div style=""width:500px;"">
  <p>What determined the result of this run?</p>
  </div>","100","html-slider-response","40","1052984","0.0-10.0-1.0","107","1","2025-07-02 10:19:34","80fe4187154257d5fb01684ea91b68b9","87.97.112.208","Mozilla/5.0 (Windows NT 10.0; Win64; x64; rv:140.0) Gecko/20100101 Firefox/140.0","","Firefox","140.0","Windows","10.0","https://app.prolific.com/","en-US,en;q=0.5","5bc4784e85214800017d8c1a","683db6dfa200031b80f2a654","686507893c1f1acf9d0bb649","5bc4784e85214800017d8c1a","2025-07-02T10:37:12.224Z","","","","","","AttribQ","","","","","","","","","","","","","","","","","","","","","","","","","","","","","","","","","","","","","","50"
"3570","","<div style=""width:500px;"">
  <p>How much control did you have over the ball?</p>
  </div>","100","html-slider-response","41","1056555","0.0-10.0-2.0","107","1","2025-07-02 10:19:34","80fe4187154257d5fb01684ea91b68b9","87.97.112.208","Mozilla/5.0 (Windows NT 10.0; Win64; x64; rv:140.0) Gecko/20100101 Firefox/140.0","","Firefox","140.0","Windows","10.0","https://app.prolific.com/","en-US,en;q=0.5","5bc4784e85214800017d8c1a","683db6dfa200031b80f2a654","686507893c1f1acf9d0bb649","5bc4784e85214800017d8c1a","2025-07-02T10:37:15.795Z","","","","","","ControlQ","","","","","","","","","","","","","","","","","","","","","","","","","","","","","","","","","","","","","","50"
"6182","","<div style=""width:500px;"">
  <p>How would you describe your current emotional state?</p>
  </div>","37","html-slider-response","42","1062739","0.0-10.0-3.0","107","1","2025-07-02 10:19:34","80fe4187154257d5fb01684ea91b68b9","87.97.112.208","Mozilla/5.0 (Windows NT 10.0; Win64; x64; rv:140.0) Gecko/20100101 Firefox/140.0","","Firefox","140.0","Windows","10.0","https://app.prolific.com/","en-US,en;q=0.5","5bc4784e85214800017d8c1a","683db6dfa200031b80f2a654","686507893c1f1acf9d0bb649","5bc4784e85214800017d8c1a","2025-07-02T10:37:21.979Z","","","","","","StressQ","","","","","","","","","","","","","","","","","","","","","","","","","","","","","","","","","","","","","","50"
"5769","","<div style=""width:500px;"">
  <p>What best describes how you currently feel?</p>
  </div>","84","html-slider-response","43","1068509","0.0-10.0-4.0","107","1","2025-07-02 10:19:34","80fe4187154257d5fb01684ea91b68b9","87.97.112.208","Mozilla/5.0 (Windows NT 10.0; Win64; x64; rv:140.0) Gecko/20100101 Firefox/140.0","","Firefox","140.0","Windows","10.0","https://app.prolific.com/","en-US,en;q=0.5","5bc4784e85214800017d8c1a","683db6dfa200031b80f2a654","686507893c1f1acf9d0bb649","5bc4784e85214800017d8c1a","2025-07-02T10:37:27.749Z","","","","","","MotivationQ","","","","","","","","","","","","","","","","","","","","","","","","","","","","","","","","","","","","","","50"
"","","","","ctl-task-cpt","44","1099324","0.0-10.0-0.1","107","1","2025-07-02 10:19:34","80fe4187154257d5fb01684ea91b68b9","87.97.112.208","Mozilla/5.0 (Windows NT 10.0; Win64; x64; rv:140.0) Gecko/20100101 Firefox/140.0","","Firefox","140.0","Windows","10.0","https://app.prolific.com/","en-US,en;q=0.5","5bc4784e85214800017d8c1a","683db6dfa200031b80f2a654","686507893c1f1acf9d0bb649","5bc4784e85214800017d8c1a","2025-07-02T10:37:58.564Z","","","","","","","","","","","","","","","","win-only","0","g1:NW,g2:SE","0.9","2","0","1072471","2096","7098","27811","1","4","8","6","2","8","8","12","4","0.09090909090909091","1002","3000","2190","[""down"",""right""]","{""num_key_presses"":6,""num_perfect"":5,""num_errors"":0,""num_randdir"":1,""num_randdir_good_moves"":1,""num_whilered"":0,""num_whileblue"":0,""num_blue"":1,""num_good_moves"":6}","[461.8571428571429,462.5571398053851,0,461.8571428571429,462.5571398053851,112,462.8571428571429,463.5571398053851,218,496.8571428571429,507.5571398053851,325,538.8571428571429,563.5571398053851,435,555.8571428571429,576.5571398053851,544,751.8571428571429,732.5571398053851,656,856.8571428571429,809.5571398053851,766,866.8571428571429,828.5571398053851,878,871.8571428571429,854.5571398053851,989,871.8571428571429,854.5571398053851,1100,874.8571428571429,852.5571398053851,1211,1058.857142857143,753.5571398053851,1323,1090.857142857143,722.5571398053851,1433,1097.857142857143,712.5571398053851,1545,1109.857142857143,679.5571398053851,1657,1118.857142857143,660.5571398053851,1767,1118.857142857143,660.5571398053851,1878,1118.857142857143,660.5571398053851,1985,1118.857142857143,660.5571398053851,2096,1118.857142857143,660.5571398053851,2208,1108.857142857143,651.5571398053851,2320,1083.857142857143,625.5571398053851,2431,1083.857142857143,622.5571398053851,2540,1083.857142857143,611.5571398053851,2650,1083.857142857143,611.5571398053851,2762,1083.857142857143,611.5571398053851,2873,1083.857142857143,611.5571398053851,2986,1083.857142857143,611.5571398053851,3095,1083.857142857143,611.5571398053851,3202,1083.857142857143,611.5571398053851,3310,1083.857142857143,611.5571398053851,3422,1083.857142857143,611.5571398053851,3532,1083.857142857143,611.5571398053851,3641,1083.857142857143,611.5571398053851,3753,1083.857142857143,611.5571398053851,3865,1083.857142857143,611.5571398053851,3975,1083.857142857143,611.5571398053851,4087,1083.857142857143,611.5571398053851,4197,1083.857142857143,611.5571398053851,4308,1083.857142857143,611.5571398053851,4416,1083.857142857143,611.5571398053851,4527,1083.857142857143,611.5571398053851,4637,1083.857142857143,610.5571398053851,4748,1083.857142857143,609.5571398053851,4859,1083.857142857143,608.5571398053851,4970]","[1448,1448,1000,0,448,""oops"",""right"",""right"",""good_move"",4271,2823,2310.5,1448,512.5,""smooth"",""right"",""right"",""good_move"",7895,3624,3169.3,4271,454.7,""smooth"",""down"",""down"",""good_move"",14143,6248,2668.8,11085,389.2,""smooth"",""down"",""down"",""good_move"",17359,3216,2747.7,14143,468.3,""smooth"",""down"",""down"",""good_move"",20423,3063,2652.5,17360,410.5,""smooth"",""right"",""right"",""good_move""]","",""
"3316","","<div style=""width:500px;"">
  <p>What determined the result of this run?</p>
  </div>","100","html-slider-response","45","1102641","0.0-10.0-1.1","107","1","2025-07-02 10:19:34","80fe4187154257d5fb01684ea91b68b9","87.97.112.208","Mozilla/5.0 (Windows NT 10.0; Win64; x64; rv:140.0) Gecko/20100101 Firefox/140.0","","Firefox","140.0","Windows","10.0","https://app.prolific.com/","en-US,en;q=0.5","5bc4784e85214800017d8c1a","683db6dfa200031b80f2a654","686507893c1f1acf9d0bb649","5bc4784e85214800017d8c1a","2025-07-02T10:38:01.881Z","","","","","","AttribQ","","","","","","","","","","","","","","","","","","","","","","","","","","","","","","","","","","","","","","50"
"3243","","<div style=""width:500px;"">
  <p>How much control did you have over the ball?</p>
  </div>","100","html-slider-response","46","1105885","0.0-10.0-2.1","107","1","2025-07-02 10:19:34","80fe4187154257d5fb01684ea91b68b9","87.97.112.208","Mozilla/5.0 (Windows NT 10.0; Win64; x64; rv:140.0) Gecko/20100101 Firefox/140.0","","Firefox","140.0","Windows","10.0","https://app.prolific.com/","en-US,en;q=0.5","5bc4784e85214800017d8c1a","683db6dfa200031b80f2a654","686507893c1f1acf9d0bb649","5bc4784e85214800017d8c1a","2025-07-02T10:38:05.125Z","","","","","","ControlQ","","","","","","","","","","","","","","","","","","","","","","","","","","","","","","","","","","","","","","50"
"4933","","<div style=""width:500px;"">
  <p>How would you describe your current emotional state?</p>
  </div>","42","html-slider-response","47","1110819","0.0-10.0-3.1","107","1","2025-07-02 10:19:34","80fe4187154257d5fb01684ea91b68b9","87.97.112.208","Mozilla/5.0 (Windows NT 10.0; Win64; x64; rv:140.0) Gecko/20100101 Firefox/140.0","","Firefox","140.0","Windows","10.0","https://app.prolific.com/","en-US,en;q=0.5","5bc4784e85214800017d8c1a","683db6dfa200031b80f2a654","686507893c1f1acf9d0bb649","5bc4784e85214800017d8c1a","2025-07-02T10:38:10.059Z","","","","","","StressQ","","","","","","","","","","","","","","","","","","","","","","","","","","","","","","","","","","","","","","50"
"4188","","<div style=""width:500px;"">
  <p>What best describes how you currently feel?</p>
  </div>","84","html-slider-response","48","1115008","0.0-10.0-4.1","107","1","2025-07-02 10:19:34","80fe4187154257d5fb01684ea91b68b9","87.97.112.208","Mozilla/5.0 (Windows NT 10.0; Win64; x64; rv:140.0) Gecko/20100101 Firefox/140.0","","Firefox","140.0","Windows","10.0","https://app.prolific.com/","en-US,en;q=0.5","5bc4784e85214800017d8c1a","683db6dfa200031b80f2a654","686507893c1f1acf9d0bb649","5bc4784e85214800017d8c1a","2025-07-02T10:38:14.248Z","","","","","","MotivationQ","","","","","","","","","","","","","","","","","","","","","","","","","","","","","","","","","","","","","","50"
"","","","","ctl-task-cpt","49","1155674","0.0-10.0-0.2","107","1","2025-07-02 10:19:34","80fe4187154257d5fb01684ea91b68b9","87.97.112.208","Mozilla/5.0 (Windows NT 10.0; Win64; x64; rv:140.0) Gecko/20100101 Firefox/140.0","","Firefox","140.0","Windows","10.0","https://app.prolific.com/","en-US,en;q=0.5","5bc4784e85214800017d8c1a","683db6dfa200031b80f2a654","686507893c1f1acf9d0bb649","5bc4784e85214800017d8c1a","2025-07-02T10:38:54.914Z","","","","","","","","","","","","","","","","win-only","1","g1:NE,g2:SW","0.8","3","0","1118970","1688","6691","37658","1","4","4","6","2","4","4","16","12","0.12121212121212122","1019","3000","2195","[""down"",""left""]","{""num_key_presses"":6,""num_perfect"":6,""num_errors"":0,""num_randdir"":0,""num_randdir_good_moves"":0,""num_whilered"":0,""num_whileblue"":0,""num_blue"":4,""num_good_moves"":6}","[463.8571428571429,456.5571398053851,0,463.8571428571429,456.5571398053851,107,494.8571428571429,493.5571398053851,217,532.8571428571429,542.5571398053851,327,466.8571428571429,469.5571398053851,435,316.8571428571429,633.5571398053851,545,239.85714285714286,725.5571398053851,655,176.85714285714286,776.5571398053851,767,139.85714285714286,798.5571398053851,877,96.85714285714286,812.5571398053851,989,96.85714285714286,812.5571398053851,1098,96.85714285714286,812.5571398053851,1205,128.85714285714286,812.5571398053851,1313,606.8571428571429,691.5571398053851,1425,890.8571428571429,655.5571398053851,1534,933.8571428571429,638.5571398053851,1644,995.8571428571429,637.5571398053851,1755,1009.8571428571429,637.5571398053851,1863,1011.8571428571429,637.5571398053851,1975,1012.8571428571429,638.5571398053851,2086,1012.8571428571429,638.5571398053851,2195,1012.8571428571429,638.5571398053851,2304,1012.8571428571429,638.5571398053851,2414,1012.8571428571429,638.5571398053851,2521,1012.8571428571429,638.5571398053851,2630,1012.8571428571429,638.5571398053851,2742,1012.8571428571429,638.5571398053851,2853,1012.8571428571429,638.5571398053851,2964,1012.8571428571429,638.5571398053851,3075,1012.8571428571429,638.5571398053851,3184,1012.8571428571429,638.5571398053851,3296,1012.8571428571429,638.5571398053851,3408,1012.8571428571429,638.5571398053851,3519,1012.8571428571429,638.5571398053851,3628,1012.8571428571429,638.5571398053851,3738,1012.8571428571429,638.5571398053851,3845,1012.8571428571429,638.5571398053851,3953,1012.8571428571429,638.5571398053851,4059,1012.8571428571429,638.5571398053851,4171,1012.8571428571429,638.5571398053851,4283,1012.8571428571429,638.5571398053851,4395,1012.8571428571429,638.5571398053851,4503,1012.8571428571429,638.5571398053851,4611,1012.8571428571429,638.5571398053851,4718,1012.8571428571429,638.5571398053851,4829,1012.8571428571429,638.5571398053851,4941]","[1403,1403,1000,0,403,""smooth"",""down"",""down"",""good_move"",4370,2967,2524.7,1403,442.3,""smooth"",""down"",""down"",""good_move"",6995,2625,2173.3,4370,451.7,""smooth"",""down"",""down"",""good_move"",13835,6840,2739.6,10688,407.4,""smooth"",""left"",""left"",""good_move"",20851,7016,2931.5,17502,417.5,""smooth"",""left"",""left"",""good_move"",30683,9832,2666.3,27514,502.7,""smooth"",""left"",""left"",""good_move""]","",""
"3144","","<div style=""width:500px;"">
  <p>What determined the result of this run?</p>
  </div>","100","html-slider-response","50","1158819","0.0-10.0-1.2","107","1","2025-07-02 10:19:34","80fe4187154257d5fb01684ea91b68b9","87.97.112.208","Mozilla/5.0 (Windows NT 10.0; Win64; x64; rv:140.0) Gecko/20100101 Firefox/140.0","","Firefox","140.0","Windows","10.0","https://app.prolific.com/","en-US,en;q=0.5","5bc4784e85214800017d8c1a","683db6dfa200031b80f2a654","686507893c1f1acf9d0bb649","5bc4784e85214800017d8c1a","2025-07-02T10:38:58.059Z","","","","","","AttribQ","","","","","","","","","","","","","","","","","","","","","","","","","","","","","","","","","","","","","","50"
"2787","","<div style=""width:500px;"">
  <p>How much control did you have over the ball?</p>
  </div>","100","html-slider-response","51","1161606","0.0-10.0-2.2","107","1","2025-07-02 10:19:34","80fe4187154257d5fb01684ea91b68b9","87.97.112.208","Mozilla/5.0 (Windows NT 10.0; Win64; x64; rv:140.0) Gecko/20100101 Firefox/140.0","","Firefox","140.0","Windows","10.0","https://app.prolific.com/","en-US,en;q=0.5","5bc4784e85214800017d8c1a","683db6dfa200031b80f2a654","686507893c1f1acf9d0bb649","5bc4784e85214800017d8c1a","2025-07-02T10:39:00.846Z","","","","","","ControlQ","","","","","","","","","","","","","","","","","","","","","","","","","","","","","","","","","","","","","","50"
"4173","","<div style=""width:500px;"">
  <p>How would you describe your current emotional state?</p>
  </div>","48","html-slider-response","52","1165780","0.0-10.0-3.2","107","1","2025-07-02 10:19:34","80fe4187154257d5fb01684ea91b68b9","87.97.112.208","Mozilla/5.0 (Windows NT 10.0; Win64; x64; rv:140.0) Gecko/20100101 Firefox/140.0","","Firefox","140.0","Windows","10.0","https://app.prolific.com/","en-US,en;q=0.5","5bc4784e85214800017d8c1a","683db6dfa200031b80f2a654","686507893c1f1acf9d0bb649","5bc4784e85214800017d8c1a","2025-07-02T10:39:05.020Z","","","","","","StressQ","","","","","","","","","","","","","","","","","","","","","","","","","","","","","","","","","","","","","","50"
"3475","","<div style=""width:500px;"">
  <p>What best describes how you currently feel?</p>
  </div>","75","html-slider-response","53","1169256","0.0-10.0-4.2","107","1","2025-07-02 10:19:34","80fe4187154257d5fb01684ea91b68b9","87.97.112.208","Mozilla/5.0 (Windows NT 10.0; Win64; x64; rv:140.0) Gecko/20100101 Firefox/140.0","","Firefox","140.0","Windows","10.0","https://app.prolific.com/","en-US,en;q=0.5","5bc4784e85214800017d8c1a","683db6dfa200031b80f2a654","686507893c1f1acf9d0bb649","5bc4784e85214800017d8c1a","2025-07-02T10:39:08.496Z","","","","","","MotivationQ","","","","","","","","","","","","","","","","","","","","","","","","","","","","","","","","","","","","","","50"
"","","","","ctl-task-cpt","54","1211846","0.0-10.0-0.3","107","1","2025-07-02 10:19:34","80fe4187154257d5fb01684ea91b68b9","87.97.112.208","Mozilla/5.0 (Windows NT 10.0; Win64; x64; rv:140.0) Gecko/20100101 Firefox/140.0","","Firefox","140.0","Windows","10.0","https://app.prolific.com/","en-US,en;q=0.5","5bc4784e85214800017d8c1a","683db6dfa200031b80f2a654","686507893c1f1acf9d0bb649","5bc4784e85214800017d8c1a","2025-07-02T10:39:51.086Z","","","","","","","","","","","","","","","","win-only","1","g1:NE,g2:SW","0.7","4","0","1173217","2419","7431","39574","1","4","8","6","2","8","8","24","16","0.18181818181818182","1042","3000","1870","[""down"",""left""]","{""num_key_presses"":8,""num_perfect"":6,""num_errors"":0,""num_randdir"":2,""num_randdir_good_moves"":1,""num_whilered"":0,""num_whileblue"":0,""num_blue"":2,""num_good_moves"":7}","[461.8571428571429,459.5571398053851,0,461.8571428571429,459.5571398053851,113,461.8571428571429,459.5571398053851,221,461.8571428571429,459.5571398053851,333,423.8571428571429,567.5571398053851,441,274.8571428571429,689.5571398053851,551,184.85714285714286,737.5571398053851,662,140.85714285714286,765.5571398053851,772,110.85714285714286,780.5571398053851,883,88.85714285714286,795.5571398053851,990,84.85714285714286,798.5571398053851,1102,84.85714285714286,798.5571398053851,1210,84.85714285714286,798.5571398053851,1319,84.85714285714286,798.5571398053851,1430,84.85714285714286,798.5571398053851,1543,559.8571428571429,933.5571398053851,1652,927.8571428571429,941.5571398053851,1763,1165.857142857143,939.5571398053851,1874,1194.857142857143,898.5571398053851,1985,1215.857142857143,878.5571398053851,2096,1216.857142857143,878.5571398053851,2205,1216.857142857143,878.5571398053851,2315,1216.857142857143,878.5571398053851,2425,1216.857142857143,878.5571398053851,2532,1216.857142857143,878.5571398053851,2643,1216.857142857143,878.5571398053851,2755,1216.857142857143,878.5571398053851,2863,1216.857142857143,878.5571398053851,2974,1216.857142857143,878.5571398053851,3084,1216.857142857143,878.5571398053851,3194,1216.857142857143,878.5571398053851,3301,1216.857142857143,878.5571398053851,3410,1216.857142857143,878.5571398053851,3523,1216.857142857143,878.5571398053851,3634,1216.857142857143,878.5571398053851,3744,1216.857142857143,878.5571398053851,3856,1216.857142857143,878.5571398053851,3968,1216.857142857143,878.5571398053851,4080,1216.857142857143,878.5571398053851,4189,1216.857142857143,878.5571398053851,4298,1216.857142857143,878.5571398053851,4407,1216.857142857143,878.5571398053851,4519,1216.857142857143,878.5571398053851,4631,1216.857142857143,878.5571398053851,4743,1216.857142857143,878.5571398053851,4854,1216.857142857143,878.5571398053851,4967]","[1496,1496,1000,0,496,""oops"",""down"",""right"",""bad_move"",8719,7223,2598.8,5648,472.2,""smooth"",""down"",""down"",""good_move"",12127,3408,2951.2,8719,456.8,""oops"",""left"",""left"",""good_move"",15863,3736,3190.7,12127,545.3,""smooth"",""down"",""down"",""good_move"",19071,3208,2773.3,15863,434.7,""smooth"",""left"",""left"",""good_move"",22191,3120,2076.7,19071,1043.3,""smooth"",""left"",""left"",""good_move"",25296,3105,2238,22191,867,""smooth"",""down"",""down"",""good_move"",31848,6552,3238.1,28195,414.9,""smooth"",""left"",""left"",""good_move""]","",""
"4720","","<div style=""width:500px;"">
  <p>What determined the result of this run?</p>
  </div>","93","html-slider-response","55","1216568","0.0-10.0-1.3","107","1","2025-07-02 10:19:34","80fe4187154257d5fb01684ea91b68b9","87.97.112.208","Mozilla/5.0 (Windows NT 10.0; Win64; x64; rv:140.0) Gecko/20100101 Firefox/140.0","","Firefox","140.0","Windows","10.0","https://app.prolific.com/","en-US,en;q=0.5","5bc4784e85214800017d8c1a","683db6dfa200031b80f2a654","686507893c1f1acf9d0bb649","5bc4784e85214800017d8c1a","2025-07-02T10:39:55.808Z","","","","","","AttribQ","","","","","","","","","","","","","","","","","","","","","","","","","","","","","","","","","","","","","","50"
"3099","","<div style=""width:500px;"">
  <p>How much control did you have over the ball?</p>
  </div>","95","html-slider-response","56","1219668","0.0-10.0-2.3","107","1","2025-07-02 10:19:34","80fe4187154257d5fb01684ea91b68b9","87.97.112.208","Mozilla/5.0 (Windows NT 10.0; Win64; x64; rv:140.0) Gecko/20100101 Firefox/140.0","","Firefox","140.0","Windows","10.0","https://app.prolific.com/","en-US,en;q=0.5","5bc4784e85214800017d8c1a","683db6dfa200031b80f2a654","686507893c1f1acf9d0bb649","5bc4784e85214800017d8c1a","2025-07-02T10:39:58.908Z","","","","","","ControlQ","","","","","","","","","","","","","","","","","","","","","","","","","","","","","","","","","","","","","","50"
"6307","","<div style=""width:500px;"">
  <p>How would you describe your current emotional state?</p>
  </div>","48","html-slider-response","57","1225976","0.0-10.0-3.3","107","1","2025-07-02 10:19:34","80fe4187154257d5fb01684ea91b68b9","87.97.112.208","Mozilla/5.0 (Windows NT 10.0; Win64; x64; rv:140.0) Gecko/20100101 Firefox/140.0","","Firefox","140.0","Windows","10.0","https://app.prolific.com/","en-US,en;q=0.5","5bc4784e85214800017d8c1a","683db6dfa200031b80f2a654","686507893c1f1acf9d0bb649","5bc4784e85214800017d8c1a","2025-07-02T10:40:05.216Z","","","","","","StressQ","","","","","","","","","","","","","","","","","","","","","","","","","","","","","","","","","","","","","","50"
"3715","","<div style=""width:500px;"">
  <p>What best describes how you currently feel?</p>
  </div>","85","html-slider-response","58","1229692","0.0-10.0-4.3","107","1","2025-07-02 10:19:34","80fe4187154257d5fb01684ea91b68b9","87.97.112.208","Mozilla/5.0 (Windows NT 10.0; Win64; x64; rv:140.0) Gecko/20100101 Firefox/140.0","","Firefox","140.0","Windows","10.0","https://app.prolific.com/","en-US,en;q=0.5","5bc4784e85214800017d8c1a","683db6dfa200031b80f2a654","686507893c1f1acf9d0bb649","5bc4784e85214800017d8c1a","2025-07-02T10:40:08.932Z","","","","","","MotivationQ","","","","","","","","","","","","","","","","","","","","","","","","","","","","","","","","","","","","","","50"
"","","","","ctl-task-cpt","59","1286071","0.0-10.0-0.4","107","1","2025-07-02 10:19:34","80fe4187154257d5fb01684ea91b68b9","87.97.112.208","Mozilla/5.0 (Windows NT 10.0; Win64; x64; rv:140.0) Gecko/20100101 Firefox/140.0","","Firefox","140.0","Windows","10.0","https://app.prolific.com/","en-US,en;q=0.5","5bc4784e85214800017d8c1a","683db6dfa200031b80f2a654","686507893c1f1acf9d0bb649","5bc4784e85214800017d8c1a","2025-07-02T10:41:05.311Z","","","","","","","","","","","","","","","","win-only","1","g1:NE,g2:SW","0.6","5","0","1233653","1993","7001","53368","1","4","4","6","2","4","4","28","24","0.21212121212121213","914","3000","1185","[""down"",""left""]","{""num_key_presses"":12,""num_perfect"":8,""num_errors"":0,""num_randdir"":4,""num_randdir_good_moves"":1,""num_whilered"":0,""num_whileblue"":0,""num_blue"":3,""num_good_moves"":9}","[458.8571428571429,458.5571398053851,0,458.8571428571429,458.5571398053851,111,458.8571428571429,458.5571398053851,224,454.8571428571429,505.5571398053851,335,436.8571428571429,504.5571398053851,449,158.85714285714286,763.5571398053851,559,43.85714285714286,850.5571398053851,670,51.85714285714286,838.5571398053851,781,52.85714285714286,833.5571398053851,892,53.85714285714286,832.5571398053851,1003,53.85714285714286,832.5571398053851,1113,53.85714285714286,832.5571398053851,1221,15.857142857142861,821.5571398053851,1330,-28.14285714285714,791.5571398053851,1438,-49.14285714285714,791.5571398053851,1550,-69.14285714285714,791.5571398053851,1660,-89.14285714285714,785.5571398053851,1772,-92.14285714285714,783.5571398053851,1880,-92.14285714285714,783.5571398053851,1988,-92.14285714285714,783.5571398053851,2097,-92.14285714285714,783.5571398053851,2209,-92.14285714285714,783.5571398053851,2321,-92.14285714285714,783.5571398053851,2433,-92.14285714285714,783.5571398053851,2543,-92.14285714285714,783.5571398053851,2655,-92.14285714285714,783.5571398053851,2766,-92.14285714285714,783.5571398053851,2876,-92.14285714285714,783.5571398053851,2984,-92.14285714285714,783.5571398053851,3096,-92.14285714285714,783.5571398053851,3204,-92.14285714285714,783.5571398053851,3312,-92.14285714285714,783.5571398053851,3424,-92.14285714285714,783.5571398053851,3536,-92.14285714285714,783.5571398053851,3648,-92.14285714285714,783.5571398053851,3759,-92.14285714285714,783.5571398053851,3871,-92.14285714285714,783.5571398053851,3983,-92.14285714285714,783.5571398053851,4092,-92.14285714285714,783.5571398053851,4203,-92.14285714285714,783.5571398053851,4316,-92.14285714285714,783.5571398053851,4422,-92.14285714285714,783.5571398053851,4532,-92.14285714285714,783.5571398053851,4644,-92.14285714285714,783.5571398053851,4755,-92.14285714285714,783.5571398053851,4866,-92.14285714285714,783.5571398053851,4977]","[1560,1560,1000,0,560,""smooth"",""down"",""down"",""good_move"",4025,2465,2030.4,1560,434.6,""oops"",""down"",""right"",""bad_move"",7241,3216,2736.2,4025,479.8,""smooth"",""down"",""down"",""good_move"",10185,2944,2508.5,7241,435.5,""smooth"",""down"",""down"",""good_move"",13248,3063,2599.7,10185,463.3,""oops"",""left"",""up"",""bad_move"",23760,10512,2569.1,20774,416.9,""smooth"",""left"",""left"",""good_move"",26976,3216,2793.2,23760,422.8,""smooth"",""left"",""left"",""good_move"",30384,3407,2865.3,26977,541.7,""oops"",""left"",""down"",""good_move"",33329,2945,2389.9,30384,555.1,""oops"",""left"",""up"",""bad_move"",36449,3120,2127,33329,993,""smooth"",""down"",""down"",""good_move"",42888,6439,3120.7,39245,522.3,""smooth"",""left"",""left"",""good_move"",46080,3192,2653.4,42888,538.6,""smooth"",""left"",""left"",""good_move""]","",""
"4174","","<div style=""width:500px;"">
  <p>What determined the result of this run?</p>
  </div>","87","html-slider-response","60","1290245","0.0-10.0-1.4","107","1","2025-07-02 10:19:34","80fe4187154257d5fb01684ea91b68b9","87.97.112.208","Mozilla/5.0 (Windows NT 10.0; Win64; x64; rv:140.0) Gecko/20100101 Firefox/140.0","","Firefox","140.0","Windows","10.0","https://app.prolific.com/","en-US,en;q=0.5","5bc4784e85214800017d8c1a","683db6dfa200031b80f2a654","686507893c1f1acf9d0bb649","5bc4784e85214800017d8c1a","2025-07-02T10:41:09.485Z","","","","","","AttribQ","","","","","","","","","","","","","","","","","","","","","","","","","","","","","","","","","","","","","","50"
"8555","","<div style=""width:500px;"">
  <p>How much control did you have over the ball?</p>
  </div>","76","html-slider-response","61","1298801","0.0-10.0-2.4","107","1","2025-07-02 10:19:34","80fe4187154257d5fb01684ea91b68b9","87.97.112.208","Mozilla/5.0 (Windows NT 10.0; Win64; x64; rv:140.0) Gecko/20100101 Firefox/140.0","","Firefox","140.0","Windows","10.0","https://app.prolific.com/","en-US,en;q=0.5","5bc4784e85214800017d8c1a","683db6dfa200031b80f2a654","686507893c1f1acf9d0bb649","5bc4784e85214800017d8c1a","2025-07-02T10:41:18.041Z","","","","","","ControlQ","","","","","","","","","","","","","","","","","","","","","","","","","","","","","","","","","","","","","","50"
"4924","","<div style=""width:500px;"">
  <p>How would you describe your current emotional state?</p>
  </div>","51","html-slider-response","62","1303727","0.0-10.0-3.4","107","1","2025-07-02 10:19:34","80fe4187154257d5fb01684ea91b68b9","87.97.112.208","Mozilla/5.0 (Windows NT 10.0; Win64; x64; rv:140.0) Gecko/20100101 Firefox/140.0","","Firefox","140.0","Windows","10.0","https://app.prolific.com/","en-US,en;q=0.5","5bc4784e85214800017d8c1a","683db6dfa200031b80f2a654","686507893c1f1acf9d0bb649","5bc4784e85214800017d8c1a","2025-07-02T10:41:22.967Z","","","","","","StressQ","","","","","","","","","","","","","","","","","","","","","","","","","","","","","","","","","","","","","","50"
"4733","","<div style=""width:500px;"">
  <p>What best describes how you currently feel?</p>
  </div>","72","html-slider-response","63","1308461","0.0-10.0-4.4","107","1","2025-07-02 10:19:34","80fe4187154257d5fb01684ea91b68b9","87.97.112.208","Mozilla/5.0 (Windows NT 10.0; Win64; x64; rv:140.0) Gecko/20100101 Firefox/140.0","","Firefox","140.0","Windows","10.0","https://app.prolific.com/","en-US,en;q=0.5","5bc4784e85214800017d8c1a","683db6dfa200031b80f2a654","686507893c1f1acf9d0bb649","5bc4784e85214800017d8c1a","2025-07-02T10:41:27.701Z","","","","","","MotivationQ","","","","","","","","","","","","","","","","","","","","","","","","","","","","","","","","","","","","","","50"
"","","","","ctl-task-cpt","64","1389234","0.0-10.0-0.5","107","1","2025-07-02 10:19:34","80fe4187154257d5fb01684ea91b68b9","87.97.112.208","Mozilla/5.0 (Windows NT 10.0; Win64; x64; rv:140.0) Gecko/20100101 Firefox/140.0","","Firefox","140.0","Windows","10.0","https://app.prolific.com/","en-US,en;q=0.5","5bc4784e85214800017d8c1a","683db6dfa200031b80f2a654","686507893c1f1acf9d0bb649","5bc4784e85214800017d8c1a","2025-07-02T10:42:48.474Z","","","","","","","","","","","","","","","","win-only","1","g1:NE,g2:SW","0.5","6","0","1312423","1248","6251","77756","1","4","8","6","2","-8","-8","20","28","0.15151515151515152","921","3000","-950","[""down"",""left""]","{""num_key_presses"":19,""num_perfect"":10,""num_errors"":0,""num_randdir"":9,""num_randdir_good_moves"":2,""num_whilered"":0,""num_whileblue"":0,""num_blue"":3,""num_good_moves"":10}","[463.8571428571429,464.5571398053851,0,463.8571428571429,464.5571398053851,101,463.8571428571429,464.5571398053851,213,464.8571428571429,483.5571398053851,325,488.8571428571429,447.5571398053851,436,173.85714285714286,727.5571398053851,543,111.85714285714286,777.5571398053851,655,106.85714285714286,781.5571398053851,762,100.85714285714286,809.5571398053851,870,99.85714285714286,810.5571398053851,978,99.85714285714286,810.5571398053851,1088,99.85714285714286,810.5571398053851,1194,-101.14285714285714,754.5571398053851,1302,-155.14285714285714,741.5571398053851,1413,-155.14285714285714,741.5571398053851,1524,-155.14285714285714,741.5571398053851,1636,-155.14285714285714,741.5571398053851,1747,-155.14285714285714,741.5571398053851,1856,-155.14285714285714,741.5571398053851,1964,-155.14285714285714,741.5571398053851,2070,-155.14285714285714,741.5571398053851,2180,-155.14285714285714,741.5571398053851,2291,-155.14285714285714,741.5571398053851,2403,-155.14285714285714,741.5571398053851,2513,-155.14285714285714,741.5571398053851,2623,-155.14285714285714,741.5571398053851,2736,-155.14285714285714,741.5571398053851,2845,-155.14285714285714,741.5571398053851,2957,-155.14285714285714,741.5571398053851,3069,-155.14285714285714,741.5571398053851,3179,-155.14285714285714,741.5571398053851,3288,-155.14285714285714,741.5571398053851,3399,-155.14285714285714,741.5571398053851,3506,-155.14285714285714,741.5571398053851,3615,-155.14285714285714,741.5571398053851,3725,-155.14285714285714,741.5571398053851,3836,-155.14285714285714,741.5571398053851,3944,-155.14285714285714,741.5571398053851,4053,-155.14285714285714,741.5571398053851,4166,-155.14285714285714,741.5571398053851,4277,-155.14285714285714,741.5571398053851,4387,-155.14285714285714,741.5571398053851,4499,-155.14285714285714,741.5571398053851,4609,-155.14285714285714,741.5571398053851,4721,-155.14285714285714,741.5571398053851,4833,-155.14285714285714,741.5571398053851,4942]","[1540,1540,1000,0,540,""oops"",""down"",""up"",""bad_move"",5172,3632,2919.1,1540,712.9,""oops"",""down"",""up"",""bad_move"",8356,3184,2021.5,5172,1162.5,""oops"",""left"",""right"",""bad_move"",11195,2839,2273.8,8356,565.2,""smooth"",""right"",""right"",""bad_move"",13700,2504,1990.6,11196,513.4,""smooth"",""right"",""down"",""good_move"",16356,2656,2227.2,13700,428.8,""smooth"",""right"",""up"",""bad_move"",19379,3023,2200,16356,823,""smooth"",""down"",""down"",""good_move"",25740,6360,2580.4,22775,384.6,""oops"",""down"",""up"",""bad_move"",28980,3240,2194.4,25740,1045.6,""oops"",""down"",""down"",""good_move"",32004,3024,2411.9,28980,612.1,""smooth"",""down"",""down"",""good_move"",35148,3144,2724.8,32004,419.2,""smooth"",""down"",""down"",""good_move"",38701,3553,3185.4,35148,367.6,""smooth"",""down"",""down"",""good_move"",42132,3431,3027.1,38701,403.9,""smooth"",""down"",""down"",""good_move"",51356,9224,1732.4,49074,549.6,""oops"",""left"",""up"",""bad_move"",55619,4263,3798.1,51356,464.9,""smooth"",""left"",""left"",""good_move"",59060,3441,2849.6,55620,590.4,""oops"",""left"",""left"",""good_move"",62253,3193,2351.1,59060,841.9,""oops"",""left"",""up"",""bad_move"",65364,3111,2453,62253,658,""smooth"",""left"",""left"",""good_move"",69099,3735,3244.9,65364,490.1,""oops"",""left"",""right"",""bad_move""]","",""
"8984","","<div style=""width:500px;"">
  <p>What determined the result of this run?</p>
  </div>","0","html-slider-response","65","1398218","0.0-10.0-1.5","107","1","2025-07-02 10:19:34","80fe4187154257d5fb01684ea91b68b9","87.97.112.208","Mozilla/5.0 (Windows NT 10.0; Win64; x64; rv:140.0) Gecko/20100101 Firefox/140.0","","Firefox","140.0","Windows","10.0","https://app.prolific.com/","en-US,en;q=0.5","5bc4784e85214800017d8c1a","683db6dfa200031b80f2a654","686507893c1f1acf9d0bb649","5bc4784e85214800017d8c1a","2025-07-02T10:42:57.458Z","","","","","","AttribQ","","","","","","","","","","","","","","","","","","","","","","","","","","","","","","","","","","","","","","50"
"3706","","<div style=""width:500px;"">
  <p>How much control did you have over the ball?</p>
  </div>","6","html-slider-response","66","1401927","0.0-10.0-2.5","107","1","2025-07-02 10:19:34","80fe4187154257d5fb01684ea91b68b9","87.97.112.208","Mozilla/5.0 (Windows NT 10.0; Win64; x64; rv:140.0) Gecko/20100101 Firefox/140.0","","Firefox","140.0","Windows","10.0","https://app.prolific.com/","en-US,en;q=0.5","5bc4784e85214800017d8c1a","683db6dfa200031b80f2a654","686507893c1f1acf9d0bb649","5bc4784e85214800017d8c1a","2025-07-02T10:43:01.167Z","","","","","","ControlQ","","","","","","","","","","","","","","","","","","","","","","","","","","","","","","","","","","","","","","50"
"3949","","<div style=""width:500px;"">
  <p>How would you describe your current emotional state?</p>
  </div>","55","html-slider-response","67","1405876","0.0-10.0-3.5","107","1","2025-07-02 10:19:34","80fe4187154257d5fb01684ea91b68b9","87.97.112.208","Mozilla/5.0 (Windows NT 10.0; Win64; x64; rv:140.0) Gecko/20100101 Firefox/140.0","","Firefox","140.0","Windows","10.0","https://app.prolific.com/","en-US,en;q=0.5","5bc4784e85214800017d8c1a","683db6dfa200031b80f2a654","686507893c1f1acf9d0bb649","5bc4784e85214800017d8c1a","2025-07-02T10:43:05.116Z","","","","","","StressQ","","","","","","","","","","","","","","","","","","","","","","","","","","","","","","","","","","","","","","50"
"3140","","<div style=""width:500px;"">
  <p>What best describes how you currently feel?</p>
  </div>","56","html-slider-response","68","1409016","0.0-10.0-4.5","107","1","2025-07-02 10:19:34","80fe4187154257d5fb01684ea91b68b9","87.97.112.208","Mozilla/5.0 (Windows NT 10.0; Win64; x64; rv:140.0) Gecko/20100101 Firefox/140.0","","Firefox","140.0","Windows","10.0","https://app.prolific.com/","en-US,en;q=0.5","5bc4784e85214800017d8c1a","683db6dfa200031b80f2a654","686507893c1f1acf9d0bb649","5bc4784e85214800017d8c1a","2025-07-02T10:43:08.256Z","","","","","","MotivationQ","","","","","","","","","","","","","","","","","","","","","","","","","","","","","","","","","","","","","","50"
"","","","","ctl-task-cpt","69","1471354","0.0-10.0-0.6","107","1","2025-07-02 10:19:34","80fe4187154257d5fb01684ea91b68b9","87.97.112.208","Mozilla/5.0 (Windows NT 10.0; Win64; x64; rv:140.0) Gecko/20100101 Firefox/140.0","","Firefox","140.0","Windows","10.0","https://app.prolific.com/","en-US,en;q=0.5","5bc4784e85214800017d8c1a","683db6dfa200031b80f2a654","686507893c1f1acf9d0bb649","5bc4784e85214800017d8c1a","2025-07-02T10:44:10.594Z","","","","","","","","","","","","","","","","win-only","2","g1:SE,g2:NW","0.4","7","0","1412979","1457","6462","59328","1","4","8","6","2","8","7","27","20","0.20454545454545456","1008","3000","1075","[""left"",""up""]","{""num_key_presses"":14,""num_perfect"":7,""num_errors"":1,""num_randdir"":6,""num_randdir_good_moves"":3,""num_whilered"":0,""num_whileblue"":1,""num_blue"":4,""num_good_moves"":10}","[461.8571428571429,464.5571398053851,0,461.8571428571429,464.5571398053851,110,461.8571428571429,464.5571398053851,219,461.8571428571429,464.5571398053851,327,461.8571428571429,467.5571398053851,439,426.8571428571429,445.5571398053851,549,172.85714285714286,206.55713980538505,660,158.85714285714286,162.55713980538505,772,124.85714285714286,125.55713980538505,884,92.85714285714286,105.55713980538505,992,92.85714285714286,105.55713980538505,1103,92.85714285714286,105.55713980538505,1216,92.85714285714286,105.55713980538505,1324,105.85714285714286,149.55713980538505,1435,181.85714285714286,292.5571398053851,1548,121.85714285714286,364.5571398053851,1655,-2.142857142857139,418.5571398053851,1768,-65.14285714285714,456.5571398053851,1873,-103.14285714285714,472.5571398053851,1980,-111.14285714285714,479.5571398053851,2088,-111.14285714285714,479.5571398053851,2197,-111.14285714285714,479.5571398053851,2308,-111.14285714285714,479.5571398053851,2418,-111.14285714285714,479.5571398053851,2529,-111.14285714285714,479.5571398053851,2636,-111.14285714285714,479.5571398053851,2744,-111.14285714285714,479.5571398053851,2851,-111.14285714285714,479.5571398053851,2961,-111.14285714285714,479.5571398053851,3073,-111.14285714285714,479.5571398053851,3185,-111.14285714285714,479.5571398053851,3294,-111.14285714285714,479.5571398053851,3406,-111.14285714285714,479.5571398053851,3518,-111.14285714285714,479.5571398053851,3626,-111.14285714285714,479.5571398053851,3733,-111.14285714285714,479.5571398053851,3843,-111.14285714285714,479.5571398053851,3953,-111.14285714285714,479.5571398053851,4065,-111.14285714285714,479.5571398053851,4177,-111.14285714285714,479.5571398053851,4289,-111.14285714285714,479.5571398053851,4401,-111.14285714285714,479.5571398053851,4508,-111.14285714285714,479.5571398053851,4617,-111.14285714285714,479.5571398053851,4726,-111.14285714285714,479.5571398053851,4836,-111.14285714285714,479.5571398053851,4943]","[5661,5661,3149.4,2027,484.6,""smooth"",""up"",""up"",""good_move"",8940,3279,2336,5661,943,""oops"",""up"",""down"",""bad_move"",11316,2376,1886.4,8940,489.6,""smooth"",""up"",""up"",""good_move"",17980,6663,2172.9,15422,385.1,""oops"",""left"",""up"",""good_move"",21180,3200,2178.3,17980,1021.7,""oops"",""left"",""right"",""bad_move"",27979,6799,3118,24530,331,""oops"",""up"",""right"",""bad_move"",31228,3248,2760.8,27980,487.2,""smooth"",""right"",""down"",""bad_move"",33620,2392,1929.1,31228,462.9,""smooth"",""left"",""left"",""good_move"",36636,3016,2568.1,33620,447.9,""oops"",""up"",""left"",""good_move"",39972,3336,2623.6,36636,712.4,""oops"",""left"",""left"",""good_move"",43060,3088,1812.4,39972,1275.6,""smooth"",""up"",""up"",""good_move"",46108,3048,2666,43060,382,""while_blue"",""left"",""up"",""good_move"",49396,3288,2442.3,46108,845.7,""smooth"",""left"",""left"",""good_move"",52564,3168,2741,49396,427,""smooth"",""left"",""left"",""good_move""]","",""
"4786","","<div style=""width:500px;"">
  <p>What determined the result of this run?</p>
  </div>","78","html-slider-response","70","1476146","0.0-10.0-1.6","107","1","2025-07-02 10:19:34","80fe4187154257d5fb01684ea91b68b9","87.97.112.208","Mozilla/5.0 (Windows NT 10.0; Win64; x64; rv:140.0) Gecko/20100101 Firefox/140.0","","Firefox","140.0","Windows","10.0","https://app.prolific.com/","en-US,en;q=0.5","5bc4784e85214800017d8c1a","683db6dfa200031b80f2a654","686507893c1f1acf9d0bb649","5bc4784e85214800017d8c1a","2025-07-02T10:44:15.386Z","","","","","","AttribQ","","","","","","","","","","","","","","","","","","","","","","","","","","","","","","","","","","","","","","50"
"9378","","<div style=""width:500px;"">
  <p>How much control did you have over the ball?</p>
  </div>","42","html-slider-response","71","1485526","0.0-10.0-2.6","107","1","2025-07-02 10:19:34","80fe4187154257d5fb01684ea91b68b9","87.97.112.208","Mozilla/5.0 (Windows NT 10.0; Win64; x64; rv:140.0) Gecko/20100101 Firefox/140.0","","Firefox","140.0","Windows","10.0","https://app.prolific.com/","en-US,en;q=0.5","5bc4784e85214800017d8c1a","683db6dfa200031b80f2a654","686507893c1f1acf9d0bb649","5bc4784e85214800017d8c1a","2025-07-02T10:44:24.766Z","","","","","","ControlQ","","","","","","","","","","","","","","","","","","","","","","","","","","","","","","","","","","","","","","50"
"2810","","<div style=""width:500px;"">
  <p>How would you describe your current emotional state?</p>
  </div>","54","html-slider-response","72","1488337","0.0-10.0-3.6","107","1","2025-07-02 10:19:34","80fe4187154257d5fb01684ea91b68b9","87.97.112.208","Mozilla/5.0 (Windows NT 10.0; Win64; x64; rv:140.0) Gecko/20100101 Firefox/140.0","","Firefox","140.0","Windows","10.0","https://app.prolific.com/","en-US,en;q=0.5","5bc4784e85214800017d8c1a","683db6dfa200031b80f2a654","686507893c1f1acf9d0bb649","5bc4784e85214800017d8c1a","2025-07-02T10:44:27.577Z","","","","","","StressQ","","","","","","","","","","","","","","","","","","","","","","","","","","","","","","","","","","","","","","50"
"3803","","<div style=""width:500px;"">
  <p>What best describes how you currently feel?</p>
  </div>","54","html-slider-response","73","1492141","0.0-10.0-4.6","107","1","2025-07-02 10:19:34","80fe4187154257d5fb01684ea91b68b9","87.97.112.208","Mozilla/5.0 (Windows NT 10.0; Win64; x64; rv:140.0) Gecko/20100101 Firefox/140.0","","Firefox","140.0","Windows","10.0","https://app.prolific.com/","en-US,en;q=0.5","5bc4784e85214800017d8c1a","683db6dfa200031b80f2a654","686507893c1f1acf9d0bb649","5bc4784e85214800017d8c1a","2025-07-02T10:44:31.382Z","","","","","","MotivationQ","","","","","","","","","","","","","","","","","","","","","","","","","","","","","","","","","","","","","","50"
"","","","","ctl-task-cpt","74","1560418","0.0-10.0-0.7","107","1","2025-07-02 10:19:34","80fe4187154257d5fb01684ea91b68b9","87.97.112.208","Mozilla/5.0 (Windows NT 10.0; Win64; x64; rv:140.0) Gecko/20100101 Firefox/140.0","","Firefox","140.0","Windows","10.0","https://app.prolific.com/","en-US,en;q=0.5","5bc4784e85214800017d8c1a","683db6dfa200031b80f2a654","686507893c1f1acf9d0bb649","5bc4784e85214800017d8c1a","2025-07-02T10:45:39.658Z","","","","","","","","","","","","","","","","win-only","2","g1:SE,g2:NW","0.3","8","0","1496103","1786","6797","65261","1","4","4","6","2","4","3","30","27","0.22727272727272727","978","3000","1135","[""left"",""up""]","{""num_key_presses"":14,""num_perfect"":6,""num_errors"":1,""num_randdir"":7,""num_randdir_good_moves"":5,""num_whilered"":0,""num_whileblue"":1,""num_blue"":5,""num_good_moves"":10}","[458.8571428571429,463.5571398053851,0,458.8571428571429,463.5571398053851,100,458.8571428571429,463.5571398053851,209,468.8571428571429,512.5571398053851,317,508.8571428571429,551.5571398053851,428,498.8571428571429,537.5571398053851,539,199.85714285714286,216.55713980538505,648,176.85714285714286,194.55713980538505,756,87.85714285714286,115.55713980538505,865,63.85714285714286,71.55713980538505,977,63.85714285714286,71.55713980538505,1084,63.85714285714286,71.55713980538505,1196,60.85714285714286,95.55713980538505,1306,-29.14285714285714,221.55713980538505,1418,-123.14285714285714,284.5571398053851,1530,-126.14285714285714,287.5571398053851,1638,-126.14285714285714,287.5571398053851,1746,-126.14285714285714,287.5571398053851,1855,-126.14285714285714,287.5571398053851,1964,-126.14285714285714,287.5571398053851,2072,-126.14285714285714,287.5571398053851,2181,-126.14285714285714,287.5571398053851,2291,-126.14285714285714,287.5571398053851,2403,-126.14285714285714,287.5571398053851,2514,-126.14285714285714,287.5571398053851,2626,-126.14285714285714,287.5571398053851,2734,-126.14285714285714,287.5571398053851,2843,-126.14285714285714,287.5571398053851,2956,-126.14285714285714,287.5571398053851,3065,-126.14285714285714,287.5571398053851,3176,-126.14285714285714,287.5571398053851,3288,-126.14285714285714,287.5571398053851,3398,-126.14285714285714,287.5571398053851,3507,-126.14285714285714,287.5571398053851,3620,-126.14285714285714,287.5571398053851,3729,-126.14285714285714,287.5571398053851,3838,-126.14285714285714,287.5571398053851,3948,-126.14285714285714,287.5571398053851,4056,-126.14285714285714,287.5571398053851,4165,-126.14285714285714,287.5571398053851,4278,-126.14285714285714,287.5571398053851,4389,-126.14285714285714,287.5571398053851,4501,-126.14285714285714,287.5571398053851,4613,-126.14285714285714,287.5571398053851,4726,-126.14285714285714,287.5571398053851,4836,-126.14285714285714,287.5571398053851,4949]","[1480,1480,1000,0,480,""oops"",""up"",""left"",""good_move"",4632,3151,2369,1481,782,""oops"",""up"",""left"",""good_move"",7737,3105,2348.6,4632,756.4,""oops"",""up"",""left"",""good_move"",10922,3185,2777.1,7737,407.9,""smooth"",""right"",""right"",""bad_move"",18016,7094,3051.1,14522,442.9,""oops"",""up"",""down"",""bad_move"",21472,3456,3040.9,18016,415.1,""smooth"",""left"",""left"",""good_move"",28688,7216,3051.7,25171,465.3,""oops"",""up"",""up"",""good_move"",31943,3255,2716.4,28688,538.6,""smooth"",""up"",""up"",""good_move"",38320,6376,2280.2,35630,409.8,""oops"",""up"",""right"",""bad_move"",41704,3384,2975.4,38320,408.6,""oops"",""up"",""left"",""good_move"",48855,7151,2736,45719,400,""while_blue"",""up"",""right"",""bad_move"",51968,3112,2507.2,48856,604.8,""smooth"",""up"",""up"",""good_move"",55112,3144,1908.5,51968,1235.5,""smooth"",""up"",""up"",""good_move"",58192,3080,2245.9,55112,834.1,""smooth"",""left"",""left"",""good_move""]","",""
"5829","","<div style=""width:500px;"">
  <p>What determined the result of this run?</p>
  </div>","40","html-slider-response","75","1566249","0.0-10.0-1.7","107","1","2025-07-02 10:19:34","80fe4187154257d5fb01684ea91b68b9","87.97.112.208","Mozilla/5.0 (Windows NT 10.0; Win64; x64; rv:140.0) Gecko/20100101 Firefox/140.0","","Firefox","140.0","Windows","10.0","https://app.prolific.com/","en-US,en;q=0.5","5bc4784e85214800017d8c1a","683db6dfa200031b80f2a654","686507893c1f1acf9d0bb649","5bc4784e85214800017d8c1a","2025-07-02T10:45:45.489Z","","","","","","AttribQ","","","","","","","","","","","","","","","","","","","","","","","","","","","","","","","","","","","","","","50"
"3667","","<div style=""width:500px;"">
  <p>How much control did you have over the ball?</p>
  </div>","34","html-slider-response","76","1569917","0.0-10.0-2.7","107","1","2025-07-02 10:19:34","80fe4187154257d5fb01684ea91b68b9","87.97.112.208","Mozilla/5.0 (Windows NT 10.0; Win64; x64; rv:140.0) Gecko/20100101 Firefox/140.0","","Firefox","140.0","Windows","10.0","https://app.prolific.com/","en-US,en;q=0.5","5bc4784e85214800017d8c1a","683db6dfa200031b80f2a654","686507893c1f1acf9d0bb649","5bc4784e85214800017d8c1a","2025-07-02T10:45:49.157Z","","","","","","ControlQ","","","","","","","","","","","","","","","","","","","","","","","","","","","","","","","","","","","","","","50"
"3339","","<div style=""width:500px;"">
  <p>How would you describe your current emotional state?</p>
  </div>","57","html-slider-response","77","1573256","0.0-10.0-3.7","107","1","2025-07-02 10:19:34","80fe4187154257d5fb01684ea91b68b9","87.97.112.208","Mozilla/5.0 (Windows NT 10.0; Win64; x64; rv:140.0) Gecko/20100101 Firefox/140.0","","Firefox","140.0","Windows","10.0","https://app.prolific.com/","en-US,en;q=0.5","5bc4784e85214800017d8c1a","683db6dfa200031b80f2a654","686507893c1f1acf9d0bb649","5bc4784e85214800017d8c1a","2025-07-02T10:45:52.496Z","","","","","","StressQ","","","","","","","","","","","","","","","","","","","","","","","","","","","","","","","","","","","","","","50"
"2906","","<div style=""width:500px;"">
  <p>What best describes how you currently feel?</p>
  </div>","55","html-slider-response","78","1576165","0.0-10.0-4.7","107","1","2025-07-02 10:19:34","80fe4187154257d5fb01684ea91b68b9","87.97.112.208","Mozilla/5.0 (Windows NT 10.0; Win64; x64; rv:140.0) Gecko/20100101 Firefox/140.0","","Firefox","140.0","Windows","10.0","https://app.prolific.com/","en-US,en;q=0.5","5bc4784e85214800017d8c1a","683db6dfa200031b80f2a654","686507893c1f1acf9d0bb649","5bc4784e85214800017d8c1a","2025-07-02T10:45:55.405Z","","","","","","MotivationQ","","","","","","","","","","","","","","","","","","","","","","","","","","","","","","","","","","","","","","50"
"","","","","ctl-task-cpt","79","1666852","0.0-10.0-0.8","107","1","2025-07-02 10:19:34","80fe4187154257d5fb01684ea91b68b9","87.97.112.208","Mozilla/5.0 (Windows NT 10.0; Win64; x64; rv:140.0) Gecko/20100101 Firefox/140.0","","Firefox","140.0","Windows","10.0","https://app.prolific.com/","en-US,en;q=0.5","5bc4784e85214800017d8c1a","683db6dfa200031b80f2a654","686507893c1f1acf9d0bb649","5bc4784e85214800017d8c1a","2025-07-02T10:47:26.092Z","","","","","","","","","","","","","","","","win-only","2","g1:SE,g2:NW","0.4","9","0","1580126","2091","7101","87674","1","4","8","6","2","8","8","38","30","0.2878787878787879","871","3000","390","[""left"",""up""]","{""num_key_presses"":18,""num_perfect"":8,""num_errors"":0,""num_randdir"":10,""num_randdir_good_moves"":4,""num_whilered"":0,""num_whileblue"":0,""num_blue"":7,""num_good_moves"":12}","[461.8571428571429,462.5571398053851,1,461.8571428571429,462.5571398053851,111,461.8571428571429,462.5571398053851,223,461.8571428571429,462.5571398053851,333,388.8571428571429,390.5571398053851,445,160.85714285714286,178.55713980538505,557,151.85714285714286,150.55713980538505,668,105.85714285714286,91.55713980538505,781,95.85714285714286,78.55713980538505,890,95.85714285714286,78.55713980538505,1002,95.85714285714286,78.55713980538505,1113,-1.1428571428571388,227.55713980538505,1222,-127.14285714285714,300.5571398053851,1330,-132.14285714285714,304.5571398053851,1439,-132.14285714285714,304.5571398053851,1549,-132.14285714285714,304.5571398053851,1661,-132.14285714285714,304.5571398053851,1772,-132.14285714285714,304.5571398053851,1884,-132.14285714285714,304.5571398053851,1996,-132.14285714285714,304.5571398053851,2101,-132.14285714285714,304.5571398053851,2213,-132.14285714285714,304.5571398053851,2322,-132.14285714285714,304.5571398053851,2433,-132.14285714285714,304.5571398053851,2545,-132.14285714285714,304.5571398053851,2656,-132.14285714285714,304.5571398053851,2767,-132.14285714285714,304.5571398053851,2876,-132.14285714285714,304.5571398053851,2987,-132.14285714285714,304.5571398053851,3098,-132.14285714285714,304.5571398053851,3210,-132.14285714285714,304.5571398053851,3321,-132.14285714285714,304.5571398053851,3430,-132.14285714285714,304.5571398053851,3536,-132.14285714285714,304.5571398053851,3646,-132.14285714285714,304.5571398053851,3753,-132.14285714285714,304.5571398053851,3863,-132.14285714285714,304.5571398053851,3975,-132.14285714285714,304.5571398053851,4086,-132.14285714285714,304.5571398053851,4197,-132.14285714285714,304.5571398053851,4307,-132.14285714285714,304.5571398053851,4414,-132.14285714285714,304.5571398053851,4521,-132.14285714285714,304.5571398053851,4630,-132.14285714285714,304.5571398053851,4741,-132.14285714285714,304.5571398053851,4853,-132.14285714285714,304.5571398053851,4961]","[1553,1553,1000,0,553,""smooth"",""up"",""up"",""good_move"",4688,3135,2581.3,1553,553.7,""smooth"",""up"",""up"",""good_move"",7800,3113,2485.1,4688,627.9,""smooth"",""up"",""up"",""good_move"",11665,3864,3434.6,7801,429.4,""smooth"",""left"",""left"",""good_move"",15112,3447,2990.3,11665,456.7,""oops"",""left"",""right"",""bad_move"",26145,11033,2761.1,22936,447.9,""oops"",""left"",""down"",""bad_move"",29376,3231,2746,26145,485,""oops"",""left"",""left"",""good_move"",32705,3329,2157.2,29376,1171.8,""oops"",""left"",""down"",""bad_move"",35120,2415,1927.1,32705,487.9,""oops"",""up"",""down"",""bad_move"",37897,2777,2351.8,35120,425.2,""oops"",""left"",""up"",""good_move"",41192,3295,2881.8,37897,413.2,""smooth"",""left"",""left"",""good_move"",44368,3176,2199.9,41192,976.1,""oops"",""left"",""right"",""bad_move"",54008,9640,2815.6,50805,387.4,""oops"",""left"",""down"",""bad_move"",60328,6320,2038.7,57826,463.3,""smooth"",""left"",""left"",""good_move"",63481,3152,2481,60329,671,""smooth"",""left"",""left"",""good_move"",66600,3119,2612.7,63481,506.3,""smooth"",""up"",""up"",""good_move"",77240,10640,2706.8,73964,569.2,""oops"",""up"",""up"",""good_move"",80296,3056,2131.8,77240,924.2,""oops"",""up"",""up"",""good_move""]","",""
"4358","","<div style=""width:500px;"">
  <p>What determined the result of this run?</p>
  </div>","23","html-slider-response","80","1671211","0.0-10.0-1.8","107","1","2025-07-02 10:19:34","80fe4187154257d5fb01684ea91b68b9","87.97.112.208","Mozilla/5.0 (Windows NT 10.0; Win64; x64; rv:140.0) Gecko/20100101 Firefox/140.0","","Firefox","140.0","Windows","10.0","https://app.prolific.com/","en-US,en;q=0.5","5bc4784e85214800017d8c1a","683db6dfa200031b80f2a654","686507893c1f1acf9d0bb649","5bc4784e85214800017d8c1a","2025-07-02T10:47:30.451Z","","","","","","AttribQ","","","","","","","","","","","","","","","","","","","","","","","","","","","","","","","","","","","","","","50"
"3851","","<div style=""width:500px;"">
  <p>How much control did you have over the ball?</p>
  </div>","16","html-slider-response","81","1675063","0.0-10.0-2.8","107","1","2025-07-02 10:19:34","80fe4187154257d5fb01684ea91b68b9","87.97.112.208","Mozilla/5.0 (Windows NT 10.0; Win64; x64; rv:140.0) Gecko/20100101 Firefox/140.0","","Firefox","140.0","Windows","10.0","https://app.prolific.com/","en-US,en;q=0.5","5bc4784e85214800017d8c1a","683db6dfa200031b80f2a654","686507893c1f1acf9d0bb649","5bc4784e85214800017d8c1a","2025-07-02T10:47:34.303Z","","","","","","ControlQ","","","","","","","","","","","","","","","","","","","","","","","","","","","","","","","","","","","","","","50"
"5192","","<div style=""width:500px;"">
  <p>How would you describe your current emotional state?</p>
  </div>","55","html-slider-response","82","1680255","0.0-10.0-3.8","107","1","2025-07-02 10:19:34","80fe4187154257d5fb01684ea91b68b9","87.97.112.208","Mozilla/5.0 (Windows NT 10.0; Win64; x64; rv:140.0) Gecko/20100101 Firefox/140.0","","Firefox","140.0","Windows","10.0","https://app.prolific.com/","en-US,en;q=0.5","5bc4784e85214800017d8c1a","683db6dfa200031b80f2a654","686507893c1f1acf9d0bb649","5bc4784e85214800017d8c1a","2025-07-02T10:47:39.495Z","","","","","","StressQ","","","","","","","","","","","","","","","","","","","","","","","","","","","","","","","","","","","","","","50"
"2201","","<div style=""width:500px;"">
  <p>What best describes how you currently feel?</p>
  </div>","55","html-slider-response","83","1682457","0.0-10.0-4.8","107","1","2025-07-02 10:19:34","80fe4187154257d5fb01684ea91b68b9","87.97.112.208","Mozilla/5.0 (Windows NT 10.0; Win64; x64; rv:140.0) Gecko/20100101 Firefox/140.0","","Firefox","140.0","Windows","10.0","https://app.prolific.com/","en-US,en;q=0.5","5bc4784e85214800017d8c1a","683db6dfa200031b80f2a654","686507893c1f1acf9d0bb649","5bc4784e85214800017d8c1a","2025-07-02T10:47:41.697Z","","","","","","MotivationQ","","","","","","","","","","","","","","","","","","","","","","","","","","","","","","","","","","","","","","50"
"","","","","ctl-task-cpt","84","1751046","0.0-10.0-0.9","107","1","2025-07-02 10:19:34","80fe4187154257d5fb01684ea91b68b9","87.97.112.208","Mozilla/5.0 (Windows NT 10.0; Win64; x64; rv:140.0) Gecko/20100101 Firefox/140.0","","Firefox","140.0","Windows","10.0","https://app.prolific.com/","en-US,en;q=0.5","5bc4784e85214800017d8c1a","683db6dfa200031b80f2a654","686507893c1f1acf9d0bb649","5bc4784e85214800017d8c1a","2025-07-02T10:48:50.286Z","","","","","","","","","","","","","","","","win-only","0","g1:NW,g2:SE","0.5","10","0","1686420","1641","6652","65574","1","4","4","6","2","4","4","42","38","0.3181818181818182","1008","3000","895","[""down"",""right""]","{""num_key_presses"":16,""num_perfect"":10,""num_errors"":0,""num_randdir"":6,""num_randdir_good_moves"":1,""num_whilered"":0,""num_whileblue"":0,""num_blue"":3,""num_good_moves"":11}","[458.8571428571429,460.5571398053851,0,458.8571428571429,460.5571398053851,113,458.8571428571429,460.5571398053851,225,449.8571428571429,463.5571398053851,332,410.8571428571429,438.5571398053851,442,555.8571428571429,654.5571398053851,552,756.8571428571429,806.5571398053851,663,772.8571428571429,832.5571398053851,772,791.8571428571429,837.5571398053851,878,823.8571428571429,835.5571398053851,985,823.8571428571429,835.5571398053851,1096,823.8571428571429,835.5571398053851,1208,899.8571428571429,781.5571398053851,1321,979.8571428571429,721.5571398053851,1430,979.8571428571429,721.5571398053851,1543,979.8571428571429,721.5571398053851,1652,979.8571428571429,721.5571398053851,1763,979.8571428571429,721.5571398053851,1872,979.8571428571429,721.5571398053851,1981,979.8571428571429,721.5571398053851,2090,979.8571428571429,721.5571398053851,2197,979.8571428571429,721.5571398053851,2305,979.8571428571429,721.5571398053851,2418,979.8571428571429,721.5571398053851,2526,979.8571428571429,721.5571398053851,2636,979.8571428571429,721.5571398053851,2743,979.8571428571429,721.5571398053851,2849,979.8571428571429,721.5571398053851,2957,979.8571428571429,721.5571398053851,3067,979.8571428571429,721.5571398053851,3176,979.8571428571429,721.5571398053851,3288,979.8571428571429,721.5571398053851,3398,979.8571428571429,721.5571398053851,3508,979.8571428571429,721.5571398053851,3619,979.8571428571429,721.5571398053851,3732,979.8571428571429,721.5571398053851,3843,979.8571428571429,721.5571398053851,3956,979.8571428571429,721.5571398053851,4067,979.8571428571429,721.5571398053851,4176,979.8571428571429,721.5571398053851,4287,979.8571428571429,721.5571398053851,4399,979.8571428571429,721.5571398053851,4506,979.8571428571429,721.5571398053851,4617,979.8571428571429,721.5571398053851,4729,979.8571428571429,721.5571398053851,4839,979.8571428571429,721.5571398053851,4947]","[5147,5147,2677.3,2019,450.7,""oops"",""down"",""up"",""bad_move"",8292,3145,2365.9,5147,779.1,""oops"",""down"",""up"",""bad_move"",11467,3175,2725.1,8292,449.9,""smooth"",""right"",""right"",""good_move"",17682,6215,2298.2,14939,444.8,""smooth"",""right"",""right"",""good_move"",20715,3033,2637.2,17682,395.8,""smooth"",""right"",""right"",""good_move"",28058,7343,3173.6,24468,416.4,""smooth"",""down"",""down"",""good_move"",31074,3016,2536.6,28058,479.4,""smooth"",""down"",""down"",""good_move"",33699,2625,2193,31074,432,""oops"",""down"",""up"",""bad_move"",36763,3064,2513.7,33699,550.3,""oops"",""down"",""left"",""bad_move"",39850,3087,2114.4,36763,972.6,""oops"",""down"",""up"",""bad_move"",44027,4176,3747.2,39851,428.8,""smooth"",""down"",""down"",""good_move"",46675,2648,2185.3,44027,462.7,""smooth"",""down"",""down"",""good_move"",49339,2664,2275.5,46675,388.5,""smooth"",""down"",""down"",""good_move"",52266,2927,2564.9,49339,362.1,""oops"",""down"",""right"",""good_move"",55555,3289,2834.4,52266,454.6,""smooth"",""down"",""down"",""good_move"",58626,3071,2689.5,55555,381.5,""smooth"",""down"",""down"",""good_move""]","",""
"4480","","<div style=""width:500px;"">
  <p>What determined the result of this run?</p>
  </div>","43","html-slider-response","85","1755531","0.0-10.0-1.9","107","1","2025-07-02 10:19:34","80fe4187154257d5fb01684ea91b68b9","87.97.112.208","Mozilla/5.0 (Windows NT 10.0; Win64; x64; rv:140.0) Gecko/20100101 Firefox/140.0","","Firefox","140.0","Windows","10.0","https://app.prolific.com/","en-US,en;q=0.5","5bc4784e85214800017d8c1a","683db6dfa200031b80f2a654","686507893c1f1acf9d0bb649","5bc4784e85214800017d8c1a","2025-07-02T10:48:54.771Z","","","","","","AttribQ","","","","","","","","","","","","","","","","","","","","","","","","","","","","","","","","","","","","","","50"
"4171","","<div style=""width:500px;"">
  <p>How much control did you have over the ball?</p>
  </div>","41","html-slider-response","86","1759703","0.0-10.0-2.9","107","1","2025-07-02 10:19:34","80fe4187154257d5fb01684ea91b68b9","87.97.112.208","Mozilla/5.0 (Windows NT 10.0; Win64; x64; rv:140.0) Gecko/20100101 Firefox/140.0","","Firefox","140.0","Windows","10.0","https://app.prolific.com/","en-US,en;q=0.5","5bc4784e85214800017d8c1a","683db6dfa200031b80f2a654","686507893c1f1acf9d0bb649","5bc4784e85214800017d8c1a","2025-07-02T10:48:58.943Z","","","","","","ControlQ","","","","","","","","","","","","","","","","","","","","","","","","","","","","","","","","","","","","","","50"
"2842","","<div style=""width:500px;"">
  <p>How would you describe your current emotional state?</p>
  </div>","59","html-slider-response","87","1762546","0.0-10.0-3.9","107","1","2025-07-02 10:19:34","80fe4187154257d5fb01684ea91b68b9","87.97.112.208","Mozilla/5.0 (Windows NT 10.0; Win64; x64; rv:140.0) Gecko/20100101 Firefox/140.0","","Firefox","140.0","Windows","10.0","https://app.prolific.com/","en-US,en;q=0.5","5bc4784e85214800017d8c1a","683db6dfa200031b80f2a654","686507893c1f1acf9d0bb649","5bc4784e85214800017d8c1a","2025-07-02T10:49:01.786Z","","","","","","StressQ","","","","","","","","","","","","","","","","","","","","","","","","","","","","","","","","","","","","","","50"
"2156","","<div style=""width:500px;"">
  <p>What best describes how you currently feel?</p>
  </div>","60","html-slider-response","88","1764703","0.0-10.0-4.9","107","1","2025-07-02 10:19:34","80fe4187154257d5fb01684ea91b68b9","87.97.112.208","Mozilla/5.0 (Windows NT 10.0; Win64; x64; rv:140.0) Gecko/20100101 Firefox/140.0","","Firefox","140.0","Windows","10.0","https://app.prolific.com/","en-US,en;q=0.5","5bc4784e85214800017d8c1a","683db6dfa200031b80f2a654","686507893c1f1acf9d0bb649","5bc4784e85214800017d8c1a","2025-07-02T10:49:03.943Z","","","","","","MotivationQ","","","","","","","","","","","","","","","","","","","","","","","","","","","","","","","","","","","","","","50"
