"rt","response_timestamp","stimulus","response","trial_type","trial_index","time_elapsed","internal_node_id","run_id","condition","recorded_at","source_code_version","ip","user_agent","device","browser","browser_version","platform","platform_version","referer","accept_language","PROLIFIC_PID","STUDY_ID","SESSION_ID","prolific_id","realtime","view_history","question_order","consent","success","question_id","eventType","responses","item_order","radio_event_ids","radio_event_times","key_event_times","mouse_event_times","straightlining","zigzagging","honeypot","which_type","canvas_config","goals_layout","control_level","trial_number","tutorial_trial_number","trial_start_time","phase1_start_time","phase2_start_time","phase3_start_time","goal_1_value","goal_1_distance","goal_2_value","goal_2_distance","goal_selected","outcome","outcome_total","participant_final_score","participant_initial_score","participant_final_score_prop","goal_choice_rt","allocated_time","allocated_time_remaining","goal_direction","counts","mouse_movements","key_presses","correct","slider_start"
"6753","1751451434684","<p style='font-size:40px;line-height:1.25'><strong>Welcome to the experiment!</strong></p><p style='font-size:1.1em;line-height:1.25'>Thank you for your interest in our experiment! Before you begin, it is important that we obtain your informed consent to participate in the study.</p><p style='font-size:1.1em;line-height:1.25'>On the next screen will be an <strong>information sheet</strong> for you to read. To participate in the study we need you to read this information sheet and the following consent form carefully. If you agree with all the statements, please click the <strong>I agree</strong> button.</p><p style='font-size:1.1em;line-height:1.25'>Press <strong>Next</strong> to read the information sheet.</p>","0","custom-html-button-response","0","6755","0.0-0.0","45","1","2025-07-02 10:18:44","80fe4187154257d5fb01684ea91b68b9","134.255.60.217","Mozilla/5.0 (Windows NT 10.0; Win64; x64) AppleWebKit/537.36 (KHTML, like Gecko) Chrome/137.0.0.0 Safari/537.36","WebKit","Chrome","137.0.0.0","Windows","10.0","https://app.prolific.com/","hu-HU,hu;q=0.9,en-US;q=0.8,en;q=0.7","5c66cc9246bfc200019044b8","683db6dfa200031b80f2a654","68650777d888889537163e06","5c66cc9246bfc200019044b8","2025-07-02T10:17:14.685Z","","","","","","","","","","","","","","","","","","","","","","","","","","","","","","","","","","","","","","","","","","","",""
"15118","","","","instructions","1","21874","0.0-1.0","45","1","2025-07-02 10:18:44","80fe4187154257d5fb01684ea91b68b9","134.255.60.217","Mozilla/5.0 (Windows NT 10.0; Win64; x64) AppleWebKit/537.36 (KHTML, like Gecko) Chrome/137.0.0.0 Safari/537.36","WebKit","Chrome","137.0.0.0","Windows","10.0","https://app.prolific.com/","hu-HU,hu;q=0.9,en-US;q=0.8,en;q=0.7","5c66cc9246bfc200019044b8","683db6dfa200031b80f2a654","68650777d888889537163e06","5c66cc9246bfc200019044b8","","[{""page_index"":0,""viewing_time"":4590},{""page_index"":1,""viewing_time"":10528}]","","","","","","","","","","","","","","","","","","","","","","","","","","","","","","","","","","","","","","","","","","",""
"6639","","","{""Q0"":"""",""Q1"":"""",""Q2"":"""",""Q3"":"""",""Q4"":"""",""Q5"":"""",""Q6"":""I agree""}","survey-multi-choice","2","28515","0.0-2.0","45","1","2025-07-02 10:18:44","80fe4187154257d5fb01684ea91b68b9","134.255.60.217","Mozilla/5.0 (Windows NT 10.0; Win64; x64) AppleWebKit/537.36 (KHTML, like Gecko) Chrome/137.0.0.0 Safari/537.36","WebKit","Chrome","137.0.0.0","Windows","10.0","https://app.prolific.com/","hu-HU,hu;q=0.9,en-US;q=0.8,en;q=0.7","5c66cc9246bfc200019044b8","683db6dfa200031b80f2a654","68650777d888889537163e06","5c66cc9246bfc200019044b8","","","[0,1,2,3,4,5,6]","true","","","","","","","","","","","","","","","","","","","","","","","","","","","","","","","","","","","","","","","","",""
"3743","","","","fullscreen","3","33273","0.0-4.0","45","1","2025-07-02 10:18:44","80fe4187154257d5fb01684ea91b68b9","134.255.60.217","Mozilla/5.0 (Windows NT 10.0; Win64; x64) AppleWebKit/537.36 (KHTML, like Gecko) Chrome/137.0.0.0 Safari/537.36","WebKit","Chrome","137.0.0.0","Windows","10.0","https://app.prolific.com/","hu-HU,hu;q=0.9,en-US;q=0.8,en;q=0.7","5c66cc9246bfc200019044b8","683db6dfa200031b80f2a654","68650777d888889537163e06","5c66cc9246bfc200019044b8","","","","","true","","","","","","","","","","","","","","","","","","","","","","","","","","","","","","","","","","","","","","","",""
"6528","1751451467732"," <p style='font-size:1.1em;line-height:1.25'>Thank you for completing the consent form and closing all other tabs.</p><p style='font-size:1.1em;line-height:1.25'>We will now invite you to fill in some demographic information and questionnaires, before starting the game.<br>This will take about 5 minutes.<br></p><p style='font-size:1.1em;line-height:1.25'>Press the <strong>Next</strong> button to continue.</p>","0","custom-html-button-response","4","39802","0.0-5.0","45","1","2025-07-02 10:18:44","80fe4187154257d5fb01684ea91b68b9","134.255.60.217","Mozilla/5.0 (Windows NT 10.0; Win64; x64) AppleWebKit/537.36 (KHTML, like Gecko) Chrome/137.0.0.0 Safari/537.36","WebKit","Chrome","137.0.0.0","Windows","10.0","https://app.prolific.com/","hu-HU,hu;q=0.9,en-US;q=0.8,en;q=0.7","5c66cc9246bfc200019044b8","683db6dfa200031b80f2a654","68650777d888889537163e06","5c66cc9246bfc200019044b8","2025-07-02T10:17:47.732Z","","","","","","","","","","","","","","","","","","","","","","","","","","","","","","","","","","","","","","","","","","","",""
"3998","","","{""age"":""36""}","survey-text","5","43803","0.0-6.0-0.0","45","1","2025-07-02 10:18:44","80fe4187154257d5fb01684ea91b68b9","134.255.60.217","Mozilla/5.0 (Windows NT 10.0; Win64; x64) AppleWebKit/537.36 (KHTML, like Gecko) Chrome/137.0.0.0 Safari/537.36","WebKit","Chrome","137.0.0.0","Windows","10.0","https://app.prolific.com/","hu-HU,hu;q=0.9,en-US;q=0.8,en;q=0.7","5c66cc9246bfc200019044b8","683db6dfa200031b80f2a654","68650777d888889537163e06","5c66cc9246bfc200019044b8","","","","","","0","demographics","","","","","","","","","","","","","","","","","","","","","","","","","","","","","","","","","","","","","",""
"7407","","","{""gender_identity"":""male/man""}","survey-multi-choice","6","51210","0.0-6.0-1.0","45","1","2025-07-02 10:18:44","80fe4187154257d5fb01684ea91b68b9","134.255.60.217","Mozilla/5.0 (Windows NT 10.0; Win64; x64) AppleWebKit/537.36 (KHTML, like Gecko) Chrome/137.0.0.0 Safari/537.36","WebKit","Chrome","137.0.0.0","Windows","10.0","https://app.prolific.com/","hu-HU,hu;q=0.9,en-US;q=0.8,en;q=0.7","5c66cc9246bfc200019044b8","683db6dfa200031b80f2a654","68650777d888889537163e06","5c66cc9246bfc200019044b8","","","[0]","","","1","demographics","","","","","","","","","","","","","","","","","","","","","","","","","","","","","","","","","","","","","",""
"10175","","","{""assigned_sex"":""male""}","survey-multi-choice","7","61386","0.0-6.0-2.0","45","1","2025-07-02 10:18:44","80fe4187154257d5fb01684ea91b68b9","134.255.60.217","Mozilla/5.0 (Windows NT 10.0; Win64; x64) AppleWebKit/537.36 (KHTML, like Gecko) Chrome/137.0.0.0 Safari/537.36","WebKit","Chrome","137.0.0.0","Windows","10.0","https://app.prolific.com/","hu-HU,hu;q=0.9,en-US;q=0.8,en;q=0.7","5c66cc9246bfc200019044b8","683db6dfa200031b80f2a654","68650777d888889537163e06","5c66cc9246bfc200019044b8","","","[0]","","","2","demographics","","","","","","","","","","","","","","","","","","","","","","","","","","","","","","","","","","","","","",""
"8463","","","{""menstrual_cycle"":""No""}","survey-multi-choice","8","69850","0.0-6.0-3.0","45","1","2025-07-02 10:18:44","80fe4187154257d5fb01684ea91b68b9","134.255.60.217","Mozilla/5.0 (Windows NT 10.0; Win64; x64) AppleWebKit/537.36 (KHTML, like Gecko) Chrome/137.0.0.0 Safari/537.36","WebKit","Chrome","137.0.0.0","Windows","10.0","https://app.prolific.com/","hu-HU,hu;q=0.9,en-US;q=0.8,en;q=0.7","5c66cc9246bfc200019044b8","683db6dfa200031b80f2a654","68650777d888889537163e06","5c66cc9246bfc200019044b8","","","[0]","","","4","demographics","","","","","","","","","","","","","","","","","","","","","","","","","","","","","","","","","","","","","",""
"9751","","","{""education"":""Bachelor's Degree (e.g., BA)""}","survey-multi-choice","9","79603","0.0-6.0-4.0","45","1","2025-07-02 10:18:44","80fe4187154257d5fb01684ea91b68b9","134.255.60.217","Mozilla/5.0 (Windows NT 10.0; Win64; x64) AppleWebKit/537.36 (KHTML, like Gecko) Chrome/137.0.0.0 Safari/537.36","WebKit","Chrome","137.0.0.0","Windows","10.0","https://app.prolific.com/","hu-HU,hu;q=0.9,en-US;q=0.8,en;q=0.7","5c66cc9246bfc200019044b8","683db6dfa200031b80f2a654","68650777d888889537163e06","5c66cc9246bfc200019044b8","","","[0]","","","5","demographics","","","","","","","","","","","","","","","","","","","","","","","","","","","","","","","","","","","","","",""
"13951","","","{""education"":""A-level/National Diploma/Highers""}","survey-multi-choice","10","93555","0.0-6.0-5.0","45","1","2025-07-02 10:18:44","80fe4187154257d5fb01684ea91b68b9","134.255.60.217","Mozilla/5.0 (Windows NT 10.0; Win64; x64) AppleWebKit/537.36 (KHTML, like Gecko) Chrome/137.0.0.0 Safari/537.36","WebKit","Chrome","137.0.0.0","Windows","10.0","https://app.prolific.com/","hu-HU,hu;q=0.9,en-US;q=0.8,en;q=0.7","5c66cc9246bfc200019044b8","683db6dfa200031b80f2a654","68650777d888889537163e06","5c66cc9246bfc200019044b8","2025-07-02T10:18:41.485Z","","[0]","","","6","demographics","","","","","","","","","","","","","","","","","","","","","","","","","","","","","","","","","","","","","",""
"15798","","","{""mental_health_condition"":""no"",""mental_health_treatment"":""no"",""psychiatric_medication"":""no""}","survey-text","11","109354","0.0-7.0-0.0","45","1","2025-07-02 10:18:44","80fe4187154257d5fb01684ea91b68b9","134.255.60.217","Mozilla/5.0 (Windows NT 10.0; Win64; x64) AppleWebKit/537.36 (KHTML, like Gecko) Chrome/137.0.0.0 Safari/537.36","WebKit","Chrome","137.0.0.0","Windows","10.0","https://app.prolific.com/","hu-HU,hu;q=0.9,en-US;q=0.8,en;q=0.7","5c66cc9246bfc200019044b8","683db6dfa200031b80f2a654","68650777d888889537163e06","5c66cc9246bfc200019044b8","2025-07-02T10:18:57.285Z","","","","","1","mental_health","","","","","","","","","","","","","","","","","","","","","","","","","","","","","","","","","","","","","",""
"7598","","","{""depression_history"":[""Yes""]}","survey-multi-select","12","116955","0.0-7.0-1.0","45","1","2025-07-02 10:18:44","80fe4187154257d5fb01684ea91b68b9","134.255.60.217","Mozilla/5.0 (Windows NT 10.0; Win64; x64) AppleWebKit/537.36 (KHTML, like Gecko) Chrome/137.0.0.0 Safari/537.36","WebKit","Chrome","137.0.0.0","Windows","10.0","https://app.prolific.com/","hu-HU,hu;q=0.9,en-US;q=0.8,en;q=0.7","5c66cc9246bfc200019044b8","683db6dfa200031b80f2a654","68650777d888889537163e06","5c66cc9246bfc200019044b8","","","[0]","","","","mental_health","","","","","","","","","","","","","","","","","","","","","","","","","","","","","","","","","","","","","",""
"15087","","","{""depression_episodes"":""more than 5"",""depression_recent"":""Within the past year""}","survey-multi-choice","13","132043","0.0-7.0-2.0-0.0","45","1","2025-07-02 10:18:44","80fe4187154257d5fb01684ea91b68b9","134.255.60.217","Mozilla/5.0 (Windows NT 10.0; Win64; x64) AppleWebKit/537.36 (KHTML, like Gecko) Chrome/137.0.0.0 Safari/537.36","WebKit","Chrome","137.0.0.0","Windows","10.0","https://app.prolific.com/","hu-HU,hu;q=0.9,en-US;q=0.8,en;q=0.7","5c66cc9246bfc200019044b8","683db6dfa200031b80f2a654","68650777d888889537163e06","5c66cc9246bfc200019044b8","2025-07-02T10:19:19.973Z","","[0,1]","","","3","mental_health","","","","","","","","","","","","","","","","","","","","","","","","","","","","","","","","","","","","","",""
"64991.299999999814","","","","survey-template","14","197036","0.0-7.0-3.0","45","1","2025-07-02 10:18:44","80fe4187154257d5fb01684ea91b68b9","134.255.60.217","Mozilla/5.0 (Windows NT 10.0; Win64; x64) AppleWebKit/537.36 (KHTML, like Gecko) Chrome/137.0.0.0 Safari/537.36","WebKit","Chrome","137.0.0.0","Windows","10.0","https://app.prolific.com/","hu-HU,hu;q=0.9,en-US;q=0.8,en;q=0.7","5c66cc9246bfc200019044b8","683db6dfa200031b80f2a654","68650777d888889537163e06","5c66cc9246bfc200019044b8","2025-07-02T10:20:24.966Z","","","","","","ius","{""Q01"":""3"",""Q02"":""4"",""Q03"":""4"",""Q04"":""3"",""Q05"":""4"",""Q06"":""4"",""Q07"":""3"",""Q08"":""0"",""Q09"":""4"",""Q10"":""3"",""Q11"":""4"",""Q12"":""3"",""Q13"":""4""}","[0,1,2,3,4,5,6,7,8,9,10,11,12]","[""Q01"",""Q02"",""Q04"",""Q05"",""Q06"",""Q07"",""Q08"",""Q09"",""Q10"",""Q10"",""Q11"",""Q12"",""Q13"",""Q03""]","[8533.900000000373,10837.799999999814,18525.799999999814,25309.900000000373,29621.900000000373,32077.799999999814,36669.799999999814,38854,41325.90000000037,42062,45197.90000000037,50349.90000000037,52885.700000000186,62398]","[]","[8533.900000000373,10837.799999999814,12829.900000000373,18525.799999999814,24645.900000000373,25309.900000000373,29621.900000000373,32077.799999999814,35702,36669.799999999814,38854,41325.90000000037,42062,45197.90000000037,48989.90000000037,50349.90000000037,52885.700000000186,56229.90000000037,62398,64990.09999999963]","0.5384615384615384","0.75","0","","","","","","","","","","","","","","","","","","","","","","","","","","","","",""
"2125","1751451627092","<p style='font-size:1.1em;line-height:1.25'>In the following, we will ask you a few questions relating to your experiences over the past month.<br></p><p style='font-size:1.1em;line-height:1.25'>Press the <strong>Next</strong> button to continue.</p>","0","custom-html-button-response","15","199162","0.0-7.0-4.0","45","1","2025-07-02 10:18:44","80fe4187154257d5fb01684ea91b68b9","134.255.60.217","Mozilla/5.0 (Windows NT 10.0; Win64; x64) AppleWebKit/537.36 (KHTML, like Gecko) Chrome/137.0.0.0 Safari/537.36","WebKit","Chrome","137.0.0.0","Windows","10.0","https://app.prolific.com/","hu-HU,hu;q=0.9,en-US;q=0.8,en;q=0.7","5c66cc9246bfc200019044b8","683db6dfa200031b80f2a654","68650777d888889537163e06","5c66cc9246bfc200019044b8","2025-07-02T10:20:27.092Z","","","","","","","","","","","","","","","","","","","","","","","","","","","","","","","","","","","","","","","","","","","",""
"53824.5","","","","survey-template","16","252988","0.0-7.0-5.0","45","1","2025-07-02 10:18:44","80fe4187154257d5fb01684ea91b68b9","134.255.60.217","Mozilla/5.0 (Windows NT 10.0; Win64; x64) AppleWebKit/537.36 (KHTML, like Gecko) Chrome/137.0.0.0 Safari/537.36","WebKit","Chrome","137.0.0.0","Windows","10.0","https://app.prolific.com/","hu-HU,hu;q=0.9,en-US;q=0.8,en;q=0.7","5c66cc9246bfc200019044b8","683db6dfa200031b80f2a654","68650777d888889537163e06","5c66cc9246bfc200019044b8","2025-07-02T10:21:20.918Z","","","","","","pss","{""Q01"":""2"",""Q02"":""3"",""Q03"":""4"",""Q04"":""3"",""Q05"":""3"",""Q06"":""3"",""Q07"":""2"",""Q08"":""4"",""Q09"":""0"",""Q10"":""2""}","[0,1,2,3,4,5,6,7,8,9]","[""Q01"",""Q02"",""Q03"",""Q04"",""Q05"",""Q06"",""Q06"",""Q07"",""Q08"",""Q08"",""Q09"",""Q10""]","[10359.099999999627,11198.900000000373,16439.099999999627,20327,26343,30927,32487.099999999627,37919,40863,42631.200000000186,47255.09999999963,51839]","[]","[0,5950.9000000003725,9918.900000000373,10359.099999999627,11198.900000000373,16439.099999999627,20327,26343,30927,32487.099999999627,37919,40863,42631.200000000186,47255.09999999963,51839,53823.200000000186]","0.3","0.3333333333333333","0","","","","","","","","","","","","","","","","","","","","","","","","","","","","",""
"3382","1751451684301","<p style='font-size:1.1em;line-height:1.25'>Thank you for your answers! Now we will ask you a few more questions relating to your feelings in the last 24 hours.<br></p><p style='font-size:1.1em;line-height:1.25'>Press the <strong>Next</strong> button to continue.</p>","0","custom-html-button-response","17","256371","0.0-7.0-6.0","45","1","2025-07-02 10:18:44","80fe4187154257d5fb01684ea91b68b9","134.255.60.217","Mozilla/5.0 (Windows NT 10.0; Win64; x64) AppleWebKit/537.36 (KHTML, like Gecko) Chrome/137.0.0.0 Safari/537.36","WebKit","Chrome","137.0.0.0","Windows","10.0","https://app.prolific.com/","hu-HU,hu;q=0.9,en-US;q=0.8,en;q=0.7","5c66cc9246bfc200019044b8","683db6dfa200031b80f2a654","68650777d888889537163e06","5c66cc9246bfc200019044b8","2025-07-02T10:21:24.301Z","","","","","","","","","","","","","","","","","","","","","","","","","","","","","","","","","","","","","","","","","","","",""
"62065","","","","survey-template","18","318438","0.0-7.0-7.0","45","1","2025-07-02 10:18:44","80fe4187154257d5fb01684ea91b68b9","134.255.60.217","Mozilla/5.0 (Windows NT 10.0; Win64; x64) AppleWebKit/537.36 (KHTML, like Gecko) Chrome/137.0.0.0 Safari/537.36","WebKit","Chrome","137.0.0.0","Windows","10.0","https://app.prolific.com/","hu-HU,hu;q=0.9,en-US;q=0.8,en;q=0.7","5c66cc9246bfc200019044b8","683db6dfa200031b80f2a654","68650777d888889537163e06","5c66cc9246bfc200019044b8","2025-07-02T10:22:26.368Z","","","","","","drsp","{""Q01"":""3"",""Q02"":""2"",""Q03"":""2"",""Q04"":""4"",""Q05"":""1"",""Q06"":""0"",""Q07"":""0"",""Q08"":""0"",""Q09"":""4"",""Q10"":""2"",""Q11"":""5"",""Q12"":""0"",""Q13"":""0"",""Q14"":""1"",""Q15"":""1"",""Q16"":""2"",""Q17"":""3"",""Q18"":""0"",""Q19"":""1"",""Q20"":""2"",""Q21"":""2""}","[0,1,2,3,4,5,6,7,8,9,10,11,12,13,14,15,16,17,18,19,20]","[""Q01"",""Q02"",""Q03"",""Q04"",""Q05"",""Q06"",""Q07"",""Q08"",""Q09"",""Q10"",""Q11"",""Q12"",""Q13"",""Q14"",""Q15"",""Q16"",""Q17"",""Q18"",""Q19"",""Q20"",""Q21"",""Q21""]","[3510.4000000003725,5822.200000000186,8270.200000000186,9510.400000000373,11502.400000000373,14806.400000000373,16062.5,17478.400000000373,19478.5,22166.5,25150.5,27310.400000000373,28998.400000000373,31438.299999999814,33926.40000000037,35734.60000000056,37254.40000000037,42678.5,50094.5,53006.200000000186,55822.40000000037,59679.10000000056]","[]","[0,3510.4000000003725,5822.200000000186,8270.200000000186,9510.400000000373,11502.400000000373,14806.400000000373,16062.5,17478.400000000373,19478.5,22166.5,25150.5,27310.400000000373,28998.400000000373,31438.299999999814,33926.40000000037,35734.60000000056,37254.40000000037,42678.5,50094.5,53006.200000000186,55822.40000000037,59679.10000000056,62062.60000000056]","0.2857142857142857","0.4","0","","","","","","","","","","","","","","","","","","","","","","","","","","","","",""
"13340.200000000186","","","","survey-template","19","331779","0.0-7.0-8.0","45","1","2025-07-02 10:18:44","80fe4187154257d5fb01684ea91b68b9","134.255.60.217","Mozilla/5.0 (Windows NT 10.0; Win64; x64) AppleWebKit/537.36 (KHTML, like Gecko) Chrome/137.0.0.0 Safari/537.36","WebKit","Chrome","137.0.0.0","Windows","10.0","https://app.prolific.com/","hu-HU,hu;q=0.9,en-US;q=0.8,en;q=0.7","5c66cc9246bfc200019044b8","683db6dfa200031b80f2a654","68650777d888889537163e06","5c66cc9246bfc200019044b8","2025-07-02T10:22:39.709Z","","","","","","stress","{""Q01"":""4"",""Q02"":""5"",""Q03"":""4""}","[0,1,2]","[""Q01"",""Q02"",""Q03""]","[2811.7000000001863,6379.5,11003.399999999441]","[]","[2811.7000000001863,6379.5,9731.599999999627,11003.399999999441,13339.599999999627]","0.6666666666666666","0","0","","","","","","","","","","","","","","","","","","","","","","","","","","","","",""
"40079","","","","instructions","20","371859","0.0-8.0-0.0","45","1","2025-07-02 10:18:44","80fe4187154257d5fb01684ea91b68b9","134.255.60.217","Mozilla/5.0 (Windows NT 10.0; Win64; x64) AppleWebKit/537.36 (KHTML, like Gecko) Chrome/137.0.0.0 Safari/537.36","WebKit","Chrome","137.0.0.0","Windows","10.0","https://app.prolific.com/","hu-HU,hu;q=0.9,en-US;q=0.8,en;q=0.7","5c66cc9246bfc200019044b8","683db6dfa200031b80f2a654","68650777d888889537163e06","5c66cc9246bfc200019044b8","","[{""page_index"":0,""viewing_time"":13038},{""page_index"":1,""viewing_time"":9872},{""page_index"":2,""viewing_time"":5792},{""page_index"":3,""viewing_time"":11376}]","","","","","","","","","","","","","","","","","","","","","","","","","","","","","","","","","","","","","","","","","","",""
"","","","","ctl-task-cpt","21","419252","0.0-8.0-1.0","45","1","2025-07-02 10:18:44","80fe4187154257d5fb01684ea91b68b9","134.255.60.217","Mozilla/5.0 (Windows NT 10.0; Win64; x64) AppleWebKit/537.36 (KHTML, like Gecko) Chrome/137.0.0.0 Safari/537.36","WebKit","Chrome","137.0.0.0","Windows","10.0","https://app.prolific.com/","hu-HU,hu;q=0.9,en-US;q=0.8,en;q=0.7","5c66cc9246bfc200019044b8","683db6dfa200031b80f2a654","68650777d888889537163e06","5c66cc9246bfc200019044b8","","","","","","","","","","","","","","","","","win-only","0","g1:NW,g2:SE","1","0","1","373116.5","3477.3","7480.9","44388.2","2","4","4","6","1","-2","-6","0","0","0","4003.5","4000","-2540","[""left"",""up""]","{""num_key_presses"":13,""num_perfect"":9,""num_errors"":4,""num_randdir"":0,""num_randdir_good_moves"":0,""num_whilered"":0,""num_whileblue"":2,""num_blue"":2,""num_good_moves"":4}","[830.1428571428571,832.7522245134626,0.3,830.1428571428571,832.7522245134626,103.3,830.1428571428571,832.7522245134626,203.3,830.1428571428571,832.7522245134626,308.5,830.1428571428571,832.7522245134626,408.5,830.1428571428571,832.7522245134626,508.5,830.1428571428571,832.7522245134626,613.6,830.1428571428571,832.7522245134626,713.8,830.1428571428571,832.7522245134626,817.9,830.1428571428571,832.7522245134626,918,830.1428571428571,832.7522245134626,1019.6,830.1428571428571,832.7522245134626,1122.9,830.1428571428571,832.7522245134626,1223.1,830.1428571428571,832.7522245134626,1323.4,830.1428571428571,832.7522245134626,1423.5,830.1428571428571,832.7522245134626,1523.6,830.1428571428571,832.7522245134626,1628.2,830.1428571428571,832.7522245134626,1728.3,830.1428571428571,832.7522245134626,1833.3,830.1428571428571,832.7522245134626,1933.4,830.1428571428571,832.7522245134626,2034.3,830.1428571428571,832.7522245134626,2139.4,830.1428571428571,832.7522245134626,2243.8,830.1428571428571,832.7522245134626,2345.9,830.1428571428571,832.7522245134626,2446.1,830.1428571428571,832.7522245134626,2546.2,830.1428571428571,832.7522245134626,2648.1,830.1428571428571,832.7522245134626,2748.7,830.1428571428571,832.7522245134626,2853.3,830.1428571428571,832.7522245134626,2953.3,830.1428571428571,832.7522245134626,3053.7,830.1428571428571,832.7522245134626,3159.4,830.1428571428571,832.7522245134626,3259.4,830.1428571428571,832.7522245134626,3359.4,830.1428571428571,832.7522245134626,3459.4,830.1428571428571,832.7522245134626,3559.4,830.1428571428571,832.7522245134626,3662.9,830.1428571428571,832.7522245134626,3763.6,830.1428571428571,832.7522245134626,3863.6,830.1428571428571,832.7522245134626,3968.2]","[349,349,1000,0,-651,""error"",""-"",""-"",""no_move"",2029.9,1680.8,2524.3,1350,-1844.4,""error"",""-"",""-"",""no_move"",4893.7,2863.3,1291.5,3030.6,571.6,""smooth"",""left"",""left"",""good_move"",7597.6,2703.5,2123.4,4894.1,580.1,""smooth"",""up"",""up"",""good_move"",11197.5,3599.1,3057.2,7598.4,541.9,""smooth"",""up"",""up"",""good_move"",14159.1,2961.4,2577.5,11197.7,383.9,""while_blue"",""left"",""right"",""bad_move"",16525.2,2365.7,1921.6,14159.5,444.1,""smooth"",""down"",""down"",""bad_move"",19368.4,2843.1,2377.1,16525.3,466,""smooth"",""down"",""down"",""bad_move"",21934,2565.4,2301.7,19368.6,263.7,""while_blue"",""down"",""up"",""good_move"",25749.4,3815,3381.8,21934.4,433.2,""smooth"",""down"",""down"",""bad_move"",28793.6,3044,2604.6,25749.7,439.3,""smooth"",""down"",""down"",""bad_move"",31229.8,2435.2,1973.7,28794.6,461.5,""smooth"",""right"",""right"",""bad_move"",34460.1,3229.8,2872.8,31230.3,357,""smooth"",""right"",""right"",""bad_move""]","",""
"2838","","","","instructions","22","422091","0.0-8.0-2.0","45","1","2025-07-02 10:18:44","80fe4187154257d5fb01684ea91b68b9","134.255.60.217","Mozilla/5.0 (Windows NT 10.0; Win64; x64) AppleWebKit/537.36 (KHTML, like Gecko) Chrome/137.0.0.0 Safari/537.36","WebKit","Chrome","137.0.0.0","Windows","10.0","https://app.prolific.com/","hu-HU,hu;q=0.9,en-US;q=0.8,en;q=0.7","5c66cc9246bfc200019044b8","683db6dfa200031b80f2a654","68650777d888889537163e06","5c66cc9246bfc200019044b8","","[{""page_index"":0,""viewing_time"":2838}]","","","","","","","","","","","","","","","","","","","","","","","","","","","","","","","","","","","","","","","","","","",""
"","","","","ctl-task-cpt","23","484826","0.0-8.0-3.0","45","1","2025-07-02 10:18:44","80fe4187154257d5fb01684ea91b68b9","134.255.60.217","Mozilla/5.0 (Windows NT 10.0; Win64; x64) AppleWebKit/537.36 (KHTML, like Gecko) Chrome/137.0.0.0 Safari/537.36","WebKit","Chrome","137.0.0.0","Windows","10.0","https://app.prolific.com/","hu-HU,hu;q=0.9,en-US;q=0.8,en;q=0.7","5c66cc9246bfc200019044b8","683db6dfa200031b80f2a654","68650777d888889537163e06","5c66cc9246bfc200019044b8","","","","","","","","","","","","","","","","","win-only","0","g1:NW,g2:SE","0.35","0","3","423347.5","3066.6","7070.9","59721.4","2","4","8","6","1","-2","-4","0","0","0","4004.2","4000","-2645","[""left"",""up""]","{""num_key_presses"":14,""num_perfect"":4,""num_errors"":2,""num_randdir"":8,""num_randdir_good_moves"":5,""num_whilered"":0,""num_whileblue"":0,""num_blue"":4,""num_good_moves"":5}","[837.6428571428571,828.2522245134626,0.5,836.1428571428571,829.7522245134626,112.3,833.1428571428571,829.7522245134626,213.7,833.1428571428571,829.7522245134626,313.7,833.1428571428571,829.7522245134626,414.1,858.6428571428571,835.7522245134626,514.4,1082.142857142857,873.2522245134626,614.4,1733.142857142857,958.7522245134626,719.1,2069.1428571428573,961.7522245134626,819.5,2076.6428571428573,961.7522245134626,928.8,2076.6428571428573,961.7522245134626,1029.3,2076.6428571428573,961.7522245134626,1133.5,2078.1428571428573,961.7522245134626,1234,2100.6428571428573,958.7522245134626,1349.9,2100.6428571428573,958.7522245134626,1454.2,2100.6428571428573,958.7522245134626,1562,2100.6428571428573,958.7522245134626,1662.3,2139.6428571428573,949.7522245134626,1762.7,2153.1428571428573,946.7522245134626,1864,2153.1428571428573,946.7522245134626,1969.2,2153.1428571428573,946.7522245134626,2078.7,2153.1428571428573,946.7522245134626,2178.8,2153.1428571428573,946.7522245134626,2278.9,2153.1428571428573,946.7522245134626,2379.5,2153.1428571428573,946.7522245134626,2483.8,2153.1428571428573,946.7522245134626,2584.4,2153.1428571428573,946.7522245134626,2684.4,2153.1428571428573,946.7522245134626,2789.1,2153.1428571428573,946.7522245134626,2896,2153.1428571428573,946.7522245134626,2999.2,2153.1428571428573,946.7522245134626,3099.4,2153.1428571428573,946.7522245134626,3204.5,2153.1428571428573,946.7522245134626,3318.4,2153.1428571428573,946.7522245134626,3419.3,2153.1428571428573,946.7522245134626,3528.7,2153.1428571428573,946.7522245134626,3629.2,2153.1428571428573,946.7522245134626,3729.3,2153.1428571428573,946.7522245134626,3834.4,2153.1428571428573,946.7522245134626,3934.4]","[4992.7,4992.7,2603.8,2009.3,379.6,""oops"",""down"",""down"",""bad_move"",7424.5,2431.5,2047,4993,384.5,""smooth"",""right"",""right"",""bad_move"",10424.7,2999.9,2652,7424.8,347.9,""smooth"",""right"",""right"",""bad_move"",13908.3,3483.3,3090.7,10425,392.6,""smooth"",""right"",""right"",""bad_move"",16841.7,2933.2,2574.1,13908.5,359.1,""oops"",""down"",""up"",""good_move"",19776.7,2934.8,2532.4,16841.9,402.4,""oops"",""down"",""down"",""bad_move"",25576.9,5799.8,1814.7,23334,428.2,""smooth"",""down"",""down"",""bad_move"",34328.5,8751.1,2179.9,31710.2,438.4,""oops"",""down"",""up"",""good_move"",37197.2,2868.6,2429,34328.7,439.6,""oops"",""down"",""down"",""bad_move"",40505,3307.5,2880.8,37197.5,426.7,""oops"",""left"",""up"",""good_move"",43493.3,2988,2634.8,40505.3,353.2,""oops"",""down"",""up"",""good_move"",44233.2,739.6,1697.1,43493.6,-957.5,""error"",""-"",""-"",""no_move"",48744.9,4511.2,3192.4,45235,317.5,""oops"",""down"",""up"",""good_move"",49861,1115.9,2360.5,48745.1,-1244.6,""error"",""-"",""-"",""no_move""]","",""
"28656","","","","instructions","24","513483","0.0-8.0-4.0","45","1","2025-07-02 10:18:44","80fe4187154257d5fb01684ea91b68b9","134.255.60.217","Mozilla/5.0 (Windows NT 10.0; Win64; x64) AppleWebKit/537.36 (KHTML, like Gecko) Chrome/137.0.0.0 Safari/537.36","WebKit","Chrome","137.0.0.0","Windows","10.0","https://app.prolific.com/","hu-HU,hu;q=0.9,en-US;q=0.8,en;q=0.7","5c66cc9246bfc200019044b8","683db6dfa200031b80f2a654","68650777d888889537163e06","5c66cc9246bfc200019044b8","","[{""page_index"":0,""viewing_time"":18584},{""page_index"":1,""viewing_time"":10072}]","","","","","","","","","","","","","","","","","","","","","","","","","","","","","","","","","","","","","","","","","","",""
"14719","","","{""green_ball"":[""Ball sometimes shakes and moves in a random direction""]}","survey-multi-select","25","528204","0.0-8.0-5.0-0.0","45","1","2025-07-02 10:18:44","80fe4187154257d5fb01684ea91b68b9","134.255.60.217","Mozilla/5.0 (Windows NT 10.0; Win64; x64) AppleWebKit/537.36 (KHTML, like Gecko) Chrome/137.0.0.0 Safari/537.36","WebKit","Chrome","137.0.0.0","Windows","10.0","https://app.prolific.com/","hu-HU,hu;q=0.9,en-US;q=0.8,en;q=0.7","5c66cc9246bfc200019044b8","683db6dfa200031b80f2a654","68650777d888889537163e06","5c66cc9246bfc200019044b8","","","[0]","","","","quiz","","","","","","","","","","","","","","","","","","","","","","","","","","","","","","","","","","","","","true",""
"4207","","<p align='center'><b>CORRECT!</b> Indeed, the green ball may sometimes shake and move in a random direction.</p>","0","html-button-response","26","532411","0.0-8.0-5.0-1.0","45","1","2025-07-02 10:18:44","80fe4187154257d5fb01684ea91b68b9","134.255.60.217","Mozilla/5.0 (Windows NT 10.0; Win64; x64) AppleWebKit/537.36 (KHTML, like Gecko) Chrome/137.0.0.0 Safari/537.36","WebKit","Chrome","137.0.0.0","Windows","10.0","https://app.prolific.com/","hu-HU,hu;q=0.9,en-US;q=0.8,en;q=0.7","5c66cc9246bfc200019044b8","683db6dfa200031b80f2a654","68650777d888889537163e06","5c66cc9246bfc200019044b8","","","","","","","","","","","","","","","","","","","","","","","","","","","","","","","","","","","","","","","","","","","","",""
"6543","","","{""yellow_ball"":[""Ball doesn‘t move and I get -1 penalty point""]}","survey-multi-select","27","538955","0.0-8.0-6.0-0.0","45","1","2025-07-02 10:18:44","80fe4187154257d5fb01684ea91b68b9","134.255.60.217","Mozilla/5.0 (Windows NT 10.0; Win64; x64) AppleWebKit/537.36 (KHTML, like Gecko) Chrome/137.0.0.0 Safari/537.36","WebKit","Chrome","137.0.0.0","Windows","10.0","https://app.prolific.com/","hu-HU,hu;q=0.9,en-US;q=0.8,en;q=0.7","5c66cc9246bfc200019044b8","683db6dfa200031b80f2a654","68650777d888889537163e06","5c66cc9246bfc200019044b8","","","[0]","","","","quiz","","","","","","","","","","","","","","","","","","","","","","","","","","","","","","","","","","","","","true",""
"1191","","<p align='center'><b>CORRECT!</b> Indeed, the yellow ball never moves and you receive a penalty.</p>","0","html-button-response","28","540147","0.0-8.0-6.0-1.0","45","1","2025-07-02 10:18:44","80fe4187154257d5fb01684ea91b68b9","134.255.60.217","Mozilla/5.0 (Windows NT 10.0; Win64; x64) AppleWebKit/537.36 (KHTML, like Gecko) Chrome/137.0.0.0 Safari/537.36","WebKit","Chrome","137.0.0.0","Windows","10.0","https://app.prolific.com/","hu-HU,hu;q=0.9,en-US;q=0.8,en;q=0.7","5c66cc9246bfc200019044b8","683db6dfa200031b80f2a654","68650777d888889537163e06","5c66cc9246bfc200019044b8","","","","","","","","","","","","","","","","","","","","","","","","","","","","","","","","","","","","","","","","","","","","",""
"4335","","","{""blue_ball"":[""Ball always shakes and moves in a random direction""]}","survey-multi-select","29","544483","0.0-8.0-7.0-0.0","45","1","2025-07-02 10:18:44","80fe4187154257d5fb01684ea91b68b9","134.255.60.217","Mozilla/5.0 (Windows NT 10.0; Win64; x64) AppleWebKit/537.36 (KHTML, like Gecko) Chrome/137.0.0.0 Safari/537.36","WebKit","Chrome","137.0.0.0","Windows","10.0","https://app.prolific.com/","hu-HU,hu;q=0.9,en-US;q=0.8,en;q=0.7","5c66cc9246bfc200019044b8","683db6dfa200031b80f2a654","68650777d888889537163e06","5c66cc9246bfc200019044b8","","","[0]","","","","quiz","","","","","","","","","","","","","","","","","","","","","","","","","","","","","","","","","","","","","true",""
"1319","","<p align='center'><b>CORRECT!</b> Indeed, the blue ball always shakes and moves in a random direction. Also there is a penalty of -1 point.</p>","0","html-button-response","30","545803","0.0-8.0-7.0-1.0","45","1","2025-07-02 10:18:44","80fe4187154257d5fb01684ea91b68b9","134.255.60.217","Mozilla/5.0 (Windows NT 10.0; Win64; x64) AppleWebKit/537.36 (KHTML, like Gecko) Chrome/137.0.0.0 Safari/537.36","WebKit","Chrome","137.0.0.0","Windows","10.0","https://app.prolific.com/","hu-HU,hu;q=0.9,en-US;q=0.8,en;q=0.7","5c66cc9246bfc200019044b8","683db6dfa200031b80f2a654","68650777d888889537163e06","5c66cc9246bfc200019044b8","","","","","","","","","","","","","","","","","","","","","","","","","","","","","","","","","","","","","","","","","","","","",""
"12623","","","{""bonus"":[""When I reach 50% of points""]}","survey-multi-select","31","558428","0.0-8.0-8.0-0.0","45","1","2025-07-02 10:18:44","80fe4187154257d5fb01684ea91b68b9","134.255.60.217","Mozilla/5.0 (Windows NT 10.0; Win64; x64) AppleWebKit/537.36 (KHTML, like Gecko) Chrome/137.0.0.0 Safari/537.36","WebKit","Chrome","137.0.0.0","Windows","10.0","https://app.prolific.com/","hu-HU,hu;q=0.9,en-US;q=0.8,en;q=0.7","5c66cc9246bfc200019044b8","683db6dfa200031b80f2a654","68650777d888889537163e06","5c66cc9246bfc200019044b8","","","[0]","","","","quiz","","","","","","","","","","","","","","","","","","","","","","","","","","","","","","","","","","","","","true",""
"1967","","<p align='center'><b>CORRECT!</b> Indeed, you receive 2 pounds extra when you reach 50% of points.</p>","0","html-button-response","32","560395","0.0-8.0-8.0-1.0","45","1","2025-07-02 10:18:44","80fe4187154257d5fb01684ea91b68b9","134.255.60.217","Mozilla/5.0 (Windows NT 10.0; Win64; x64) AppleWebKit/537.36 (KHTML, like Gecko) Chrome/137.0.0.0 Safari/537.36","WebKit","Chrome","137.0.0.0","Windows","10.0","https://app.prolific.com/","hu-HU,hu;q=0.9,en-US;q=0.8,en;q=0.7","5c66cc9246bfc200019044b8","683db6dfa200031b80f2a654","68650777d888889537163e06","5c66cc9246bfc200019044b8","","","","","","","","","","","","","","","","","","","","","","","","","","","","","","","","","","","","","","","","","","","","",""
"2431","","","","instructions","33","562827","0.0-8.0-9.0","45","1","2025-07-02 10:18:44","80fe4187154257d5fb01684ea91b68b9","134.255.60.217","Mozilla/5.0 (Windows NT 10.0; Win64; x64) AppleWebKit/537.36 (KHTML, like Gecko) Chrome/137.0.0.0 Safari/537.36","WebKit","Chrome","137.0.0.0","Windows","10.0","https://app.prolific.com/","hu-HU,hu;q=0.9,en-US;q=0.8,en;q=0.7","5c66cc9246bfc200019044b8","683db6dfa200031b80f2a654","68650777d888889537163e06","5c66cc9246bfc200019044b8","","[{""page_index"":0,""viewing_time"":2431}]","","","","","","","","","","","","","","","","","","","","","","","","","","","","","","","","","","","","","","","","","","",""
"12415","","<p>Before you start with this game please answer the following three questions yourself. </p>
  <p>Through this game, we measure several aspects of your cognitive performance, such as reaction times, multi-tasking capabilities </p>
  <p>and the ability to assess the situation you are in.</p>
  <p></p>
  <p><b>How good do you usually are in such tasks?</b></p>","3","html-slider-response","34","575244","0.0-9.0-0.0","45","1","2025-07-02 10:18:44","80fe4187154257d5fb01684ea91b68b9","134.255.60.217","Mozilla/5.0 (Windows NT 10.0; Win64; x64) AppleWebKit/537.36 (KHTML, like Gecko) Chrome/137.0.0.0 Safari/537.36","WebKit","Chrome","137.0.0.0","Windows","10.0","https://app.prolific.com/","hu-HU,hu;q=0.9,en-US;q=0.8,en;q=0.7","5c66cc9246bfc200019044b8","683db6dfa200031b80f2a654","68650777d888889537163e06","5c66cc9246bfc200019044b8","2025-07-02T10:26:43.174Z","","","","","","PreSkillQ","","","","","","","","","","","","","","","","","","","","","","","","","","","","","","","","","","","","","","50"
"5543","","<div style=""width:500px;"">
  <p>How well do you think you will perform in this task compared to other participants?</p>
  </div>","8","html-slider-response","35","580788","0.0-9.0-1.0","45","1","2025-07-02 10:18:44","80fe4187154257d5fb01684ea91b68b9","134.255.60.217","Mozilla/5.0 (Windows NT 10.0; Win64; x64) AppleWebKit/537.36 (KHTML, like Gecko) Chrome/137.0.0.0 Safari/537.36","WebKit","Chrome","137.0.0.0","Windows","10.0","https://app.prolific.com/","hu-HU,hu;q=0.9,en-US;q=0.8,en;q=0.7","5c66cc9246bfc200019044b8","683db6dfa200031b80f2a654","68650777d888889537163e06","5c66cc9246bfc200019044b8","2025-07-02T10:26:48.718Z","","","","","","PrePerfQ","","","","","","","","","","","","","","","","","","","","","","","","","","","","","","","","","","","","","","50"
"5143","","<div style=""width:500px;"">
  <p>What best describes how you currently feel?</p>
  </div>","34","html-slider-response","36","585931","0.0-9.0-2.0","45","1","2025-07-02 10:18:44","80fe4187154257d5fb01684ea91b68b9","134.255.60.217","Mozilla/5.0 (Windows NT 10.0; Win64; x64) AppleWebKit/537.36 (KHTML, like Gecko) Chrome/137.0.0.0 Safari/537.36","WebKit","Chrome","137.0.0.0","Windows","10.0","https://app.prolific.com/","hu-HU,hu;q=0.9,en-US;q=0.8,en;q=0.7","5c66cc9246bfc200019044b8","683db6dfa200031b80f2a654","68650777d888889537163e06","5c66cc9246bfc200019044b8","2025-07-02T10:26:53.861Z","","","","","","PreMotivationQ","","","","","","","","","","","","","","","","","","","","","","","","","","","","","","","","","","","","","","50"
"","","","","ctl-task-cpt","37","619767","0.0-10.0-0.0","45","1","2025-07-02 10:18:44","80fe4187154257d5fb01684ea91b68b9","134.255.60.217","Mozilla/5.0 (Windows NT 10.0; Win64; x64) AppleWebKit/537.36 (KHTML, like Gecko) Chrome/137.0.0.0 Safari/537.36","WebKit","Chrome","137.0.0.0","Windows","10.0","https://app.prolific.com/","hu-HU,hu;q=0.9,en-US;q=0.8,en;q=0.7","5c66cc9246bfc200019044b8","683db6dfa200031b80f2a654","68650777d888889537163e06","5c66cc9246bfc200019044b8","2025-07-02T10:27:27.697Z","","","","","","","","","","","","","","","","win-only","0","g1:NW,g2:SE","1","1","0","587189","2199.1","7200.8","30810.4","1","4","4","6","1","-1","-1","0","0","0","5001.7","3000","-2365","[""left"",""up""]","{""num_key_presses"":6,""num_perfect"":6,""num_errors"":0,""num_randdir"":0,""num_randdir_good_moves"":0,""num_whilered"":0,""num_whileblue"":0,""num_blue"":1,""num_good_moves"":0}","[812.1428571428571,829.7522245134626,0.3,812.1428571428571,829.7522245134626,101.2,860.1428571428571,841.7522245134626,201.7,2177.1428571428573,846.2522245134626,305.2,2751.6428571428573,828.2522245134626,407.2,2751.6428571428573,799.7522245134626,512.8,2751.6428571428573,799.7522245134626,616.5,2751.6428571428573,799.7522245134626,721.9,2751.6428571428573,799.7522245134626,822,2751.6428571428573,799.7522245134626,926.1,2751.6428571428573,799.7522245134626,1031.3,2751.6428571428573,799.7522245134626,1131.6,2751.6428571428573,799.7522245134626,1231.6,2751.6428571428573,799.7522245134626,1331.6,2751.6428571428573,799.7522245134626,1432.1,2751.6428571428573,799.7522245134626,1536.1,2751.6428571428573,799.7522245134626,1637.1,2751.6428571428573,799.7522245134626,1741.2,2751.6428571428573,799.7522245134626,1841.8,2751.6428571428573,799.7522245134626,1942.4,2751.6428571428573,799.7522245134626,2049.8,2751.6428571428573,799.7522245134626,2151.1,2751.6428571428573,799.7522245134626,2258.4,2751.6428571428573,799.7522245134626,2365.5,2751.6428571428573,799.7522245134626,2466.4,2751.6428571428573,799.7522245134626,2566.8,2751.6428571428573,799.7522245134626,2672,2751.6428571428573,799.7522245134626,2776,2751.6428571428573,799.7522245134626,2876.2,2751.6428571428573,799.7522245134626,2982.7,2751.6428571428573,799.7522245134626,3086.3,2751.6428571428573,799.7522245134626,3186.8,2751.6428571428573,799.7522245134626,3286.9,2751.6428571428573,799.7522245134626,3399.7,2751.6428571428573,799.7522245134626,3501.1,2751.6428571428573,799.7522245134626,3601.6,2751.6428571428573,799.7522245134626,3701.6,2751.6428571428573,799.7522245134626,3806.2,2751.6428571428573,799.7522245134626,3906.7,2751.6428571428573,799.7522245134626,4006.9,2751.6428571428573,799.7522245134626,4106.9,2751.6428571428573,799.7522245134626,4216.8,2751.6428571428573,799.7522245134626,4321.1,2751.6428571428573,799.7522245134626,4421.8,2751.6428571428573,799.7522245134626,4533.2,2751.6428571428573,799.7522245134626,4636.1,2751.6428571428573,799.7522245134626,4737,2751.6428571428573,799.7522245134626,4855.8,2751.6428571428573,799.7522245134626,4956.3]","[1965.4,1965.4,1000,0,965.4,""smooth"",""down"",""down"",""bad_move"",4830.4,2864.6,2382.4,1965.8,482.2,""smooth"",""right"",""right"",""bad_move"",7925.5,3094.8,2716.7,4830.7,378.1,""smooth"",""right"",""right"",""bad_move"",10631.5,2705.7,2357.2,7925.8,348.5,""smooth"",""down"",""down"",""bad_move"",13531.4,2899.7,2521.3,10631.7,378.4,""smooth"",""down"",""down"",""bad_move"",20117.2,6585.7,2680.4,17024.1,412.7,""smooth"",""right"",""right"",""bad_move""]","",""
"5004","","<div style=""width:500px;"">
  <p>What determined the result of this run?</p>
  </div>","89","html-slider-response","38","624772","0.0-10.0-1.0","45","1","2025-07-02 10:18:44","80fe4187154257d5fb01684ea91b68b9","134.255.60.217","Mozilla/5.0 (Windows NT 10.0; Win64; x64) AppleWebKit/537.36 (KHTML, like Gecko) Chrome/137.0.0.0 Safari/537.36","WebKit","Chrome","137.0.0.0","Windows","10.0","https://app.prolific.com/","hu-HU,hu;q=0.9,en-US;q=0.8,en;q=0.7","5c66cc9246bfc200019044b8","683db6dfa200031b80f2a654","68650777d888889537163e06","5c66cc9246bfc200019044b8","2025-07-02T10:27:32.702Z","","","","","","AttribQ","","","","","","","","","","","","","","","","","","","","","","","","","","","","","","","","","","","","","","50"
"4863","","<div style=""width:500px;"">
  <p>How much control did you have over the ball?</p>
  </div>","95","html-slider-response","39","629635","0.0-10.0-2.0","45","1","2025-07-02 10:18:44","80fe4187154257d5fb01684ea91b68b9","134.255.60.217","Mozilla/5.0 (Windows NT 10.0; Win64; x64) AppleWebKit/537.36 (KHTML, like Gecko) Chrome/137.0.0.0 Safari/537.36","WebKit","Chrome","137.0.0.0","Windows","10.0","https://app.prolific.com/","hu-HU,hu;q=0.9,en-US;q=0.8,en;q=0.7","5c66cc9246bfc200019044b8","683db6dfa200031b80f2a654","68650777d888889537163e06","5c66cc9246bfc200019044b8","2025-07-02T10:27:37.565Z","","","","","","ControlQ","","","","","","","","","","","","","","","","","","","","","","","","","","","","","","","","","","","","","","50"
"11631","","<div style=""width:500px;"">
  <p>How would you describe your current emotional state?</p>
  </div>","32","html-slider-response","40","641267","0.0-10.0-3.0","45","1","2025-07-02 10:18:44","80fe4187154257d5fb01684ea91b68b9","134.255.60.217","Mozilla/5.0 (Windows NT 10.0; Win64; x64) AppleWebKit/537.36 (KHTML, like Gecko) Chrome/137.0.0.0 Safari/537.36","WebKit","Chrome","137.0.0.0","Windows","10.0","https://app.prolific.com/","hu-HU,hu;q=0.9,en-US;q=0.8,en;q=0.7","5c66cc9246bfc200019044b8","683db6dfa200031b80f2a654","68650777d888889537163e06","5c66cc9246bfc200019044b8","2025-07-02T10:27:49.198Z","","","","","","StressQ","","","","","","","","","","","","","","","","","","","","","","","","","","","","","","","","","","","","","","50"
"6807","","<div style=""width:500px;"">
  <p>What best describes how you currently feel?</p>
  </div>","28","html-slider-response","41","648075","0.0-10.0-4.0","45","1","2025-07-02 10:18:44","80fe4187154257d5fb01684ea91b68b9","134.255.60.217","Mozilla/5.0 (Windows NT 10.0; Win64; x64) AppleWebKit/537.36 (KHTML, like Gecko) Chrome/137.0.0.0 Safari/537.36","WebKit","Chrome","137.0.0.0","Windows","10.0","https://app.prolific.com/","hu-HU,hu;q=0.9,en-US;q=0.8,en;q=0.7","5c66cc9246bfc200019044b8","683db6dfa200031b80f2a654","68650777d888889537163e06","5c66cc9246bfc200019044b8","2025-07-02T10:27:56.005Z","","","","","","MotivationQ","","","","","","","","","","","","","","","","","","","","","","","","","","","","","","","","","","","","","","50"
"","","","","ctl-task-cpt","42","677792","0.0-10.0-0.1","45","1","2025-07-02 10:18:44","80fe4187154257d5fb01684ea91b68b9","134.255.60.217","Mozilla/5.0 (Windows NT 10.0; Win64; x64) AppleWebKit/537.36 (KHTML, like Gecko) Chrome/137.0.0.0 Safari/537.36","WebKit","Chrome","137.0.0.0","Windows","10.0","https://app.prolific.com/","hu-HU,hu;q=0.9,en-US;q=0.8,en;q=0.7","5c66cc9246bfc200019044b8","683db6dfa200031b80f2a654","68650777d888889537163e06","5c66cc9246bfc200019044b8","2025-07-02T10:28:25.723Z","","","","","","","","","","","","","","","","win-only","3","g1:SW,g2:NE","0.9","2","0","649332.8","2831.4","7843.5","26696.3","1","4","8","6","2","8","8","8","0","0.06060606060606061","5012","3000","1110","[""up"",""right""]","{""num_key_presses"":6,""num_perfect"":6,""num_errors"":0,""num_randdir"":0,""num_randdir_good_moves"":0,""num_whilered"":0,""num_whileblue"":0,""num_blue"":1,""num_good_moves"":6}","[828.6428571428571,814.7522245134626,0.1,828.6428571428571,814.7522245134626,104.2,944.1428571428571,847.7522245134626,204.4,1514.142857142857,856.7522245134626,312.3,1886.142857142857,811.7522245134626,413.8,2751.6428571428573,730.7522245134626,514,2751.6428571428573,730.7522245134626,627.6,2751.6428571428573,730.7522245134626,727.7,2751.6428571428573,730.7522245134626,828,2751.6428571428573,730.7522245134626,928.2,2751.6428571428573,730.7522245134626,1028.5,2751.6428571428573,730.7522245134626,1129.3,2751.6428571428573,730.7522245134626,1229.3,2751.6428571428573,730.7522245134626,1329.6,2751.6428571428573,730.7522245134626,1434.1,2751.6428571428573,730.7522245134626,1540.5,2751.6428571428573,730.7522245134626,1640.5,2751.6428571428573,730.7522245134626,1744,2751.6428571428573,730.7522245134626,1845.4,2751.6428571428573,730.7522245134626,1945.8,2751.6428571428573,730.7522245134626,2050.2,2751.6428571428573,730.7522245134626,2162.4,2751.6428571428573,730.7522245134626,2262.4,2751.6428571428573,730.7522245134626,2364.7,2751.6428571428573,730.7522245134626,2478.2,2751.6428571428573,730.7522245134626,2578.4,2751.6428571428573,730.7522245134626,2678.4,2751.6428571428573,730.7522245134626,2779,2751.6428571428573,730.7522245134626,2879.4,2751.6428571428573,730.7522245134626,2979.4,2751.6428571428573,730.7522245134626,3079.4,2751.6428571428573,730.7522245134626,3180,2751.6428571428573,730.7522245134626,3284.9,2751.6428571428573,730.7522245134626,3396.6,2751.6428571428573,730.7522245134626,3500.3,2751.6428571428573,730.7522245134626,3616.7,2751.6428571428573,730.7522245134626,3728.7,2751.6428571428573,730.7522245134626,3829.7,2751.6428571428573,730.7522245134626,3930.3,2751.6428571428573,730.7522245134626,4034,2751.6428571428573,730.7522245134626,4134.5,2751.6428571428573,730.7522245134626,4240.3,2751.6428571428573,730.7522245134626,4344.6,2751.6428571428573,730.7522245134626,4445.7,2751.6428571428573,730.7522245134626,4549,2751.6428571428573,730.7522245134626,4649.8,2751.6428571428573,730.7522245134626,4762.6,2751.6428571428573,730.7522245134626,4864.4,2751.6428571428573,730.7522245134626,4964.5]","[4431.8,4431.8,2026.7,2002.3,402.8,""smooth"",""up"",""up"",""good_move"",7749.3,3317.2,2888.3,4432.1,428.9,""smooth"",""right"",""right"",""good_move"",10615.1,2865.6,2356.5,7749.5,509.1,""smooth"",""right"",""right"",""good_move"",13349.5,2734.2,2328.5,10615.3,405.7,""smooth"",""up"",""up"",""good_move"",16379.1,3029.5,2689.1,13349.6,340.4,""smooth"",""up"",""up"",""good_move"",18749.4,2370.1,2035.3,16379.3,334.8,""smooth"",""right"",""right"",""good_move""]","",""
"3266","","<div style=""width:500px;"">
  <p>What determined the result of this run?</p>
  </div>","97","html-slider-response","43","681060","0.0-10.0-1.1","45","1","2025-07-02 10:18:44","80fe4187154257d5fb01684ea91b68b9","134.255.60.217","Mozilla/5.0 (Windows NT 10.0; Win64; x64) AppleWebKit/537.36 (KHTML, like Gecko) Chrome/137.0.0.0 Safari/537.36","WebKit","Chrome","137.0.0.0","Windows","10.0","https://app.prolific.com/","hu-HU,hu;q=0.9,en-US;q=0.8,en;q=0.7","5c66cc9246bfc200019044b8","683db6dfa200031b80f2a654","68650777d888889537163e06","5c66cc9246bfc200019044b8","2025-07-02T10:28:28.990Z","","","","","","AttribQ","","","","","","","","","","","","","","","","","","","","","","","","","","","","","","","","","","","","","","50"
"3463","","<div style=""width:500px;"">
  <p>How much control did you have over the ball?</p>
  </div>","100","html-slider-response","44","684524","0.0-10.0-2.1","45","1","2025-07-02 10:18:44","80fe4187154257d5fb01684ea91b68b9","134.255.60.217","Mozilla/5.0 (Windows NT 10.0; Win64; x64) AppleWebKit/537.36 (KHTML, like Gecko) Chrome/137.0.0.0 Safari/537.36","WebKit","Chrome","137.0.0.0","Windows","10.0","https://app.prolific.com/","hu-HU,hu;q=0.9,en-US;q=0.8,en;q=0.7","5c66cc9246bfc200019044b8","683db6dfa200031b80f2a654","68650777d888889537163e06","5c66cc9246bfc200019044b8","2025-07-02T10:28:32.454Z","","","","","","ControlQ","","","","","","","","","","","","","","","","","","","","","","","","","","","","","","","","","","","","","","50"
"4039","","<div style=""width:500px;"">
  <p>How would you describe your current emotional state?</p>
  </div>","25","html-slider-response","45","688563","0.0-10.0-3.1","45","1","2025-07-02 10:18:44","80fe4187154257d5fb01684ea91b68b9","134.255.60.217","Mozilla/5.0 (Windows NT 10.0; Win64; x64) AppleWebKit/537.36 (KHTML, like Gecko) Chrome/137.0.0.0 Safari/537.36","WebKit","Chrome","137.0.0.0","Windows","10.0","https://app.prolific.com/","hu-HU,hu;q=0.9,en-US;q=0.8,en;q=0.7","5c66cc9246bfc200019044b8","683db6dfa200031b80f2a654","68650777d888889537163e06","5c66cc9246bfc200019044b8","2025-07-02T10:28:36.494Z","","","","","","StressQ","","","","","","","","","","","","","","","","","","","","","","","","","","","","","","","","","","","","","","50"
"3887","","<div style=""width:500px;"">
  <p>What best describes how you currently feel?</p>
  </div>","37","html-slider-response","46","692451","0.0-10.0-4.1","45","1","2025-07-02 10:18:44","80fe4187154257d5fb01684ea91b68b9","134.255.60.217","Mozilla/5.0 (Windows NT 10.0; Win64; x64) AppleWebKit/537.36 (KHTML, like Gecko) Chrome/137.0.0.0 Safari/537.36","WebKit","Chrome","137.0.0.0","Windows","10.0","https://app.prolific.com/","hu-HU,hu;q=0.9,en-US;q=0.8,en;q=0.7","5c66cc9246bfc200019044b8","683db6dfa200031b80f2a654","68650777d888889537163e06","5c66cc9246bfc200019044b8","2025-07-02T10:28:40.382Z","","","","","","MotivationQ","","","","","","","","","","","","","","","","","","","","","","","","","","","","","","","","","","","","","","50"
"","","","","ctl-task-cpt","47","711911","0.0-10.0-0.2","45","1","2025-07-02 10:18:44","80fe4187154257d5fb01684ea91b68b9","134.255.60.217","Mozilla/5.0 (Windows NT 10.0; Win64; x64) AppleWebKit/537.36 (KHTML, like Gecko) Chrome/137.0.0.0 Safari/537.36","WebKit","Chrome","137.0.0.0","Windows","10.0","https://app.prolific.com/","hu-HU,hu;q=0.9,en-US;q=0.8,en;q=0.7","5c66cc9246bfc200019044b8","683db6dfa200031b80f2a654","68650777d888889537163e06","5c66cc9246bfc200019044b8","2025-07-02T10:28:59.841Z","","","","","","","","","","","","","","","","win-only","2","g1:SE,g2:NW","0.8","3","0","693709","1267.8","6271","16450.9","1","4","8","6","1","1","1","9","8","0.06818181818181818","5003.2","3000","1680","[""down"",""right""]","{""num_key_presses"":4,""num_perfect"":4,""num_errors"":0,""num_randdir"":0,""num_randdir_good_moves"":0,""num_whilered"":0,""num_whileblue"":0,""num_blue"":0,""num_good_moves"":4}","[818.1428571428571,831.2522245134626,0.2,818.1428571428571,831.2522245134626,101.4,1028.142857142857,849.2522245134626,203.6,2751.6428571428573,838.7522245134626,303.7,2751.6428571428573,814.7522245134626,408.4,2751.6428571428573,814.7522245134626,518.8,2751.6428571428573,814.7522245134626,619.3,2751.6428571428573,814.7522245134626,719.4,2751.6428571428573,814.7522245134626,823.4,2751.6428571428573,814.7522245134626,923.4,2751.6428571428573,814.7522245134626,1035.3,2751.6428571428573,814.7522245134626,1138.3,2751.6428571428573,814.7522245134626,1238.3,2751.6428571428573,814.7522245134626,1338.4,2751.6428571428573,814.7522245134626,1443.1,2751.6428571428573,814.7522245134626,1553.8,2751.6428571428573,814.7522245134626,1658.4,2751.6428571428573,814.7522245134626,1758.5,2751.6428571428573,814.7522245134626,1868.9,2751.6428571428573,814.7522245134626,1969.4,2751.6428571428573,814.7522245134626,2073.5,2751.6428571428573,814.7522245134626,2186.7,2751.6428571428573,814.7522245134626,2287.6,2751.6428571428573,814.7522245134626,2388.6,2751.6428571428573,814.7522245134626,2502,2751.6428571428573,814.7522245134626,2602,2751.6428571428573,814.7522245134626,2704.8,2751.6428571428573,814.7522245134626,2807.6,2751.6428571428573,814.7522245134626,2908.3,2751.6428571428573,814.7522245134626,3018.4,2751.6428571428573,814.7522245134626,3118.8,2751.6428571428573,814.7522245134626,3219.1,2751.6428571428573,814.7522245134626,3319.9,2751.6428571428573,814.7522245134626,3423.3,2751.6428571428573,814.7522245134626,3536.2,2751.6428571428573,814.7522245134626,3642.5,2751.6428571428573,814.7522245134626,3752.4,2751.6428571428573,814.7522245134626,3858.4,2751.6428571428573,814.7522245134626,3958.9,2751.6428571428573,814.7522245134626,4063.1,2751.6428571428573,814.7522245134626,4164,2751.6428571428573,814.7522245134626,4268.6,2751.6428571428573,814.7522245134626,4372.5,2751.6428571428573,814.7522245134626,4473.2,2751.6428571428573,814.7522245134626,4586.7,2751.6428571428573,814.7522245134626,4688.5,2751.6428571428573,814.7522245134626,4793.8,2751.6428571428573,814.7522245134626,4903.8]","[1615.4,1615.4,1000,0,615.4,""smooth"",""down"",""down"",""good_move"",4538.6,2923,2547.2,1615.7,375.7,""smooth"",""right"",""right"",""good_move"",6736.3,2197.6,1782.2,4538.7,415.4,""smooth"",""right"",""right"",""good_move"",10031.3,3294.6,2916.7,6736.7,377.9,""smooth"",""down"",""down"",""good_move""]","",""
"10411","","<div style=""width:500px;"">
  <p>What determined the result of this run?</p>
  </div>","99","html-slider-response","48","722324","0.0-10.0-1.2","45","1","2025-07-02 10:18:44","80fe4187154257d5fb01684ea91b68b9","134.255.60.217","Mozilla/5.0 (Windows NT 10.0; Win64; x64) AppleWebKit/537.36 (KHTML, like Gecko) Chrome/137.0.0.0 Safari/537.36","WebKit","Chrome","137.0.0.0","Windows","10.0","https://app.prolific.com/","hu-HU,hu;q=0.9,en-US;q=0.8,en;q=0.7","5c66cc9246bfc200019044b8","683db6dfa200031b80f2a654","68650777d888889537163e06","5c66cc9246bfc200019044b8","2025-07-02T10:29:10.254Z","","","","","","AttribQ","","","","","","","","","","","","","","","","","","","","","","","","","","","","","","","","","","","","","","50"
"2599","","<div style=""width:500px;"">
  <p>How much control did you have over the ball?</p>
  </div>","98","html-slider-response","49","724924","0.0-10.0-2.2","45","1","2025-07-02 10:18:44","80fe4187154257d5fb01684ea91b68b9","134.255.60.217","Mozilla/5.0 (Windows NT 10.0; Win64; x64) AppleWebKit/537.36 (KHTML, like Gecko) Chrome/137.0.0.0 Safari/537.36","WebKit","Chrome","137.0.0.0","Windows","10.0","https://app.prolific.com/","hu-HU,hu;q=0.9,en-US;q=0.8,en;q=0.7","5c66cc9246bfc200019044b8","683db6dfa200031b80f2a654","68650777d888889537163e06","5c66cc9246bfc200019044b8","2025-07-02T10:29:12.854Z","","","","","","ControlQ","","","","","","","","","","","","","","","","","","","","","","","","","","","","","","","","","","","","","","50"
"3648","","<div style=""width:500px;"">
  <p>How would you describe your current emotional state?</p>
  </div>","14","html-slider-response","50","728572","0.0-10.0-3.2","45","1","2025-07-02 10:18:44","80fe4187154257d5fb01684ea91b68b9","134.255.60.217","Mozilla/5.0 (Windows NT 10.0; Win64; x64) AppleWebKit/537.36 (KHTML, like Gecko) Chrome/137.0.0.0 Safari/537.36","WebKit","Chrome","137.0.0.0","Windows","10.0","https://app.prolific.com/","hu-HU,hu;q=0.9,en-US;q=0.8,en;q=0.7","5c66cc9246bfc200019044b8","683db6dfa200031b80f2a654","68650777d888889537163e06","5c66cc9246bfc200019044b8","2025-07-02T10:29:16.502Z","","","","","","StressQ","","","","","","","","","","","","","","","","","","","","","","","","","","","","","","","","","","","","","","50"
"4174","","<div style=""width:500px;"">
  <p>What best describes how you currently feel?</p>
  </div>","44","html-slider-response","51","732748","0.0-10.0-4.2","45","1","2025-07-02 10:18:44","80fe4187154257d5fb01684ea91b68b9","134.255.60.217","Mozilla/5.0 (Windows NT 10.0; Win64; x64) AppleWebKit/537.36 (KHTML, like Gecko) Chrome/137.0.0.0 Safari/537.36","WebKit","Chrome","137.0.0.0","Windows","10.0","https://app.prolific.com/","hu-HU,hu;q=0.9,en-US;q=0.8,en;q=0.7","5c66cc9246bfc200019044b8","683db6dfa200031b80f2a654","68650777d888889537163e06","5c66cc9246bfc200019044b8","2025-07-02T10:29:20.678Z","","","","","","MotivationQ","","","","","","","","","","","","","","","","","","","","","","","","","","","","","","","","","","","","","","50"
"","","","","ctl-task-cpt","52","771418","0.0-10.0-0.3","45","1","2025-07-02 10:18:44","80fe4187154257d5fb01684ea91b68b9","134.255.60.217","Mozilla/5.0 (Windows NT 10.0; Win64; x64) AppleWebKit/537.36 (KHTML, like Gecko) Chrome/137.0.0.0 Safari/537.36","WebKit","Chrome","137.0.0.0","Windows","10.0","https://app.prolific.com/","hu-HU,hu;q=0.9,en-US;q=0.8,en;q=0.7","5c66cc9246bfc200019044b8","683db6dfa200031b80f2a654","68650777d888889537163e06","5c66cc9246bfc200019044b8","2025-07-02T10:29:59.348Z","","","","","","","","","","","","","","","","win-only","2","g1:SE,g2:NW","0.7","4","0","734005.6","1373.8","6375.7","35651.8","1","4","4","6","2","4","4","13","9","0.09848484848484848","5001.9","3000","1245","[""left"",""up""]","{""num_key_presses"":6,""num_perfect"":6,""num_errors"":0,""num_randdir"":0,""num_randdir_good_moves"":0,""num_whilered"":0,""num_whileblue"":0,""num_blue"":4,""num_good_moves"":6}","[825.6428571428571,838.7522245134626,0.1,825.6428571428571,838.7522245134626,101.6,942.6428571428571,838.7522245134626,202.6,2471.1428571428573,703.7522245134626,302.7,2751.6428571428573,597.2522245134626,407.1,2751.6428571428573,586.7522245134626,507.4,2751.6428571428573,586.7522245134626,612.1,2751.6428571428573,586.7522245134626,717.1,2751.6428571428573,586.7522245134626,821.9,2751.6428571428573,586.7522245134626,922.4,2751.6428571428573,586.7522245134626,1026.5,2751.6428571428573,586.7522245134626,1126.9,2751.6428571428573,586.7522245134626,1227,2751.6428571428573,586.7522245134626,1327.1,2751.6428571428573,586.7522245134626,1429.3,2751.6428571428573,586.7522245134626,1532.3,2751.6428571428573,586.7522245134626,1632.9,2751.6428571428573,586.7522245134626,1737.2,2751.6428571428573,586.7522245134626,1837.4,2751.6428571428573,586.7522245134626,1941.7,2751.6428571428573,586.7522245134626,2042.1,2751.6428571428573,586.7522245134626,2142.3,2751.6428571428573,586.7522245134626,2246.8,2751.6428571428573,586.7522245134626,2347,2751.6428571428573,586.7522245134626,2447.3,2751.6428571428573,586.7522245134626,2551.8,2751.6428571428573,586.7522245134626,2652,2751.6428571428573,586.7522245134626,2756.6,2751.6428571428573,586.7522245134626,2856.6,2751.6428571428573,586.7522245134626,2956.6,2751.6428571428573,586.7522245134626,3063.2,2751.6428571428573,586.7522245134626,3166.7,2751.6428571428573,586.7522245134626,3267.4,2751.6428571428573,586.7522245134626,3372.9,2751.6428571428573,586.7522245134626,3473,2751.6428571428573,586.7522245134626,3577,2751.6428571428573,586.7522245134626,3677.1,2751.6428571428573,586.7522245134626,3778.9,2751.6428571428573,586.7522245134626,3881.5,2751.6428571428573,586.7522245134626,3981.5,2751.6428571428573,586.7522245134626,4086.4,2751.6428571428573,586.7522245134626,4186.9,2751.6428571428573,586.7522245134626,4292.4,2751.6428571428573,586.7522245134626,4396.7,2751.6428571428573,586.7522245134626,4500.4,2751.6428571428573,586.7522245134626,4600.8,2751.6428571428573,586.7522245134626,4701.4,2751.6428571428573,586.7522245134626,4802,2751.6428571428573,586.7522245134626,4902.2]","[1318.3,1318.3,1000,0,318.3,""smooth"",""up"",""up"",""good_move"",4082.7,2764.2,2405.5,1318.5,358.7,""smooth"",""up"",""up"",""good_move"",10126.2,6043.4,2555.2,7220.2,350.8,""smooth"",""up"",""up"",""good_move"",15526.3,5399.9,2018.6,13169.8,338,""smooth"",""left"",""left"",""good_move"",25626.3,10099.8,2939.6,22326.3,360.4,""smooth"",""left"",""left"",""good_move"",29182.3,3555.9,3196.4,25626.4,359.5,""smooth"",""left"",""left"",""good_move""]","",""
"3545","","<div style=""width:500px;"">
  <p>What determined the result of this run?</p>
  </div>","99","html-slider-response","53","774964","0.0-10.0-1.3","45","1","2025-07-02 10:18:44","80fe4187154257d5fb01684ea91b68b9","134.255.60.217","Mozilla/5.0 (Windows NT 10.0; Win64; x64) AppleWebKit/537.36 (KHTML, like Gecko) Chrome/137.0.0.0 Safari/537.36","WebKit","Chrome","137.0.0.0","Windows","10.0","https://app.prolific.com/","hu-HU,hu;q=0.9,en-US;q=0.8,en;q=0.7","5c66cc9246bfc200019044b8","683db6dfa200031b80f2a654","68650777d888889537163e06","5c66cc9246bfc200019044b8","2025-07-02T10:30:02.894Z","","","","","","AttribQ","","","","","","","","","","","","","","","","","","","","","","","","","","","","","","","","","","","","","","50"
"2351","","<div style=""width:500px;"">
  <p>How much control did you have over the ball?</p>
  </div>","99","html-slider-response","54","777316","0.0-10.0-2.3","45","1","2025-07-02 10:18:44","80fe4187154257d5fb01684ea91b68b9","134.255.60.217","Mozilla/5.0 (Windows NT 10.0; Win64; x64) AppleWebKit/537.36 (KHTML, like Gecko) Chrome/137.0.0.0 Safari/537.36","WebKit","Chrome","137.0.0.0","Windows","10.0","https://app.prolific.com/","hu-HU,hu;q=0.9,en-US;q=0.8,en;q=0.7","5c66cc9246bfc200019044b8","683db6dfa200031b80f2a654","68650777d888889537163e06","5c66cc9246bfc200019044b8","2025-07-02T10:30:05.246Z","","","","","","ControlQ","","","","","","","","","","","","","","","","","","","","","","","","","","","","","","","","","","","","","","50"
"3272","","<div style=""width:500px;"">
  <p>How would you describe your current emotional state?</p>
  </div>","3","html-slider-response","55","780588","0.0-10.0-3.3","45","1","2025-07-02 10:18:44","80fe4187154257d5fb01684ea91b68b9","134.255.60.217","Mozilla/5.0 (Windows NT 10.0; Win64; x64) AppleWebKit/537.36 (KHTML, like Gecko) Chrome/137.0.0.0 Safari/537.36","WebKit","Chrome","137.0.0.0","Windows","10.0","https://app.prolific.com/","hu-HU,hu;q=0.9,en-US;q=0.8,en;q=0.7","5c66cc9246bfc200019044b8","683db6dfa200031b80f2a654","68650777d888889537163e06","5c66cc9246bfc200019044b8","2025-07-02T10:30:08.518Z","","","","","","StressQ","","","","","","","","","","","","","","","","","","","","","","","","","","","","","","","","","","","","","","50"
"2519","","<div style=""width:500px;"">
  <p>What best describes how you currently feel?</p>
  </div>","55","html-slider-response","56","783108","0.0-10.0-4.3","45","1","2025-07-02 10:18:44","80fe4187154257d5fb01684ea91b68b9","134.255.60.217","Mozilla/5.0 (Windows NT 10.0; Win64; x64) AppleWebKit/537.36 (KHTML, like Gecko) Chrome/137.0.0.0 Safari/537.36","WebKit","Chrome","137.0.0.0","Windows","10.0","https://app.prolific.com/","hu-HU,hu;q=0.9,en-US;q=0.8,en;q=0.7","5c66cc9246bfc200019044b8","683db6dfa200031b80f2a654","68650777d888889537163e06","5c66cc9246bfc200019044b8","2025-07-02T10:30:11.038Z","","","","","","MotivationQ","","","","","","","","","","","","","","","","","","","","","","","","","","","","","","","","","","","","","","50"
"","","","","ctl-task-cpt","57","823295","0.0-10.0-0.4","45","1","2025-07-02 10:18:44","80fe4187154257d5fb01684ea91b68b9","134.255.60.217","Mozilla/5.0 (Windows NT 10.0; Win64; x64) AppleWebKit/537.36 (KHTML, like Gecko) Chrome/137.0.0.0 Safari/537.36","WebKit","Chrome","137.0.0.0","Windows","10.0","https://app.prolific.com/","hu-HU,hu;q=0.9,en-US;q=0.8,en;q=0.7","5c66cc9246bfc200019044b8","683db6dfa200031b80f2a654","68650777d888889537163e06","5c66cc9246bfc200019044b8","2025-07-02T10:30:51.225Z","","","","","","","","","","","","","","","","win-only","1","g1:NE,g2:SW","0.6","5","0","784365.8","1382.5","6384.5","37167.1","1","4","4","6","2","-4","-7","6","13","0.045454545454545456","5002","3000","-2325","[""down"",""left""]","{""num_key_presses"":11,""num_perfect"":4,""num_errors"":3,""num_randdir"":4,""num_randdir_good_moves"":2,""num_whilered"":0,""num_whileblue"":3,""num_blue"":3,""num_good_moves"":7}","[845.1428571428571,820.7522245134626,0.4,845.1428571428571,820.7522245134626,102.9,954.6428571428571,820.7522245134626,208.1,2120.1428571428573,748.7522245134626,309,2751.6428571428573,534.2522245134626,413.3,2751.6428571428573,534.2522245134626,513.3,2751.6428571428573,534.2522245134626,618.1,2751.6428571428573,534.2522245134626,718.1,2751.6428571428573,534.2522245134626,818.6,2751.6428571428573,534.2522245134626,923.6,2751.6428571428573,534.2522245134626,1028.2,2751.6428571428573,534.2522245134626,1129.3,2751.6428571428573,534.2522245134626,1233.4,2751.6428571428573,534.2522245134626,1338.9,2751.6428571428573,534.2522245134626,1443.5,2751.6428571428573,534.2522245134626,1547.9,2751.6428571428573,534.2522245134626,1648,2751.6428571428573,534.2522245134626,1749,2751.6428571428573,534.2522245134626,1850.3,2751.6428571428573,534.2522245134626,1950.9,2751.6428571428573,534.2522245134626,2052.8,2751.6428571428573,534.2522245134626,2153.4,2751.6428571428573,534.2522245134626,2253.5,2751.6428571428573,534.2522245134626,2354.3,2751.6428571428573,534.2522245134626,2458.4,2751.6428571428573,534.2522245134626,2558.6,2751.6428571428573,534.2522245134626,2664.4,2751.6428571428573,534.2522245134626,2768.7,2751.6428571428573,534.2522245134626,2873.4,2751.6428571428573,534.2522245134626,2979.5,2751.6428571428573,534.2522245134626,3083,2751.6428571428573,534.2522245134626,3183.9,2751.6428571428573,534.2522245134626,3288.3,2751.6428571428573,534.2522245134626,3388.5,2751.6428571428573,534.2522245134626,3493.7,2751.6428571428573,534.2522245134626,3598.7,2751.6428571428573,534.2522245134626,3703,2751.6428571428573,534.2522245134626,3803.3,2751.6428571428573,534.2522245134626,3907.7,2751.6428571428573,534.2522245134626,4008.3,2751.6428571428573,534.2522245134626,4113.4,2751.6428571428573,534.2522245134626,4217.9,2751.6428571428573,534.2522245134626,4319.5,2751.6428571428573,534.2522245134626,4423.5,2751.6428571428573,534.2522245134626,4523.5,2751.6428571428573,534.2522245134626,4627.6,2751.6428571428573,534.2522245134626,4728.3,2751.6428571428573,534.2522245134626,4828.4,2751.6428571428573,534.2522245134626,4931]","[1333.7,1333.7,1000,0,333.7,""oops"",""down"",""down"",""good_move"",4317.2,2983.1,2622.6,1334.1,360.5,""smooth"",""down"",""down"",""good_move"",7245.2,2927.8,2509.5,4317.4,418.3,""oops"",""left"",""down"",""good_move"",9853.1,2607.7,2267.1,7245.4,340.6,""oops"",""left"",""right"",""bad_move"",12941.3,3087.9,2718.7,9853.4,369.2,""while_blue"",""left"",""right"",""bad_move"",15429.2,2487.8,2085,12941.4,402.8,""smooth"",""left"",""left"",""good_move"",17845.2,2415.6,2012.7,15429.6,402.9,""smooth"",""left"",""left"",""good_move"",19958.5,2113.1,1743,17845.4,370.1,""smooth"",""left"",""left"",""good_move"",23013.5,3054.8,2754.8,19958.7,300,""while_blue"",""left"",""left"",""good_move"",25637.2,2623.6,2260.2,23013.6,363.4,""oops"",""left"",""up"",""bad_move"",28565.9,2928.5,2568.6,25637.4,359.9,""while_blue"",""left"",""up"",""bad_move""]","",""
"4413","","<div style=""width:500px;"">
  <p>What determined the result of this run?</p>
  </div>","0","html-slider-response","58","827709","0.0-10.0-1.4","45","1","2025-07-02 10:18:44","80fe4187154257d5fb01684ea91b68b9","134.255.60.217","Mozilla/5.0 (Windows NT 10.0; Win64; x64) AppleWebKit/537.36 (KHTML, like Gecko) Chrome/137.0.0.0 Safari/537.36","WebKit","Chrome","137.0.0.0","Windows","10.0","https://app.prolific.com/","hu-HU,hu;q=0.9,en-US;q=0.8,en;q=0.7","5c66cc9246bfc200019044b8","683db6dfa200031b80f2a654","68650777d888889537163e06","5c66cc9246bfc200019044b8","2025-07-02T10:30:55.639Z","","","","","","AttribQ","","","","","","","","","","","","","","","","","","","","","","","","","","","","","","","","","","","","","","50"
"3286","","<div style=""width:500px;"">
  <p>How much control did you have over the ball?</p>
  </div>","17","html-slider-response","59","830996","0.0-10.0-2.4","45","1","2025-07-02 10:18:44","80fe4187154257d5fb01684ea91b68b9","134.255.60.217","Mozilla/5.0 (Windows NT 10.0; Win64; x64) AppleWebKit/537.36 (KHTML, like Gecko) Chrome/137.0.0.0 Safari/537.36","WebKit","Chrome","137.0.0.0","Windows","10.0","https://app.prolific.com/","hu-HU,hu;q=0.9,en-US;q=0.8,en;q=0.7","5c66cc9246bfc200019044b8","683db6dfa200031b80f2a654","68650777d888889537163e06","5c66cc9246bfc200019044b8","2025-07-02T10:30:58.926Z","","","","","","ControlQ","","","","","","","","","","","","","","","","","","","","","","","","","","","","","","","","","","","","","","50"
"3631","","<div style=""width:500px;"">
  <p>How would you describe your current emotional state?</p>
  </div>","65","html-slider-response","60","834628","0.0-10.0-3.4","45","1","2025-07-02 10:18:44","80fe4187154257d5fb01684ea91b68b9","134.255.60.217","Mozilla/5.0 (Windows NT 10.0; Win64; x64) AppleWebKit/537.36 (KHTML, like Gecko) Chrome/137.0.0.0 Safari/537.36","WebKit","Chrome","137.0.0.0","Windows","10.0","https://app.prolific.com/","hu-HU,hu;q=0.9,en-US;q=0.8,en;q=0.7","5c66cc9246bfc200019044b8","683db6dfa200031b80f2a654","68650777d888889537163e06","5c66cc9246bfc200019044b8","2025-07-02T10:31:02.558Z","","","","","","StressQ","","","","","","","","","","","","","","","","","","","","","","","","","","","","","","","","","","","","","","50"
"4671","","<div style=""width:500px;"">
  <p>What best describes how you currently feel?</p>
  </div>","67","html-slider-response","61","839300","0.0-10.0-4.4","45","1","2025-07-02 10:18:44","80fe4187154257d5fb01684ea91b68b9","134.255.60.217","Mozilla/5.0 (Windows NT 10.0; Win64; x64) AppleWebKit/537.36 (KHTML, like Gecko) Chrome/137.0.0.0 Safari/537.36","WebKit","Chrome","137.0.0.0","Windows","10.0","https://app.prolific.com/","hu-HU,hu;q=0.9,en-US;q=0.8,en;q=0.7","5c66cc9246bfc200019044b8","683db6dfa200031b80f2a654","68650777d888889537163e06","5c66cc9246bfc200019044b8","2025-07-02T10:31:07.230Z","","","","","","MotivationQ","","","","","","","","","","","","","","","","","","","","","","","","","","","","","","","","","","","","","","50"
"","","","","ctl-task-cpt","62","881294","0.0-10.0-0.5","45","1","2025-07-02 10:18:44","80fe4187154257d5fb01684ea91b68b9","134.255.60.217","Mozilla/5.0 (Windows NT 10.0; Win64; x64) AppleWebKit/537.36 (KHTML, like Gecko) Chrome/137.0.0.0 Safari/537.36","WebKit","Chrome","137.0.0.0","Windows","10.0","https://app.prolific.com/","hu-HU,hu;q=0.9,en-US;q=0.8,en;q=0.7","5c66cc9246bfc200019044b8","683db6dfa200031b80f2a654","68650777d888889537163e06","5c66cc9246bfc200019044b8","2025-07-02T10:31:49.224Z","","","","","","","","","","","","","","","","win-only","0","g1:NW,g2:SE","0.5","6","0","840557.7","1280.6","6281.3","38975.2","1","4","8","6","2","8","8","14","6","0.10606060606060606","5000.7","3000","385","[""down"",""right""]","{""num_key_presses"":8,""num_perfect"":4,""num_errors"":0,""num_randdir"":4,""num_randdir_good_moves"":3,""num_whilered"":0,""num_whileblue"":0,""num_blue"":3,""num_good_moves"":7}","[842.1428571428571,834.2522245134626,0,842.1428571428571,834.2522245134626,100.7,863.1428571428571,826.7522245134626,205,2285.1428571428573,825.2522245134626,320.2,2751.6428571428573,775.7522245134626,425.2,2751.6428571428573,760.7522245134626,525.2,2751.6428571428573,760.7522245134626,633.8,2751.6428571428573,760.7522245134626,735.1,2751.6428571428573,760.7522245134626,835.6,2751.6428571428573,760.7522245134626,936.9,2751.6428571428573,760.7522245134626,1052.5,2751.6428571428573,760.7522245134626,1152.8,2751.6428571428573,760.7522245134626,1255.5,2751.6428571428573,760.7522245134626,1367.5,2751.6428571428573,760.7522245134626,1470,2751.6428571428573,760.7522245134626,1571.4,2751.6428571428573,760.7522245134626,1685.5,2751.6428571428573,760.7522245134626,1786,2751.6428571428573,760.7522245134626,1890,2751.6428571428573,760.7522245134626,2000.6,2751.6428571428573,760.7522245134626,2105.2,2751.6428571428573,760.7522245134626,2205.2,2751.6428571428573,760.7522245134626,2305.5,2751.6428571428573,760.7522245134626,2419.4,2751.6428571428573,760.7522245134626,2519.8,2751.6428571428573,760.7522245134626,2619.9,2751.6428571428573,760.7522245134626,2719.9,2751.6428571428573,760.7522245134626,2820.4,2751.6428571428573,760.7522245134626,2921.5,2751.6428571428573,760.7522245134626,3038.8,2751.6428571428573,760.7522245134626,3140,2751.6428571428573,760.7522245134626,3240.1,2751.6428571428573,760.7522245134626,3340.1,2751.6428571428573,760.7522245134626,3445.4,2751.6428571428573,760.7522245134626,3550.6,2751.6428571428573,760.7522245134626,3654.8,2751.6428571428573,760.7522245134626,3756.2,2751.6428571428573,760.7522245134626,3856.2,2751.6428571428573,760.7522245134626,3961.9,2751.6428571428573,760.7522245134626,4065.2,2751.6428571428573,760.7522245134626,4165.5,2751.6428571428573,760.7522245134626,4265.7,2751.6428571428573,760.7522245134626,4370.7,2751.6428571428573,760.7522245134626,4475.3,2751.6428571428573,760.7522245134626,4575.3,2751.6428571428573,760.7522245134626,4685.6,2751.6428571428573,760.7522245134626,4785.6,2751.6428571428573,760.7522245134626,4902.6]","[1381.9,1381.9,1000,0,381.9,""oops"",""down"",""right"",""good_move"",4668.8,3286.7,2899.6,1382.1,387.1,""smooth"",""down"",""down"",""good_move"",8044.8,3375.7,2923.7,4669.1,452,""oops"",""down"",""down"",""good_move"",10639.3,2594.3,2231.6,8045,362.7,""smooth"",""right"",""right"",""good_move"",16236.7,5597.3,2032.7,13774.8,429.2,""oops"",""right"",""left"",""bad_move"",23429.1,7192,3351.4,19745.1,332.6,""oops"",""down"",""down"",""good_move"",30372.7,6943.4,3034,27019.6,319.1,""smooth"",""right"",""right"",""good_move"",32612.7,2239.9,1893.1,30372.8,346.8,""smooth"",""right"",""right"",""good_move""]","",""
"4702","","<div style=""width:500px;"">
  <p>What determined the result of this run?</p>
  </div>","72","html-slider-response","63","885996","0.0-10.0-1.5","45","1","2025-07-02 10:18:44","80fe4187154257d5fb01684ea91b68b9","134.255.60.217","Mozilla/5.0 (Windows NT 10.0; Win64; x64) AppleWebKit/537.36 (KHTML, like Gecko) Chrome/137.0.0.0 Safari/537.36","WebKit","Chrome","137.0.0.0","Windows","10.0","https://app.prolific.com/","hu-HU,hu;q=0.9,en-US;q=0.8,en;q=0.7","5c66cc9246bfc200019044b8","683db6dfa200031b80f2a654","68650777d888889537163e06","5c66cc9246bfc200019044b8","2025-07-02T10:31:53.926Z","","","","","","AttribQ","","","","","","","","","","","","","","","","","","","","","","","","","","","","","","","","","","","","","","50"
"3079","","<div style=""width:500px;"">
  <p>How much control did you have over the ball?</p>
  </div>","79","html-slider-response","64","889076","0.0-10.0-2.5","45","1","2025-07-02 10:18:44","80fe4187154257d5fb01684ea91b68b9","134.255.60.217","Mozilla/5.0 (Windows NT 10.0; Win64; x64) AppleWebKit/537.36 (KHTML, like Gecko) Chrome/137.0.0.0 Safari/537.36","WebKit","Chrome","137.0.0.0","Windows","10.0","https://app.prolific.com/","hu-HU,hu;q=0.9,en-US;q=0.8,en;q=0.7","5c66cc9246bfc200019044b8","683db6dfa200031b80f2a654","68650777d888889537163e06","5c66cc9246bfc200019044b8","2025-07-02T10:31:57.006Z","","","","","","ControlQ","","","","","","","","","","","","","","","","","","","","","","","","","","","","","","","","","","","","","","50"
"2607","","<div style=""width:500px;"">
  <p>How would you describe your current emotional state?</p>
  </div>","38","html-slider-response","65","891684","0.0-10.0-3.5","45","1","2025-07-02 10:18:44","80fe4187154257d5fb01684ea91b68b9","134.255.60.217","Mozilla/5.0 (Windows NT 10.0; Win64; x64) AppleWebKit/537.36 (KHTML, like Gecko) Chrome/137.0.0.0 Safari/537.36","WebKit","Chrome","137.0.0.0","Windows","10.0","https://app.prolific.com/","hu-HU,hu;q=0.9,en-US;q=0.8,en;q=0.7","5c66cc9246bfc200019044b8","683db6dfa200031b80f2a654","68650777d888889537163e06","5c66cc9246bfc200019044b8","2025-07-02T10:31:59.614Z","","","","","","StressQ","","","","","","","","","","","","","","","","","","","","","","","","","","","","","","","","","","","","","","50"
"2767","","<div style=""width:500px;"">
  <p>What best describes how you currently feel?</p>
  </div>","59","html-slider-response","66","894452","0.0-10.0-4.5","45","1","2025-07-02 10:18:44","80fe4187154257d5fb01684ea91b68b9","134.255.60.217","Mozilla/5.0 (Windows NT 10.0; Win64; x64) AppleWebKit/537.36 (KHTML, like Gecko) Chrome/137.0.0.0 Safari/537.36","WebKit","Chrome","137.0.0.0","Windows","10.0","https://app.prolific.com/","hu-HU,hu;q=0.9,en-US;q=0.8,en;q=0.7","5c66cc9246bfc200019044b8","683db6dfa200031b80f2a654","68650777d888889537163e06","5c66cc9246bfc200019044b8","2025-07-02T10:32:02.382Z","","","","","","MotivationQ","","","","","","","","","","","","","","","","","","","","","","","","","","","","","","","","","","","","","","50"
"","","","","ctl-task-cpt","67","926438","0.0-10.0-0.6","45","1","2025-07-02 10:18:44","80fe4187154257d5fb01684ea91b68b9","134.255.60.217","Mozilla/5.0 (Windows NT 10.0; Win64; x64) AppleWebKit/537.36 (KHTML, like Gecko) Chrome/137.0.0.0 Safari/537.36","WebKit","Chrome","137.0.0.0","Windows","10.0","https://app.prolific.com/","hu-HU,hu;q=0.9,en-US;q=0.8,en;q=0.7","5c66cc9246bfc200019044b8","683db6dfa200031b80f2a654","68650777d888889537163e06","5c66cc9246bfc200019044b8","2025-07-02T10:32:34.368Z","","","","","","","","","","","","","","","","win-only","2","g1:SE,g2:NW","0.4","7","0","895709.8","1647.7","6651.3","28975.2","1","4","4","6","1","1","1","15","14","0.11363636363636363","5003.6","3000","935","[""down"",""right""]","{""num_key_presses"":8,""num_perfect"":3,""num_errors"":0,""num_randdir"":5,""num_randdir_good_moves"":3,""num_whilered"":0,""num_whileblue"":0,""num_blue"":1,""num_good_moves"":6}","[839.1428571428571,820.7522245134626,0.2,839.1428571428571,820.7522245134626,103.8,867.6428571428571,820.7522245134626,203.8,2000.142857142857,913.7522245134626,304.8,2751.6428571428573,820.7522245134626,408.4,2751.6428571428573,798.2522245134626,518,2751.6428571428573,798.2522245134626,618.5,2751.6428571428573,798.2522245134626,720.9,2751.6428571428573,798.2522245134626,823.4,2751.6428571428573,798.2522245134626,928,2751.6428571428573,798.2522245134626,1031.8,2751.6428571428573,798.2522245134626,1131.8,2751.6428571428573,798.2522245134626,1233.7,2751.6428571428573,798.2522245134626,1334.2,2751.6428571428573,798.2522245134626,1434.2,2751.6428571428573,798.2522245134626,1538.8,2751.6428571428573,798.2522245134626,1642.7,2751.6428571428573,798.2522245134626,1747.9,2751.6428571428573,798.2522245134626,1847.9,2751.6428571428573,798.2522245134626,1948.9,2751.6428571428573,798.2522245134626,2051.4,2751.6428571428573,798.2522245134626,2151.5,2751.6428571428573,798.2522245134626,2252.7,2751.6428571428573,798.2522245134626,2353.2,2751.6428571428573,798.2522245134626,2466.5,2751.6428571428573,798.2522245134626,2567,2751.6428571428573,798.2522245134626,2668.5,2751.6428571428573,798.2522245134626,2768.6,2751.6428571428573,798.2522245134626,2873.3,2751.6428571428573,798.2522245134626,2977.8,2751.6428571428573,798.2522245134626,3077.8,2751.6428571428573,798.2522245134626,3178.5,2751.6428571428573,798.2522245134626,3280.6,2751.6428571428573,798.2522245134626,3383.5,2751.6428571428573,798.2522245134626,3487.6,2751.6428571428573,798.2522245134626,3587.9,2751.6428571428573,798.2522245134626,3689.2,2751.6428571428573,798.2522245134626,3803.7,2751.6428571428573,798.2522245134626,3905.9,2751.6428571428573,798.2522245134626,4008.8,2751.6428571428573,798.2522245134626,4120.5,2751.6428571428573,798.2522245134626,4221.6,2751.6428571428573,798.2522245134626,4321.6,2751.6428571428573,798.2522245134626,4423.4,2751.6428571428573,798.2522245134626,4529.5,2751.6428571428573,798.2522245134626,4633.7,2751.6428571428573,798.2522245134626,4737.8,2751.6428571428573,798.2522245134626,4838.3,2751.6428571428573,798.2522245134626,4953.6]","[1443.2,1443.2,1000,0,443.2,""oops"",""down"",""down"",""good_move"",3883.3,2439.8,1800.4,1443.5,639.4,""smooth"",""down"",""down"",""good_move"",6099.3,2215.9,1838.9,3883.4,377,""oops"",""right"",""left"",""bad_move"",8931.2,2831.7,2455.1,6099.5,376.6,""oops"",""right"",""right"",""good_move"",11634.9,2702.9,2360.4,8932,342.5,""smooth"",""right"",""right"",""good_move"",14065.2,2430.1,2059,11635.1,371.1,""oops"",""right"",""up"",""bad_move"",16250.7,2185.3,1809.1,14065.4,376.2,""oops"",""right"",""right"",""good_move"",22203,5952.2,2492.1,19354.7,356.2,""smooth"",""down"",""down"",""good_move""]","",""
"2751","","<div style=""width:500px;"">
  <p>What determined the result of this run?</p>
  </div>","66","html-slider-response","68","929190","0.0-10.0-1.6","45","1","2025-07-02 10:18:44","80fe4187154257d5fb01684ea91b68b9","134.255.60.217","Mozilla/5.0 (Windows NT 10.0; Win64; x64) AppleWebKit/537.36 (KHTML, like Gecko) Chrome/137.0.0.0 Safari/537.36","WebKit","Chrome","137.0.0.0","Windows","10.0","https://app.prolific.com/","hu-HU,hu;q=0.9,en-US;q=0.8,en;q=0.7","5c66cc9246bfc200019044b8","683db6dfa200031b80f2a654","68650777d888889537163e06","5c66cc9246bfc200019044b8","2025-07-02T10:32:37.120Z","","","","","","AttribQ","","","","","","","","","","","","","","","","","","","","","","","","","","","","","","","","","","","","","","50"
"1965","","<div style=""width:500px;"">
  <p>How much control did you have over the ball?</p>
  </div>","72","html-slider-response","69","931157","0.0-10.0-2.6","45","1","2025-07-02 10:18:44","80fe4187154257d5fb01684ea91b68b9","134.255.60.217","Mozilla/5.0 (Windows NT 10.0; Win64; x64) AppleWebKit/537.36 (KHTML, like Gecko) Chrome/137.0.0.0 Safari/537.36","WebKit","Chrome","137.0.0.0","Windows","10.0","https://app.prolific.com/","hu-HU,hu;q=0.9,en-US;q=0.8,en;q=0.7","5c66cc9246bfc200019044b8","683db6dfa200031b80f2a654","68650777d888889537163e06","5c66cc9246bfc200019044b8","2025-07-02T10:32:39.087Z","","","","","","ControlQ","","","","","","","","","","","","","","","","","","","","","","","","","","","","","","","","","","","","","","50"
"4607","","<div style=""width:500px;"">
  <p>How would you describe your current emotional state?</p>
  </div>","29","html-slider-response","70","935766","0.0-10.0-3.6","45","1","2025-07-02 10:18:44","80fe4187154257d5fb01684ea91b68b9","134.255.60.217","Mozilla/5.0 (Windows NT 10.0; Win64; x64) AppleWebKit/537.36 (KHTML, like Gecko) Chrome/137.0.0.0 Safari/537.36","WebKit","Chrome","137.0.0.0","Windows","10.0","https://app.prolific.com/","hu-HU,hu;q=0.9,en-US;q=0.8,en;q=0.7","5c66cc9246bfc200019044b8","683db6dfa200031b80f2a654","68650777d888889537163e06","5c66cc9246bfc200019044b8","2025-07-02T10:32:43.696Z","","","","","","StressQ","","","","","","","","","","","","","","","","","","","","","","","","","","","","","","","","","","","","","","50"
"2389","","<div style=""width:500px;"">
  <p>What best describes how you currently feel?</p>
  </div>","63","html-slider-response","71","938157","0.0-10.0-4.6","45","1","2025-07-02 10:18:44","80fe4187154257d5fb01684ea91b68b9","134.255.60.217","Mozilla/5.0 (Windows NT 10.0; Win64; x64) AppleWebKit/537.36 (KHTML, like Gecko) Chrome/137.0.0.0 Safari/537.36","WebKit","Chrome","137.0.0.0","Windows","10.0","https://app.prolific.com/","hu-HU,hu;q=0.9,en-US;q=0.8,en;q=0.7","5c66cc9246bfc200019044b8","683db6dfa200031b80f2a654","68650777d888889537163e06","5c66cc9246bfc200019044b8","2025-07-02T10:32:46.087Z","","","","","","MotivationQ","","","","","","","","","","","","","","","","","","","","","","","","","","","","","","","","","","","","","","50"
"","","","","ctl-task-cpt","72","1057896","0.0-10.0-0.7","45","1","2025-07-02 10:18:44","80fe4187154257d5fb01684ea91b68b9","134.255.60.217","Mozilla/5.0 (Windows NT 10.0; Win64; x64) AppleWebKit/537.36 (KHTML, like Gecko) Chrome/137.0.0.0 Safari/537.36","WebKit","Chrome","137.0.0.0","Windows","10.0","https://app.prolific.com/","hu-HU,hu;q=0.9,en-US;q=0.8,en;q=0.7","5c66cc9246bfc200019044b8","683db6dfa200031b80f2a654","68650777d888889537163e06","5c66cc9246bfc200019044b8","2025-07-02T10:34:45.826Z","","","","","","","","","","","","","","","","win-only","1","g1:NE,g2:SW","0.3","8","0","939415.8","2061.2","7063.1","116698.8","1","4","8","6","2","-8","-9","6","15","0.045454545454545456","5001.9","3000","-475","[""down"",""left""]","{""num_key_presses"":23,""num_perfect"":7,""num_errors"":1,""num_randdir"":15,""num_randdir_good_moves"":6,""num_whilered"":0,""num_whileblue"":1,""num_blue"":10,""num_good_moves"":13}","[837.6428571428571,826.7522245134626,0.3,837.6428571428571,826.7522245134626,105.6,1361.142857142857,829.7522245134626,210.1,2751.6428571428573,790.7522245134626,310.1,2751.6428571428573,727.7522245134626,414.5,2751.6428571428573,727.7522245134626,515,2751.6428571428573,727.7522245134626,615,2751.6428571428573,727.7522245134626,720.6,2751.6428571428573,727.7522245134626,824.4,2751.6428571428573,727.7522245134626,924.5,2751.6428571428573,727.7522245134626,1025.9,2751.6428571428573,727.7522245134626,1127.8,2751.6428571428573,727.7522245134626,1230.3,2751.6428571428573,727.7522245134626,1330.7,2751.6428571428573,727.7522245134626,1436.5,2751.6428571428573,727.7522245134626,1539.5,2751.6428571428573,727.7522245134626,1641.4,2751.6428571428573,727.7522245134626,1744.9,2751.6428571428573,727.7522245134626,1844.9,2751.6428571428573,727.7522245134626,1947.3,2751.6428571428573,727.7522245134626,2048,2751.6428571428573,727.7522245134626,2149.2,2751.6428571428573,727.7522245134626,2249.9,2751.6428571428573,727.7522245134626,2354.2,2751.6428571428573,727.7522245134626,2455.3,2751.6428571428573,727.7522245134626,2564.1,2751.6428571428573,727.7522245134626,2664.9,2751.6428571428573,727.7522245134626,2765,2751.6428571428573,727.7522245134626,2869.8,2751.6428571428573,727.7522245134626,2974.2,2751.6428571428573,727.7522245134626,3076.4,2751.6428571428573,727.7522245134626,3179.7,2751.6428571428573,727.7522245134626,3281.6,2751.6428571428573,727.7522245134626,3384.9,2751.6428571428573,727.7522245134626,3485,2751.6428571428573,727.7522245134626,3590.2,2751.6428571428573,727.7522245134626,3697.1,2751.6428571428573,727.7522245134626,3799.2,2751.6428571428573,727.7522245134626,3900,2751.6428571428573,727.7522245134626,4004.3,2751.6428571428573,727.7522245134626,4104.9,2751.6428571428573,727.7522245134626,4205,2751.6428571428573,727.7522245134626,4311,2751.6428571428573,727.7522245134626,4413.8,2751.6428571428573,727.7522245134626,4514.5,2751.6428571428573,727.7522245134626,4614.5,2751.6428571428573,727.7522245134626,4714.6,2751.6428571428573,727.7522245134626,4820.1,2751.6428571428573,727.7522245134626,4924.5]","[8281.3,8281.3,2245.8,5632.6,402.9,""oops"",""down"",""up"",""bad_move"",11861.6,3579.9,3184.5,8281.7,395.4,""oops"",""left"",""left"",""good_move"",14701.7,2839.8,2472,11861.9,367.8,""oops"",""left"",""down"",""good_move"",17741.2,3039.2,2650.7,14702,388.5,""smooth"",""left"",""left"",""good_move"",21189.1,3447.1,3035.9,17742,411.2,""smooth"",""left"",""left"",""good_move"",23585.2,2395.9,2035.4,21189.3,360.5,""oops"",""down"",""up"",""bad_move"",34101.7,10516.4,2051.2,31674.9,375.6,""oops"",""down"",""up"",""bad_move"",37005.9,2904,2506.7,34101.9,397.3,""smooth"",""down"",""down"",""good_move"",39693.3,2687.1,2318.8,37006.2,368.3,""oops"",""down"",""down"",""good_move"",41701.6,2008.1,1621.6,39693.5,386.5,""oops"",""down"",""down"",""good_move"",44438.8,2737,2359.4,41701.8,377.6,""oops"",""down"",""up"",""bad_move"",47495.3,3056.3,2215.5,44439,840.8,""oops"",""down"",""down"",""good_move"",50549.7,3054.2,2684,47495.5,370.2,""oops"",""down"",""up"",""bad_move"",53765.4,3215.4,2852.3,50550,363.1,""while_blue"",""down"",""right"",""bad_move"",56662.3,2896.4,2491.6,53765.9,404.8,""oops"",""down"",""up"",""bad_move"",60269.6,3607.1,2821,56662.5,786.1,""oops"",""up"",""up"",""bad_move"",71607,11337.3,2354.9,68844.3,407.8,""oops"",""down"",""left"",""good_move"",76831.9,5224.7,2774.1,71607.2,2450.6,""smooth"",""down"",""down"",""good_move"",79407.9,2575.8,2104.9,76832.1,470.9,""smooth"",""down"",""down"",""good_move"",82319.2,2911.2,2496.1,79408,415.1,""smooth"",""down"",""down"",""good_move"",85238,2918.5,2488.4,82319.5,430.1,""oops"",""down"",""up"",""bad_move"",93816.7,8578.6,2029.5,91370.9,416.3,""oops"",""down"",""up"",""bad_move"",99359.2,5542.3,2271.1,93817,3271.2,""smooth"",""down"",""down"",""good_move""]","",""
"3418","","<div style=""width:500px;"">
  <p>What determined the result of this run?</p>
  </div>","0","html-slider-response","73","1061318","0.0-10.0-1.7","45","1","2025-07-02 10:18:44","80fe4187154257d5fb01684ea91b68b9","134.255.60.217","Mozilla/5.0 (Windows NT 10.0; Win64; x64) AppleWebKit/537.36 (KHTML, like Gecko) Chrome/137.0.0.0 Safari/537.36","WebKit","Chrome","137.0.0.0","Windows","10.0","https://app.prolific.com/","hu-HU,hu;q=0.9,en-US;q=0.8,en;q=0.7","5c66cc9246bfc200019044b8","683db6dfa200031b80f2a654","68650777d888889537163e06","5c66cc9246bfc200019044b8","2025-07-02T10:34:49.248Z","","","","","","AttribQ","","","","","","","","","","","","","","","","","","","","","","","","","","","","","","","","","","","","","","50"
"2924","","<div style=""width:500px;"">
  <p>How much control did you have over the ball?</p>
  </div>","3","html-slider-response","74","1064246","0.0-10.0-2.7","45","1","2025-07-02 10:18:44","80fe4187154257d5fb01684ea91b68b9","134.255.60.217","Mozilla/5.0 (Windows NT 10.0; Win64; x64) AppleWebKit/537.36 (KHTML, like Gecko) Chrome/137.0.0.0 Safari/537.36","WebKit","Chrome","137.0.0.0","Windows","10.0","https://app.prolific.com/","hu-HU,hu;q=0.9,en-US;q=0.8,en;q=0.7","5c66cc9246bfc200019044b8","683db6dfa200031b80f2a654","68650777d888889537163e06","5c66cc9246bfc200019044b8","2025-07-02T10:34:52.176Z","","","","","","ControlQ","","","","","","","","","","","","","","","","","","","","","","","","","","","","","","","","","","","","","","50"
"2996","","<div style=""width:500px;"">
  <p>How would you describe your current emotional state?</p>
  </div>","78","html-slider-response","75","1067245","0.0-10.0-3.7","45","1","2025-07-02 10:18:44","80fe4187154257d5fb01684ea91b68b9","134.255.60.217","Mozilla/5.0 (Windows NT 10.0; Win64; x64) AppleWebKit/537.36 (KHTML, like Gecko) Chrome/137.0.0.0 Safari/537.36","WebKit","Chrome","137.0.0.0","Windows","10.0","https://app.prolific.com/","hu-HU,hu;q=0.9,en-US;q=0.8,en;q=0.7","5c66cc9246bfc200019044b8","683db6dfa200031b80f2a654","68650777d888889537163e06","5c66cc9246bfc200019044b8","2025-07-02T10:34:55.175Z","","","","","","StressQ","","","","","","","","","","","","","","","","","","","","","","","","","","","","","","","","","","","","","","50"
"3727","","<div style=""width:500px;"">
  <p>What best describes how you currently feel?</p>
  </div>","39","html-slider-response","76","1070976","0.0-10.0-4.7","45","1","2025-07-02 10:18:44","80fe4187154257d5fb01684ea91b68b9","134.255.60.217","Mozilla/5.0 (Windows NT 10.0; Win64; x64) AppleWebKit/537.36 (KHTML, like Gecko) Chrome/137.0.0.0 Safari/537.36","WebKit","Chrome","137.0.0.0","Windows","10.0","https://app.prolific.com/","hu-HU,hu;q=0.9,en-US;q=0.8,en;q=0.7","5c66cc9246bfc200019044b8","683db6dfa200031b80f2a654","68650777d888889537163e06","5c66cc9246bfc200019044b8","2025-07-02T10:34:58.906Z","","","","","","MotivationQ","","","","","","","","","","","","","","","","","","","","","","","","","","","","","","","","","","","","","","50"
"","","","","ctl-task-cpt","77","1160649","0.0-10.0-0.8","45","1","2025-07-02 10:18:44","80fe4187154257d5fb01684ea91b68b9","134.255.60.217","Mozilla/5.0 (Windows NT 10.0; Win64; x64) AppleWebKit/537.36 (KHTML, like Gecko) Chrome/137.0.0.0 Safari/537.36","WebKit","Chrome","137.0.0.0","Windows","10.0","https://app.prolific.com/","hu-HU,hu;q=0.9,en-US;q=0.8,en;q=0.7","5c66cc9246bfc200019044b8","683db6dfa200031b80f2a654","68650777d888889537163e06","5c66cc9246bfc200019044b8","2025-07-02T10:36:28.579Z","","","","","","","","","","","","","","","","win-only","3","g1:SW,g2:NE","0.4","9","0","1072236.8","1370.9","6383.8","86651.5","1","4","4","6","1","1","1","7","6","0.05303030303030303","5012.9","3000","1315","[""down"",""left""]","{""num_key_presses"":18,""num_perfect"":8,""num_errors"":0,""num_randdir"":10,""num_randdir_good_moves"":3,""num_whilered"":0,""num_whileblue"":0,""num_blue"":0,""num_good_moves"":11}","[845.1428571428571,823.7522245134626,0.2,845.1428571428571,823.7522245134626,110,2042.142857142857,613.7522245134626,220.9,2751.6428571428573,214.7522245134626,330.5,2751.6428571428573,195.2522245134626,448.8,2751.6428571428573,195.2522245134626,565.8,2751.6428571428573,195.2522245134626,678.5,2751.6428571428573,195.2522245134626,789.1,2751.6428571428573,195.2522245134626,894,2751.6428571428573,195.2522245134626,996.8,2751.6428571428573,195.2522245134626,1109.3,2751.6428571428573,195.2522245134626,1216.2,2751.6428571428573,195.2522245134626,1322.5,2751.6428571428573,195.2522245134626,1424.4,2751.6428571428573,195.2522245134626,1527,2751.6428571428573,195.2522245134626,1631.3,2751.6428571428573,195.2522245134626,1739.3,2751.6428571428573,195.2522245134626,1847.6,2751.6428571428573,195.2522245134626,1957.9,2751.6428571428573,195.2522245134626,2060.6,2751.6428571428573,195.2522245134626,2165.7,2751.6428571428573,195.2522245134626,2268.4,2751.6428571428573,195.2522245134626,2379.9,2751.6428571428573,195.2522245134626,2490,2751.6428571428573,195.2522245134626,2601.4,2751.6428571428573,195.2522245134626,2707.5,2751.6428571428573,195.2522245134626,2816.7,2751.6428571428573,195.2522245134626,2924.6,2751.6428571428573,195.2522245134626,3031.9,2751.6428571428573,195.2522245134626,3144.8,2751.6428571428573,195.2522245134626,3247.7,2751.6428571428573,195.2522245134626,3353.2,2751.6428571428573,195.2522245134626,3463.1,2751.6428571428573,195.2522245134626,3575.6,2751.6428571428573,195.2522245134626,3686.4,2751.6428571428573,195.2522245134626,3795.8,2751.6428571428573,195.2522245134626,3901.3,2751.6428571428573,195.2522245134626,4004.6,2751.6428571428573,195.2522245134626,4110.1,2751.6428571428573,195.2522245134626,4218.6,2751.6428571428573,195.2522245134626,4331.3,2751.6428571428573,195.2522245134626,4438.1,2751.6428571428573,195.2522245134626,4541.6,2751.6428571428573,195.2522245134626,4649.1,2751.6428571428573,195.2522245134626,4754.9,2751.6428571428573,195.2522245134626,4888.5]","[1466.3,1466.3,1000,0,466.3,""smooth"",""down"",""down"",""good_move"",4277.9,2811.2,2370.5,1466.7,440.7,""smooth"",""down"",""down"",""good_move"",7067,2788.9,2357.7,4278.1,431.2,""oops"",""left"",""right"",""bad_move"",10082.1,3014.9,2582.7,7067.2,432.2,""oops"",""left"",""right"",""bad_move"",13608,3525.5,2934.2,10082.5,591.3,""oops"",""left"",""right"",""bad_move"",17160.7,3552.4,3152.8,13608.3,399.6,""oops"",""left"",""up"",""bad_move"",23801.2,6640.2,2569,17161,4071.2,""smooth"",""left"",""left"",""good_move"",30450.5,6649.1,2144.5,23801.5,4504.6,""smooth"",""left"",""left"",""good_move"",37168.2,6717.5,2829.3,30450.7,3888.2,""oops"",""left"",""right"",""bad_move"",40984.7,3816.4,3386.1,37168.3,430.3,""oops"",""left"",""right"",""bad_move"",43969.4,2984.4,2538,40985,446.4,""oops"",""left"",""left"",""good_move"",51841.6,7871.9,2935.1,43969.7,4936.8,""smooth"",""left"",""left"",""good_move"",62657.4,10815.6,2704,51841.8,8111.6,""oops"",""left"",""down"",""good_move"",65844.8,3187.2,2363.9,62657.6,823.3,""smooth"",""left"",""left"",""good_move"",72008.2,6163.2,3009.1,65845,3154.1,""smooth"",""left"",""left"",""good_move"",74553.1,2544.7,2124.3,72008.4,420.4,""oops"",""left"",""up"",""bad_move"",77265.2,2711.9,2307.9,74553.3,404,""oops"",""down"",""down"",""good_move"",80064.4,2798.9,2431.1,77265.5,367.8,""smooth"",""left"",""left"",""good_move""]","",""
"3907","","<div style=""width:500px;"">
  <p>What determined the result of this run?</p>
  </div>","30","html-slider-response","78","1164557","0.0-10.0-1.8","45","1","2025-07-02 10:18:44","80fe4187154257d5fb01684ea91b68b9","134.255.60.217","Mozilla/5.0 (Windows NT 10.0; Win64; x64) AppleWebKit/537.36 (KHTML, like Gecko) Chrome/137.0.0.0 Safari/537.36","WebKit","Chrome","137.0.0.0","Windows","10.0","https://app.prolific.com/","hu-HU,hu;q=0.9,en-US;q=0.8,en;q=0.7","5c66cc9246bfc200019044b8","683db6dfa200031b80f2a654","68650777d888889537163e06","5c66cc9246bfc200019044b8","2025-07-02T10:36:32.487Z","","","","","","AttribQ","","","","","","","","","","","","","","","","","","","","","","","","","","","","","","","","","","","","","","50"
"4047","","<div style=""width:500px;"">
  <p>How much control did you have over the ball?</p>
  </div>","37","html-slider-response","79","1168605","0.0-10.0-2.8","45","1","2025-07-02 10:18:44","80fe4187154257d5fb01684ea91b68b9","134.255.60.217","Mozilla/5.0 (Windows NT 10.0; Win64; x64) AppleWebKit/537.36 (KHTML, like Gecko) Chrome/137.0.0.0 Safari/537.36","WebKit","Chrome","137.0.0.0","Windows","10.0","https://app.prolific.com/","hu-HU,hu;q=0.9,en-US;q=0.8,en;q=0.7","5c66cc9246bfc200019044b8","683db6dfa200031b80f2a654","68650777d888889537163e06","5c66cc9246bfc200019044b8","2025-07-02T10:36:36.535Z","","","","","","ControlQ","","","","","","","","","","","","","","","","","","","","","","","","","","","","","","","","","","","","","","50"
"3711","","<div style=""width:500px;"">
  <p>How would you describe your current emotional state?</p>
  </div>","20","html-slider-response","80","1172317","0.0-10.0-3.8","45","1","2025-07-02 10:18:44","80fe4187154257d5fb01684ea91b68b9","134.255.60.217","Mozilla/5.0 (Windows NT 10.0; Win64; x64) AppleWebKit/537.36 (KHTML, like Gecko) Chrome/137.0.0.0 Safari/537.36","WebKit","Chrome","137.0.0.0","Windows","10.0","https://app.prolific.com/","hu-HU,hu;q=0.9,en-US;q=0.8,en;q=0.7","5c66cc9246bfc200019044b8","683db6dfa200031b80f2a654","68650777d888889537163e06","5c66cc9246bfc200019044b8","2025-07-02T10:36:40.247Z","","","","","","StressQ","","","","","","","","","","","","","","","","","","","","","","","","","","","","","","","","","","","","","","50"
"2398","","<div style=""width:500px;"">
  <p>What best describes how you currently feel?</p>
  </div>","11","html-slider-response","81","1174717","0.0-10.0-4.8","45","1","2025-07-02 10:18:44","80fe4187154257d5fb01684ea91b68b9","134.255.60.217","Mozilla/5.0 (Windows NT 10.0; Win64; x64) AppleWebKit/537.36 (KHTML, like Gecko) Chrome/137.0.0.0 Safari/537.36","WebKit","Chrome","137.0.0.0","Windows","10.0","https://app.prolific.com/","hu-HU,hu;q=0.9,en-US;q=0.8,en;q=0.7","5c66cc9246bfc200019044b8","683db6dfa200031b80f2a654","68650777d888889537163e06","5c66cc9246bfc200019044b8","2025-07-02T10:36:42.647Z","","","","","","MotivationQ","","","","","","","","","","","","","","","","","","","","","","","","","","","","","","","","","","","","","","50"
