"rt","response_timestamp","stimulus","response","trial_type","trial_index","time_elapsed","internal_node_id","run_id","condition","recorded_at","source_code_version","ip","user_agent","device","browser","browser_version","platform","platform_version","referer","accept_language","PROLIFIC_PID","STUDY_ID","SESSION_ID","prolific_id","realtime","view_history","question_order","consent","success","question_id","eventType","responses","item_order","radio_event_ids","radio_event_times","key_event_times","mouse_event_times","straightlining","zigzagging","honeypot","which_type","canvas_config","goals_layout","control_level","trial_number","tutorial_trial_number","trial_start_time","phase1_start_time","phase2_start_time","phase3_start_time","goal_1_value","goal_1_distance","goal_2_value","goal_2_distance","goal_selected","outcome","outcome_total","participant_final_score","participant_initial_score","participant_final_score_prop","goal_choice_rt","allocated_time","allocated_time_remaining","goal_direction","counts","mouse_movements","key_presses","correct","slider_start"
"63359","1751451587374","<p style='font-size:40px;line-height:1.25'><strong>Welcome to the experiment!</strong></p><p style='font-size:1.1em;line-height:1.25'>Thank you for your interest in our experiment! Before you begin, it is important that we obtain your informed consent to participate in the study.</p><p style='font-size:1.1em;line-height:1.25'>On the next screen will be an <strong>information sheet</strong> for you to read. To participate in the study we need you to read this information sheet and the following consent form carefully. If you agree with all the statements, please click the <strong>I agree</strong> button.</p><p style='font-size:1.1em;line-height:1.25'>Press <strong>Next</strong> to read the information sheet.</p>","0","custom-html-button-response","0","63362","0.0-0.0","40","1","2025-07-02 10:18:43","80fe4187154257d5fb01684ea91b68b9","90.246.71.246","Mozilla/5.0 (Windows NT 10.0; Win64; x64) AppleWebKit/537.36 (KHTML, like Gecko) Chrome/138.0.0.0 Safari/537.36","WebKit","Chrome","138.0.0.0","Windows","10.0","https://app.prolific.com/","en-GB,en-US;q=0.9,en;q=0.8","5c9d88bb2b3c77001744ec1c","683db6dfa200031b80f2a654","68650776e3a3a3e5ac4c887d","5c9d88bb2b3c77001744ec1c","2025-07-02T10:19:47.376Z","","","","","","","","","","","","","","","","","","","","","","","","","","","","","","","","","","","","","","","","","","","",""
"138817","","","","instructions","1","202181","0.0-1.0","40","1","2025-07-02 10:18:43","80fe4187154257d5fb01684ea91b68b9","90.246.71.246","Mozilla/5.0 (Windows NT 10.0; Win64; x64) AppleWebKit/537.36 (KHTML, like Gecko) Chrome/138.0.0.0 Safari/537.36","WebKit","Chrome","138.0.0.0","Windows","10.0","https://app.prolific.com/","en-GB,en-US;q=0.9,en;q=0.8","5c9d88bb2b3c77001744ec1c","683db6dfa200031b80f2a654","68650776e3a3a3e5ac4c887d","5c9d88bb2b3c77001744ec1c","","[{""page_index"":0,""viewing_time"":134205},{""page_index"":1,""viewing_time"":4607}]","","","","","","","","","","","","","","","","","","","","","","","","","","","","","","","","","","","","","","","","","","",""
"3466","","","{""Q0"":"""",""Q1"":"""",""Q2"":"""",""Q3"":"""",""Q4"":"""",""Q5"":"""",""Q6"":""I agree""}","survey-multi-choice","2","205659","0.0-2.0","40","1","2025-07-02 10:18:43","80fe4187154257d5fb01684ea91b68b9","90.246.71.246","Mozilla/5.0 (Windows NT 10.0; Win64; x64) AppleWebKit/537.36 (KHTML, like Gecko) Chrome/138.0.0.0 Safari/537.36","WebKit","Chrome","138.0.0.0","Windows","10.0","https://app.prolific.com/","en-GB,en-US;q=0.9,en;q=0.8","5c9d88bb2b3c77001744ec1c","683db6dfa200031b80f2a654","68650776e3a3a3e5ac4c887d","5c9d88bb2b3c77001744ec1c","","","[0,1,2,3,4,5,6]","true","","","","","","","","","","","","","","","","","","","","","","","","","","","","","","","","","","","","","","","","",""
"56992","","","","fullscreen","3","263662","0.0-4.0","40","1","2025-07-02 10:18:43","80fe4187154257d5fb01684ea91b68b9","90.246.71.246","Mozilla/5.0 (Windows NT 10.0; Win64; x64) AppleWebKit/537.36 (KHTML, like Gecko) Chrome/138.0.0.0 Safari/537.36","WebKit","Chrome","138.0.0.0","Windows","10.0","https://app.prolific.com/","en-GB,en-US;q=0.9,en;q=0.8","5c9d88bb2b3c77001744ec1c","683db6dfa200031b80f2a654","68650776e3a3a3e5ac4c887d","5c9d88bb2b3c77001744ec1c","","","","","true","","","","","","","","","","","","","","","","","","","","","","","","","","","","","","","","","","","","","","","",""
"7033","1751451794710"," <p style='font-size:1.1em;line-height:1.25'>Thank you for completing the consent form and closing all other tabs.</p><p style='font-size:1.1em;line-height:1.25'>We will now invite you to fill in some demographic information and questionnaires, before starting the game.<br>This will take about 5 minutes.<br></p><p style='font-size:1.1em;line-height:1.25'>Press the <strong>Next</strong> button to continue.</p>","0","custom-html-button-response","4","270698","0.0-5.0","40","1","2025-07-02 10:18:43","80fe4187154257d5fb01684ea91b68b9","90.246.71.246","Mozilla/5.0 (Windows NT 10.0; Win64; x64) AppleWebKit/537.36 (KHTML, like Gecko) Chrome/138.0.0.0 Safari/537.36","WebKit","Chrome","138.0.0.0","Windows","10.0","https://app.prolific.com/","en-GB,en-US;q=0.9,en;q=0.8","5c9d88bb2b3c77001744ec1c","683db6dfa200031b80f2a654","68650776e3a3a3e5ac4c887d","5c9d88bb2b3c77001744ec1c","2025-07-02T10:23:14.712Z","","","","","","","","","","","","","","","","","","","","","","","","","","","","","","","","","","","","","","","","","","","",""
"3859","","","{""age"":""39""}","survey-text","5","274563","0.0-6.0-0.0","40","1","2025-07-02 10:18:43","80fe4187154257d5fb01684ea91b68b9","90.246.71.246","Mozilla/5.0 (Windows NT 10.0; Win64; x64) AppleWebKit/537.36 (KHTML, like Gecko) Chrome/138.0.0.0 Safari/537.36","WebKit","Chrome","138.0.0.0","Windows","10.0","https://app.prolific.com/","en-GB,en-US;q=0.9,en;q=0.8","5c9d88bb2b3c77001744ec1c","683db6dfa200031b80f2a654","68650776e3a3a3e5ac4c887d","5c9d88bb2b3c77001744ec1c","","","","","","0","demographics","","","","","","","","","","","","","","","","","","","","","","","","","","","","","","","","","","","","","",""
"7132","","","{""gender_identity"":""male/man""}","survey-multi-choice","6","281699","0.0-6.0-1.0","40","1","2025-07-02 10:18:43","80fe4187154257d5fb01684ea91b68b9","90.246.71.246","Mozilla/5.0 (Windows NT 10.0; Win64; x64) AppleWebKit/537.36 (KHTML, like Gecko) Chrome/138.0.0.0 Safari/537.36","WebKit","Chrome","138.0.0.0","Windows","10.0","https://app.prolific.com/","en-GB,en-US;q=0.9,en;q=0.8","5c9d88bb2b3c77001744ec1c","683db6dfa200031b80f2a654","68650776e3a3a3e5ac4c887d","5c9d88bb2b3c77001744ec1c","","","[0]","","","1","demographics","","","","","","","","","","","","","","","","","","","","","","","","","","","","","","","","","","","","","",""
"3289","","","{""assigned_sex"":""male""}","survey-multi-choice","7","284993","0.0-6.0-2.0","40","1","2025-07-02 10:18:43","80fe4187154257d5fb01684ea91b68b9","90.246.71.246","Mozilla/5.0 (Windows NT 10.0; Win64; x64) AppleWebKit/537.36 (KHTML, like Gecko) Chrome/138.0.0.0 Safari/537.36","WebKit","Chrome","138.0.0.0","Windows","10.0","https://app.prolific.com/","en-GB,en-US;q=0.9,en;q=0.8","5c9d88bb2b3c77001744ec1c","683db6dfa200031b80f2a654","68650776e3a3a3e5ac4c887d","5c9d88bb2b3c77001744ec1c","","","[0]","","","2","demographics","","","","","","","","","","","","","","","","","","","","","","","","","","","","","","","","","","","","","",""
"2365","","","{""menstrual_cycle"":""No""}","survey-multi-choice","8","287361","0.0-6.0-3.0","40","1","2025-07-02 10:18:43","80fe4187154257d5fb01684ea91b68b9","90.246.71.246","Mozilla/5.0 (Windows NT 10.0; Win64; x64) AppleWebKit/537.36 (KHTML, like Gecko) Chrome/138.0.0.0 Safari/537.36","WebKit","Chrome","138.0.0.0","Windows","10.0","https://app.prolific.com/","en-GB,en-US;q=0.9,en;q=0.8","5c9d88bb2b3c77001744ec1c","683db6dfa200031b80f2a654","68650776e3a3a3e5ac4c887d","5c9d88bb2b3c77001744ec1c","","","[0]","","","4","demographics","","","","","","","","","","","","","","","","","","","","","","","","","","","","","","","","","","","","","",""
"2655","","","{""education"":""Bachelor's Degree (e.g., BA)""}","survey-multi-choice","9","290017","0.0-6.0-4.0","40","1","2025-07-02 10:18:43","80fe4187154257d5fb01684ea91b68b9","90.246.71.246","Mozilla/5.0 (Windows NT 10.0; Win64; x64) AppleWebKit/537.36 (KHTML, like Gecko) Chrome/138.0.0.0 Safari/537.36","WebKit","Chrome","138.0.0.0","Windows","10.0","https://app.prolific.com/","en-GB,en-US;q=0.9,en;q=0.8","5c9d88bb2b3c77001744ec1c","683db6dfa200031b80f2a654","68650776e3a3a3e5ac4c887d","5c9d88bb2b3c77001744ec1c","","","[0]","","","5","demographics","","","","","","","","","","","","","","","","","","","","","","","","","","","","","","","","","","","","","",""
"3047","","","{""education"":""Bachelor's Degree (e.g., BA)""}","survey-multi-choice","10","293069","0.0-6.0-5.0","40","1","2025-07-02 10:18:43","80fe4187154257d5fb01684ea91b68b9","90.246.71.246","Mozilla/5.0 (Windows NT 10.0; Win64; x64) AppleWebKit/537.36 (KHTML, like Gecko) Chrome/138.0.0.0 Safari/537.36","WebKit","Chrome","138.0.0.0","Windows","10.0","https://app.prolific.com/","en-GB,en-US;q=0.9,en;q=0.8","5c9d88bb2b3c77001744ec1c","683db6dfa200031b80f2a654","68650776e3a3a3e5ac4c887d","5c9d88bb2b3c77001744ec1c","2025-07-02T10:23:37.082Z","","[0]","","","6","demographics","","","","","","","","","","","","","","","","","","","","","","","","","","","","","","","","","","","","","",""
"19886","","","{""mental_health_condition"":""n/a"",""mental_health_treatment"":""n/a"",""psychiatric_medication"":""n/a""}","survey-text","11","312964","0.0-7.0-0.0","40","1","2025-07-02 10:18:43","80fe4187154257d5fb01684ea91b68b9","90.246.71.246","Mozilla/5.0 (Windows NT 10.0; Win64; x64) AppleWebKit/537.36 (KHTML, like Gecko) Chrome/138.0.0.0 Safari/537.36","WebKit","Chrome","138.0.0.0","Windows","10.0","https://app.prolific.com/","en-GB,en-US;q=0.9,en;q=0.8","5c9d88bb2b3c77001744ec1c","683db6dfa200031b80f2a654","68650776e3a3a3e5ac4c887d","5c9d88bb2b3c77001744ec1c","2025-07-02T10:23:56.978Z","","","","","1","mental_health","","","","","","","","","","","","","","","","","","","","","","","","","","","","","","","","","","","","","",""
"6534","","","{""depression_history"":[""No""]}","survey-multi-select","12","319507","0.0-7.0-1.0","40","1","2025-07-02 10:18:43","80fe4187154257d5fb01684ea91b68b9","90.246.71.246","Mozilla/5.0 (Windows NT 10.0; Win64; x64) AppleWebKit/537.36 (KHTML, like Gecko) Chrome/138.0.0.0 Safari/537.36","WebKit","Chrome","138.0.0.0","Windows","10.0","https://app.prolific.com/","en-GB,en-US;q=0.9,en;q=0.8","5c9d88bb2b3c77001744ec1c","683db6dfa200031b80f2a654","68650776e3a3a3e5ac4c887d","5c9d88bb2b3c77001744ec1c","","","[0]","","","","mental_health","","","","","","","","","","","","","","","","","","","","","","","","","","","","","","","","","","","","","",""
"85877.29999999702","","","","survey-template","13","405402","0.0-7.0-3.0","40","1","2025-07-02 10:18:43","80fe4187154257d5fb01684ea91b68b9","90.246.71.246","Mozilla/5.0 (Windows NT 10.0; Win64; x64) AppleWebKit/537.36 (KHTML, like Gecko) Chrome/138.0.0.0 Safari/537.36","WebKit","Chrome","138.0.0.0","Windows","10.0","https://app.prolific.com/","en-GB,en-US;q=0.9,en;q=0.8","5c9d88bb2b3c77001744ec1c","683db6dfa200031b80f2a654","68650776e3a3a3e5ac4c887d","5c9d88bb2b3c77001744ec1c","2025-07-02T10:25:29.416Z","","","","","","ius","{""Q01"":""2"",""Q02"":""2"",""Q03"":""1"",""Q04"":""2"",""Q05"":""2"",""Q06"":""1"",""Q07"":""2"",""Q08"":""0"",""Q09"":""3"",""Q10"":""1"",""Q11"":""1"",""Q12"":""2"",""Q13"":""1""}","[0,1,2,3,4,5,6,7,8,9,10,11,12]","[""Q01"",""Q02"",""Q03"",""Q04"",""Q05"",""Q06"",""Q07"",""Q08"",""Q09"",""Q10"",""Q11"",""Q12"",""Q12"",""Q13""]","[8953.90000000596,9553.59999999404,15271.70000000298,20714.70000000298,25097.29999999702,36106.79999999702,40401.79999999702,44725.70000000298,63129.40000000596,74108.59999999404,78012.09999999404,82743,83034.09999999404,84411.5]","[]","[6855.9000000059605,7519.70000000298,8558.29999999702,8953.90000000596,9553.59999999404,11472.5,12249.79999999702,12985.20000000298,14144,14568.70000000298,15271.70000000298,18807.79999999702,20714.70000000298,21694.09999999404,23144.79999999702,24166.79999999702,25097.29999999702,26444.79999999702,27915.29999999702,29056,29367.20000000298,31748.20000000298,32805.79999999702,34714.20000000298,35432.90000000596,36106.79999999702,37469,38161.20000000298,39890.20000000298,40401.79999999702,44725.70000000298,63129.40000000596,74108.59999999404,78012.09999999404,80851.59999999404,81217.29999999702,81794.79999999702,82743,83034.09999999404,84411.5,85461,85870.5]","0.46153846153846156","0.5","0","","","","","","","","","","","","","","","","","","","","","","","","","","","","",""
"2165","1751451931584","<p style='font-size:1.1em;line-height:1.25'>In the following, we will ask you a few questions relating to your experiences over the past month.<br></p><p style='font-size:1.1em;line-height:1.25'>Press the <strong>Next</strong> button to continue.</p>","0","custom-html-button-response","14","407573","0.0-7.0-4.0","40","1","2025-07-02 10:18:43","80fe4187154257d5fb01684ea91b68b9","90.246.71.246","Mozilla/5.0 (Windows NT 10.0; Win64; x64) AppleWebKit/537.36 (KHTML, like Gecko) Chrome/138.0.0.0 Safari/537.36","WebKit","Chrome","138.0.0.0","Windows","10.0","https://app.prolific.com/","en-GB,en-US;q=0.9,en;q=0.8","5c9d88bb2b3c77001744ec1c","683db6dfa200031b80f2a654","68650776e3a3a3e5ac4c887d","5c9d88bb2b3c77001744ec1c","2025-07-02T10:25:31.587Z","","","","","","","","","","","","","","","","","","","","","","","","","","","","","","","","","","","","","","","","","","","",""
"50155.70000000298","","","","survey-template","15","457740","0.0-7.0-5.0","40","1","2025-07-02 10:18:43","80fe4187154257d5fb01684ea91b68b9","90.246.71.246","Mozilla/5.0 (Windows NT 10.0; Win64; x64) AppleWebKit/537.36 (KHTML, like Gecko) Chrome/138.0.0.0 Safari/537.36","WebKit","Chrome","138.0.0.0","Windows","10.0","https://app.prolific.com/","en-GB,en-US;q=0.9,en;q=0.8","5c9d88bb2b3c77001744ec1c","683db6dfa200031b80f2a654","68650776e3a3a3e5ac4c887d","5c9d88bb2b3c77001744ec1c","2025-07-02T10:26:21.753Z","","","","","","pss","{""Q01"":""1"",""Q02"":""1"",""Q03"":""1"",""Q04"":""1"",""Q05"":""1"",""Q06"":""1"",""Q07"":""1"",""Q08"":""1"",""Q09"":""2"",""Q10"":""0""}","[0,1,2,3,4,5,6,7,8,9]","[""Q01"",""Q02"",""Q03"",""Q04"",""Q05"",""Q06"",""Q07"",""Q08"",""Q09"",""Q10"",""Q10""]","[7477.600000008941,9047.5,11374.29999999702,14201.5,17954,22247.40000000596,29528.60000000894,31812.10000000894,43644.29999999702,46539.70000000298,49002.10000000894]","[]","[0,6151.29999999702,7477.600000008941,9047.5,10829,11374.29999999702,14201.5,17954,21094.10000000894,21497.90000000596,21756.5,22247.40000000596,28141.20000000298,28742.79999999702,29528.60000000894,31018.90000000596,31812.10000000894,43644.29999999702,46101.10000000894,46539.70000000298,48370.90000000596,49002.10000000894,50150.5]","0.4","0.1111111111111111","0","","","","","","","","","","","","","","","","","","","","","","","","","","","","",""
"2101","1751451983857","<p style='font-size:1.1em;line-height:1.25'>Thank you for your answers! Now we will ask you a few more questions relating to your feelings in the last 24 hours.<br></p><p style='font-size:1.1em;line-height:1.25'>Press the <strong>Next</strong> button to continue.</p>","0","custom-html-button-response","16","459845","0.0-7.0-6.0","40","1","2025-07-02 10:18:43","80fe4187154257d5fb01684ea91b68b9","90.246.71.246","Mozilla/5.0 (Windows NT 10.0; Win64; x64) AppleWebKit/537.36 (KHTML, like Gecko) Chrome/138.0.0.0 Safari/537.36","WebKit","Chrome","138.0.0.0","Windows","10.0","https://app.prolific.com/","en-GB,en-US;q=0.9,en;q=0.8","5c9d88bb2b3c77001744ec1c","683db6dfa200031b80f2a654","68650776e3a3a3e5ac4c887d","5c9d88bb2b3c77001744ec1c","2025-07-02T10:26:23.858Z","","","","","","","","","","","","","","","","","","","","","","","","","","","","","","","","","","","","","","","","","","","",""
"102310.5","","","","survey-template","17","562169","0.0-7.0-7.0","40","1","2025-07-02 10:18:43","80fe4187154257d5fb01684ea91b68b9","90.246.71.246","Mozilla/5.0 (Windows NT 10.0; Win64; x64) AppleWebKit/537.36 (KHTML, like Gecko) Chrome/138.0.0.0 Safari/537.36","WebKit","Chrome","138.0.0.0","Windows","10.0","https://app.prolific.com/","en-GB,en-US;q=0.9,en;q=0.8","5c9d88bb2b3c77001744ec1c","683db6dfa200031b80f2a654","68650776e3a3a3e5ac4c887d","5c9d88bb2b3c77001744ec1c","2025-07-02T10:28:06.183Z","","","","","","drsp","{""Q01"":""0"",""Q02"":""0"",""Q03"":""0"",""Q04"":""0"",""Q05"":""1"",""Q06"":""0"",""Q07"":""2"",""Q08"":""0"",""Q09"":""0"",""Q10"":""0"",""Q11"":""1"",""Q12"":""0"",""Q13"":""2"",""Q14"":""0"",""Q15"":""3"",""Q16"":""0"",""Q17"":""0"",""Q18"":""0"",""Q19"":""0"",""Q20"":""0"",""Q21"":""0""}","[0,1,2,3,4,5,6,7,8,9,10,11,12,13,14,15,16,17,18,19,20]","[""Q01"",""Q03"",""Q02"",""Q05"",""Q04"",""Q06"",""Q07"",""Q07"",""Q08"",""Q09"",""Q10"",""Q11"",""Q12"",""Q13"",""Q13"",""Q14"",""Q15"",""Q16"",""Q17"",""Q19"",""Q20"",""Q21"",""Q18""]","[5587.5,8145.0999999940395,8847.5,13288.5,17184.59999999404,17947.39999999106,42120.19999998808,42399,43982.29999999702,46828.39999999106,49000.09999999404,53880,55923.89999999106,58246.29999999702,59722.19999998808,66698.89999999106,68126.29999999702,71292.5,72241,74958.19999998808,80250.09999999404,83838.5,99337.79999999702]","[]","[0.09999999403953552,2793.5999999940395,3370.7999999970198,3926.699999988079,4809.79999999702,5587.5,7055.29999999702,8145.0999999940395,8847.5,11612.89999999106,12278.39999999106,13288.5,14619,17184.59999999404,17947.39999999106,40745.09999999404,41533.39999999106,42120.19999998808,42399,43279.5,43982.29999999702,45236.29999999702,45930.5,46283.5,46564.59999999404,46828.39999999106,49000.09999999404,49812.19999998808,50338.29999999702,50929.79999999702,51330.39999999106,51578.39999999106,52892.5,53880,55923.89999999106,58246.29999999702,59722.19999998808,66089.69999998808,66698.89999999106,68126.29999999702,71292.5,72241,73812.29999999702,74958.19999998808,75672.29999999702,79625.59999999404,80250.09999999404,82217.09999999404,83549.59999999404,83838.5,84817.5,98827.69999998808,99337.79999999702,102308.19999998808]","0.7619047619047619","0.2","0","","","","","","","","","","","","","","","","","","","","","","","","","","","","",""
"19136.10000000894","","","","survey-template","18","581309","0.0-7.0-8.0","40","1","2025-07-02 10:18:43","80fe4187154257d5fb01684ea91b68b9","90.246.71.246","Mozilla/5.0 (Windows NT 10.0; Win64; x64) AppleWebKit/537.36 (KHTML, like Gecko) Chrome/138.0.0.0 Safari/537.36","WebKit","Chrome","138.0.0.0","Windows","10.0","https://app.prolific.com/","en-GB,en-US;q=0.9,en;q=0.8","5c9d88bb2b3c77001744ec1c","683db6dfa200031b80f2a654","68650776e3a3a3e5ac4c887d","5c9d88bb2b3c77001744ec1c","2025-07-02T10:28:25.323Z","","","","","","stress","{""Q01"":""0"",""Q02"":""2"",""Q03"":""0""}","[0,1,2]","[""Q02"",""Q03"",""Q01""]","[11710.5,16136.5,17112.10000000894]","[]","[11053,11710.5,13630.5,14744.20000000298,15225.70000000298,15743.79999999702,16136.5,16649.60000000894,17112.10000000894,18532.20000000298,19133.79999999702]","0.6666666666666666","0","0","","","","","","","","","","","","","","","","","","","","","","","","","","","","",""
"42061","","","","instructions","19","623376","0.0-8.0-0.0","40","1","2025-07-02 10:18:43","80fe4187154257d5fb01684ea91b68b9","90.246.71.246","Mozilla/5.0 (Windows NT 10.0; Win64; x64) AppleWebKit/537.36 (KHTML, like Gecko) Chrome/138.0.0.0 Safari/537.36","WebKit","Chrome","138.0.0.0","Windows","10.0","https://app.prolific.com/","en-GB,en-US;q=0.9,en;q=0.8","5c9d88bb2b3c77001744ec1c","683db6dfa200031b80f2a654","68650776e3a3a3e5ac4c887d","5c9d88bb2b3c77001744ec1c","","[{""page_index"":0,""viewing_time"":15087},{""page_index"":1,""viewing_time"":12261},{""page_index"":2,""viewing_time"":3121},{""page_index"":3,""viewing_time"":11592}]","","","","","","","","","","","","","","","","","","","","","","","","","","","","","","","","","","","","","","","","","","",""
"","","","","ctl-task-cpt","20","642804","0.0-8.0-1.0","40","1","2025-07-02 10:18:43","80fe4187154257d5fb01684ea91b68b9","90.246.71.246","Mozilla/5.0 (Windows NT 10.0; Win64; x64) AppleWebKit/537.36 (KHTML, like Gecko) Chrome/138.0.0.0 Safari/537.36","WebKit","Chrome","138.0.0.0","Windows","10.0","https://app.prolific.com/","en-GB,en-US;q=0.9,en;q=0.8","5c9d88bb2b3c77001744ec1c","683db6dfa200031b80f2a654","68650776e3a3a3e5ac4c887d","5c9d88bb2b3c77001744ec1c","","","","","","","","","","","","","","","","","win-only","3","g1:SW,g2:NE","1","0","1","624712.2","2183.5","6189.9","16413.4","2","4","4","6","1","2","0","0","0","0","3262.3","4000","3300","[""down"",""left""]","{""num_key_presses"":4,""num_perfect"":2,""num_errors"":2,""num_randdir"":0,""num_randdir_good_moves"":0,""num_whilered"":0,""num_whileblue"":2,""num_blue"":2,""num_good_moves"":4}","[417.57142857142856,419.47767857142856,1,417.57142857142856,419.47767857142856,124.8,469.57142857142856,685.4776785714286,228.3,469.57142857142856,713.4776785714286,333.3,476.57142857142856,716.4776785714286,433.5,479.57142857142856,716.4776785714286,538.4,483.57142857142856,678.4776785714286,646.1,424.57142857142856,601.4776785714286,748.9,417.57142857142856,591.4776785714286,853.4,382.57142857142856,591.4776785714286,959.5,361.57142857142856,591.4776785714286,1064.1,347.57142857142856,597.4776785714286,1168.6,347.57142857142856,597.4776785714286,1275.2,347.57142857142856,597.4776785714286,1380,347.57142857142856,597.4776785714286,1482.8,347.57142857142856,597.4776785714286,1583.2,347.57142857142856,597.4776785714286,1683.4,343.57142857142856,601.4776785714286,1789.6,343.57142857142856,601.4776785714286,1896,343.57142857142856,601.4776785714286,1998.5,263.57142857142856,660.4776785714286,2099.1,172.57142857142856,734.4776785714286,2202.6,158.57142857142856,744.4776785714286,2302.9,210.57142857142856,724.4776785714286,2403.3,371.57142857142856,559.4776785714286,2508,214.57142857142856,674.4776785714286,2610.8,214.57142857142856,674.4776785714286,2712.7,214.57142857142856,674.4776785714286,2812.7,172.57142857142856,720.4776785714286,2912.8,137.57142857142856,776.4776785714286,3014.8,123.57142857142857,790.4776785714286,3115.2,109.57142857142857,797.4776785714286,3218.5,105.57142857142857,787.4776785714286,3318.5,108.57142857142857,787.4776785714286,3426.7,336.57142857142856,787.4776785714286,3529.2,336.57142857142856,787.4776785714286,3635.1,336.57142857142856,787.4776785714286,3741.1,336.57142857142856,787.4776785714286,3842.1,732.5714285714286,930.4776785714286,3943.1]","[1592.9,1592.8,1004.4,0.1,588.4,""while_blue"",""down"",""down"",""good_move"",4163.4,2569.1,2076.8,1594.3,492.3,""smooth"",""down"",""down"",""good_move"",7344.6,3179.9,2832.1,4164.7,347.8,""while_blue"",""left"",""left"",""good_move"",10099.6,2753.7,2337.2,7345.9,416.6,""smooth"",""left"",""left"",""good_move""]","",""
"6233","","","","instructions","21","649040","0.0-8.0-2.0","40","1","2025-07-02 10:18:43","80fe4187154257d5fb01684ea91b68b9","90.246.71.246","Mozilla/5.0 (Windows NT 10.0; Win64; x64) AppleWebKit/537.36 (KHTML, like Gecko) Chrome/138.0.0.0 Safari/537.36","WebKit","Chrome","138.0.0.0","Windows","10.0","https://app.prolific.com/","en-GB,en-US;q=0.9,en;q=0.8","5c9d88bb2b3c77001744ec1c","683db6dfa200031b80f2a654","68650776e3a3a3e5ac4c887d","5c9d88bb2b3c77001744ec1c","","[{""page_index"":0,""viewing_time"":6232}]","","","","","","","","","","","","","","","","","","","","","","","","","","","","","","","","","","","","","","","","","","",""
"","","","","ctl-task-cpt","22","677863","0.0-8.0-3.0","40","1","2025-07-02 10:18:43","80fe4187154257d5fb01684ea91b68b9","90.246.71.246","Mozilla/5.0 (Windows NT 10.0; Win64; x64) AppleWebKit/537.36 (KHTML, like Gecko) Chrome/138.0.0.0 Safari/537.36","WebKit","Chrome","138.0.0.0","Windows","10.0","https://app.prolific.com/","en-GB,en-US;q=0.9,en;q=0.8","5c9d88bb2b3c77001744ec1c","683db6dfa200031b80f2a654","68650776e3a3a3e5ac4c887d","5c9d88bb2b3c77001744ec1c","","","","","","","","","","","","","","","","","win-only","3","g1:SW,g2:NE","0.35","0","3","650368.6","2742.7","6747.4","25816.6","2","4","8","6","1","2","2","2","0","0.015151515151515152","2743.6","4000","1660","[""down"",""left""]","{""num_key_presses"":4,""num_perfect"":3,""num_errors"":0,""num_randdir"":1,""num_randdir_good_moves"":1,""num_whilered"":0,""num_whileblue"":0,""num_blue"":2,""num_good_moves"":4}","[416.57142857142856,416.47767857142856,0.4,416.57142857142856,416.47767857142856,101.7,416.57142857142856,416.47767857142856,202.7,553.5714285714286,632.4776785714286,303.8,696.5714285714286,793.4776785714286,408.4,696.5714285714286,793.4776785714286,509.1,696.5714285714286,793.4776785714286,618.1,696.5714285714286,793.4776785714286,718.2,696.5714285714286,793.4776785714286,819.2,696.5714285714286,793.4776785714286,922.6,696.5714285714286,793.4776785714286,1023.4,696.5714285714286,793.4776785714286,1123.7,696.5714285714286,793.4776785714286,1228.8,696.5714285714286,793.4776785714286,1335.6,696.5714285714286,793.4776785714286,1436.8,696.5714285714286,793.4776785714286,1538,749.5714285714286,706.4776785714286,1638.2,749.5714285714286,262.47767857142856,1738.3,749.5714285714286,255.47767857142856,1838.3,749.5714285714286,241.47767857142856,1942.9,721.5714285714286,118.47767857142857,2043.3,550.5714285714286,223.47767857142856,2155.6,112.57142857142857,653.4776785714286,2258.8,-6.428571428571431,709.4776785714286,2359.2,-34.42857142857143,710.4776785714286,2463.7,56.57142857142857,727.4776785714286,2569.1,56.57142857142857,727.4776785714286,2671.4,56.57142857142857,730.4776785714286,2772.9,56.57142857142857,730.4776785714286,2873.5,168.57142857142856,765.4776785714286,2973.8,661.5714285714286,849.4776785714286,3078.7,661.5714285714286,849.4776785714286,3187.5,661.5714285714286,849.4776785714286,3287.9,661.5714285714286,849.4776785714286,3388,661.5714285714286,849.4776785714286,3492.8,661.5714285714286,849.4776785714286,3593.9,661.5714285714286,849.4776785714286,3698,661.5714285714286,849.4776785714286,3799.2,661.5714285714286,849.4776785714286,3904.8]","[5158.1,5158.1,2561.2,2002.2,594.7,""oops"",""down"",""left"",""good_move"",7989.7,2831.3,2113.8,5158.4,717.6,""smooth"",""down"",""down"",""good_move"",15684.3,7694.3,2982.1,12053.9,648.3,""smooth"",""down"",""down"",""good_move"",18974.9,3290.4,2640.6,15684.6,649.7,""smooth"",""left"",""left"",""good_move""]","",""
"30219","","","","instructions","23","708083","0.0-8.0-4.0","40","1","2025-07-02 10:18:43","80fe4187154257d5fb01684ea91b68b9","90.246.71.246","Mozilla/5.0 (Windows NT 10.0; Win64; x64) AppleWebKit/537.36 (KHTML, like Gecko) Chrome/138.0.0.0 Safari/537.36","WebKit","Chrome","138.0.0.0","Windows","10.0","https://app.prolific.com/","en-GB,en-US;q=0.9,en;q=0.8","5c9d88bb2b3c77001744ec1c","683db6dfa200031b80f2a654","68650776e3a3a3e5ac4c887d","5c9d88bb2b3c77001744ec1c","","[{""page_index"":0,""viewing_time"":16924},{""page_index"":1,""viewing_time"":13295}]","","","","","","","","","","","","","","","","","","","","","","","","","","","","","","","","","","","","","","","","","","",""
"7427","","","{""green_ball"":[""Ball always moves in the direction I press""]}","survey-multi-select","24","715515","0.0-8.0-5.0-0.0","40","1","2025-07-02 10:18:43","80fe4187154257d5fb01684ea91b68b9","90.246.71.246","Mozilla/5.0 (Windows NT 10.0; Win64; x64) AppleWebKit/537.36 (KHTML, like Gecko) Chrome/138.0.0.0 Safari/537.36","WebKit","Chrome","138.0.0.0","Windows","10.0","https://app.prolific.com/","en-GB,en-US;q=0.9,en;q=0.8","5c9d88bb2b3c77001744ec1c","683db6dfa200031b80f2a654","68650776e3a3a3e5ac4c887d","5c9d88bb2b3c77001744ec1c","","","[0]","","","","quiz","","","","","","","","","","","","","","","","","","","","","","","","","","","","","","","","","","","","","false",""
"2370","","<p align='center'><b>INCORRECT.</b> Usually the green ball moves in the indicated direction, but sometimes it shakes and moves randomly. </p>","0","html-button-response","25","717888","0.0-8.0-5.0-1.0","40","1","2025-07-02 10:18:43","80fe4187154257d5fb01684ea91b68b9","90.246.71.246","Mozilla/5.0 (Windows NT 10.0; Win64; x64) AppleWebKit/537.36 (KHTML, like Gecko) Chrome/138.0.0.0 Safari/537.36","WebKit","Chrome","138.0.0.0","Windows","10.0","https://app.prolific.com/","en-GB,en-US;q=0.9,en;q=0.8","5c9d88bb2b3c77001744ec1c","683db6dfa200031b80f2a654","68650776e3a3a3e5ac4c887d","5c9d88bb2b3c77001744ec1c","","","","","","","","","","","","","","","","","","","","","","","","","","","","","","","","","","","","","","","","","","","","",""
"5724","","","{""green_ball"":[""Ball sometimes shakes and moves in a random direction""]}","survey-multi-select","26","723617","0.0-8.0-5.1-0.1","40","1","2025-07-02 10:18:43","80fe4187154257d5fb01684ea91b68b9","90.246.71.246","Mozilla/5.0 (Windows NT 10.0; Win64; x64) AppleWebKit/537.36 (KHTML, like Gecko) Chrome/138.0.0.0 Safari/537.36","WebKit","Chrome","138.0.0.0","Windows","10.0","https://app.prolific.com/","en-GB,en-US;q=0.9,en;q=0.8","5c9d88bb2b3c77001744ec1c","683db6dfa200031b80f2a654","68650776e3a3a3e5ac4c887d","5c9d88bb2b3c77001744ec1c","","","[0]","","","","quiz","","","","","","","","","","","","","","","","","","","","","","","","","","","","","","","","","","","","","true",""
"1088","","<p align='center'><b>CORRECT!</b> Indeed, the green ball may sometimes shake and move in a random direction.</p>","0","html-button-response","27","724707","0.0-8.0-5.1-1.1","40","1","2025-07-02 10:18:43","80fe4187154257d5fb01684ea91b68b9","90.246.71.246","Mozilla/5.0 (Windows NT 10.0; Win64; x64) AppleWebKit/537.36 (KHTML, like Gecko) Chrome/138.0.0.0 Safari/537.36","WebKit","Chrome","138.0.0.0","Windows","10.0","https://app.prolific.com/","en-GB,en-US;q=0.9,en;q=0.8","5c9d88bb2b3c77001744ec1c","683db6dfa200031b80f2a654","68650776e3a3a3e5ac4c887d","5c9d88bb2b3c77001744ec1c","","","","","","","","","","","","","","","","","","","","","","","","","","","","","","","","","","","","","","","","","","","","",""
"3807","","","{""yellow_ball"":[""Ball always shakes and moves in a random direction""]}","survey-multi-select","28","728517","0.0-8.0-6.0-0.0","40","1","2025-07-02 10:18:43","80fe4187154257d5fb01684ea91b68b9","90.246.71.246","Mozilla/5.0 (Windows NT 10.0; Win64; x64) AppleWebKit/537.36 (KHTML, like Gecko) Chrome/138.0.0.0 Safari/537.36","WebKit","Chrome","138.0.0.0","Windows","10.0","https://app.prolific.com/","en-GB,en-US;q=0.9,en;q=0.8","5c9d88bb2b3c77001744ec1c","683db6dfa200031b80f2a654","68650776e3a3a3e5ac4c887d","5c9d88bb2b3c77001744ec1c","","","[0]","","","","quiz","","","","","","","","","","","","","","","","","","","","","","","","","","","","","","","","","","","","","false",""
"4782","","<p align='center'><b>INCORRECT.</b> The yellow ball never moves and you reveice a penalty if you press anyways. </p>","0","html-button-response","29","733301","0.0-8.0-6.0-1.0","40","1","2025-07-02 10:18:43","80fe4187154257d5fb01684ea91b68b9","90.246.71.246","Mozilla/5.0 (Windows NT 10.0; Win64; x64) AppleWebKit/537.36 (KHTML, like Gecko) Chrome/138.0.0.0 Safari/537.36","WebKit","Chrome","138.0.0.0","Windows","10.0","https://app.prolific.com/","en-GB,en-US;q=0.9,en;q=0.8","5c9d88bb2b3c77001744ec1c","683db6dfa200031b80f2a654","68650776e3a3a3e5ac4c887d","5c9d88bb2b3c77001744ec1c","","","","","","","","","","","","","","","","","","","","","","","","","","","","","","","","","","","","","","","","","","","","",""
"6393","","","{""yellow_ball"":[""Ball doesn‘t move and I get -1 penalty point""]}","survey-multi-select","30","739698","0.0-8.0-6.1-0.1","40","1","2025-07-02 10:18:43","80fe4187154257d5fb01684ea91b68b9","90.246.71.246","Mozilla/5.0 (Windows NT 10.0; Win64; x64) AppleWebKit/537.36 (KHTML, like Gecko) Chrome/138.0.0.0 Safari/537.36","WebKit","Chrome","138.0.0.0","Windows","10.0","https://app.prolific.com/","en-GB,en-US;q=0.9,en;q=0.8","5c9d88bb2b3c77001744ec1c","683db6dfa200031b80f2a654","68650776e3a3a3e5ac4c887d","5c9d88bb2b3c77001744ec1c","","","[0]","","","","quiz","","","","","","","","","","","","","","","","","","","","","","","","","","","","","","","","","","","","","true",""
"913","","<p align='center'><b>CORRECT!</b> Indeed, the yellow ball never moves and you receive a penalty.</p>","0","html-button-response","31","740614","0.0-8.0-6.1-1.1","40","1","2025-07-02 10:18:43","80fe4187154257d5fb01684ea91b68b9","90.246.71.246","Mozilla/5.0 (Windows NT 10.0; Win64; x64) AppleWebKit/537.36 (KHTML, like Gecko) Chrome/138.0.0.0 Safari/537.36","WebKit","Chrome","138.0.0.0","Windows","10.0","https://app.prolific.com/","en-GB,en-US;q=0.9,en;q=0.8","5c9d88bb2b3c77001744ec1c","683db6dfa200031b80f2a654","68650776e3a3a3e5ac4c887d","5c9d88bb2b3c77001744ec1c","","","","","","","","","","","","","","","","","","","","","","","","","","","","","","","","","","","","","","","","","","","","",""
"7236","","","{""blue_ball"":[""Ball always shakes and moves in a random direction""]}","survey-multi-select","32","747852","0.0-8.0-7.0-0.0","40","1","2025-07-02 10:18:43","80fe4187154257d5fb01684ea91b68b9","90.246.71.246","Mozilla/5.0 (Windows NT 10.0; Win64; x64) AppleWebKit/537.36 (KHTML, like Gecko) Chrome/138.0.0.0 Safari/537.36","WebKit","Chrome","138.0.0.0","Windows","10.0","https://app.prolific.com/","en-GB,en-US;q=0.9,en;q=0.8","5c9d88bb2b3c77001744ec1c","683db6dfa200031b80f2a654","68650776e3a3a3e5ac4c887d","5c9d88bb2b3c77001744ec1c","","","[0]","","","","quiz","","","","","","","","","","","","","","","","","","","","","","","","","","","","","","","","","","","","","true",""
"3742","","<p align='center'><b>CORRECT!</b> Indeed, the blue ball always shakes and moves in a random direction. Also there is a penalty of -1 point.</p>","0","html-button-response","33","751596","0.0-8.0-7.0-1.0","40","1","2025-07-02 10:18:43","80fe4187154257d5fb01684ea91b68b9","90.246.71.246","Mozilla/5.0 (Windows NT 10.0; Win64; x64) AppleWebKit/537.36 (KHTML, like Gecko) Chrome/138.0.0.0 Safari/537.36","WebKit","Chrome","138.0.0.0","Windows","10.0","https://app.prolific.com/","en-GB,en-US;q=0.9,en;q=0.8","5c9d88bb2b3c77001744ec1c","683db6dfa200031b80f2a654","68650776e3a3a3e5ac4c887d","5c9d88bb2b3c77001744ec1c","","","","","","","","","","","","","","","","","","","","","","","","","","","","","","","","","","","","","","","","","","","","",""
"4312","","","{""bonus"":[""When I reach 50% of points""]}","survey-multi-select","34","755911","0.0-8.0-8.0-0.0","40","1","2025-07-02 10:18:43","80fe4187154257d5fb01684ea91b68b9","90.246.71.246","Mozilla/5.0 (Windows NT 10.0; Win64; x64) AppleWebKit/537.36 (KHTML, like Gecko) Chrome/138.0.0.0 Safari/537.36","WebKit","Chrome","138.0.0.0","Windows","10.0","https://app.prolific.com/","en-GB,en-US;q=0.9,en;q=0.8","5c9d88bb2b3c77001744ec1c","683db6dfa200031b80f2a654","68650776e3a3a3e5ac4c887d","5c9d88bb2b3c77001744ec1c","","","[0]","","","","quiz","","","","","","","","","","","","","","","","","","","","","","","","","","","","","","","","","","","","","true",""
"1479","","<p align='center'><b>CORRECT!</b> Indeed, you receive 2 pounds extra when you reach 50% of points.</p>","0","html-button-response","35","757392","0.0-8.0-8.0-1.0","40","1","2025-07-02 10:18:43","80fe4187154257d5fb01684ea91b68b9","90.246.71.246","Mozilla/5.0 (Windows NT 10.0; Win64; x64) AppleWebKit/537.36 (KHTML, like Gecko) Chrome/138.0.0.0 Safari/537.36","WebKit","Chrome","138.0.0.0","Windows","10.0","https://app.prolific.com/","en-GB,en-US;q=0.9,en;q=0.8","5c9d88bb2b3c77001744ec1c","683db6dfa200031b80f2a654","68650776e3a3a3e5ac4c887d","5c9d88bb2b3c77001744ec1c","","","","","","","","","","","","","","","","","","","","","","","","","","","","","","","","","","","","","","","","","","","","",""
"2283","","","","instructions","36","759676","0.0-8.0-9.0","40","1","2025-07-02 10:18:43","80fe4187154257d5fb01684ea91b68b9","90.246.71.246","Mozilla/5.0 (Windows NT 10.0; Win64; x64) AppleWebKit/537.36 (KHTML, like Gecko) Chrome/138.0.0.0 Safari/537.36","WebKit","Chrome","138.0.0.0","Windows","10.0","https://app.prolific.com/","en-GB,en-US;q=0.9,en;q=0.8","5c9d88bb2b3c77001744ec1c","683db6dfa200031b80f2a654","68650776e3a3a3e5ac4c887d","5c9d88bb2b3c77001744ec1c","","[{""page_index"":0,""viewing_time"":2283}]","","","","","","","","","","","","","","","","","","","","","","","","","","","","","","","","","","","","","","","","","","",""
"6210","","<p>Before you start with this game please answer the following three questions yourself. </p>
  <p>Through this game, we measure several aspects of your cognitive performance, such as reaction times, multi-tasking capabilities </p>
  <p>and the ability to assess the situation you are in.</p>
  <p></p>
  <p><b>How good do you usually are in such tasks?</b></p>","92","html-slider-response","37","765888","0.0-9.0-0.0","40","1","2025-07-02 10:18:43","80fe4187154257d5fb01684ea91b68b9","90.246.71.246","Mozilla/5.0 (Windows NT 10.0; Win64; x64) AppleWebKit/537.36 (KHTML, like Gecko) Chrome/138.0.0.0 Safari/537.36","WebKit","Chrome","138.0.0.0","Windows","10.0","https://app.prolific.com/","en-GB,en-US;q=0.9,en;q=0.8","5c9d88bb2b3c77001744ec1c","683db6dfa200031b80f2a654","68650776e3a3a3e5ac4c887d","5c9d88bb2b3c77001744ec1c","2025-07-02T10:31:29.901Z","","","","","","PreSkillQ","","","","","","","","","","","","","","","","","","","","","","","","","","","","","","","","","","","","","","50"
"8550","","<div style=""width:500px;"">
  <p>How well do you think you will perform in this task compared to other participants?</p>
  </div>","77","html-slider-response","38","774439","0.0-9.0-1.0","40","1","2025-07-02 10:18:43","80fe4187154257d5fb01684ea91b68b9","90.246.71.246","Mozilla/5.0 (Windows NT 10.0; Win64; x64) AppleWebKit/537.36 (KHTML, like Gecko) Chrome/138.0.0.0 Safari/537.36","WebKit","Chrome","138.0.0.0","Windows","10.0","https://app.prolific.com/","en-GB,en-US;q=0.9,en;q=0.8","5c9d88bb2b3c77001744ec1c","683db6dfa200031b80f2a654","68650776e3a3a3e5ac4c887d","5c9d88bb2b3c77001744ec1c","2025-07-02T10:31:38.452Z","","","","","","PrePerfQ","","","","","","","","","","","","","","","","","","","","","","","","","","","","","","","","","","","","","","50"
"4387","","<div style=""width:500px;"">
  <p>What best describes how you currently feel?</p>
  </div>","77","html-slider-response","39","778828","0.0-9.0-2.0","40","1","2025-07-02 10:18:43","80fe4187154257d5fb01684ea91b68b9","90.246.71.246","Mozilla/5.0 (Windows NT 10.0; Win64; x64) AppleWebKit/537.36 (KHTML, like Gecko) Chrome/138.0.0.0 Safari/537.36","WebKit","Chrome","138.0.0.0","Windows","10.0","https://app.prolific.com/","en-GB,en-US;q=0.9,en;q=0.8","5c9d88bb2b3c77001744ec1c","683db6dfa200031b80f2a654","68650776e3a3a3e5ac4c887d","5c9d88bb2b3c77001744ec1c","2025-07-02T10:31:42.841Z","","","","","","PreMotivationQ","","","","","","","","","","","","","","","","","","","","","","","","","","","","","","","","","","","","","","50"
"","","","","ctl-task-cpt","40","808193","0.0-10.0-0.0","40","1","2025-07-02 10:18:43","80fe4187154257d5fb01684ea91b68b9","90.246.71.246","Mozilla/5.0 (Windows NT 10.0; Win64; x64) AppleWebKit/537.36 (KHTML, like Gecko) Chrome/138.0.0.0 Safari/537.36","WebKit","Chrome","138.0.0.0","Windows","10.0","https://app.prolific.com/","en-GB,en-US;q=0.9,en;q=0.8","5c9d88bb2b3c77001744ec1c","683db6dfa200031b80f2a654","68650776e3a3a3e5ac4c887d","5c9d88bb2b3c77001744ec1c","2025-07-02T10:32:12.206Z","","","","","","","","","","","","","","","","win-only","3","g1:SW,g2:NE","1","1","0","780158.4","2564.5","7568.5","26345.8","1","4","8","6","2","8","8","8","0","0.06060606060606061","1474.4","3000","710","[""up"",""right""]","{""num_key_presses"":6,""num_perfect"":6,""num_errors"":0,""num_randdir"":0,""num_randdir_good_moves"":0,""num_whilered"":0,""num_whileblue"":0,""num_blue"":1,""num_good_moves"":6}","[410.57142857142856,423.47767857142856,0.2,410.57142857142856,423.47767857142856,101.7,399.57142857142856,461.47767857142856,202.3,399.57142857142856,461.47767857142856,302.8,399.57142857142856,461.47767857142856,404.3,455.57142857142856,517.4776785714286,506,455.57142857142856,517.4776785714286,606,455.57142857142856,517.4776785714286,706,532.5714285714286,458.47767857142856,811,658.5714285714286,290.47767857142856,911.1,672.5714285714286,262.47767857142856,1011.1,689.5714285714286,237.47767857142856,1111.1,742.5714285714286,160.47767857142856,1211.7,763.5714285714286,111.47767857142857,1313.4,763.5714285714286,111.47767857142857,1419.3,763.5714285714286,111.47767857142857,1521.6,763.5714285714286,149.47767857142856,1626.9,801.5714285714286,541.4776785714286,1727.4,822.5714285714286,636.4776785714286,1834.3,819.5714285714286,706.4776785714286,1934.4,822.5714285714286,741.4776785714286,2038.1,822.5714285714286,741.4776785714286,2142.1,822.5714285714286,741.4776785714286,2246,822.5714285714286,741.4776785714286,2350.4,822.5714285714286,741.4776785714286,2453.9,822.5714285714286,741.4776785714286,2556.3,822.5714285714286,741.4776785714286,2656.4,822.5714285714286,741.4776785714286,2760.7,822.5714285714286,741.4776785714286,2861,822.5714285714286,741.4776785714286,2962.2,822.5714285714286,741.4776785714286,3067.6,822.5714285714286,741.4776785714286,3171.8,822.5714285714286,741.4776785714286,3272.4,822.5714285714286,741.4776785714286,3376.2,822.5714285714286,741.4776785714286,3481.4,822.5714285714286,741.4776785714286,3581.8,822.5714285714286,741.4776785714286,3682.8,822.5714285714286,741.4776785714286,3786,822.5714285714286,741.4776785714286,3888.6,822.5714285714286,741.4776785714286,3991.5,822.5714285714286,741.4776785714286,4097.8,822.5714285714286,741.4776785714286,4204.8,822.5714285714286,741.4776785714286,4305.9,822.5714285714286,741.4776785714286,4406.3,822.5714285714286,741.4776785714286,4510.8,822.5714285714286,741.4776785714286,4611.6,822.5714285714286,741.4776785714286,4716.6,822.5714285714286,741.4776785714286,4821.6,822.5714285714286,741.4776785714286,4925.7]","[1445.3,1445.3,1000,0,445.3,""smooth"",""right"",""right"",""good_move"",4106.4,2660.8,2146,1445.7,514.8,""smooth"",""up"",""up"",""good_move"",7465.2,3358.3,2893.8,4106.9,464.5,""smooth"",""right"",""right"",""good_move"",9742.9,2277.3,1848,7465.6,429.3,""smooth"",""up"",""up"",""good_move"",15973.7,6230.4,2558.4,13007.5,407.8,""smooth"",""right"",""right"",""good_move"",18663.3,2689.5,2300.7,15973.9,388.8,""smooth"",""up"",""up"",""good_move""]","",""
"6549","","<div style=""width:500px;"">
  <p>What determined the result of this run?</p>
  </div>","81","html-slider-response","41","814744","0.0-10.0-1.0","40","1","2025-07-02 10:18:43","80fe4187154257d5fb01684ea91b68b9","90.246.71.246","Mozilla/5.0 (Windows NT 10.0; Win64; x64) AppleWebKit/537.36 (KHTML, like Gecko) Chrome/138.0.0.0 Safari/537.36","WebKit","Chrome","138.0.0.0","Windows","10.0","https://app.prolific.com/","en-GB,en-US;q=0.9,en;q=0.8","5c9d88bb2b3c77001744ec1c","683db6dfa200031b80f2a654","68650776e3a3a3e5ac4c887d","5c9d88bb2b3c77001744ec1c","2025-07-02T10:32:18.757Z","","","","","","AttribQ","","","","","","","","","","","","","","","","","","","","","","","","","","","","","","","","","","","","","","50"
"3958","","<div style=""width:500px;"">
  <p>How much control did you have over the ball?</p>
  </div>","100","html-slider-response","42","818703","0.0-10.0-2.0","40","1","2025-07-02 10:18:43","80fe4187154257d5fb01684ea91b68b9","90.246.71.246","Mozilla/5.0 (Windows NT 10.0; Win64; x64) AppleWebKit/537.36 (KHTML, like Gecko) Chrome/138.0.0.0 Safari/537.36","WebKit","Chrome","138.0.0.0","Windows","10.0","https://app.prolific.com/","en-GB,en-US;q=0.9,en;q=0.8","5c9d88bb2b3c77001744ec1c","683db6dfa200031b80f2a654","68650776e3a3a3e5ac4c887d","5c9d88bb2b3c77001744ec1c","2025-07-02T10:32:22.716Z","","","","","","ControlQ","","","","","","","","","","","","","","","","","","","","","","","","","","","","","","","","","","","","","","50"
"7152","","<div style=""width:500px;"">
  <p>How would you describe your current emotional state?</p>
  </div>","13","html-slider-response","43","825856","0.0-10.0-3.0","40","1","2025-07-02 10:18:43","80fe4187154257d5fb01684ea91b68b9","90.246.71.246","Mozilla/5.0 (Windows NT 10.0; Win64; x64) AppleWebKit/537.36 (KHTML, like Gecko) Chrome/138.0.0.0 Safari/537.36","WebKit","Chrome","138.0.0.0","Windows","10.0","https://app.prolific.com/","en-GB,en-US;q=0.9,en;q=0.8","5c9d88bb2b3c77001744ec1c","683db6dfa200031b80f2a654","68650776e3a3a3e5ac4c887d","5c9d88bb2b3c77001744ec1c","2025-07-02T10:32:29.870Z","","","","","","StressQ","","","","","","","","","","","","","","","","","","","","","","","","","","","","","","","","","","","","","","50"
"4221","","<div style=""width:500px;"">
  <p>What best describes how you currently feel?</p>
  </div>","73","html-slider-response","44","830079","0.0-10.0-4.0","40","1","2025-07-02 10:18:43","80fe4187154257d5fb01684ea91b68b9","90.246.71.246","Mozilla/5.0 (Windows NT 10.0; Win64; x64) AppleWebKit/537.36 (KHTML, like Gecko) Chrome/138.0.0.0 Safari/537.36","WebKit","Chrome","138.0.0.0","Windows","10.0","https://app.prolific.com/","en-GB,en-US;q=0.9,en;q=0.8","5c9d88bb2b3c77001744ec1c","683db6dfa200031b80f2a654","68650776e3a3a3e5ac4c887d","5c9d88bb2b3c77001744ec1c","2025-07-02T10:32:34.092Z","","","","","","MotivationQ","","","","","","","","","","","","","","","","","","","","","","","","","","","","","","","","","","","","","","50"
"","","","","ctl-task-cpt","45","859696","0.0-10.0-0.1","40","1","2025-07-02 10:18:43","80fe4187154257d5fb01684ea91b68b9","90.246.71.246","Mozilla/5.0 (Windows NT 10.0; Win64; x64) AppleWebKit/537.36 (KHTML, like Gecko) Chrome/138.0.0.0 Safari/537.36","WebKit","Chrome","138.0.0.0","Windows","10.0","https://app.prolific.com/","en-GB,en-US;q=0.9,en;q=0.8","5c9d88bb2b3c77001744ec1c","683db6dfa200031b80f2a654","68650776e3a3a3e5ac4c887d","5c9d88bb2b3c77001744ec1c","2025-07-02T10:33:03.709Z","","","","","","","","","","","","","","","","win-only","2","g1:SE,g2:NW","0.9","2","0","831408.8","2204.2","7207.1","26602.4","1","4","4","6","1","1","0","8","8","0.06060606060606061","1829.3","3000","475","[""down"",""right""]","{""num_key_presses"":6,""num_perfect"":4,""num_errors"":1,""num_randdir"":1,""num_randdir_good_moves"":1,""num_whilered"":0,""num_whileblue"":1,""num_blue"":2,""num_good_moves"":5}","[416.57142857142856,419.47767857142856,0.3,416.57142857142856,419.47767857142856,102.2,416.57142857142856,419.47767857142856,202.9,416.57142857142856,419.47767857142856,309.2,416.57142857142856,419.47767857142856,418.1,416.57142857142856,419.47767857142856,521.5,416.57142857142856,419.47767857142856,621.8,416.57142857142856,419.47767857142856,722.7,416.57142857142856,419.47767857142856,825.6,448.57142857142856,503.47767857142856,929.7,507.57142857142856,545.4776785714286,1032.5,549.5714285714286,583.4776785714286,1137.3,623.5714285714286,615.4776785714286,1244.5,700.5714285714286,653.4776785714286,1351.2,766.5714285714286,702.4776785714286,1451.5,770.5714285714286,706.4776785714286,1552,770.5714285714286,706.4776785714286,1656.7,770.5714285714286,706.4776785714286,1756.8,770.5714285714286,706.4776785714286,1856.8,770.5714285714286,706.4776785714286,1957.4,690.5714285714286,633.4776785714286,2067.2,665.5714285714286,587.4776785714286,2168.2,665.5714285714286,587.4776785714286,2272.1,714.5714285714286,664.4776785714286,2385,1011.5714285714286,937.4776785714286,2486.8,1015.5714285714286,930.4776785714286,2603.7,1015.5714285714286,930.4776785714286,2706.5,1015.5714285714286,930.4776785714286,2807.6,1015.5714285714286,930.4776785714286,2912.8,1015.5714285714286,930.4776785714286,3018.6,1015.5714285714286,930.4776785714286,3121.7,1015.5714285714286,930.4776785714286,3221.8,1015.5714285714286,930.4776785714286,3336,1015.5714285714286,930.4776785714286,3436.9,1015.5714285714286,930.4776785714286,3537,1015.5714285714286,930.4776785714286,3642.4,1015.5714285714286,930.4776785714286,3747.5,1015.5714285714286,930.4776785714286,3852.8,1015.5714285714286,930.4776785714286,3956.9,1015.5714285714286,930.4776785714286,4057.1,1015.5714285714286,930.4776785714286,4157.2,1015.5714285714286,930.4776785714286,4262.3,1015.5714285714286,930.4776785714286,4363.4,1015.5714285714286,930.4776785714286,4469.9,1015.5714285714286,930.4776785714286,4569.9,1015.5714285714286,930.4776785714286,4670.3,1015.5714285714286,930.4776785714286,4771.5,1015.5714285714286,930.4776785714286,4877,1015.5714285714286,930.4776785714286,4985.9]","[1502.1,1502.1,1000,0,502.1,""oops"",""right"",""down"",""good_move"",4187.2,2684.6,2203.6,1502.6,481,""smooth"",""right"",""right"",""good_move"",7245.8,3058.1,1931.6,4187.7,1126.5,""smooth"",""right"",""right"",""good_move"",9761.8,2515.7,2116.3,7246.2,399.4,""while_blue"",""down"",""up"",""bad_move"",12747.3,2985,2495.5,9762.3,489.5,""smooth"",""down"",""down"",""good_move"",19272.2,6524.5,2382.6,16289,600.6,""smooth"",""down"",""down"",""good_move""]","",""
"6291","","<div style=""width:500px;"">
  <p>What determined the result of this run?</p>
  </div>","69","html-slider-response","46","865990","0.0-10.0-1.1","40","1","2025-07-02 10:18:43","80fe4187154257d5fb01684ea91b68b9","90.246.71.246","Mozilla/5.0 (Windows NT 10.0; Win64; x64) AppleWebKit/537.36 (KHTML, like Gecko) Chrome/138.0.0.0 Safari/537.36","WebKit","Chrome","138.0.0.0","Windows","10.0","https://app.prolific.com/","en-GB,en-US;q=0.9,en;q=0.8","5c9d88bb2b3c77001744ec1c","683db6dfa200031b80f2a654","68650776e3a3a3e5ac4c887d","5c9d88bb2b3c77001744ec1c","2025-07-02T10:33:10.003Z","","","","","","AttribQ","","","","","","","","","","","","","","","","","","","","","","","","","","","","","","","","","","","","","","50"
"4450","","<div style=""width:500px;"">
  <p>How much control did you have over the ball?</p>
  </div>","78","html-slider-response","47","870443","0.0-10.0-2.1","40","1","2025-07-02 10:18:43","80fe4187154257d5fb01684ea91b68b9","90.246.71.246","Mozilla/5.0 (Windows NT 10.0; Win64; x64) AppleWebKit/537.36 (KHTML, like Gecko) Chrome/138.0.0.0 Safari/537.36","WebKit","Chrome","138.0.0.0","Windows","10.0","https://app.prolific.com/","en-GB,en-US;q=0.9,en;q=0.8","5c9d88bb2b3c77001744ec1c","683db6dfa200031b80f2a654","68650776e3a3a3e5ac4c887d","5c9d88bb2b3c77001744ec1c","2025-07-02T10:33:14.456Z","","","","","","ControlQ","","","","","","","","","","","","","","","","","","","","","","","","","","","","","","","","","","","","","","50"
"9681","","<div style=""width:500px;"">
  <p>How would you describe your current emotional state?</p>
  </div>","44","html-slider-response","48","880125","0.0-10.0-3.1","40","1","2025-07-02 10:18:43","80fe4187154257d5fb01684ea91b68b9","90.246.71.246","Mozilla/5.0 (Windows NT 10.0; Win64; x64) AppleWebKit/537.36 (KHTML, like Gecko) Chrome/138.0.0.0 Safari/537.36","WebKit","Chrome","138.0.0.0","Windows","10.0","https://app.prolific.com/","en-GB,en-US;q=0.9,en;q=0.8","5c9d88bb2b3c77001744ec1c","683db6dfa200031b80f2a654","68650776e3a3a3e5ac4c887d","5c9d88bb2b3c77001744ec1c","2025-07-02T10:33:24.138Z","","","","","","StressQ","","","","","","","","","","","","","","","","","","","","","","","","","","","","","","","","","","","","","","50"
"4529","","<div style=""width:500px;"">
  <p>What best describes how you currently feel?</p>
  </div>","85","html-slider-response","49","884655","0.0-10.0-4.1","40","1","2025-07-02 10:18:43","80fe4187154257d5fb01684ea91b68b9","90.246.71.246","Mozilla/5.0 (Windows NT 10.0; Win64; x64) AppleWebKit/537.36 (KHTML, like Gecko) Chrome/138.0.0.0 Safari/537.36","WebKit","Chrome","138.0.0.0","Windows","10.0","https://app.prolific.com/","en-GB,en-US;q=0.9,en;q=0.8","5c9d88bb2b3c77001744ec1c","683db6dfa200031b80f2a654","68650776e3a3a3e5ac4c887d","5c9d88bb2b3c77001744ec1c","2025-07-02T10:33:28.668Z","","","","","","MotivationQ","","","","","","","","","","","","","","","","","","","","","","","","","","","","","","","","","","","","","","50"
"","","","","ctl-task-cpt","50","922259","0.0-10.0-0.2","40","1","2025-07-02 10:18:43","80fe4187154257d5fb01684ea91b68b9","90.246.71.246","Mozilla/5.0 (Windows NT 10.0; Win64; x64) AppleWebKit/537.36 (KHTML, like Gecko) Chrome/138.0.0.0 Safari/537.36","WebKit","Chrome","138.0.0.0","Windows","10.0","https://app.prolific.com/","en-GB,en-US;q=0.9,en;q=0.8","5c9d88bb2b3c77001744ec1c","683db6dfa200031b80f2a654","68650776e3a3a3e5ac4c887d","5c9d88bb2b3c77001744ec1c","2025-07-02T10:34:06.272Z","","","","","","","","","","","","","","","","win-only","0","g1:NW,g2:SE","0.8","3","0","885984.6","1467.4","6470.9","34596.1","1","4","4","6","2","4","4","12","8","0.09090909090909091","3691.9","3000","360","[""down"",""right""]","{""num_key_presses"":8,""num_perfect"":7,""num_errors"":0,""num_randdir"":1,""num_randdir_good_moves"":0,""num_whilered"":0,""num_whileblue"":0,""num_blue"":2,""num_good_moves"":7}","[413.57142857142856,419.47767857142856,0.9,413.57142857142856,419.47767857142856,112.5,413.57142857142856,419.47767857142856,223,413.57142857142856,419.47767857142856,327.4,413.57142857142856,419.47767857142856,431.5,413.57142857142856,419.47767857142856,547.5,427.57142857142856,426.47767857142856,650.5,518.5714285714286,548.4776785714286,752.5,591.5714285714286,594.4776785714286,853.5,710.5714285714286,622.4776785714286,954.1,714.5714285714286,688.4776785714286,1054.5,728.5714285714286,716.4776785714286,1157.3,766.5714285714286,751.4776785714286,1260.6,777.5714285714286,762.4776785714286,1364.5,784.5714285714286,769.4776785714286,1466.3,784.5714285714286,769.4776785714286,1568.9,784.5714285714286,769.4776785714286,1671.3,784.5714285714286,769.4776785714286,1775.3,784.5714285714286,769.4776785714286,1875.9,784.5714285714286,769.4776785714286,1976.1,784.5714285714286,769.4776785714286,2076.2,784.5714285714286,769.4776785714286,2178.4,784.5714285714286,769.4776785714286,2279.3,784.5714285714286,769.4776785714286,2381.3,784.5714285714286,769.4776785714286,2485.2,784.5714285714286,769.4776785714286,2587.8,784.5714285714286,769.4776785714286,2693.6,784.5714285714286,769.4776785714286,2811.2,784.5714285714286,769.4776785714286,2914.4,784.5714285714286,769.4776785714286,3014.9,784.5714285714286,769.4776785714286,3121.5,784.5714285714286,769.4776785714286,3224.3,784.5714285714286,769.4776785714286,3328.2,784.5714285714286,769.4776785714286,3447.2,784.5714285714286,769.4776785714286,3547.6,784.5714285714286,769.4776785714286,3648.4,784.5714285714286,769.4776785714286,3752.6,784.5714285714286,769.4776785714286,3853.4,784.5714285714286,769.4776785714286,3961,784.5714285714286,769.4776785714286,4070.7,829.5714285714286,772.4776785714286,4176.2,829.5714285714286,772.4776785714286,4290.4,829.5714285714286,772.4776785714286,4406.8,829.5714285714286,772.4776785714286,4514.9,829.5714285714286,772.4776785714286,4615.2,829.5714285714286,772.4776785714286,4720.5,829.5714285714286,772.4776785714286,4823.3,829.5714285714286,772.4776785714286,4923.4]","[1586.6,1586.6,1000,0,586.6,""smooth"",""down"",""down"",""good_move"",4017.9,2430.4,1991.7,1587.5,438.7,""smooth"",""right"",""right"",""good_move"",10408.9,6390.5,2573.7,7375.8,459.4,""smooth"",""down"",""down"",""good_move"",13390.1,2981,2574.6,10409.1,406.4,""smooth"",""right"",""right"",""good_move"",15761.4,2370.6,1781.2,13390.8,589.5,""smooth"",""down"",""down"",""good_move"",18502.2,2740.1,2305.4,15762.2,434.6,""oops"",""right"",""up"",""bad_move"",21546.4,3042.8,2460.2,18503.6,582.6,""smooth"",""right"",""right"",""good_move"",28013.1,6466.2,2324.2,25151.9,537,""smooth"",""down"",""down"",""good_move""]","",""
"11249","","<div style=""width:500px;"">
  <p>What determined the result of this run?</p>
  </div>","77","html-slider-response","51","933510","0.0-10.0-1.2","40","1","2025-07-02 10:18:43","80fe4187154257d5fb01684ea91b68b9","90.246.71.246","Mozilla/5.0 (Windows NT 10.0; Win64; x64) AppleWebKit/537.36 (KHTML, like Gecko) Chrome/138.0.0.0 Safari/537.36","WebKit","Chrome","138.0.0.0","Windows","10.0","https://app.prolific.com/","en-GB,en-US;q=0.9,en;q=0.8","5c9d88bb2b3c77001744ec1c","683db6dfa200031b80f2a654","68650776e3a3a3e5ac4c887d","5c9d88bb2b3c77001744ec1c","2025-07-02T10:34:17.523Z","","","","","","AttribQ","","","","","","","","","","","","","","","","","","","","","","","","","","","","","","","","","","","","","","50"
"7107","","<div style=""width:500px;"">
  <p>How much control did you have over the ball?</p>
  </div>","81","html-slider-response","52","940619","0.0-10.0-2.2","40","1","2025-07-02 10:18:43","80fe4187154257d5fb01684ea91b68b9","90.246.71.246","Mozilla/5.0 (Windows NT 10.0; Win64; x64) AppleWebKit/537.36 (KHTML, like Gecko) Chrome/138.0.0.0 Safari/537.36","WebKit","Chrome","138.0.0.0","Windows","10.0","https://app.prolific.com/","en-GB,en-US;q=0.9,en;q=0.8","5c9d88bb2b3c77001744ec1c","683db6dfa200031b80f2a654","68650776e3a3a3e5ac4c887d","5c9d88bb2b3c77001744ec1c","2025-07-02T10:34:24.632Z","","","","","","ControlQ","","","","","","","","","","","","","","","","","","","","","","","","","","","","","","","","","","","","","","50"
"4510","","<div style=""width:500px;"">
  <p>How would you describe your current emotional state?</p>
  </div>","20","html-slider-response","53","945130","0.0-10.0-3.2","40","1","2025-07-02 10:18:43","80fe4187154257d5fb01684ea91b68b9","90.246.71.246","Mozilla/5.0 (Windows NT 10.0; Win64; x64) AppleWebKit/537.36 (KHTML, like Gecko) Chrome/138.0.0.0 Safari/537.36","WebKit","Chrome","138.0.0.0","Windows","10.0","https://app.prolific.com/","en-GB,en-US;q=0.9,en;q=0.8","5c9d88bb2b3c77001744ec1c","683db6dfa200031b80f2a654","68650776e3a3a3e5ac4c887d","5c9d88bb2b3c77001744ec1c","2025-07-02T10:34:29.144Z","","","","","","StressQ","","","","","","","","","","","","","","","","","","","","","","","","","","","","","","","","","","","","","","50"
"3575","","<div style=""width:500px;"">
  <p>What best describes how you currently feel?</p>
  </div>","90","html-slider-response","54","948709","0.0-10.0-4.2","40","1","2025-07-02 10:18:43","80fe4187154257d5fb01684ea91b68b9","90.246.71.246","Mozilla/5.0 (Windows NT 10.0; Win64; x64) AppleWebKit/537.36 (KHTML, like Gecko) Chrome/138.0.0.0 Safari/537.36","WebKit","Chrome","138.0.0.0","Windows","10.0","https://app.prolific.com/","en-GB,en-US;q=0.9,en;q=0.8","5c9d88bb2b3c77001744ec1c","683db6dfa200031b80f2a654","68650776e3a3a3e5ac4c887d","5c9d88bb2b3c77001744ec1c","2025-07-02T10:34:32.723Z","","","","","","MotivationQ","","","","","","","","","","","","","","","","","","","","","","","","","","","","","","","","","","","","","","50"
"","","","","ctl-task-cpt","55","994643","0.0-10.0-0.3","40","1","2025-07-02 10:18:43","80fe4187154257d5fb01684ea91b68b9","90.246.71.246","Mozilla/5.0 (Windows NT 10.0; Win64; x64) AppleWebKit/537.36 (KHTML, like Gecko) Chrome/138.0.0.0 Safari/537.36","WebKit","Chrome","138.0.0.0","Windows","10.0","https://app.prolific.com/","en-GB,en-US;q=0.9,en;q=0.8","5c9d88bb2b3c77001744ec1c","683db6dfa200031b80f2a654","68650776e3a3a3e5ac4c887d","5c9d88bb2b3c77001744ec1c","2025-07-02T10:35:18.656Z","","","","","","","","","","","","","","","","win-only","0","g1:NW,g2:SE","0.7","4","0","950045.5","2006.7","7012.6","42906.3","1","4","8","6","2","8","8","20","12","0.15151515151515152","1496.5","3000","310","[""down"",""right""]","{""num_key_presses"":10,""num_perfect"":7,""num_errors"":0,""num_randdir"":3,""num_randdir_good_moves"":1,""num_whilered"":0,""num_whileblue"":0,""num_blue"":2,""num_good_moves"":8}","[410.57142857142856,413.47767857142856,0.5,410.57142857142856,413.47767857142856,103.8,410.57142857142856,413.47767857142856,212.6,413.57142857142856,413.47767857142856,316.7,514.5714285714286,514.4776785714286,423.7,623.5714285714286,598.4776785714286,524.2,630.5714285714286,609.4776785714286,626.9,637.5714285714286,616.4776785714286,747,658.5714285714286,679.4776785714286,857.6,661.5714285714286,682.4776785714286,959.8,661.5714285714286,682.4776785714286,1064,665.5714285714286,686.4776785714286,1164.2,682.5714285714286,696.4776785714286,1266.7,749.5714285714286,749.4776785714286,1368,780.5714285714286,773.4776785714286,1480.9,780.5714285714286,773.4776785714286,1581.3,780.5714285714286,773.4776785714286,1700.2,780.5714285714286,773.4776785714286,1800.9,826.5714285714286,780.4776785714286,1902.7,826.5714285714286,780.4776785714286,2017,826.5714285714286,780.4776785714286,2119.7,826.5714285714286,780.4776785714286,2234.4,826.5714285714286,780.4776785714286,2335,826.5714285714286,780.4776785714286,2435,826.5714285714286,780.4776785714286,2536.6,826.5714285714286,780.4776785714286,2637,826.5714285714286,780.4776785714286,2738.1,826.5714285714286,780.4776785714286,2846,826.5714285714286,780.4776785714286,2952.6,826.5714285714286,780.4776785714286,3059.3,826.5714285714286,780.4776785714286,3163.8,826.5714285714286,780.4776785714286,3265.3,826.5714285714286,780.4776785714286,3376.1,826.5714285714286,780.4776785714286,3477.9,826.5714285714286,780.4776785714286,3581,826.5714285714286,780.4776785714286,3695.8,826.5714285714286,780.4776785714286,3800,826.5714285714286,780.4776785714286,3920.5,826.5714285714286,780.4776785714286,4024.3,826.5714285714286,780.4776785714286,4127.1,826.5714285714286,780.4776785714286,4229.1,826.5714285714286,780.4776785714286,4333.7,826.5714285714286,780.4776785714286,4437.3,826.5714285714286,780.4776785714286,4542.8,826.5714285714286,780.4776785714286,4644.4,826.5714285714286,780.4776785714286,4782.3,826.5714285714286,780.4776785714286,4885.7,826.5714285714286,780.4776785714286,4999.5]","[1458.6,1458.6,1000,0,458.6,""smooth"",""down"",""down"",""good_move"",7104.5,5644.8,1645.5,5072.1,386.9,""oops"",""right"",""up"",""bad_move"",10700.1,3594.5,3122.9,7105.6,471.6,""smooth"",""right"",""right"",""good_move"",13624.9,2923.5,2441.2,10701.4,482.3,""oops"",""right"",""left"",""bad_move"",17180.8,3554.7,3184,13626.1,370.8,""oops"",""down"",""right"",""good_move"",20984.3,3802.3,3406.4,17182,395.9,""smooth"",""down"",""down"",""good_move"",24585.8,3600.8,3097.4,20985,503.4,""smooth"",""right"",""right"",""good_move"",26822.2,2235.6,1668.5,24586.6,567.1,""smooth"",""down"",""down"",""good_move"",33072,6249.4,2631.7,29910.3,530.1,""smooth"",""right"",""right"",""good_move"",35750.4,2677.7,2340.3,33072.8,337.3,""smooth"",""down"",""down"",""good_move""]","",""
"8183","","<div style=""width:500px;"">
  <p>What determined the result of this run?</p>
  </div>","68","html-slider-response","56","1002829","0.0-10.0-1.3","40","1","2025-07-02 10:18:43","80fe4187154257d5fb01684ea91b68b9","90.246.71.246","Mozilla/5.0 (Windows NT 10.0; Win64; x64) AppleWebKit/537.36 (KHTML, like Gecko) Chrome/138.0.0.0 Safari/537.36","WebKit","Chrome","138.0.0.0","Windows","10.0","https://app.prolific.com/","en-GB,en-US;q=0.9,en;q=0.8","5c9d88bb2b3c77001744ec1c","683db6dfa200031b80f2a654","68650776e3a3a3e5ac4c887d","5c9d88bb2b3c77001744ec1c","2025-07-02T10:35:26.842Z","","","","","","AttribQ","","","","","","","","","","","","","","","","","","","","","","","","","","","","","","","","","","","","","","50"
"4058","","<div style=""width:500px;"">
  <p>How much control did you have over the ball?</p>
  </div>","62","html-slider-response","57","1006889","0.0-10.0-2.3","40","1","2025-07-02 10:18:43","80fe4187154257d5fb01684ea91b68b9","90.246.71.246","Mozilla/5.0 (Windows NT 10.0; Win64; x64) AppleWebKit/537.36 (KHTML, like Gecko) Chrome/138.0.0.0 Safari/537.36","WebKit","Chrome","138.0.0.0","Windows","10.0","https://app.prolific.com/","en-GB,en-US;q=0.9,en;q=0.8","5c9d88bb2b3c77001744ec1c","683db6dfa200031b80f2a654","68650776e3a3a3e5ac4c887d","5c9d88bb2b3c77001744ec1c","2025-07-02T10:35:30.902Z","","","","","","ControlQ","","","","","","","","","","","","","","","","","","","","","","","","","","","","","","","","","","","","","","50"
"5488","","<div style=""width:500px;"">
  <p>How would you describe your current emotional state?</p>
  </div>","36","html-slider-response","58","1012379","0.0-10.0-3.3","40","1","2025-07-02 10:18:43","80fe4187154257d5fb01684ea91b68b9","90.246.71.246","Mozilla/5.0 (Windows NT 10.0; Win64; x64) AppleWebKit/537.36 (KHTML, like Gecko) Chrome/138.0.0.0 Safari/537.36","WebKit","Chrome","138.0.0.0","Windows","10.0","https://app.prolific.com/","en-GB,en-US;q=0.9,en;q=0.8","5c9d88bb2b3c77001744ec1c","683db6dfa200031b80f2a654","68650776e3a3a3e5ac4c887d","5c9d88bb2b3c77001744ec1c","2025-07-02T10:35:36.393Z","","","","","","StressQ","","","","","","","","","","","","","","","","","","","","","","","","","","","","","","","","","","","","","","50"
"4327","","<div style=""width:500px;"">
  <p>What best describes how you currently feel?</p>
  </div>","86","html-slider-response","59","1016710","0.0-10.0-4.3","40","1","2025-07-02 10:18:43","80fe4187154257d5fb01684ea91b68b9","90.246.71.246","Mozilla/5.0 (Windows NT 10.0; Win64; x64) AppleWebKit/537.36 (KHTML, like Gecko) Chrome/138.0.0.0 Safari/537.36","WebKit","Chrome","138.0.0.0","Windows","10.0","https://app.prolific.com/","en-GB,en-US;q=0.9,en;q=0.8","5c9d88bb2b3c77001744ec1c","683db6dfa200031b80f2a654","68650776e3a3a3e5ac4c887d","5c9d88bb2b3c77001744ec1c","2025-07-02T10:35:40.723Z","","","","","","MotivationQ","","","","","","","","","","","","","","","","","","","","","","","","","","","","","","","","","","","","","","50"
"","","","","ctl-task-cpt","60","1063426","0.0-10.0-0.4","40","1","2025-07-02 10:18:43","80fe4187154257d5fb01684ea91b68b9","90.246.71.246","Mozilla/5.0 (Windows NT 10.0; Win64; x64) AppleWebKit/537.36 (KHTML, like Gecko) Chrome/138.0.0.0 Safari/537.36","WebKit","Chrome","138.0.0.0","Windows","10.0","https://app.prolific.com/","en-GB,en-US;q=0.9,en;q=0.8","5c9d88bb2b3c77001744ec1c","683db6dfa200031b80f2a654","68650776e3a3a3e5ac4c887d","5c9d88bb2b3c77001744ec1c","2025-07-02T10:36:27.440Z","","","","","","","","","","","","","","","","win-only","0","g1:NW,g2:SE","0.6","5","0","1018044.6","2424.7","7425.6","43686.7","1","4","8","6","2","8","8","28","20","0.21212121212121213","1164.5","3000","570","[""down"",""right""]","{""num_key_presses"":8,""num_perfect"":5,""num_errors"":0,""num_randdir"":3,""num_randdir_good_moves"":2,""num_whilered"":0,""num_whileblue"":0,""num_blue"":4,""num_good_moves"":7}","[417.57142857142856,416.47767857142856,0.9,417.57142857142856,416.47767857142856,101.5,417.57142857142856,416.47767857142856,202.2,417.57142857142856,416.47767857142856,325.6,476.57142857142856,462.47767857142856,430.2,644.5714285714286,605.4776785714286,531.7,819.5714285714286,710.4776785714286,632.2,847.5714285714286,714.4776785714286,733.2,802.5714285714286,700.4776785714286,849.2,777.5714285714286,700.4776785714286,950,777.5714285714286,731.4776785714286,1056.9,777.5714285714286,738.4776785714286,1158.7,777.5714285714286,738.4776785714286,1260.7,777.5714285714286,738.4776785714286,1375.2,822.5714285714286,745.4776785714286,1478,878.5714285714286,763.4776785714286,1589.6,878.5714285714286,763.4776785714286,1695.6,878.5714285714286,763.4776785714286,1809.6,878.5714285714286,763.4776785714286,1925.2,878.5714285714286,763.4776785714286,2028,878.5714285714286,763.4776785714286,2144.7,878.5714285714286,763.4776785714286,2247.8,878.5714285714286,763.4776785714286,2348.8,878.5714285714286,763.4776785714286,2452.4,878.5714285714286,763.4776785714286,2562,878.5714285714286,763.4776785714286,2664,878.5714285714286,763.4776785714286,2766.9,878.5714285714286,763.4776785714286,2867.6,878.5714285714286,763.4776785714286,2974.6,878.5714285714286,763.4776785714286,3077.7,878.5714285714286,763.4776785714286,3182.9,878.5714285714286,763.4776785714286,3294.9,878.5714285714286,763.4776785714286,3395.4,878.5714285714286,763.4776785714286,3499,878.5714285714286,763.4776785714286,3602.9,878.5714285714286,763.4776785714286,3708.3,878.5714285714286,763.4776785714286,3812.9,878.5714285714286,763.4776785714286,3925.7,878.5714285714286,763.4776785714286,4038.8,878.5714285714286,763.4776785714286,4145.1,878.5714285714286,763.4776785714286,4250.1,878.5714285714286,763.4776785714286,4353.6,878.5714285714286,763.4776785714286,4468.1,878.5714285714286,763.4776785714286,4570.5,878.5714285714286,763.4776785714286,4671.2,878.5714285714286,763.4776785714286,4771.3,878.5714285714286,763.4776785714286,4872.8,878.5714285714286,763.4776785714286,4976.4]","[5174.8,5174.8,2691.4,2016.2,467.2,""smooth"",""down"",""down"",""good_move"",15041.8,9865.6,2220.3,12479.2,342.3,""oops"",""down"",""right"",""good_move"",17773.8,2731.3,2056.9,15042.5,674.5,""smooth"",""down"",""down"",""good_move"",20954.3,3177.9,2678.6,17776.4,499.3,""oops"",""down"",""right"",""good_move"",27238.5,6283.4,2600.8,24165.9,471.8,""oops"",""down"",""left"",""bad_move"",29880.6,2641.1,2266.4,27239.5,374.7,""smooth"",""down"",""down"",""good_move"",32968.6,3087.5,2611,29881.2,476.4,""smooth"",""right"",""right"",""good_move"",36102.3,3133.2,2477.6,32969.1,655.6,""smooth"",""right"",""right"",""good_move""]","",""
"12560","","<div style=""width:500px;"">
  <p>What determined the result of this run?</p>
  </div>","64","html-slider-response","61","1075991","0.0-10.0-1.4","40","1","2025-07-02 10:18:43","80fe4187154257d5fb01684ea91b68b9","90.246.71.246","Mozilla/5.0 (Windows NT 10.0; Win64; x64) AppleWebKit/537.36 (KHTML, like Gecko) Chrome/138.0.0.0 Safari/537.36","WebKit","Chrome","138.0.0.0","Windows","10.0","https://app.prolific.com/","en-GB,en-US;q=0.9,en;q=0.8","5c9d88bb2b3c77001744ec1c","683db6dfa200031b80f2a654","68650776e3a3a3e5ac4c887d","5c9d88bb2b3c77001744ec1c","2025-07-02T10:36:40.004Z","","","","","","AttribQ","","","","","","","","","","","","","","","","","","","","","","","","","","","","","","","","","","","","","","50"
"3666","","<div style=""width:500px;"">
  <p>How much control did you have over the ball?</p>
  </div>","68","html-slider-response","62","1079662","0.0-10.0-2.4","40","1","2025-07-02 10:18:43","80fe4187154257d5fb01684ea91b68b9","90.246.71.246","Mozilla/5.0 (Windows NT 10.0; Win64; x64) AppleWebKit/537.36 (KHTML, like Gecko) Chrome/138.0.0.0 Safari/537.36","WebKit","Chrome","138.0.0.0","Windows","10.0","https://app.prolific.com/","en-GB,en-US;q=0.9,en;q=0.8","5c9d88bb2b3c77001744ec1c","683db6dfa200031b80f2a654","68650776e3a3a3e5ac4c887d","5c9d88bb2b3c77001744ec1c","2025-07-02T10:36:43.675Z","","","","","","ControlQ","","","","","","","","","","","","","","","","","","","","","","","","","","","","","","","","","","","","","","50"
"6166","","<div style=""width:500px;"">
  <p>How would you describe your current emotional state?</p>
  </div>","11","html-slider-response","63","1085830","0.0-10.0-3.4","40","1","2025-07-02 10:18:43","80fe4187154257d5fb01684ea91b68b9","90.246.71.246","Mozilla/5.0 (Windows NT 10.0; Win64; x64) AppleWebKit/537.36 (KHTML, like Gecko) Chrome/138.0.0.0 Safari/537.36","WebKit","Chrome","138.0.0.0","Windows","10.0","https://app.prolific.com/","en-GB,en-US;q=0.9,en;q=0.8","5c9d88bb2b3c77001744ec1c","683db6dfa200031b80f2a654","68650776e3a3a3e5ac4c887d","5c9d88bb2b3c77001744ec1c","2025-07-02T10:36:49.843Z","","","","","","StressQ","","","","","","","","","","","","","","","","","","","","","","","","","","","","","","","","","","","","","","50"
"4879","","<div style=""width:500px;"">
  <p>What best describes how you currently feel?</p>
  </div>","87","html-slider-response","64","1090712","0.0-10.0-4.4","40","1","2025-07-02 10:18:43","80fe4187154257d5fb01684ea91b68b9","90.246.71.246","Mozilla/5.0 (Windows NT 10.0; Win64; x64) AppleWebKit/537.36 (KHTML, like Gecko) Chrome/138.0.0.0 Safari/537.36","WebKit","Chrome","138.0.0.0","Windows","10.0","https://app.prolific.com/","en-GB,en-US;q=0.9,en;q=0.8","5c9d88bb2b3c77001744ec1c","683db6dfa200031b80f2a654","68650776e3a3a3e5ac4c887d","5c9d88bb2b3c77001744ec1c","2025-07-02T10:36:54.725Z","","","","","","MotivationQ","","","","","","","","","","","","","","","","","","","","","","","","","","","","","","","","","","","","","","50"
"","","","","ctl-task-cpt","65","1138964","0.0-10.0-0.5","40","1","2025-07-02 10:18:43","80fe4187154257d5fb01684ea91b68b9","90.246.71.246","Mozilla/5.0 (Windows NT 10.0; Win64; x64) AppleWebKit/537.36 (KHTML, like Gecko) Chrome/138.0.0.0 Safari/537.36","WebKit","Chrome","138.0.0.0","Windows","10.0","https://app.prolific.com/","en-GB,en-US;q=0.9,en;q=0.8","5c9d88bb2b3c77001744ec1c","683db6dfa200031b80f2a654","68650776e3a3a3e5ac4c887d","5c9d88bb2b3c77001744ec1c","2025-07-02T10:37:42.977Z","","","","","","","","","","","","","","","","win-only","3","g1:SW,g2:NE","0.5","6","0","1092041.4","4603.4","9609.1","45237.5","1","4","4","6","2","-4","-4","24","28","0.18181818181818182","1598.3","3000","-1925","[""up"",""right""]","{""num_key_presses"":9,""num_perfect"":5,""num_errors"":0,""num_randdir"":4,""num_randdir_good_moves"":1,""num_whilered"":0,""num_whileblue"":0,""num_blue"":2,""num_good_moves"":6}","[417.57142857142856,413.47767857142856,0.9,417.57142857142856,413.47767857142856,143.7,413.57142857142856,413.47767857142856,252.3,413.57142857142856,413.47767857142856,355.7,413.57142857142856,413.47767857142856,460.4,403.57142857142856,420.47767857142856,566.3,392.57142857142856,441.47767857142856,671.8,392.57142857142856,441.47767857142856,772.1,476.57142857142856,465.47767857142856,879.1,556.5714285714286,445.47767857142856,995,630.5714285714286,200.47767857142856,1113.8,640.5714285714286,182.47767857142856,1216.9,686.5714285714286,175.47767857142856,1319.9,763.5714285714286,112.47767857142857,1420.6,784.5714285714286,81.47767857142857,1537.4,784.5714285714286,81.47767857142857,1637.9,784.5714285714286,81.47767857142857,1751.5,794.5714285714286,108.47767857142857,1852.1,1011.5714285714286,490.47767857142856,1954.4,1053.5714285714287,567.4776785714286,2054.6,1053.5714285714287,588.4776785714286,2156,1060.5714285714287,644.4776785714286,2260,1060.5714285714287,644.4776785714286,2370.9,1060.5714285714287,644.4776785714286,2473.5,1060.5714285714287,644.4776785714286,2579.6,1060.5714285714287,644.4776785714286,2682.1,1060.5714285714287,644.4776785714286,2783.3,1060.5714285714287,644.4776785714286,2883.3,1060.5714285714287,644.4776785714286,2987.5,1060.5714285714287,644.4776785714286,3088.7,1060.5714285714287,644.4776785714286,3193.5,1060.5714285714287,644.4776785714286,3299,1060.5714285714287,644.4776785714286,3399,1060.5714285714287,644.4776785714286,3502.5,1060.5714285714287,644.4776785714286,3621.2,1060.5714285714287,644.4776785714286,3721.4,1060.5714285714287,644.4776785714286,3835.8,1060.5714285714287,644.4776785714286,3944.9,1060.5714285714287,644.4776785714286,4049.6,1060.5714285714287,644.4776785714286,4156.8,1060.5714285714287,644.4776785714286,4261.6,1060.5714285714287,644.4776785714286,4366.5,1060.5714285714287,644.4776785714286,4483.4,1060.5714285714287,644.4776785714286,4584.3,1060.5714285714287,644.4776785714286,4688.5,1060.5714285714287,644.4776785714286,4805.1,1060.5714285714287,644.4776785714286,4905.3]","[1484.2,1484.2,1000,0,484.2,""smooth"",""up"",""up"",""good_move"",4806.3,3321.5,2906.2,1484.8,415.3,""smooth"",""up"",""up"",""good_move"",7231.5,2424.7,1720.7,4806.9,703.9,""smooth"",""up"",""up"",""good_move"",10043.9,2811.8,2339.6,7232.1,472.2,""smooth"",""right"",""right"",""good_move"",16364,6319.1,2617.8,13293.4,453.1,""oops"",""right"",""down"",""bad_move"",20313.3,3947.5,2779.8,16365.8,1167.7,""oops"",""up"",""up"",""good_move"",22952.2,2637.7,2097,20314.5,540.7,""oops"",""right"",""left"",""bad_move"",29678.5,6725.8,2457.2,26771.1,450.2,""smooth"",""right"",""right"",""good_move"",33028.2,3348.2,2771.1,29680,577.1,""oops"",""right"",""down"",""bad_move""]","",""
"7361","","<div style=""width:500px;"">
  <p>What determined the result of this run?</p>
  </div>","7","html-slider-response","66","1146328","0.0-10.0-1.5","40","1","2025-07-02 10:18:43","80fe4187154257d5fb01684ea91b68b9","90.246.71.246","Mozilla/5.0 (Windows NT 10.0; Win64; x64) AppleWebKit/537.36 (KHTML, like Gecko) Chrome/138.0.0.0 Safari/537.36","WebKit","Chrome","138.0.0.0","Windows","10.0","https://app.prolific.com/","en-GB,en-US;q=0.9,en;q=0.8","5c9d88bb2b3c77001744ec1c","683db6dfa200031b80f2a654","68650776e3a3a3e5ac4c887d","5c9d88bb2b3c77001744ec1c","2025-07-02T10:37:50.341Z","","","","","","AttribQ","","","","","","","","","","","","","","","","","","","","","","","","","","","","","","","","","","","","","","50"
"5151","","<div style=""width:500px;"">
  <p>How much control did you have over the ball?</p>
  </div>","15","html-slider-response","67","1151483","0.0-10.0-2.5","40","1","2025-07-02 10:18:43","80fe4187154257d5fb01684ea91b68b9","90.246.71.246","Mozilla/5.0 (Windows NT 10.0; Win64; x64) AppleWebKit/537.36 (KHTML, like Gecko) Chrome/138.0.0.0 Safari/537.36","WebKit","Chrome","138.0.0.0","Windows","10.0","https://app.prolific.com/","en-GB,en-US;q=0.9,en;q=0.8","5c9d88bb2b3c77001744ec1c","683db6dfa200031b80f2a654","68650776e3a3a3e5ac4c887d","5c9d88bb2b3c77001744ec1c","2025-07-02T10:37:55.496Z","","","","","","ControlQ","","","","","","","","","","","","","","","","","","","","","","","","","","","","","","","","","","","","","","50"
"6424","","<div style=""width:500px;"">
  <p>How would you describe your current emotional state?</p>
  </div>","26","html-slider-response","68","1157908","0.0-10.0-3.5","40","1","2025-07-02 10:18:43","80fe4187154257d5fb01684ea91b68b9","90.246.71.246","Mozilla/5.0 (Windows NT 10.0; Win64; x64) AppleWebKit/537.36 (KHTML, like Gecko) Chrome/138.0.0.0 Safari/537.36","WebKit","Chrome","138.0.0.0","Windows","10.0","https://app.prolific.com/","en-GB,en-US;q=0.9,en;q=0.8","5c9d88bb2b3c77001744ec1c","683db6dfa200031b80f2a654","68650776e3a3a3e5ac4c887d","5c9d88bb2b3c77001744ec1c","2025-07-02T10:38:01.921Z","","","","","","StressQ","","","","","","","","","","","","","","","","","","","","","","","","","","","","","","","","","","","","","","50"
"3074","","<div style=""width:500px;"">
  <p>What best describes how you currently feel?</p>
  </div>","90","html-slider-response","69","1160985","0.0-10.0-4.5","40","1","2025-07-02 10:18:43","80fe4187154257d5fb01684ea91b68b9","90.246.71.246","Mozilla/5.0 (Windows NT 10.0; Win64; x64) AppleWebKit/537.36 (KHTML, like Gecko) Chrome/138.0.0.0 Safari/537.36","WebKit","Chrome","138.0.0.0","Windows","10.0","https://app.prolific.com/","en-GB,en-US;q=0.9,en;q=0.8","5c9d88bb2b3c77001744ec1c","683db6dfa200031b80f2a654","68650776e3a3a3e5ac4c887d","5c9d88bb2b3c77001744ec1c","2025-07-02T10:38:04.998Z","","","","","","MotivationQ","","","","","","","","","","","","","","","","","","","","","","","","","","","","","","","","","","","","","","50"
"","","","","ctl-task-cpt","70","1191732","0.0-10.0-0.6","40","1","2025-07-02 10:18:43","80fe4187154257d5fb01684ea91b68b9","90.246.71.246","Mozilla/5.0 (Windows NT 10.0; Win64; x64) AppleWebKit/537.36 (KHTML, like Gecko) Chrome/138.0.0.0 Safari/537.36","WebKit","Chrome","138.0.0.0","Windows","10.0","https://app.prolific.com/","en-GB,en-US;q=0.9,en;q=0.8","5c9d88bb2b3c77001744ec1c","683db6dfa200031b80f2a654","68650776e3a3a3e5ac4c887d","5c9d88bb2b3c77001744ec1c","2025-07-02T10:38:35.745Z","","","","","","","","","","","","","","","","win-only","1","g1:NE,g2:SW","0.4","7","0","1162317.4","2053","7069","27718","1","4","8","6","1","1","0","24","24","0.18181818181818182","5015.9","3000","235","[""up"",""right""]","{""num_key_presses"":7,""num_perfect"":2,""num_errors"":1,""num_randdir"":4,""num_randdir_good_moves"":3,""num_whilered"":0,""num_whileblue"":0,""num_blue"":0,""num_good_moves"":5}","[413.57142857142856,423.47767857142856,0.4,413.57142857142856,423.47767857142856,118.5,413.57142857142856,423.47767857142856,239,413.57142857142856,423.47767857142856,339.7,413.57142857142856,423.47767857142856,443,413.57142857142856,423.47767857142856,543.3,413.57142857142856,423.47767857142856,661.8,542.5714285714286,483.47767857142856,778,798.5714285714286,637.4776785714286,889.7,798.5714285714286,637.4776785714286,993.7,798.5714285714286,637.4776785714286,1094.9,798.5714285714286,637.4776785714286,1200.5,798.5714285714286,637.4776785714286,1306.9,798.5714285714286,637.4776785714286,1409,798.5714285714286,637.4776785714286,1510.3,798.5714285714286,637.4776785714286,1611.7,798.5714285714286,637.4776785714286,1719.3,798.5714285714286,637.4776785714286,1825.2,798.5714285714286,637.4776785714286,1928.3,798.5714285714286,637.4776785714286,2031,798.5714285714286,637.4776785714286,2131.8,798.5714285714286,637.4776785714286,2238.3,798.5714285714286,637.4776785714286,2355.5,798.5714285714286,637.4776785714286,2482.4,798.5714285714286,637.4776785714286,2585.5,798.5714285714286,637.4776785714286,2687.8,798.5714285714286,637.4776785714286,2796.3,798.5714285714286,637.4776785714286,2906.1,798.5714285714286,637.4776785714286,3009,798.5714285714286,637.4776785714286,3121.7,798.5714285714286,637.4776785714286,3227.8,798.5714285714286,637.4776785714286,3346,798.5714285714286,637.4776785714286,3451.7,798.5714285714286,637.4776785714286,3592.3,798.5714285714286,637.4776785714286,3692.9,798.5714285714286,637.4776785714286,3800.1,798.5714285714286,637.4776785714286,3914.3,798.5714285714286,637.4776785714286,4016.5,798.5714285714286,637.4776785714286,4116.9,798.5714285714286,637.4776785714286,4223.7,798.5714285714286,637.4776785714286,4329.2,798.5714285714286,637.4776785714286,4439.1,798.5714285714286,637.4776785714286,4547.6,798.5714285714286,637.4776785714286,4648.2,798.5714285714286,637.4776785714286,4752.2,798.5714285714286,637.4776785714286,4867.1,798.5714285714286,637.4776785714286,4968.8]","[2983.3,2983.3,1000,0,1983.3,""smooth"",""up"",""up"",""good_move"",5162.3,2178.5,2763.8,2983.8,-585.3,""error"",""-"",""-"",""no_move"",8832.6,3669.9,2011.8,6163.3,657.5,""smooth"",""right"",""right"",""good_move"",12086.5,3253.2,2774.1,8833.3,479.1,""oops"",""up"",""up"",""good_move"",15191.5,3104.2,2760.2,12087.3,344,""oops"",""right"",""left"",""bad_move"",17709.2,2517,1969.1,15192.2,547.9,""oops"",""right"",""right"",""good_move"",20491.3,2781.7,2236.1,17709.6,545.6,""oops"",""right"",""right"",""good_move""]","",""
"3715","","<div style=""width:500px;"">
  <p>What determined the result of this run?</p>
  </div>","59","html-slider-response","71","1195449","0.0-10.0-1.6","40","1","2025-07-02 10:18:43","80fe4187154257d5fb01684ea91b68b9","90.246.71.246","Mozilla/5.0 (Windows NT 10.0; Win64; x64) AppleWebKit/537.36 (KHTML, like Gecko) Chrome/138.0.0.0 Safari/537.36","WebKit","Chrome","138.0.0.0","Windows","10.0","https://app.prolific.com/","en-GB,en-US;q=0.9,en;q=0.8","5c9d88bb2b3c77001744ec1c","683db6dfa200031b80f2a654","68650776e3a3a3e5ac4c887d","5c9d88bb2b3c77001744ec1c","2025-07-02T10:38:39.462Z","","","","","","AttribQ","","","","","","","","","","","","","","","","","","","","","","","","","","","","","","","","","","","","","","50"
"2309","","<div style=""width:500px;"">
  <p>How much control did you have over the ball?</p>
  </div>","63","html-slider-response","72","1197760","0.0-10.0-2.6","40","1","2025-07-02 10:18:43","80fe4187154257d5fb01684ea91b68b9","90.246.71.246","Mozilla/5.0 (Windows NT 10.0; Win64; x64) AppleWebKit/537.36 (KHTML, like Gecko) Chrome/138.0.0.0 Safari/537.36","WebKit","Chrome","138.0.0.0","Windows","10.0","https://app.prolific.com/","en-GB,en-US;q=0.9,en;q=0.8","5c9d88bb2b3c77001744ec1c","683db6dfa200031b80f2a654","68650776e3a3a3e5ac4c887d","5c9d88bb2b3c77001744ec1c","2025-07-02T10:38:41.774Z","","","","","","ControlQ","","","","","","","","","","","","","","","","","","","","","","","","","","","","","","","","","","","","","","50"
"6122","","<div style=""width:500px;"">
  <p>How would you describe your current emotional state?</p>
  </div>","28","html-slider-response","73","1203885","0.0-10.0-3.6","40","1","2025-07-02 10:18:43","80fe4187154257d5fb01684ea91b68b9","90.246.71.246","Mozilla/5.0 (Windows NT 10.0; Win64; x64) AppleWebKit/537.36 (KHTML, like Gecko) Chrome/138.0.0.0 Safari/537.36","WebKit","Chrome","138.0.0.0","Windows","10.0","https://app.prolific.com/","en-GB,en-US;q=0.9,en;q=0.8","5c9d88bb2b3c77001744ec1c","683db6dfa200031b80f2a654","68650776e3a3a3e5ac4c887d","5c9d88bb2b3c77001744ec1c","2025-07-02T10:38:47.898Z","","","","","","StressQ","","","","","","","","","","","","","","","","","","","","","","","","","","","","","","","","","","","","","","50"
"4633","","<div style=""width:500px;"">
  <p>What best describes how you currently feel?</p>
  </div>","100","html-slider-response","74","1208521","0.0-10.0-4.6","40","1","2025-07-02 10:18:43","80fe4187154257d5fb01684ea91b68b9","90.246.71.246","Mozilla/5.0 (Windows NT 10.0; Win64; x64) AppleWebKit/537.36 (KHTML, like Gecko) Chrome/138.0.0.0 Safari/537.36","WebKit","Chrome","138.0.0.0","Windows","10.0","https://app.prolific.com/","en-GB,en-US;q=0.9,en;q=0.8","5c9d88bb2b3c77001744ec1c","683db6dfa200031b80f2a654","68650776e3a3a3e5ac4c887d","5c9d88bb2b3c77001744ec1c","2025-07-02T10:38:52.534Z","","","","","","MotivationQ","","","","","","","","","","","","","","","","","","","","","","","","","","","","","","","","","","","","","","50"
"","","","","ctl-task-cpt","75","1281137","0.0-10.0-0.7","40","1","2025-07-02 10:18:43","80fe4187154257d5fb01684ea91b68b9","90.246.71.246","Mozilla/5.0 (Windows NT 10.0; Win64; x64) AppleWebKit/537.36 (KHTML, like Gecko) Chrome/138.0.0.0 Safari/537.36","WebKit","Chrome","138.0.0.0","Windows","10.0","https://app.prolific.com/","en-GB,en-US;q=0.9,en;q=0.8","5c9d88bb2b3c77001744ec1c","683db6dfa200031b80f2a654","68650776e3a3a3e5ac4c887d","5c9d88bb2b3c77001744ec1c","2025-07-02T10:40:05.150Z","","","","","","","","","","","","","","","","win-only","1","g1:NE,g2:SW","0.3","8","0","1209851.3","3864.2","8869.9","69593.5","1","4","4","6","2","-4","-5","19","24","0.14393939393939395","3406","3000","-1745","[""down"",""left""]","{""num_key_presses"":14,""num_perfect"":4,""num_errors"":1,""num_randdir"":9,""num_randdir_good_moves"":5,""num_whilered"":0,""num_whileblue"":1,""num_blue"":6,""num_good_moves"":9}","[423.57142857142856,417.47767857142856,0.9,423.57142857142856,417.47767857142856,104.4,423.57142857142856,417.47767857142856,218.4,423.57142857142856,417.47767857142856,334.1,423.57142857142856,417.47767857142856,439.9,423.57142857142856,417.47767857142856,555.9,679.5714285714286,451.47767857142856,659.4,952.5714285714286,553.4776785714286,762.5,955.5714285714286,553.4776785714286,863,1032.5714285714287,630.4776785714286,964.1,1022.5714285714286,620.4776785714286,1068.9,945.5714285714286,606.4776785714286,1177.2,976.5714285714286,637.4776785714286,1283.3,976.5714285714286,637.4776785714286,1384.3,966.5714285714286,640.4776785714286,1484.4,963.5714285714286,644.4776785714286,1598,963.5714285714286,644.4776785714286,1704.4,963.5714285714286,644.4776785714286,1811.4,963.5714285714286,644.4776785714286,1919.7,963.5714285714286,644.4776785714286,2025.6,963.5714285714286,644.4776785714286,2139.3,963.5714285714286,644.4776785714286,2248.9,963.5714285714286,644.4776785714286,2349.3,963.5714285714286,644.4776785714286,2453.9,963.5714285714286,644.4776785714286,2558.4,963.5714285714286,644.4776785714286,2673.3,963.5714285714286,644.4776785714286,2777.2,385.57142857142856,742.4776785714286,2884.9,385.57142857142856,742.4776785714286,2992.2,91.57142857142857,749.4776785714286,3100.9,18.57142857142857,749.4776785714286,3204.1,14.57142857142857,749.4776785714286,3304.9,11.57142857142857,749.4776785714286,3411.3,11.57142857142857,749.4776785714286,3513.7,11.57142857142857,749.4776785714286,3620.4,563.5714285714286,711.4776785714286,3740.1,773.5714285714286,711.4776785714286,3841.7,773.5714285714286,711.4776785714286,3948,773.5714285714286,711.4776785714286,4052.5,773.5714285714286,711.4776785714286,4155.7,773.5714285714286,711.4776785714286,4259.3,773.5714285714286,711.4776785714286,4373.6,773.5714285714286,711.4776785714286,4475,773.5714285714286,711.4776785714286,4576.3,773.5714285714286,711.4776785714286,4678.6,773.5714285714286,711.4776785714286,4780.4,773.5714285714286,711.4776785714286,4881.7,773.5714285714286,711.4776785714286,4990.1]","[1519.2,1519.1,1000,0.1,519.1,""oops"",""down"",""down"",""good_move"",7745.3,6225.5,2342.8,4964.9,437.6,""oops"",""left"",""down"",""good_move"",10556.5,2810.8,2426.5,7745.7,384.3,""oops"",""left"",""up"",""bad_move"",16993.1,6436.1,2578.9,14026.8,387.4,""oops"",""left"",""down"",""good_move"",20484.8,3490.9,3060.8,16994,430.1,""smooth"",""left"",""left"",""good_move"",26565.3,6079.9,1851.3,24337.3,376.7,""oops"",""left"",""down"",""good_move"",29439.6,2873.8,2419.2,26565.8,454.6,""smooth"",""left"",""left"",""good_move"",32297.7,2857.6,2533.7,29440.1,323.9,""while_blue"",""left"",""right"",""bad_move"",34687.9,2389.4,1844.7,32298.5,544.7,""smooth"",""left"",""left"",""good_move"",37839.2,3150.7,2717.6,34688.5,433.1,""oops"",""left"",""right"",""bad_move"",48547.5,10707.9,2616.3,45567.9,363.3,""oops"",""left"",""left"",""good_move"",51322.4,2774.4,2293.2,48548,481.2,""oops"",""left"",""up"",""bad_move"",54745.9,3423.3,3001.1,51322.6,422.2,""smooth"",""left"",""left"",""good_move"",57533.2,2787,2240,54746.4,546.9,""oops"",""down"",""right"",""bad_move""]","",""
"4974","","<div style=""width:500px;"">
  <p>What determined the result of this run?</p>
  </div>","49","html-slider-response","76","1286114","0.0-10.0-1.7","40","1","2025-07-02 10:18:43","80fe4187154257d5fb01684ea91b68b9","90.246.71.246","Mozilla/5.0 (Windows NT 10.0; Win64; x64) AppleWebKit/537.36 (KHTML, like Gecko) Chrome/138.0.0.0 Safari/537.36","WebKit","Chrome","138.0.0.0","Windows","10.0","https://app.prolific.com/","en-GB,en-US;q=0.9,en;q=0.8","5c9d88bb2b3c77001744ec1c","683db6dfa200031b80f2a654","68650776e3a3a3e5ac4c887d","5c9d88bb2b3c77001744ec1c","2025-07-02T10:40:10.128Z","","","","","","AttribQ","","","","","","","","","","","","","","","","","","","","","","","","","","","","","","","","","","","","","","50"
"5406","","<div style=""width:500px;"">
  <p>How much control did you have over the ball?</p>
  </div>","26","html-slider-response","77","1291523","0.0-10.0-2.7","40","1","2025-07-02 10:18:43","80fe4187154257d5fb01684ea91b68b9","90.246.71.246","Mozilla/5.0 (Windows NT 10.0; Win64; x64) AppleWebKit/537.36 (KHTML, like Gecko) Chrome/138.0.0.0 Safari/537.36","WebKit","Chrome","138.0.0.0","Windows","10.0","https://app.prolific.com/","en-GB,en-US;q=0.9,en;q=0.8","5c9d88bb2b3c77001744ec1c","683db6dfa200031b80f2a654","68650776e3a3a3e5ac4c887d","5c9d88bb2b3c77001744ec1c","2025-07-02T10:40:15.536Z","","","","","","ControlQ","","","","","","","","","","","","","","","","","","","","","","","","","","","","","","","","","","","","","","50"
"4002","","<div style=""width:500px;"">
  <p>How would you describe your current emotional state?</p>
  </div>","37","html-slider-response","78","1295527","0.0-10.0-3.7","40","1","2025-07-02 10:18:43","80fe4187154257d5fb01684ea91b68b9","90.246.71.246","Mozilla/5.0 (Windows NT 10.0; Win64; x64) AppleWebKit/537.36 (KHTML, like Gecko) Chrome/138.0.0.0 Safari/537.36","WebKit","Chrome","138.0.0.0","Windows","10.0","https://app.prolific.com/","en-GB,en-US;q=0.9,en;q=0.8","5c9d88bb2b3c77001744ec1c","683db6dfa200031b80f2a654","68650776e3a3a3e5ac4c887d","5c9d88bb2b3c77001744ec1c","2025-07-02T10:40:19.540Z","","","","","","StressQ","","","","","","","","","","","","","","","","","","","","","","","","","","","","","","","","","","","","","","50"
"2385","","<div style=""width:500px;"">
  <p>What best describes how you currently feel?</p>
  </div>","100","html-slider-response","79","1297913","0.0-10.0-4.7","40","1","2025-07-02 10:18:43","80fe4187154257d5fb01684ea91b68b9","90.246.71.246","Mozilla/5.0 (Windows NT 10.0; Win64; x64) AppleWebKit/537.36 (KHTML, like Gecko) Chrome/138.0.0.0 Safari/537.36","WebKit","Chrome","138.0.0.0","Windows","10.0","https://app.prolific.com/","en-GB,en-US;q=0.9,en;q=0.8","5c9d88bb2b3c77001744ec1c","683db6dfa200031b80f2a654","68650776e3a3a3e5ac4c887d","5c9d88bb2b3c77001744ec1c","2025-07-02T10:40:21.926Z","","","","","","MotivationQ","","","","","","","","","","","","","","","","","","","","","","","","","","","","","","","","","","","","","","50"
"","","","","ctl-task-cpt","80","1422594","0.0-10.0-0.8","40","1","2025-07-02 10:18:43","80fe4187154257d5fb01684ea91b68b9","90.246.71.246","Mozilla/5.0 (Windows NT 10.0; Win64; x64) AppleWebKit/537.36 (KHTML, like Gecko) Chrome/138.0.0.0 Safari/537.36","WebKit","Chrome","138.0.0.0","Windows","10.0","https://app.prolific.com/","en-GB,en-US;q=0.9,en;q=0.8","5c9d88bb2b3c77001744ec1c","683db6dfa200031b80f2a654","68650776e3a3a3e5ac4c887d","5c9d88bb2b3c77001744ec1c","2025-07-02T10:42:26.607Z","","","","","","","","","","","","","","","","win-only","3","g1:SW,g2:NE","0.4","9","0","1299242.9","1545.3","6548.5","121626.2","1","4","8","6","2","-8","-10","9","19","0.06818181818181818","1609.2","3000","-335","[""up"",""right""]","{""num_key_presses"":27,""num_perfect"":10,""num_errors"":2,""num_randdir"":15,""num_randdir_good_moves"":4,""num_whilered"":0,""num_whileblue"":1,""num_blue"":3,""num_good_moves"":15}","[413.57142857142856,410.47767857142856,0.6,413.57142857142856,410.47767857142856,102.1,413.57142857142856,410.47767857142856,206.7,413.57142857142856,410.47767857142856,341.2,364.57142857142856,486.47767857142856,452.2,360.57142857142856,507.47767857142856,553.3,360.57142857142856,507.47767857142856,668.9,360.57142857142856,507.47767857142856,771.5,423.57142857142856,441.47767857142856,878.1,909.5714285714286,21.47767857142857,985.2,857.5714285714286,17.47767857142857,1095.6,857.5714285714286,7.477678571428569,1196.1,812.5714285714286,17.47767857142857,1301.3,794.5714285714286,28.47767857142857,1401.5,791.5714285714286,31.47767857142857,1505,791.5714285714286,31.47767857142857,1606.8,791.5714285714286,31.47767857142857,1714,791.5714285714286,31.47767857142857,1839.6,791.5714285714286,31.47767857142857,1947.4,791.5714285714286,31.47767857142857,2055.1,871.5714285714286,241.47767857142856,2156.8,1018.5714285714286,514.4776785714286,2268,1015.5714285714286,539.4776785714286,2374.3,983.5714285714286,549.4776785714286,2479.5,983.5714285714286,549.4776785714286,2581.7,983.5714285714286,549.4776785714286,2683.5,1028.5714285714287,637.4776785714286,2793.5,1028.5714285714287,637.4776785714286,2899.2,1028.5714285714287,637.4776785714286,3000,1028.5714285714287,637.4776785714286,3100.7,1028.5714285714287,637.4776785714286,3210,1028.5714285714287,637.4776785714286,3311.6,1028.5714285714287,637.4776785714286,3419.9,1028.5714285714287,637.4776785714286,3529.8,1028.5714285714287,637.4776785714286,3632.4,1028.5714285714287,637.4776785714286,3737.1,1028.5714285714287,637.4776785714286,3846.2,1028.5714285714287,637.4776785714286,3949.6,1028.5714285714287,637.4776785714286,4057.2,1028.5714285714287,637.4776785714286,4165.5,1028.5714285714287,637.4776785714286,4266.8,1028.5714285714287,637.4776785714286,4367.2,1028.5714285714287,637.4776785714286,4477.8,1028.5714285714287,637.4776785714286,4580.4,1028.5714285714287,637.4776785714286,4682.9,1028.5714285714287,637.4776785714286,4793.5,1028.5714285714287,637.4776785714286,4897]","[1464.9,1464.9,1000,0,464.9,""smooth"",""up"",""up"",""good_move"",8507.7,7042.3,2689.5,4763,1055.2,""oops"",""up"",""down"",""bad_move"",11463,2954.7,2492,8508.3,462.7,""oops"",""up"",""down"",""bad_move"",14445.2,2981.9,2477.2,11463.3,504.7,""oops"",""up"",""left"",""bad_move"",18622.2,4176,2784,14446.2,1392,""smooth"",""up"",""up"",""good_move"",22898.1,4275.5,2337.3,18622.6,1938.2,""smooth"",""up"",""up"",""good_move"",27181.9,4283.2,2483.7,22898.7,1799.5,""oops"",""up"",""right"",""good_move"",30611.9,3429.5,3062.5,27182.4,367.1,""oops"",""up"",""up"",""good_move"",33701.7,3088.9,2647.3,30612.8,441.6,""oops"",""up"",""left"",""bad_move"",36464.6,2762.6,2404.1,33702,358.5,""while_blue"",""up"",""right"",""good_move"",39497.7,3032.7,2511.2,36465,521.5,""smooth"",""up"",""up"",""good_move"",42721.9,3224,2681.1,39497.9,542.9,""oops"",""right"",""down"",""bad_move"",46207.5,3485.1,3021.1,42722.4,464,""oops"",""right"",""down"",""bad_move"",48940.8,2732.9,2292.2,46208,440.6,""smooth"",""right"",""right"",""good_move"",52690.1,3749,3355.9,48941.1,393.1,""oops"",""right"",""down"",""bad_move"",55917.8,3226.8,2693.6,52691.1,533.2,""oops"",""right"",""right"",""good_move"",59820.4,3902.3,3507.7,55918.1,394.6,""oops"",""up"",""down"",""bad_move"",62186.4,2365.8,1950.1,59820.7,415.7,""smooth"",""up"",""up"",""good_move"",66973,4785.7,2608.3,62187.4,2177.4,""smooth"",""up"",""up"",""good_move"",71661.2,4687.9,2558.3,66973.3,2129.6,""smooth"",""up"",""up"",""good_move"",76542.6,4880.9,2395,71661.7,2485.9,""oops"",""up"",""left"",""bad_move"",81603.2,5060,3046.6,76543.2,2013.4,""smooth"",""up"",""up"",""good_move"",89812,8208.4,2101.2,87274,436.8,""smooth"",""right"",""right"",""good_move"",92754.6,2942.2,2393.7,89812.5,548.4,""oops"",""right"",""left"",""bad_move"",98954.7,6199.8,2351.6,92754.9,3848.2,""error"",""-"",""-"",""no_move"",102949.5,3994.6,2522.6,99982.3,444.6,""oops"",""right"",""left"",""bad_move"",112294.5,9344.7,1704.3,102949.8,7640.5,""oops"",""right"",""right"",""good_move""]","",""
"5143","","<div style=""width:500px;"">
  <p>What determined the result of this run?</p>
  </div>","55","html-slider-response","81","1427743","0.0-10.0-1.8","40","1","2025-07-02 10:18:43","80fe4187154257d5fb01684ea91b68b9","90.246.71.246","Mozilla/5.0 (Windows NT 10.0; Win64; x64) AppleWebKit/537.36 (KHTML, like Gecko) Chrome/138.0.0.0 Safari/537.36","WebKit","Chrome","138.0.0.0","Windows","10.0","https://app.prolific.com/","en-GB,en-US;q=0.9,en;q=0.8","5c9d88bb2b3c77001744ec1c","683db6dfa200031b80f2a654","68650776e3a3a3e5ac4c887d","5c9d88bb2b3c77001744ec1c","2025-07-02T10:42:31.756Z","","","","","","AttribQ","","","","","","","","","","","","","","","","","","","","","","","","","","","","","","","","","","","","","","50"
"3874","","<div style=""width:500px;"">
  <p>How much control did you have over the ball?</p>
  </div>","22","html-slider-response","82","1431619","0.0-10.0-2.8","40","1","2025-07-02 10:18:43","80fe4187154257d5fb01684ea91b68b9","90.246.71.246","Mozilla/5.0 (Windows NT 10.0; Win64; x64) AppleWebKit/537.36 (KHTML, like Gecko) Chrome/138.0.0.0 Safari/537.36","WebKit","Chrome","138.0.0.0","Windows","10.0","https://app.prolific.com/","en-GB,en-US;q=0.9,en;q=0.8","5c9d88bb2b3c77001744ec1c","683db6dfa200031b80f2a654","68650776e3a3a3e5ac4c887d","5c9d88bb2b3c77001744ec1c","2025-07-02T10:42:35.632Z","","","","","","ControlQ","","","","","","","","","","","","","","","","","","","","","","","","","","","","","","","","","","","","","","50"
"3949","","<div style=""width:500px;"">
  <p>How would you describe your current emotional state?</p>
  </div>","46","html-slider-response","83","1435570","0.0-10.0-3.8","40","1","2025-07-02 10:18:43","80fe4187154257d5fb01684ea91b68b9","90.246.71.246","Mozilla/5.0 (Windows NT 10.0; Win64; x64) AppleWebKit/537.36 (KHTML, like Gecko) Chrome/138.0.0.0 Safari/537.36","WebKit","Chrome","138.0.0.0","Windows","10.0","https://app.prolific.com/","en-GB,en-US;q=0.9,en;q=0.8","5c9d88bb2b3c77001744ec1c","683db6dfa200031b80f2a654","68650776e3a3a3e5ac4c887d","5c9d88bb2b3c77001744ec1c","2025-07-02T10:42:39.583Z","","","","","","StressQ","","","","","","","","","","","","","","","","","","","","","","","","","","","","","","","","","","","","","","50"
"1743","","<div style=""width:500px;"">
  <p>What best describes how you currently feel?</p>
  </div>","100","html-slider-response","84","1437315","0.0-10.0-4.8","40","1","2025-07-02 10:18:43","80fe4187154257d5fb01684ea91b68b9","90.246.71.246","Mozilla/5.0 (Windows NT 10.0; Win64; x64) AppleWebKit/537.36 (KHTML, like Gecko) Chrome/138.0.0.0 Safari/537.36","WebKit","Chrome","138.0.0.0","Windows","10.0","https://app.prolific.com/","en-GB,en-US;q=0.9,en;q=0.8","5c9d88bb2b3c77001744ec1c","683db6dfa200031b80f2a654","68650776e3a3a3e5ac4c887d","5c9d88bb2b3c77001744ec1c","2025-07-02T10:42:41.328Z","","","","","","MotivationQ","","","","","","","","","","","","","","","","","","","","","","","","","","","","","","","","","","","","","","50"
