"rt","response_timestamp","stimulus","response","trial_type","trial_index","time_elapsed","internal_node_id","run_id","condition","recorded_at","source_code_version","ip","user_agent","device","browser","browser_version","platform","platform_version","referer","accept_language","PROLIFIC_PID","STUDY_ID","SESSION_ID","prolific_id","realtime","view_history","question_order","consent","success","question_id","eventType","responses","item_order","radio_event_ids","radio_event_times","key_event_times","mouse_event_times","straightlining","zigzagging","honeypot","which_type","canvas_config","goals_layout","control_level","trial_number","tutorial_trial_number","trial_start_time","phase1_start_time","phase2_start_time","phase3_start_time","goal_1_value","goal_1_distance","goal_2_value","goal_2_distance","goal_selected","outcome","outcome_total","participant_final_score","participant_initial_score","participant_final_score_prop","goal_choice_rt","allocated_time","allocated_time_remaining","goal_direction","counts","mouse_movements","key_presses","correct","slider_start"
"7269","1751451539660","<p style='font-size:40px;line-height:1.25'><strong>Welcome to the experiment!</strong></p><p style='font-size:1.1em;line-height:1.25'>Thank you for your interest in our experiment! Before you begin, it is important that we obtain your informed consent to participate in the study.</p><p style='font-size:1.1em;line-height:1.25'>On the next screen will be an <strong>information sheet</strong> for you to read. To participate in the study we need you to read this information sheet and the following consent form carefully. If you agree with all the statements, please click the <strong>I agree</strong> button.</p><p style='font-size:1.1em;line-height:1.25'>Press <strong>Next</strong> to read the information sheet.</p>","0","custom-html-button-response","0","7275","0.0-0.0","50","1","2025-07-02 10:18:49","80fe4187154257d5fb01684ea91b68b9","31.51.53.164","Mozilla/5.0 (Windows NT 10.0; Win64; x64) AppleWebKit/537.36 (KHTML, like Gecko) Chrome/137.0.0.0 Safari/537.36","WebKit","Chrome","137.0.0.0","Windows","10.0","https://app.prolific.com/","en-US,en;q=0.9","5d1290103b20b0000102e8e3","683db6dfa200031b80f2a654","6865077a0202f353346dd238","5d1290103b20b0000102e8e3","2025-07-02T10:18:59.664Z","","","","","","","","","","","","","","","","","","","","","","","","","","","","","","","","","","","","","","","","","","","",""
"5805","","","","instructions","1","13086","0.0-1.0","50","1","2025-07-02 10:18:49","80fe4187154257d5fb01684ea91b68b9","31.51.53.164","Mozilla/5.0 (Windows NT 10.0; Win64; x64) AppleWebKit/537.36 (KHTML, like Gecko) Chrome/137.0.0.0 Safari/537.36","WebKit","Chrome","137.0.0.0","Windows","10.0","https://app.prolific.com/","en-US,en;q=0.9","5d1290103b20b0000102e8e3","683db6dfa200031b80f2a654","6865077a0202f353346dd238","5d1290103b20b0000102e8e3","","[{""page_index"":0,""viewing_time"":4591},{""page_index"":1,""viewing_time"":1213}]","","","","","","","","","","","","","","","","","","","","","","","","","","","","","","","","","","","","","","","","","","",""
"4623","","","{""Q0"":"""",""Q1"":"""",""Q2"":"""",""Q3"":"""",""Q4"":"""",""Q5"":"""",""Q6"":""I agree""}","survey-multi-choice","2","17714","0.0-2.0","50","1","2025-07-02 10:18:49","80fe4187154257d5fb01684ea91b68b9","31.51.53.164","Mozilla/5.0 (Windows NT 10.0; Win64; x64) AppleWebKit/537.36 (KHTML, like Gecko) Chrome/137.0.0.0 Safari/537.36","WebKit","Chrome","137.0.0.0","Windows","10.0","https://app.prolific.com/","en-US,en;q=0.9","5d1290103b20b0000102e8e3","683db6dfa200031b80f2a654","6865077a0202f353346dd238","5d1290103b20b0000102e8e3","","","[0,1,2,3,4,5,6]","true","","","","","","","","","","","","","","","","","","","","","","","","","","","","","","","","","","","","","","","","",""
"16344","","","","fullscreen","3","35076","0.0-4.0","50","1","2025-07-02 10:18:49","80fe4187154257d5fb01684ea91b68b9","31.51.53.164","Mozilla/5.0 (Windows NT 10.0; Win64; x64) AppleWebKit/537.36 (KHTML, like Gecko) Chrome/137.0.0.0 Safari/537.36","WebKit","Chrome","137.0.0.0","Windows","10.0","https://app.prolific.com/","en-US,en;q=0.9","5d1290103b20b0000102e8e3","683db6dfa200031b80f2a654","6865077a0202f353346dd238","5d1290103b20b0000102e8e3","","","","","true","","","","","","","","","","","","","","","","","","","","","","","","","","","","","","","","","","","","","","","",""
"4109","1751451571576"," <p style='font-size:1.1em;line-height:1.25'>Thank you for completing the consent form and closing all other tabs.</p><p style='font-size:1.1em;line-height:1.25'>We will now invite you to fill in some demographic information and questionnaires, before starting the game.<br>This will take about 5 minutes.<br></p><p style='font-size:1.1em;line-height:1.25'>Press the <strong>Next</strong> button to continue.</p>","0","custom-html-button-response","4","39189","0.0-5.0","50","1","2025-07-02 10:18:49","80fe4187154257d5fb01684ea91b68b9","31.51.53.164","Mozilla/5.0 (Windows NT 10.0; Win64; x64) AppleWebKit/537.36 (KHTML, like Gecko) Chrome/137.0.0.0 Safari/537.36","WebKit","Chrome","137.0.0.0","Windows","10.0","https://app.prolific.com/","en-US,en;q=0.9","5d1290103b20b0000102e8e3","683db6dfa200031b80f2a654","6865077a0202f353346dd238","5d1290103b20b0000102e8e3","2025-07-02T10:19:31.578Z","","","","","","","","","","","","","","","","","","","","","","","","","","","","","","","","","","","","","","","","","","","",""
"3545","","","{""age"":""36""}","survey-text","5","42742","0.0-6.0-0.0","50","1","2025-07-02 10:18:49","80fe4187154257d5fb01684ea91b68b9","31.51.53.164","Mozilla/5.0 (Windows NT 10.0; Win64; x64) AppleWebKit/537.36 (KHTML, like Gecko) Chrome/137.0.0.0 Safari/537.36","WebKit","Chrome","137.0.0.0","Windows","10.0","https://app.prolific.com/","en-US,en;q=0.9","5d1290103b20b0000102e8e3","683db6dfa200031b80f2a654","6865077a0202f353346dd238","5d1290103b20b0000102e8e3","","","","","","0","demographics","","","","","","","","","","","","","","","","","","","","","","","","","","","","","","","","","","","","","",""
"2579","","","{""gender_identity"":""female/woman""}","survey-multi-choice","6","45325","0.0-6.0-1.0","50","1","2025-07-02 10:18:49","80fe4187154257d5fb01684ea91b68b9","31.51.53.164","Mozilla/5.0 (Windows NT 10.0; Win64; x64) AppleWebKit/537.36 (KHTML, like Gecko) Chrome/137.0.0.0 Safari/537.36","WebKit","Chrome","137.0.0.0","Windows","10.0","https://app.prolific.com/","en-US,en;q=0.9","5d1290103b20b0000102e8e3","683db6dfa200031b80f2a654","6865077a0202f353346dd238","5d1290103b20b0000102e8e3","","","[0]","","","1","demographics","","","","","","","","","","","","","","","","","","","","","","","","","","","","","","","","","","","","","",""
"2468","","","{""assigned_sex"":""female""}","survey-multi-choice","7","47795","0.0-6.0-2.0","50","1","2025-07-02 10:18:49","80fe4187154257d5fb01684ea91b68b9","31.51.53.164","Mozilla/5.0 (Windows NT 10.0; Win64; x64) AppleWebKit/537.36 (KHTML, like Gecko) Chrome/137.0.0.0 Safari/537.36","WebKit","Chrome","137.0.0.0","Windows","10.0","https://app.prolific.com/","en-US,en;q=0.9","5d1290103b20b0000102e8e3","683db6dfa200031b80f2a654","6865077a0202f353346dd238","5d1290103b20b0000102e8e3","","","[0]","","","2","demographics","","","","","","","","","","","","","","","","","","","","","","","","","","","","","","","","","","","","","",""
"3929","","","{""menstrual_cycle"":""Yes""}","survey-multi-choice","8","51726","0.0-6.0-3.0","50","1","2025-07-02 10:18:49","80fe4187154257d5fb01684ea91b68b9","31.51.53.164","Mozilla/5.0 (Windows NT 10.0; Win64; x64) AppleWebKit/537.36 (KHTML, like Gecko) Chrome/137.0.0.0 Safari/537.36","WebKit","Chrome","137.0.0.0","Windows","10.0","https://app.prolific.com/","en-US,en;q=0.9","5d1290103b20b0000102e8e3","683db6dfa200031b80f2a654","6865077a0202f353346dd238","5d1290103b20b0000102e8e3","","","[0]","","","4","demographics","","","","","","","","","","","","","","","","","","","","","","","","","","","","","","","","","","","","","",""
"3281","","","{""education"":""Bachelor's Degree (e.g., BA)""}","survey-multi-choice","9","55011","0.0-6.0-4.0","50","1","2025-07-02 10:18:49","80fe4187154257d5fb01684ea91b68b9","31.51.53.164","Mozilla/5.0 (Windows NT 10.0; Win64; x64) AppleWebKit/537.36 (KHTML, like Gecko) Chrome/137.0.0.0 Safari/537.36","WebKit","Chrome","137.0.0.0","Windows","10.0","https://app.prolific.com/","en-US,en;q=0.9","5d1290103b20b0000102e8e3","683db6dfa200031b80f2a654","6865077a0202f353346dd238","5d1290103b20b0000102e8e3","","","[0]","","","5","demographics","","","","","","","","","","","","","","","","","","","","","","","","","","","","","","","","","","","","","",""
"9317","","","{""education"":""GCSE/Standard Grades""}","survey-multi-choice","10","64331","0.0-6.0-5.0","50","1","2025-07-02 10:18:49","80fe4187154257d5fb01684ea91b68b9","31.51.53.164","Mozilla/5.0 (Windows NT 10.0; Win64; x64) AppleWebKit/537.36 (KHTML, like Gecko) Chrome/137.0.0.0 Safari/537.36","WebKit","Chrome","137.0.0.0","Windows","10.0","https://app.prolific.com/","en-US,en;q=0.9","5d1290103b20b0000102e8e3","683db6dfa200031b80f2a654","6865077a0202f353346dd238","5d1290103b20b0000102e8e3","2025-07-02T10:19:56.720Z","","[0]","","","6","demographics","","","","","","","","","","","","","","","","","","","","","","","","","","","","","","","","","","","","","",""
"11756","","","{""mental_health_condition"":""None"",""mental_health_treatment"":""None"",""psychiatric_medication"":""None""}","survey-text","11","76094","0.0-7.0-0.0","50","1","2025-07-02 10:18:49","80fe4187154257d5fb01684ea91b68b9","31.51.53.164","Mozilla/5.0 (Windows NT 10.0; Win64; x64) AppleWebKit/537.36 (KHTML, like Gecko) Chrome/137.0.0.0 Safari/537.36","WebKit","Chrome","137.0.0.0","Windows","10.0","https://app.prolific.com/","en-US,en;q=0.9","5d1290103b20b0000102e8e3","683db6dfa200031b80f2a654","6865077a0202f353346dd238","5d1290103b20b0000102e8e3","2025-07-02T10:20:08.482Z","","","","","1","mental_health","","","","","","","","","","","","","","","","","","","","","","","","","","","","","","","","","","","","","",""
"7659","","","{""depression_history"":[""Yes""]}","survey-multi-select","12","83759","0.0-7.0-1.0","50","1","2025-07-02 10:18:49","80fe4187154257d5fb01684ea91b68b9","31.51.53.164","Mozilla/5.0 (Windows NT 10.0; Win64; x64) AppleWebKit/537.36 (KHTML, like Gecko) Chrome/137.0.0.0 Safari/537.36","WebKit","Chrome","137.0.0.0","Windows","10.0","https://app.prolific.com/","en-US,en;q=0.9","5d1290103b20b0000102e8e3","683db6dfa200031b80f2a654","6865077a0202f353346dd238","5d1290103b20b0000102e8e3","","","[0]","","","","mental_health","","","","","","","","","","","","","","","","","","","","","","","","","","","","","","","","","","","","","",""
"13541","","","{""depression_episodes"":""more than 5"",""depression_recent"":""Within the past year""}","survey-multi-choice","13","97303","0.0-7.0-2.0-0.0","50","1","2025-07-02 10:18:49","80fe4187154257d5fb01684ea91b68b9","31.51.53.164","Mozilla/5.0 (Windows NT 10.0; Win64; x64) AppleWebKit/537.36 (KHTML, like Gecko) Chrome/137.0.0.0 Safari/537.36","WebKit","Chrome","137.0.0.0","Windows","10.0","https://app.prolific.com/","en-US,en;q=0.9","5d1290103b20b0000102e8e3","683db6dfa200031b80f2a654","6865077a0202f353346dd238","5d1290103b20b0000102e8e3","2025-07-02T10:20:29.692Z","","[0,1]","","","3","mental_health","","","","","","","","","","","","","","","","","","","","","","","","","","","","","","","","","","","","","",""
"50630.40000000037","","","","survey-template","14","147945","0.0-7.0-3.0","50","1","2025-07-02 10:18:49","80fe4187154257d5fb01684ea91b68b9","31.51.53.164","Mozilla/5.0 (Windows NT 10.0; Win64; x64) AppleWebKit/537.36 (KHTML, like Gecko) Chrome/137.0.0.0 Safari/537.36","WebKit","Chrome","137.0.0.0","Windows","10.0","https://app.prolific.com/","en-US,en;q=0.9","5d1290103b20b0000102e8e3","683db6dfa200031b80f2a654","6865077a0202f353346dd238","5d1290103b20b0000102e8e3","2025-07-02T10:21:20.333Z","","","","","","ius","{""Q01"":""3"",""Q02"":""3"",""Q03"":""4"",""Q04"":""3"",""Q05"":""2"",""Q06"":""2"",""Q07"":""3"",""Q08"":""0"",""Q09"":""3"",""Q10"":""2"",""Q11"":""2"",""Q12"":""3"",""Q13"":""3""}","[0,1,2,3,4,5,6,7,8,9,10,11,12]","[""Q01"",""Q02"",""Q03"",""Q04"",""Q05"",""Q06"",""Q07"",""Q07"",""Q08"",""Q09"",""Q09"",""Q10"",""Q11"",""Q12"",""Q13""]","[3978.600000000559,8267.799999999814,9622.5,12126.700000000186,17280.299999999814,19531.60000000056,22311.10000000056,25834.700000000186,28381.10000000056,33294.90000000037,35142.40000000037,40426.90000000037,43811.40000000037,46925.5,49874.5]","[]","[3978.600000000559,5298.100000000559,6084.5,8267.799999999814,9622.5,12126.700000000186,16262.600000000559,17280.299999999814,19531.60000000056,22311.10000000056,25834.700000000186,28381.10000000056,32122.799999999814,33294.90000000037,34059.799999999814,35142.40000000037,40426.90000000037,43017.10000000056,43811.40000000037,46925.5,49874.5,50624.700000000186]","0.5384615384615384","0.5","0","","","","","","","","","","","","","","","","","","","","","","","","","","","","",""
"1582","1751451681917","<p style='font-size:1.1em;line-height:1.25'>In the following, we will ask you a few questions relating to your experiences over the past month.<br></p><p style='font-size:1.1em;line-height:1.25'>Press the <strong>Next</strong> button to continue.</p>","0","custom-html-button-response","15","149531","0.0-7.0-4.0","50","1","2025-07-02 10:18:49","80fe4187154257d5fb01684ea91b68b9","31.51.53.164","Mozilla/5.0 (Windows NT 10.0; Win64; x64) AppleWebKit/537.36 (KHTML, like Gecko) Chrome/137.0.0.0 Safari/537.36","WebKit","Chrome","137.0.0.0","Windows","10.0","https://app.prolific.com/","en-US,en;q=0.9","5d1290103b20b0000102e8e3","683db6dfa200031b80f2a654","6865077a0202f353346dd238","5d1290103b20b0000102e8e3","2025-07-02T10:21:21.919Z","","","","","","","","","","","","","","","","","","","","","","","","","","","","","","","","","","","","","","","","","","","",""
"51700.89999999944","","","","survey-template","16","201237","0.0-7.0-5.0","50","1","2025-07-02 10:18:49","80fe4187154257d5fb01684ea91b68b9","31.51.53.164","Mozilla/5.0 (Windows NT 10.0; Win64; x64) AppleWebKit/537.36 (KHTML, like Gecko) Chrome/137.0.0.0 Safari/537.36","WebKit","Chrome","137.0.0.0","Windows","10.0","https://app.prolific.com/","en-US,en;q=0.9","5d1290103b20b0000102e8e3","683db6dfa200031b80f2a654","6865077a0202f353346dd238","5d1290103b20b0000102e8e3","2025-07-02T10:22:13.625Z","","","","","","pss","{""Q01"":""2"",""Q02"":""3"",""Q03"":""3"",""Q04"":""2"",""Q05"":""3"",""Q06"":""1"",""Q07"":""3"",""Q08"":""3"",""Q09"":""3"",""Q10"":""4""}","[0,1,2,3,4,5,6,7,8,9]","[""Q01"",""Q02"",""Q03"",""Q04"",""Q05"",""Q06"",""Q07"",""Q08"",""Q09"",""Q10""]","[6024,11807.599999999627,15529.5,22153.89999999944,25149.199999999255,28807.099999999627,34858.699999999255,40232.89999999944,45237.59999999963,50966.699999999255]","[]","[0.09999999962747097,6024,11807.599999999627,14804.899999999441,15529.5,22153.89999999944,25149.199999999255,28807.099999999627,34858.699999999255,39293.09999999963,40232.89999999944,44325.59999999963,45237.59999999963,50312.39999999944,50966.699999999255,51696.39999999944]","0.4","0.4444444444444444","0","","","","","","","","","","","","","","","","","","","","","","","","","","","","",""
"1492","1751451735119","<p style='font-size:1.1em;line-height:1.25'>Thank you for your answers! Now we will ask you a few more questions relating to your feelings in the last 24 hours.<br></p><p style='font-size:1.1em;line-height:1.25'>Press the <strong>Next</strong> button to continue.</p>","0","custom-html-button-response","17","202732","0.0-7.0-6.0","50","1","2025-07-02 10:18:49","80fe4187154257d5fb01684ea91b68b9","31.51.53.164","Mozilla/5.0 (Windows NT 10.0; Win64; x64) AppleWebKit/537.36 (KHTML, like Gecko) Chrome/137.0.0.0 Safari/537.36","WebKit","Chrome","137.0.0.0","Windows","10.0","https://app.prolific.com/","en-US,en;q=0.9","5d1290103b20b0000102e8e3","683db6dfa200031b80f2a654","6865077a0202f353346dd238","5d1290103b20b0000102e8e3","2025-07-02T10:22:15.120Z","","","","","","","","","","","","","","","","","","","","","","","","","","","","","","","","","","","","","","","","","","","",""
"93729.20000000019","","","","survey-template","18","296470","0.0-7.0-7.0","50","1","2025-07-02 10:18:49","80fe4187154257d5fb01684ea91b68b9","31.51.53.164","Mozilla/5.0 (Windows NT 10.0; Win64; x64) AppleWebKit/537.36 (KHTML, like Gecko) Chrome/137.0.0.0 Safari/537.36","WebKit","Chrome","137.0.0.0","Windows","10.0","https://app.prolific.com/","en-US,en;q=0.9","5d1290103b20b0000102e8e3","683db6dfa200031b80f2a654","6865077a0202f353346dd238","5d1290103b20b0000102e8e3","2025-07-02T10:23:48.858Z","","","","","","drsp","{""Q01"":""1"",""Q02"":""4"",""Q03"":""2"",""Q04"":""3"",""Q05"":""1"",""Q06"":""1"",""Q07"":""3"",""Q08"":""1"",""Q09"":""3"",""Q10"":""3"",""Q11"":""3"",""Q12"":""1"",""Q13"":""0"",""Q14"":""0"",""Q15"":""4"",""Q16"":""4"",""Q17"":""4"",""Q18"":""3"",""Q19"":""3"",""Q20"":""3"",""Q21"":""2""}","[0,1,2,3,4,5,6,7,8,9,10,11,12,13,14,15,16,17,18,19,20]","[""Q01"",""Q02"",""Q04"",""Q05"",""Q06"",""Q07"",""Q08"",""Q09"",""Q10"",""Q12"",""Q13"",""Q14"",""Q15"",""Q16"",""Q17"",""Q18"",""Q18"",""Q19"",""Q20"",""Q21"",""Q03"",""Q11""]","[5862.299999999814,8243.299999999814,13836.399999999441,15176.299999999814,17837,20538.5,22053.39999999944,26673.099999999627,28153.200000000186,33235.39999999944,36483.39999999944,40760.89999999944,43699.5,48086.299999999814,49203.799999999814,55674.09999999963,59689.59999999963,64186.89999999944,67276.29999999981,75986,82673.5,91236.70000000019]","[]","[0,5862.299999999814,8243.299999999814,10531.200000000186,12107.599999999627,13836.399999999441,15176.299999999814,17837,20538.5,22053.39999999944,26673.099999999627,28153.200000000186,29382.89999999944,31591.299999999814,33235.39999999944,35397.200000000186,36483.39999999944,39856.39999999944,40760.89999999944,42852.39999999944,43699.5,47273.799999999814,48086.299999999814,49203.799999999814,55674.09999999963,57443.59999999963,59120,59689.59999999963,63389.09999999963,64186.89999999944,66582.39999999944,67276.29999999981,75986,77395.79999999981,82673.5,84771.89999999944,89945.59999999963,91236.70000000019,93721.59999999963]","0.38095238095238093","0.2","0","","","","","","","","","","","","","","","","","","","","","","","","","","","","",""
"14605.400000000373","","","","survey-template","19","311079","0.0-7.0-8.0","50","1","2025-07-02 10:18:49","80fe4187154257d5fb01684ea91b68b9","31.51.53.164","Mozilla/5.0 (Windows NT 10.0; Win64; x64) AppleWebKit/537.36 (KHTML, like Gecko) Chrome/137.0.0.0 Safari/537.36","WebKit","Chrome","137.0.0.0","Windows","10.0","https://app.prolific.com/","en-US,en;q=0.9","5d1290103b20b0000102e8e3","683db6dfa200031b80f2a654","6865077a0202f353346dd238","5d1290103b20b0000102e8e3","2025-07-02T10:24:03.468Z","","","","","","stress","{""Q01"":""3"",""Q02"":""5"",""Q03"":""4""}","[0,1,2]","[""Q01"",""Q02"",""Q03""]","[5115.299999999814,9641.400000000373,12801.099999999627]","[]","[5115.299999999814,9641.400000000373,12801.099999999627,13509.700000000186,13992.799999999814,14603.5]","0.3333333333333333","0","0","","","","","","","","","","","","","","","","","","","","","","","","","","","","",""
"51125","","","","instructions","20","362208","0.0-8.0-0.0","50","1","2025-07-02 10:18:49","80fe4187154257d5fb01684ea91b68b9","31.51.53.164","Mozilla/5.0 (Windows NT 10.0; Win64; x64) AppleWebKit/537.36 (KHTML, like Gecko) Chrome/137.0.0.0 Safari/537.36","WebKit","Chrome","137.0.0.0","Windows","10.0","https://app.prolific.com/","en-US,en;q=0.9","5d1290103b20b0000102e8e3","683db6dfa200031b80f2a654","6865077a0202f353346dd238","5d1290103b20b0000102e8e3","","[{""page_index"":0,""viewing_time"":2107},{""page_index"":1,""viewing_time"":25400},{""page_index"":2,""viewing_time"":7201},{""page_index"":3,""viewing_time"":16417}]","","","","","","","","","","","","","","","","","","","","","","","","","","","","","","","","","","","","","","","","","","",""
"","","","","ctl-task-cpt","21","384093","0.0-8.0-1.0","50","1","2025-07-02 10:18:49","80fe4187154257d5fb01684ea91b68b9","31.51.53.164","Mozilla/5.0 (Windows NT 10.0; Win64; x64) AppleWebKit/537.36 (KHTML, like Gecko) Chrome/137.0.0.0 Safari/537.36","WebKit","Chrome","137.0.0.0","Windows","10.0","https://app.prolific.com/","en-US,en;q=0.9","5d1290103b20b0000102e8e3","683db6dfa200031b80f2a654","6865077a0202f353346dd238","5d1290103b20b0000102e8e3","","","","","","","","","","","","","","","","","win-only","2","g1:SE,g2:NW","1","0","1","366370.8","2126.9","6130.7","18855.4","2","4","4","6","2","-4","-4","0","0","0","4003.7","4000","-2275","[""left"",""up""]","{""num_key_presses"":0,""num_perfect"":0,""num_errors"":0,""num_randdir"":0,""num_randdir_good_moves"":0,""num_whilered"":0,""num_whileblue"":0,""num_blue"":2,""num_good_moves"":0}","[407.57142857142856,410.1808016640799,4.1,407.57142857142856,410.1808016640799,104.8,407.57142857142856,410.1808016640799,204.8,407.57142857142856,410.1808016640799,305.7,407.57142857142856,410.1808016640799,407.7,407.57142857142856,410.1808016640799,511.5,407.57142857142856,410.1808016640799,613.8,407.57142857142856,410.1808016640799,714.3,440.57142857142856,449.1808016640799,815.1,488.57142857142856,494.1808016640799,917,497.57142857142856,506.1808016640799,1028.1,497.57142857142856,506.1808016640799,1130.4,497.57142857142856,506.1808016640799,1237.8,497.57142857142856,506.1808016640799,1341.5,497.57142857142856,506.1808016640799,1446.3,497.57142857142856,506.1808016640799,1546.8,497.57142857142856,506.1808016640799,1649.4,497.57142857142856,506.1808016640799,1758.5,497.57142857142856,506.1808016640799,1858.5,497.57142857142856,506.1808016640799,1958.9,497.57142857142856,506.1808016640799,2059.5,497.57142857142856,506.1808016640799,2161.3,497.57142857142856,506.1808016640799,2267.3,484.07142857142856,455.1808016640799,2373.1,487.07142857142856,366.6808016640799,2479.3,487.07142857142856,366.6808016640799,2585.5,487.07142857142856,366.6808016640799,2691.8,487.07142857142856,366.6808016640799,2801.1,460.07142857142856,368.1808016640799,2910.1,353.57142857142856,350.1808016640799,3015.4,347.57142857142856,344.1808016640799,3115.5,347.57142857142856,344.1808016640799,3220.9,347.57142857142856,344.1808016640799,3324.2,347.57142857142856,344.1808016640799,3424.8,343.07142857142856,344.1808016640799,3528.6,335.57142857142856,347.1808016640799,3629.2,334.07142857142856,347.1808016640799,3733.2,334.07142857142856,347.1808016640799,3840.2,334.07142857142856,347.1808016640799,3944.5]","[]","",""
"1400","","","","instructions","22","385495","0.0-8.0-2.0","50","1","2025-07-02 10:18:49","80fe4187154257d5fb01684ea91b68b9","31.51.53.164","Mozilla/5.0 (Windows NT 10.0; Win64; x64) AppleWebKit/537.36 (KHTML, like Gecko) Chrome/137.0.0.0 Safari/537.36","WebKit","Chrome","137.0.0.0","Windows","10.0","https://app.prolific.com/","en-US,en;q=0.9","5d1290103b20b0000102e8e3","683db6dfa200031b80f2a654","6865077a0202f353346dd238","5d1290103b20b0000102e8e3","","[{""page_index"":0,""viewing_time"":1400}]","","","","","","","","","","","","","","","","","","","","","","","","","","","","","","","","","","","","","","","","","","",""
"","","","","ctl-task-cpt","23","401716","0.0-8.0-3.0","50","1","2025-07-02 10:18:49","80fe4187154257d5fb01684ea91b68b9","31.51.53.164","Mozilla/5.0 (Windows NT 10.0; Win64; x64) AppleWebKit/537.36 (KHTML, like Gecko) Chrome/137.0.0.0 Safari/537.36","WebKit","Chrome","137.0.0.0","Windows","10.0","https://app.prolific.com/","en-US,en;q=0.9","5d1290103b20b0000102e8e3","683db6dfa200031b80f2a654","6865077a0202f353346dd238","5d1290103b20b0000102e8e3","","","","","","","","","","","","","","","","","win-only","2","g1:SE,g2:NW","0.35","0","3","389642","2644.3","6652.4","13198.9","2","4","8","6","1","-2","-2","0","0","0","4007.9","4000","-2220","[""down"",""right""]","{""num_key_presses"":0,""num_perfect"":0,""num_errors"":0,""num_randdir"":0,""num_randdir_good_moves"":0,""num_whilered"":0,""num_whileblue"":0,""num_blue"":0,""num_good_moves"":0}","[416.57142857142856,407.1808016640799,1.9,416.57142857142856,407.1808016640799,101,416.57142857142856,407.1808016640799,204.2,416.57142857142856,407.1808016640799,307,416.57142857142856,407.1808016640799,412.8,416.57142857142856,407.1808016640799,514.7,416.57142857142856,407.1808016640799,617.6,416.57142857142856,407.1808016640799,722.2,641.5714285714286,549.6808016640799,826.6,797.5714285714286,711.6808016640799,927.4,821.5714285714286,728.1808016640799,1028.1,821.5714285714286,728.1808016640799,1133.5,821.5714285714286,728.1808016640799,1239.8,815.5714285714286,728.1808016640799,1342.4,710.5714285714286,668.1808016640799,1444.8,626.5714285714286,554.1808016640799,1546.2,581.5714285714286,479.1808016640799,1649.8,581.5714285714286,479.1808016640799,1753.6,581.5714285714286,479.1808016640799,1854.1,581.5714285714286,479.1808016640799,1956.6,566.5714285714286,506.1808016640799,2056.6,565.0714285714286,515.1808016640799,2160.5,565.0714285714286,515.1808016640799,2265.8,565.0714285714286,515.1808016640799,2372.8,565.0714285714286,515.1808016640799,2473.1,565.0714285714286,515.1808016640799,2585.2,565.0714285714286,515.1808016640799,2685.5,565.0714285714286,515.1808016640799,2797.1,565.0714285714286,515.1808016640799,2898,565.0714285714286,515.1808016640799,3002.8,565.0714285714286,515.1808016640799,3103.5,565.0714285714286,515.1808016640799,3206.5,565.0714285714286,515.1808016640799,3309.3,565.0714285714286,515.1808016640799,3416.1,565.0714285714286,515.1808016640799,3521.1,565.0714285714286,515.1808016640799,3622.5,565.0714285714286,515.1808016640799,3724.5,565.0714285714286,515.1808016640799,3833.6,565.0714285714286,515.1808016640799,3936.1]","[]","",""
"20136","","","","instructions","24","421855","0.0-8.0-4.0","50","1","2025-07-02 10:18:49","80fe4187154257d5fb01684ea91b68b9","31.51.53.164","Mozilla/5.0 (Windows NT 10.0; Win64; x64) AppleWebKit/537.36 (KHTML, like Gecko) Chrome/137.0.0.0 Safari/537.36","WebKit","Chrome","137.0.0.0","Windows","10.0","https://app.prolific.com/","en-US,en;q=0.9","5d1290103b20b0000102e8e3","683db6dfa200031b80f2a654","6865077a0202f353346dd238","5d1290103b20b0000102e8e3","","[{""page_index"":0,""viewing_time"":10982},{""page_index"":1,""viewing_time"":9150}]","","","","","","","","","","","","","","","","","","","","","","","","","","","","","","","","","","","","","","","","","","",""
"9440","","","{""green_ball"":[""Ball always moves in the direction I press""]}","survey-multi-select","25","431311","0.0-8.0-5.0-0.0","50","1","2025-07-02 10:18:49","80fe4187154257d5fb01684ea91b68b9","31.51.53.164","Mozilla/5.0 (Windows NT 10.0; Win64; x64) AppleWebKit/537.36 (KHTML, like Gecko) Chrome/137.0.0.0 Safari/537.36","WebKit","Chrome","137.0.0.0","Windows","10.0","https://app.prolific.com/","en-US,en;q=0.9","5d1290103b20b0000102e8e3","683db6dfa200031b80f2a654","6865077a0202f353346dd238","5d1290103b20b0000102e8e3","","","[0]","","","","quiz","","","","","","","","","","","","","","","","","","","","","","","","","","","","","","","","","","","","","false",""
"5239","","<p align='center'><b>INCORRECT.</b> Usually the green ball moves in the indicated direction, but sometimes it shakes and moves randomly. </p>","0","html-button-response","26","436563","0.0-8.0-5.0-1.0","50","1","2025-07-02 10:18:49","80fe4187154257d5fb01684ea91b68b9","31.51.53.164","Mozilla/5.0 (Windows NT 10.0; Win64; x64) AppleWebKit/537.36 (KHTML, like Gecko) Chrome/137.0.0.0 Safari/537.36","WebKit","Chrome","137.0.0.0","Windows","10.0","https://app.prolific.com/","en-US,en;q=0.9","5d1290103b20b0000102e8e3","683db6dfa200031b80f2a654","6865077a0202f353346dd238","5d1290103b20b0000102e8e3","","","","","","","","","","","","","","","","","","","","","","","","","","","","","","","","","","","","","","","","","","","","",""
"3955","","","{""green_ball"":[""Ball sometimes shakes and moves in a random direction""]}","survey-multi-select","27","440534","0.0-8.0-5.1-0.1","50","1","2025-07-02 10:18:49","80fe4187154257d5fb01684ea91b68b9","31.51.53.164","Mozilla/5.0 (Windows NT 10.0; Win64; x64) AppleWebKit/537.36 (KHTML, like Gecko) Chrome/137.0.0.0 Safari/537.36","WebKit","Chrome","137.0.0.0","Windows","10.0","https://app.prolific.com/","en-US,en;q=0.9","5d1290103b20b0000102e8e3","683db6dfa200031b80f2a654","6865077a0202f353346dd238","5d1290103b20b0000102e8e3","","","[0]","","","","quiz","","","","","","","","","","","","","","","","","","","","","","","","","","","","","","","","","","","","","true",""
"1289","","<p align='center'><b>CORRECT!</b> Indeed, the green ball may sometimes shake and move in a random direction.</p>","0","html-button-response","28","441828","0.0-8.0-5.1-1.1","50","1","2025-07-02 10:18:49","80fe4187154257d5fb01684ea91b68b9","31.51.53.164","Mozilla/5.0 (Windows NT 10.0; Win64; x64) AppleWebKit/537.36 (KHTML, like Gecko) Chrome/137.0.0.0 Safari/537.36","WebKit","Chrome","137.0.0.0","Windows","10.0","https://app.prolific.com/","en-US,en;q=0.9","5d1290103b20b0000102e8e3","683db6dfa200031b80f2a654","6865077a0202f353346dd238","5d1290103b20b0000102e8e3","","","","","","","","","","","","","","","","","","","","","","","","","","","","","","","","","","","","","","","","","","","","",""
"3643","","","{""yellow_ball"":[""Ball doesn‘t move and I get -1 penalty point""]}","survey-multi-select","29","445484","0.0-8.0-6.0-0.0","50","1","2025-07-02 10:18:49","80fe4187154257d5fb01684ea91b68b9","31.51.53.164","Mozilla/5.0 (Windows NT 10.0; Win64; x64) AppleWebKit/537.36 (KHTML, like Gecko) Chrome/137.0.0.0 Safari/537.36","WebKit","Chrome","137.0.0.0","Windows","10.0","https://app.prolific.com/","en-US,en;q=0.9","5d1290103b20b0000102e8e3","683db6dfa200031b80f2a654","6865077a0202f353346dd238","5d1290103b20b0000102e8e3","","","[0]","","","","quiz","","","","","","","","","","","","","","","","","","","","","","","","","","","","","","","","","","","","","true",""
"1196","","<p align='center'><b>CORRECT!</b> Indeed, the yellow ball never moves and you receive a penalty.</p>","0","html-button-response","30","446682","0.0-8.0-6.0-1.0","50","1","2025-07-02 10:18:49","80fe4187154257d5fb01684ea91b68b9","31.51.53.164","Mozilla/5.0 (Windows NT 10.0; Win64; x64) AppleWebKit/537.36 (KHTML, like Gecko) Chrome/137.0.0.0 Safari/537.36","WebKit","Chrome","137.0.0.0","Windows","10.0","https://app.prolific.com/","en-US,en;q=0.9","5d1290103b20b0000102e8e3","683db6dfa200031b80f2a654","6865077a0202f353346dd238","5d1290103b20b0000102e8e3","","","","","","","","","","","","","","","","","","","","","","","","","","","","","","","","","","","","","","","","","","","","",""
"4777","","","{""blue_ball"":[""Ball doesn‘t move and I get -1 penalty point""]}","survey-multi-select","31","451462","0.0-8.0-7.0-0.0","50","1","2025-07-02 10:18:49","80fe4187154257d5fb01684ea91b68b9","31.51.53.164","Mozilla/5.0 (Windows NT 10.0; Win64; x64) AppleWebKit/537.36 (KHTML, like Gecko) Chrome/137.0.0.0 Safari/537.36","WebKit","Chrome","137.0.0.0","Windows","10.0","https://app.prolific.com/","en-US,en;q=0.9","5d1290103b20b0000102e8e3","683db6dfa200031b80f2a654","6865077a0202f353346dd238","5d1290103b20b0000102e8e3","","","[0]","","","","quiz","","","","","","","","","","","","","","","","","","","","","","","","","","","","","","","","","","","","","false",""
"2107","","<p align='center'><b>INCORRECT.</b> The blue ball always shakes and moves randomly.</p>","0","html-button-response","32","453574","0.0-8.0-7.0-1.0","50","1","2025-07-02 10:18:49","80fe4187154257d5fb01684ea91b68b9","31.51.53.164","Mozilla/5.0 (Windows NT 10.0; Win64; x64) AppleWebKit/537.36 (KHTML, like Gecko) Chrome/137.0.0.0 Safari/537.36","WebKit","Chrome","137.0.0.0","Windows","10.0","https://app.prolific.com/","en-US,en;q=0.9","5d1290103b20b0000102e8e3","683db6dfa200031b80f2a654","6865077a0202f353346dd238","5d1290103b20b0000102e8e3","","","","","","","","","","","","","","","","","","","","","","","","","","","","","","","","","","","","","","","","","","","","",""
"5643","","","{""blue_ball"":[""Ball sometimes shakes and moves in a random direction""]}","survey-multi-select","33","459231","0.0-8.0-7.1-0.1","50","1","2025-07-02 10:18:49","80fe4187154257d5fb01684ea91b68b9","31.51.53.164","Mozilla/5.0 (Windows NT 10.0; Win64; x64) AppleWebKit/537.36 (KHTML, like Gecko) Chrome/137.0.0.0 Safari/537.36","WebKit","Chrome","137.0.0.0","Windows","10.0","https://app.prolific.com/","en-US,en;q=0.9","5d1290103b20b0000102e8e3","683db6dfa200031b80f2a654","6865077a0202f353346dd238","5d1290103b20b0000102e8e3","","","[0]","","","","quiz","","","","","","","","","","","","","","","","","","","","","","","","","","","","","","","","","","","","","false",""
"2507","","<p align='center'><b>INCORRECT.</b> The blue ball always shakes and moves randomly.</p>","0","html-button-response","34","461744","0.0-8.0-7.1-1.1","50","1","2025-07-02 10:18:49","80fe4187154257d5fb01684ea91b68b9","31.51.53.164","Mozilla/5.0 (Windows NT 10.0; Win64; x64) AppleWebKit/537.36 (KHTML, like Gecko) Chrome/137.0.0.0 Safari/537.36","WebKit","Chrome","137.0.0.0","Windows","10.0","https://app.prolific.com/","en-US,en;q=0.9","5d1290103b20b0000102e8e3","683db6dfa200031b80f2a654","6865077a0202f353346dd238","5d1290103b20b0000102e8e3","","","","","","","","","","","","","","","","","","","","","","","","","","","","","","","","","","","","","","","","","","","","",""
"2735","","","{""blue_ball"":[""Ball always shakes and moves in a random direction""]}","survey-multi-select","35","464488","0.0-8.0-7.2-0.2","50","1","2025-07-02 10:18:49","80fe4187154257d5fb01684ea91b68b9","31.51.53.164","Mozilla/5.0 (Windows NT 10.0; Win64; x64) AppleWebKit/537.36 (KHTML, like Gecko) Chrome/137.0.0.0 Safari/537.36","WebKit","Chrome","137.0.0.0","Windows","10.0","https://app.prolific.com/","en-US,en;q=0.9","5d1290103b20b0000102e8e3","683db6dfa200031b80f2a654","6865077a0202f353346dd238","5d1290103b20b0000102e8e3","","","[0]","","","","quiz","","","","","","","","","","","","","","","","","","","","","","","","","","","","","","","","","","","","","true",""
"1907","","<p align='center'><b>CORRECT!</b> Indeed, the blue ball always shakes and moves in a random direction. Also there is a penalty of -1 point.</p>","0","html-button-response","36","466397","0.0-8.0-7.2-1.2","50","1","2025-07-02 10:18:49","80fe4187154257d5fb01684ea91b68b9","31.51.53.164","Mozilla/5.0 (Windows NT 10.0; Win64; x64) AppleWebKit/537.36 (KHTML, like Gecko) Chrome/137.0.0.0 Safari/537.36","WebKit","Chrome","137.0.0.0","Windows","10.0","https://app.prolific.com/","en-US,en;q=0.9","5d1290103b20b0000102e8e3","683db6dfa200031b80f2a654","6865077a0202f353346dd238","5d1290103b20b0000102e8e3","","","","","","","","","","","","","","","","","","","","","","","","","","","","","","","","","","","","","","","","","","","","",""
"9046","","","{""bonus"":[""When I reach all possible points""]}","survey-multi-select","37","475445","0.0-8.0-8.0-0.0","50","1","2025-07-02 10:18:49","80fe4187154257d5fb01684ea91b68b9","31.51.53.164","Mozilla/5.0 (Windows NT 10.0; Win64; x64) AppleWebKit/537.36 (KHTML, like Gecko) Chrome/137.0.0.0 Safari/537.36","WebKit","Chrome","137.0.0.0","Windows","10.0","https://app.prolific.com/","en-US,en;q=0.9","5d1290103b20b0000102e8e3","683db6dfa200031b80f2a654","6865077a0202f353346dd238","5d1290103b20b0000102e8e3","","","[0]","","","","quiz","","","","","","","","","","","","","","","","","","","","","","","","","","","","","","","","","","","","","false",""
"2166","","<p align='center'><b>INCORRECT.</b> You receive 2 pounds extra when you reach 50% of points </p>","0","html-button-response","38","477616","0.0-8.0-8.0-1.0","50","1","2025-07-02 10:18:49","80fe4187154257d5fb01684ea91b68b9","31.51.53.164","Mozilla/5.0 (Windows NT 10.0; Win64; x64) AppleWebKit/537.36 (KHTML, like Gecko) Chrome/137.0.0.0 Safari/537.36","WebKit","Chrome","137.0.0.0","Windows","10.0","https://app.prolific.com/","en-US,en;q=0.9","5d1290103b20b0000102e8e3","683db6dfa200031b80f2a654","6865077a0202f353346dd238","5d1290103b20b0000102e8e3","","","","","","","","","","","","","","","","","","","","","","","","","","","","","","","","","","","","","","","","","","","","",""
"2229","","","{""bonus"":[""When I reach 50% of points""]}","survey-multi-select","39","479853","0.0-8.0-8.1-0.1","50","1","2025-07-02 10:18:49","80fe4187154257d5fb01684ea91b68b9","31.51.53.164","Mozilla/5.0 (Windows NT 10.0; Win64; x64) AppleWebKit/537.36 (KHTML, like Gecko) Chrome/137.0.0.0 Safari/537.36","WebKit","Chrome","137.0.0.0","Windows","10.0","https://app.prolific.com/","en-US,en;q=0.9","5d1290103b20b0000102e8e3","683db6dfa200031b80f2a654","6865077a0202f353346dd238","5d1290103b20b0000102e8e3","","","[0]","","","","quiz","","","","","","","","","","","","","","","","","","","","","","","","","","","","","","","","","","","","","true",""
"1101","","<p align='center'><b>CORRECT!</b> Indeed, you receive 2 pounds extra when you reach 50% of points.</p>","0","html-button-response","40","480955","0.0-8.0-8.1-1.1","50","1","2025-07-02 10:18:49","80fe4187154257d5fb01684ea91b68b9","31.51.53.164","Mozilla/5.0 (Windows NT 10.0; Win64; x64) AppleWebKit/537.36 (KHTML, like Gecko) Chrome/137.0.0.0 Safari/537.36","WebKit","Chrome","137.0.0.0","Windows","10.0","https://app.prolific.com/","en-US,en;q=0.9","5d1290103b20b0000102e8e3","683db6dfa200031b80f2a654","6865077a0202f353346dd238","5d1290103b20b0000102e8e3","","","","","","","","","","","","","","","","","","","","","","","","","","","","","","","","","","","","","","","","","","","","",""
"2314","","","","instructions","41","483271","0.0-8.0-9.0","50","1","2025-07-02 10:18:49","80fe4187154257d5fb01684ea91b68b9","31.51.53.164","Mozilla/5.0 (Windows NT 10.0; Win64; x64) AppleWebKit/537.36 (KHTML, like Gecko) Chrome/137.0.0.0 Safari/537.36","WebKit","Chrome","137.0.0.0","Windows","10.0","https://app.prolific.com/","en-US,en;q=0.9","5d1290103b20b0000102e8e3","683db6dfa200031b80f2a654","6865077a0202f353346dd238","5d1290103b20b0000102e8e3","","[{""page_index"":0,""viewing_time"":2312}]","","","","","","","","","","","","","","","","","","","","","","","","","","","","","","","","","","","","","","","","","","",""
"11162","","<p>Before you start with this game please answer the following three questions yourself. </p>
  <p>Through this game, we measure several aspects of your cognitive performance, such as reaction times, multi-tasking capabilities </p>
  <p>and the ability to assess the situation you are in.</p>
  <p></p>
  <p><b>How good do you usually are in such tasks?</b></p>","62","html-slider-response","42","494445","0.0-9.0-0.0","50","1","2025-07-02 10:18:49","80fe4187154257d5fb01684ea91b68b9","31.51.53.164","Mozilla/5.0 (Windows NT 10.0; Win64; x64) AppleWebKit/537.36 (KHTML, like Gecko) Chrome/137.0.0.0 Safari/537.36","WebKit","Chrome","137.0.0.0","Windows","10.0","https://app.prolific.com/","en-US,en;q=0.9","5d1290103b20b0000102e8e3","683db6dfa200031b80f2a654","6865077a0202f353346dd238","5d1290103b20b0000102e8e3","2025-07-02T10:27:06.833Z","","","","","","PreSkillQ","","","","","","","","","","","","","","","","","","","","","","","","","","","","","","","","","","","","","","50"
"3647","","<div style=""width:500px;"">
  <p>How well do you think you will perform in this task compared to other participants?</p>
  </div>","50","html-slider-response","43","498094","0.0-9.0-1.0","50","1","2025-07-02 10:18:49","80fe4187154257d5fb01684ea91b68b9","31.51.53.164","Mozilla/5.0 (Windows NT 10.0; Win64; x64) AppleWebKit/537.36 (KHTML, like Gecko) Chrome/137.0.0.0 Safari/537.36","WebKit","Chrome","137.0.0.0","Windows","10.0","https://app.prolific.com/","en-US,en;q=0.9","5d1290103b20b0000102e8e3","683db6dfa200031b80f2a654","6865077a0202f353346dd238","5d1290103b20b0000102e8e3","2025-07-02T10:27:10.482Z","","","","","","PrePerfQ","","","","","","","","","","","","","","","","","","","","","","","","","","","","","","","","","","","","","","50"
"3704","","<div style=""width:500px;"">
  <p>What best describes how you currently feel?</p>
  </div>","39","html-slider-response","44","501800","0.0-9.0-2.0","50","1","2025-07-02 10:18:49","80fe4187154257d5fb01684ea91b68b9","31.51.53.164","Mozilla/5.0 (Windows NT 10.0; Win64; x64) AppleWebKit/537.36 (KHTML, like Gecko) Chrome/137.0.0.0 Safari/537.36","WebKit","Chrome","137.0.0.0","Windows","10.0","https://app.prolific.com/","en-US,en;q=0.9","5d1290103b20b0000102e8e3","683db6dfa200031b80f2a654","6865077a0202f353346dd238","5d1290103b20b0000102e8e3","2025-07-02T10:27:14.188Z","","","","","","PreMotivationQ","","","","","","","","","","","","","","","","","","","","","","","","","","","","","","","","","","","","","","50"
"","","","","ctl-task-cpt","45","534575","0.0-10.0-0.0","50","1","2025-07-02 10:18:49","80fe4187154257d5fb01684ea91b68b9","31.51.53.164","Mozilla/5.0 (Windows NT 10.0; Win64; x64) AppleWebKit/537.36 (KHTML, like Gecko) Chrome/137.0.0.0 Safari/537.36","WebKit","Chrome","137.0.0.0","Windows","10.0","https://app.prolific.com/","en-US,en;q=0.9","5d1290103b20b0000102e8e3","683db6dfa200031b80f2a654","6865077a0202f353346dd238","5d1290103b20b0000102e8e3","2025-07-02T10:27:46.963Z","","","","","","","","","","","","","","","","win-only","1","g1:NE,g2:SW","1","1","0","505954.6","3626.7","8639.9","29752.2","1","4","8","6","2","-8","-10","0","0","0","5013.1","3000","-2115","[""down"",""left""]","{""num_key_presses"":9,""num_perfect"":5,""num_errors"":2,""num_randdir"":0,""num_randdir_good_moves"":0,""num_whilered"":2,""num_whileblue"":0,""num_blue"":0,""num_good_moves"":5}","[418.07142857142856,416.1808016640799,1.3,418.07142857142856,416.1808016640799,109.5,418.07142857142856,416.1808016640799,210.7,418.07142857142856,416.1808016640799,314.7,418.07142857142856,416.1808016640799,415.9,418.07142857142856,416.1808016640799,524.4,418.07142857142856,416.1808016640799,624.8,418.07142857142856,416.1808016640799,736.6,418.07142857142856,416.1808016640799,838.1,418.07142857142856,416.1808016640799,943.6,418.07142857142856,416.1808016640799,1044.5,418.07142857142856,416.1808016640799,1149.5,418.07142857142856,416.1808016640799,1260.2,418.07142857142856,416.1808016640799,1366.2,418.07142857142856,416.1808016640799,1466.3,418.07142857142856,416.1808016640799,1582.3,418.07142857142856,416.1808016640799,1690.5,418.07142857142856,416.1808016640799,1792.2,418.07142857142856,416.1808016640799,1902.3,418.07142857142856,416.1808016640799,2005.1,418.07142857142856,416.1808016640799,2109.2,418.07142857142856,416.1808016640799,2210,418.07142857142856,416.1808016640799,2310.9,418.07142857142856,416.1808016640799,2415.4,418.07142857142856,416.1808016640799,2517,418.07142857142856,416.1808016640799,2623.6,418.07142857142856,416.1808016640799,2725.1,418.07142857142856,416.1808016640799,2825.5,418.07142857142856,416.1808016640799,2932.8,418.07142857142856,416.1808016640799,3033.5,418.07142857142856,416.1808016640799,3135.3,418.07142857142856,416.1808016640799,3241.1,418.07142857142856,416.1808016640799,3346.6,418.07142857142856,416.1808016640799,3448.7,418.07142857142856,416.1808016640799,3551.8,418.07142857142856,416.1808016640799,3658.5,418.07142857142856,416.1808016640799,3759.6,418.07142857142856,416.1808016640799,3860.2,418.07142857142856,416.1808016640799,3963.9,418.07142857142856,416.1808016640799,4065,418.07142857142856,416.1808016640799,4167.2,418.07142857142856,416.1808016640799,4269.3,418.07142857142856,416.1808016640799,4374.5,418.07142857142856,416.1808016640799,4482,418.07142857142856,416.1808016640799,4591.1,418.07142857142856,416.1808016640799,4704.8,418.07142857142856,416.1808016640799,4809.7,418.07142857142856,416.1808016640799,4910.4]","[1773.8,1773.8,1000,0,773.8,""smooth"",""left"",""left"",""good_move"",2150.7,375.6,2282.2,1775.2,-1906.7,""error"",""-"",""-"",""no_move"",2381.3,229.7,2282.2,1775.2,-1676.1,""while_red"",""-"",""-"",""no_move"",2537.8,386.2,2282.2,1775.2,-1519.6,""while_red"",""-"",""-"",""no_move"",6612.6,4461,2401.4,3153.5,1057.7,""smooth"",""down"",""down"",""good_move"",10450.3,3835.8,3084.7,6614.6,751,""smooth"",""left"",""left"",""good_move"",13233.4,2782.4,2238.2,10451.1,544.2,""smooth"",""down"",""down"",""good_move"",13688.6,454.2,2438.1,13234.5,-1983.9,""error"",""-"",""-"",""no_move"",18263.3,4574.4,2600.3,14694.1,968.9,""smooth"",""down"",""down"",""good_move""]","",""
"5550","","<div style=""width:500px;"">
  <p>What determined the result of this run?</p>
  </div>","65","html-slider-response","46","540127","0.0-10.0-1.0","50","1","2025-07-02 10:18:49","80fe4187154257d5fb01684ea91b68b9","31.51.53.164","Mozilla/5.0 (Windows NT 10.0; Win64; x64) AppleWebKit/537.36 (KHTML, like Gecko) Chrome/137.0.0.0 Safari/537.36","WebKit","Chrome","137.0.0.0","Windows","10.0","https://app.prolific.com/","en-US,en;q=0.9","5d1290103b20b0000102e8e3","683db6dfa200031b80f2a654","6865077a0202f353346dd238","5d1290103b20b0000102e8e3","2025-07-02T10:27:52.515Z","","","","","","AttribQ","","","","","","","","","","","","","","","","","","","","","","","","","","","","","","","","","","","","","","50"
"3185","","<div style=""width:500px;"">
  <p>How much control did you have over the ball?</p>
  </div>","21","html-slider-response","47","543313","0.0-10.0-2.0","50","1","2025-07-02 10:18:49","80fe4187154257d5fb01684ea91b68b9","31.51.53.164","Mozilla/5.0 (Windows NT 10.0; Win64; x64) AppleWebKit/537.36 (KHTML, like Gecko) Chrome/137.0.0.0 Safari/537.36","WebKit","Chrome","137.0.0.0","Windows","10.0","https://app.prolific.com/","en-US,en;q=0.9","5d1290103b20b0000102e8e3","683db6dfa200031b80f2a654","6865077a0202f353346dd238","5d1290103b20b0000102e8e3","2025-07-02T10:27:55.701Z","","","","","","ControlQ","","","","","","","","","","","","","","","","","","","","","","","","","","","","","","","","","","","","","","50"
"5717","","<div style=""width:500px;"">
  <p>How would you describe your current emotional state?</p>
  </div>","68","html-slider-response","48","549031","0.0-10.0-3.0","50","1","2025-07-02 10:18:49","80fe4187154257d5fb01684ea91b68b9","31.51.53.164","Mozilla/5.0 (Windows NT 10.0; Win64; x64) AppleWebKit/537.36 (KHTML, like Gecko) Chrome/137.0.0.0 Safari/537.36","WebKit","Chrome","137.0.0.0","Windows","10.0","https://app.prolific.com/","en-US,en;q=0.9","5d1290103b20b0000102e8e3","683db6dfa200031b80f2a654","6865077a0202f353346dd238","5d1290103b20b0000102e8e3","2025-07-02T10:28:01.420Z","","","","","","StressQ","","","","","","","","","","","","","","","","","","","","","","","","","","","","","","","","","","","","","","50"
"4229","","<div style=""width:500px;"">
  <p>What best describes how you currently feel?</p>
  </div>","77","html-slider-response","49","553266","0.0-10.0-4.0","50","1","2025-07-02 10:18:49","80fe4187154257d5fb01684ea91b68b9","31.51.53.164","Mozilla/5.0 (Windows NT 10.0; Win64; x64) AppleWebKit/537.36 (KHTML, like Gecko) Chrome/137.0.0.0 Safari/537.36","WebKit","Chrome","137.0.0.0","Windows","10.0","https://app.prolific.com/","en-US,en;q=0.9","5d1290103b20b0000102e8e3","683db6dfa200031b80f2a654","6865077a0202f353346dd238","5d1290103b20b0000102e8e3","2025-07-02T10:28:05.655Z","","","","","","MotivationQ","","","","","","","","","","","","","","","","","","","","","","","","","","","","","","","","","","","","","","50"
"","","","","ctl-task-cpt","50","584039","0.0-10.0-0.1","50","1","2025-07-02 10:18:49","80fe4187154257d5fb01684ea91b68b9","31.51.53.164","Mozilla/5.0 (Windows NT 10.0; Win64; x64) AppleWebKit/537.36 (KHTML, like Gecko) Chrome/137.0.0.0 Safari/537.36","WebKit","Chrome","137.0.0.0","Windows","10.0","https://app.prolific.com/","en-US,en;q=0.9","5d1290103b20b0000102e8e3","683db6dfa200031b80f2a654","6865077a0202f353346dd238","5d1290103b20b0000102e8e3","2025-07-02T10:28:36.427Z","","","","","","","","","","","","","","","","win-only","3","g1:SW,g2:NE","0.9","2","0","557428.2","3669","8671.3","27752.2","1","4","4","6","2","4","4","4","0","0.030303030303030304","5002.3","3000","1290","[""up"",""right""]","{""num_key_presses"":6,""num_perfect"":6,""num_errors"":0,""num_randdir"":0,""num_randdir_good_moves"":0,""num_whilered"":0,""num_whileblue"":0,""num_blue"":1,""num_good_moves"":6}","[415.07142857142856,419.1808016640799,0.8,415.07142857142856,419.1808016640799,103.5,415.07142857142856,419.1808016640799,203.9,415.07142857142856,419.1808016640799,309.9,415.07142857142856,419.1808016640799,418.9,415.07142857142856,419.1808016640799,521.2,415.07142857142856,419.1808016640799,625.4,415.07142857142856,419.1808016640799,726.1,415.07142857142856,419.1808016640799,829.3,415.07142857142856,419.1808016640799,935.1,415.07142857142856,419.1808016640799,1036.4,415.07142857142856,419.1808016640799,1139.8,415.07142857142856,419.1808016640799,1240.1,415.07142857142856,419.1808016640799,1340.1,415.07142857142856,419.1808016640799,1442.7,415.07142857142856,419.1808016640799,1553.8,415.07142857142856,419.1808016640799,1654.4,415.07142857142856,419.1808016640799,1768.4,415.07142857142856,419.1808016640799,1872.5,415.07142857142856,419.1808016640799,1972.8,415.07142857142856,419.1808016640799,2085.7,415.07142857142856,419.1808016640799,2187.9,415.07142857142856,419.1808016640799,2303,415.07142857142856,419.1808016640799,2408.3,415.07142857142856,419.1808016640799,2509.5,415.07142857142856,419.1808016640799,2620.8,415.07142857142856,419.1808016640799,2725.8,415.07142857142856,419.1808016640799,2826.3,415.07142857142856,419.1808016640799,2926.3,415.07142857142856,419.1808016640799,3034.9,415.07142857142856,419.1808016640799,3141.1,415.07142857142856,419.1808016640799,3242.7,415.07142857142856,419.1808016640799,3342.9,415.07142857142856,419.1808016640799,3451.3,415.07142857142856,419.1808016640799,3551.9,415.07142857142856,419.1808016640799,3653.4,415.07142857142856,419.1808016640799,3768.7,415.07142857142856,419.1808016640799,3884.5,415.07142857142856,419.1808016640799,3990.6,415.07142857142856,419.1808016640799,4100.9,415.07142857142856,419.1808016640799,4206.5,415.07142857142856,419.1808016640799,4319.9,415.07142857142856,419.1808016640799,4421.5,415.07142857142856,419.1808016640799,4522.9,415.07142857142856,419.1808016640799,4629,415.07142857142856,419.1808016640799,4735.4,415.07142857142856,419.1808016640799,4842.1,415.07142857142856,419.1808016640799,4945.9]","[1431.2,1431.2,1000,0,431.2,""smooth"",""up"",""up"",""good_move"",4413.4,2981.1,2560.1,1432.4,420.9,""smooth"",""right"",""right"",""good_move"",7563,3149.2,2751.6,4413.8,397.6,""smooth"",""right"",""right"",""good_move"",10597.5,3034.2,2593.7,7563.3,440.5,""smooth"",""up"",""up"",""good_move"",13452.9,2854.4,2457.2,10598.5,397.2,""smooth"",""up"",""up"",""good_move"",18914.9,5461.4,2033.9,16366.5,514.5,""smooth"",""right"",""right"",""good_move""]","",""
"3647","","<div style=""width:500px;"">
  <p>What determined the result of this run?</p>
  </div>","86","html-slider-response","51","587691","0.0-10.0-1.1","50","1","2025-07-02 10:18:49","80fe4187154257d5fb01684ea91b68b9","31.51.53.164","Mozilla/5.0 (Windows NT 10.0; Win64; x64) AppleWebKit/537.36 (KHTML, like Gecko) Chrome/137.0.0.0 Safari/537.36","WebKit","Chrome","137.0.0.0","Windows","10.0","https://app.prolific.com/","en-US,en;q=0.9","5d1290103b20b0000102e8e3","683db6dfa200031b80f2a654","6865077a0202f353346dd238","5d1290103b20b0000102e8e3","2025-07-02T10:28:40.080Z","","","","","","AttribQ","","","","","","","","","","","","","","","","","","","","","","","","","","","","","","","","","","","","","","50"
"4262","","<div style=""width:500px;"">
  <p>How much control did you have over the ball?</p>
  </div>","56","html-slider-response","52","591965","0.0-10.0-2.1","50","1","2025-07-02 10:18:49","80fe4187154257d5fb01684ea91b68b9","31.51.53.164","Mozilla/5.0 (Windows NT 10.0; Win64; x64) AppleWebKit/537.36 (KHTML, like Gecko) Chrome/137.0.0.0 Safari/537.36","WebKit","Chrome","137.0.0.0","Windows","10.0","https://app.prolific.com/","en-US,en;q=0.9","5d1290103b20b0000102e8e3","683db6dfa200031b80f2a654","6865077a0202f353346dd238","5d1290103b20b0000102e8e3","2025-07-02T10:28:44.355Z","","","","","","ControlQ","","","","","","","","","","","","","","","","","","","","","","","","","","","","","","","","","","","","","","50"
"3287","","<div style=""width:500px;"">
  <p>How would you describe your current emotional state?</p>
  </div>","66","html-slider-response","53","595261","0.0-10.0-3.1","50","1","2025-07-02 10:18:49","80fe4187154257d5fb01684ea91b68b9","31.51.53.164","Mozilla/5.0 (Windows NT 10.0; Win64; x64) AppleWebKit/537.36 (KHTML, like Gecko) Chrome/137.0.0.0 Safari/537.36","WebKit","Chrome","137.0.0.0","Windows","10.0","https://app.prolific.com/","en-US,en;q=0.9","5d1290103b20b0000102e8e3","683db6dfa200031b80f2a654","6865077a0202f353346dd238","5d1290103b20b0000102e8e3","2025-07-02T10:28:47.649Z","","","","","","StressQ","","","","","","","","","","","","","","","","","","","","","","","","","","","","","","","","","","","","","","50"
"3617","","<div style=""width:500px;"">
  <p>What best describes how you currently feel?</p>
  </div>","70","html-slider-response","54","598879","0.0-10.0-4.1","50","1","2025-07-02 10:18:49","80fe4187154257d5fb01684ea91b68b9","31.51.53.164","Mozilla/5.0 (Windows NT 10.0; Win64; x64) AppleWebKit/537.36 (KHTML, like Gecko) Chrome/137.0.0.0 Safari/537.36","WebKit","Chrome","137.0.0.0","Windows","10.0","https://app.prolific.com/","en-US,en;q=0.9","5d1290103b20b0000102e8e3","683db6dfa200031b80f2a654","6865077a0202f353346dd238","5d1290103b20b0000102e8e3","2025-07-02T10:28:51.268Z","","","","","","MotivationQ","","","","","","","","","","","","","","","","","","","","","","","","","","","","","","","","","","","","","","50"
"","","","","ctl-task-cpt","55","643200","0.0-10.0-0.2","50","1","2025-07-02 10:18:49","80fe4187154257d5fb01684ea91b68b9","31.51.53.164","Mozilla/5.0 (Windows NT 10.0; Win64; x64) AppleWebKit/537.36 (KHTML, like Gecko) Chrome/137.0.0.0 Safari/537.36","WebKit","Chrome","137.0.0.0","Windows","10.0","https://app.prolific.com/","en-US,en;q=0.9","5d1290103b20b0000102e8e3","683db6dfa200031b80f2a654","6865077a0202f353346dd238","5d1290103b20b0000102e8e3","2025-07-02T10:29:35.589Z","","","","","","","","","","","","","","","","win-only","1","g1:NE,g2:SW","0.8","3","0","603029.9","3986.2","8996","41295.2","1","4","4","6","1","1","0","4","4","0.030303030303030304","5009.6","3000","445","[""up"",""right""]","{""num_key_presses"":9,""num_perfect"":7,""num_errors"":1,""num_randdir"":1,""num_randdir_good_moves"":0,""num_whilered"":0,""num_whileblue"":0,""num_blue"":2,""num_good_moves"":6}","[416.57142857142856,404.1808016640799,0.6,416.57142857142856,404.1808016640799,108.4,416.57142857142856,404.1808016640799,216.5,1220.5714285714287,110.18080166407994,327.4,1375.0714285714287,17.180801664079937,429.1,1375.0714285714287,17.180801664079937,537.6,1375.0714285714287,17.180801664079937,653,1375.0714285714287,17.180801664079937,768.6,1375.0714285714287,17.180801664079937,876.4,1375.0714285714287,17.180801664079937,979.1,1375.0714285714287,17.180801664079937,1084.6,1375.0714285714287,17.180801664079937,1187.3,1375.0714285714287,17.180801664079937,1291.3,1375.0714285714287,17.180801664079937,1392.6,1375.0714285714287,17.180801664079937,1501.2,1375.0714285714287,17.180801664079937,1614,1375.0714285714287,17.180801664079937,1725.2,1375.0714285714287,17.180801664079937,1829,1375.0714285714287,17.180801664079937,1934.6,1375.0714285714287,17.180801664079937,2040.3,1375.0714285714287,17.180801664079937,2154.6,1375.0714285714287,17.180801664079937,2256.4,1375.0714285714287,17.180801664079937,2356.5,1375.0714285714287,17.180801664079937,2456.7,1375.0714285714287,17.180801664079937,2559.8,1375.0714285714287,17.180801664079937,2669.4,1375.0714285714287,17.180801664079937,2769.9,1375.0714285714287,17.180801664079937,2869.9,1375.0714285714287,17.180801664079937,2975.3,1375.0714285714287,17.180801664079937,3084.4,1375.0714285714287,17.180801664079937,3186,1375.0714285714287,17.180801664079937,3300.5,1375.0714285714287,17.180801664079937,3402.4,1375.0714285714287,17.180801664079937,3502.5,1375.0714285714287,17.180801664079937,3606.5,1375.0714285714287,17.180801664079937,3711.8,1375.0714285714287,17.180801664079937,3819.3,1375.0714285714287,17.180801664079937,3920,1375.0714285714287,17.180801664079937,4031.6,1375.0714285714287,17.180801664079937,4136.9,1375.0714285714287,17.180801664079937,4241,1375.0714285714287,17.180801664079937,4352.8,1375.0714285714287,17.180801664079937,4458.5,1375.0714285714287,17.180801664079937,4570.6,1375.0714285714287,17.180801664079937,4671.9,1375.0714285714287,17.180801664079937,4773.4,1375.0714285714287,17.180801664079937,4877.6,1375.0714285714287,17.180801664079937,4984.3]","[1347.1,1347.1,1000,0,347.1,""smooth"",""left"",""left"",""bad_move"",4191.7,2843.7,2360.7,1348.2,482.8,""smooth"",""up"",""up"",""good_move"",7781.3,3588.8,2762.8,4192.6,826,""smooth"",""up"",""up"",""good_move"",15193.6,7409.9,2851.8,11857.4,484.4,""smooth"",""right"",""right"",""good_move"",17923.1,2726.7,2134.3,15196.4,592.4,""oops"",""right"",""left"",""bad_move"",18823.2,899.9,2546.1,17923.3,-1646.2,""error"",""-"",""-"",""no_move"",25946,7122.3,2467.7,22906.3,572,""smooth"",""right"",""right"",""good_move"",28810.7,2864.1,2328,25946.6,536.1,""smooth"",""right"",""right"",""good_move"",32156.7,3344.1,2903.8,28812.6,440.3,""smooth"",""right"",""right"",""good_move""]","",""
"7982","","<div style=""width:500px;"">
  <p>What determined the result of this run?</p>
  </div>","81","html-slider-response","56","651191","0.0-10.0-1.2","50","1","2025-07-02 10:18:49","80fe4187154257d5fb01684ea91b68b9","31.51.53.164","Mozilla/5.0 (Windows NT 10.0; Win64; x64) AppleWebKit/537.36 (KHTML, like Gecko) Chrome/137.0.0.0 Safari/537.36","WebKit","Chrome","137.0.0.0","Windows","10.0","https://app.prolific.com/","en-US,en;q=0.9","5d1290103b20b0000102e8e3","683db6dfa200031b80f2a654","6865077a0202f353346dd238","5d1290103b20b0000102e8e3","2025-07-02T10:29:43.580Z","","","","","","AttribQ","","","","","","","","","","","","","","","","","","","","","","","","","","","","","","","","","","","","","","50"
"6231","","<div style=""width:500px;"">
  <p>How much control did you have over the ball?</p>
  </div>","24","html-slider-response","57","657436","0.0-10.0-2.2","50","1","2025-07-02 10:18:49","80fe4187154257d5fb01684ea91b68b9","31.51.53.164","Mozilla/5.0 (Windows NT 10.0; Win64; x64) AppleWebKit/537.36 (KHTML, like Gecko) Chrome/137.0.0.0 Safari/537.36","WebKit","Chrome","137.0.0.0","Windows","10.0","https://app.prolific.com/","en-US,en;q=0.9","5d1290103b20b0000102e8e3","683db6dfa200031b80f2a654","6865077a0202f353346dd238","5d1290103b20b0000102e8e3","2025-07-02T10:29:49.825Z","","","","","","ControlQ","","","","","","","","","","","","","","","","","","","","","","","","","","","","","","","","","","","","","","50"
"3618","","<div style=""width:500px;"">
  <p>How would you describe your current emotional state?</p>
  </div>","66","html-slider-response","58","661059","0.0-10.0-3.2","50","1","2025-07-02 10:18:49","80fe4187154257d5fb01684ea91b68b9","31.51.53.164","Mozilla/5.0 (Windows NT 10.0; Win64; x64) AppleWebKit/537.36 (KHTML, like Gecko) Chrome/137.0.0.0 Safari/537.36","WebKit","Chrome","137.0.0.0","Windows","10.0","https://app.prolific.com/","en-US,en;q=0.9","5d1290103b20b0000102e8e3","683db6dfa200031b80f2a654","6865077a0202f353346dd238","5d1290103b20b0000102e8e3","2025-07-02T10:29:53.448Z","","","","","","StressQ","","","","","","","","","","","","","","","","","","","","","","","","","","","","","","","","","","","","","","50"
"3384","","<div style=""width:500px;"">
  <p>What best describes how you currently feel?</p>
  </div>","73","html-slider-response","59","664455","0.0-10.0-4.2","50","1","2025-07-02 10:18:49","80fe4187154257d5fb01684ea91b68b9","31.51.53.164","Mozilla/5.0 (Windows NT 10.0; Win64; x64) AppleWebKit/537.36 (KHTML, like Gecko) Chrome/137.0.0.0 Safari/537.36","WebKit","Chrome","137.0.0.0","Windows","10.0","https://app.prolific.com/","en-US,en;q=0.9","5d1290103b20b0000102e8e3","683db6dfa200031b80f2a654","6865077a0202f353346dd238","5d1290103b20b0000102e8e3","2025-07-02T10:29:56.843Z","","","","","","MotivationQ","","","","","","","","","","","","","","","","","","","","","","","","","","","","","","","","","","","","","","50"
"","","","","ctl-task-cpt","60","713604","0.0-10.0-0.3","50","1","2025-07-02 10:18:49","80fe4187154257d5fb01684ea91b68b9","31.51.53.164","Mozilla/5.0 (Windows NT 10.0; Win64; x64) AppleWebKit/537.36 (KHTML, like Gecko) Chrome/137.0.0.0 Safari/537.36","WebKit","Chrome","137.0.0.0","Windows","10.0","https://app.prolific.com/","en-US,en;q=0.9","5d1290103b20b0000102e8e3","683db6dfa200031b80f2a654","6865077a0202f353346dd238","5d1290103b20b0000102e8e3","2025-07-02T10:30:45.992Z","","","","","","","","","","","","","","","","win-only","0","g1:NW,g2:SE","0.7","4","0","668606.1","1407.9","6420.8","46128.8","1","4","8","6","2","-8","-8","0","4","0","5012.8","3000","-1710","[""down"",""right""]","{""num_key_presses"":9,""num_perfect"":6,""num_errors"":0,""num_randdir"":3,""num_randdir_good_moves"":0,""num_whilered"":0,""num_whileblue"":0,""num_blue"":3,""num_good_moves"":6}","[422.57142857142856,404.1808016640799,0.5,422.57142857142856,404.1808016640799,100.9,422.57142857142856,404.1808016640799,210.5,422.57142857142856,404.1808016640799,312.8,422.57142857142856,404.1808016640799,413.8,422.57142857142856,404.1808016640799,514.3,496.07142857142856,390.6808016640799,615.9,863.5714285714286,323.1808016640799,718.2,863.5714285714286,323.1808016640799,830,863.5714285714286,323.1808016640799,945,863.5714285714286,323.1808016640799,1046.6,863.5714285714286,323.1808016640799,1154.2,863.5714285714286,323.1808016640799,1255.3,863.5714285714286,323.1808016640799,1361.4,863.5714285714286,323.1808016640799,1477.4,863.5714285714286,323.1808016640799,1578.6,863.5714285714286,323.1808016640799,1686.4,863.5714285714286,323.1808016640799,1793.5,863.5714285714286,323.1808016640799,1895.2,863.5714285714286,323.1808016640799,1996.3,863.5714285714286,323.1808016640799,2101.9,863.5714285714286,323.1808016640799,2203.7,863.5714285714286,323.1808016640799,2310.7,863.5714285714286,323.1808016640799,2414.8,863.5714285714286,323.1808016640799,2517.4,863.5714285714286,323.1808016640799,2620,863.5714285714286,323.1808016640799,2726.7,863.5714285714286,323.1808016640799,2833.1,863.5714285714286,323.1808016640799,2936.1,863.5714285714286,323.1808016640799,3044.3,863.5714285714286,323.1808016640799,3158.4,863.5714285714286,323.1808016640799,3266.3,863.5714285714286,323.1808016640799,3369.1,863.5714285714286,323.1808016640799,3474,863.5714285714286,323.1808016640799,3577.1,863.5714285714286,323.1808016640799,3684,863.5714285714286,323.1808016640799,3789.7,863.5714285714286,323.1808016640799,3902.7,863.5714285714286,323.1808016640799,4004.3,863.5714285714286,323.1808016640799,4106.4,863.5714285714286,323.1808016640799,4209.1,863.5714285714286,323.1808016640799,4316.5,863.5714285714286,323.1808016640799,4421.5,863.5714285714286,323.1808016640799,4530.3,863.5714285714286,323.1808016640799,4638.8,863.5714285714286,323.1808016640799,4756.1,863.5714285714286,323.1808016640799,4865.1,863.5714285714286,323.1808016640799,4965.9]","[6093.7,6093.7,3629.8,2014.9,449,""smooth"",""down"",""down"",""good_move"",12613.3,6518.5,2024,10012.9,576.4,""smooth"",""right"",""right"",""good_move"",15817.2,3203.3,2445.1,12613.9,758.2,""smooth"",""right"",""right"",""good_move"",18826.1,3004.8,2321.7,15821.3,683.1,""smooth"",""down"",""down"",""good_move"",25093.9,6267.5,2226.7,22393,474.2,""oops"",""down"",""up"",""bad_move"",27503.6,2409.3,1722,25094.3,687.3,""smooth"",""down"",""down"",""good_move"",30237.7,2733.7,2235.1,27504.1,498.6,""smooth"",""down"",""down"",""good_move"",33224.9,2986.6,2580.3,30238.3,406.3,""oops"",""right"",""left"",""bad_move"",36584.4,3359.1,2726.2,33225.4,632.8,""oops"",""right"",""left"",""bad_move""]","",""
"6115","","<div style=""width:500px;"">
  <p>What determined the result of this run?</p>
  </div>","24","html-slider-response","61","719724","0.0-10.0-1.3","50","1","2025-07-02 10:18:49","80fe4187154257d5fb01684ea91b68b9","31.51.53.164","Mozilla/5.0 (Windows NT 10.0; Win64; x64) AppleWebKit/537.36 (KHTML, like Gecko) Chrome/137.0.0.0 Safari/537.36","WebKit","Chrome","137.0.0.0","Windows","10.0","https://app.prolific.com/","en-US,en;q=0.9","5d1290103b20b0000102e8e3","683db6dfa200031b80f2a654","6865077a0202f353346dd238","5d1290103b20b0000102e8e3","2025-07-02T10:30:52.113Z","","","","","","AttribQ","","","","","","","","","","","","","","","","","","","","","","","","","","","","","","","","","","","","","","50"
"3173","","<div style=""width:500px;"">
  <p>How much control did you have over the ball?</p>
  </div>","24","html-slider-response","62","722910","0.0-10.0-2.3","50","1","2025-07-02 10:18:49","80fe4187154257d5fb01684ea91b68b9","31.51.53.164","Mozilla/5.0 (Windows NT 10.0; Win64; x64) AppleWebKit/537.36 (KHTML, like Gecko) Chrome/137.0.0.0 Safari/537.36","WebKit","Chrome","137.0.0.0","Windows","10.0","https://app.prolific.com/","en-US,en;q=0.9","5d1290103b20b0000102e8e3","683db6dfa200031b80f2a654","6865077a0202f353346dd238","5d1290103b20b0000102e8e3","2025-07-02T10:30:55.298Z","","","","","","ControlQ","","","","","","","","","","","","","","","","","","","","","","","","","","","","","","","","","","","","","","50"
"3100","","<div style=""width:500px;"">
  <p>How would you describe your current emotional state?</p>
  </div>","82","html-slider-response","63","726017","0.0-10.0-3.3","50","1","2025-07-02 10:18:49","80fe4187154257d5fb01684ea91b68b9","31.51.53.164","Mozilla/5.0 (Windows NT 10.0; Win64; x64) AppleWebKit/537.36 (KHTML, like Gecko) Chrome/137.0.0.0 Safari/537.36","WebKit","Chrome","137.0.0.0","Windows","10.0","https://app.prolific.com/","en-US,en;q=0.9","5d1290103b20b0000102e8e3","683db6dfa200031b80f2a654","6865077a0202f353346dd238","5d1290103b20b0000102e8e3","2025-07-02T10:30:58.406Z","","","","","","StressQ","","","","","","","","","","","","","","","","","","","","","","","","","","","","","","","","","","","","","","50"
"3568","","<div style=""width:500px;"">
  <p>What best describes how you currently feel?</p>
  </div>","73","html-slider-response","64","729602","0.0-10.0-4.3","50","1","2025-07-02 10:18:49","80fe4187154257d5fb01684ea91b68b9","31.51.53.164","Mozilla/5.0 (Windows NT 10.0; Win64; x64) AppleWebKit/537.36 (KHTML, like Gecko) Chrome/137.0.0.0 Safari/537.36","WebKit","Chrome","137.0.0.0","Windows","10.0","https://app.prolific.com/","en-US,en;q=0.9","5d1290103b20b0000102e8e3","683db6dfa200031b80f2a654","6865077a0202f353346dd238","5d1290103b20b0000102e8e3","2025-07-02T10:31:01.991Z","","","","","","MotivationQ","","","","","","","","","","","","","","","","","","","","","","","","","","","","","","","","","","","","","","50"
"","","","","ctl-task-cpt","65","763997","0.0-10.0-0.4","50","1","2025-07-02 10:18:49","80fe4187154257d5fb01684ea91b68b9","31.51.53.164","Mozilla/5.0 (Windows NT 10.0; Win64; x64) AppleWebKit/537.36 (KHTML, like Gecko) Chrome/137.0.0.0 Safari/537.36","WebKit","Chrome","137.0.0.0","Windows","10.0","https://app.prolific.com/","en-US,en;q=0.9","5d1290103b20b0000102e8e3","683db6dfa200031b80f2a654","6865077a0202f353346dd238","5d1290103b20b0000102e8e3","2025-07-02T10:31:36.386Z","","","","","","","","","","","","","","","","win-only","1","g1:NE,g2:SW","0.6","5","0","733762.2","2084.9","7092.8","31367.7","1","4","4","6","2","4","4","4","0","0.030303030303030304","5007.9","3000","1190","[""down"",""left""]","{""num_key_presses"":6,""num_perfect"":4,""num_errors"":0,""num_randdir"":2,""num_randdir_good_moves"":2,""num_whilered"":0,""num_whileblue"":0,""num_blue"":2,""num_good_moves"":6}","[415.07142857142856,413.1808016640799,0.8,415.07142857142856,413.1808016640799,102.8,415.07142857142856,413.1808016640799,208.9,431.57142857142856,413.1808016640799,310.3,1375.0714285714287,335.1808016640799,412.6,1375.0714285714287,335.1808016640799,529.3,1375.0714285714287,335.1808016640799,634.5,1375.0714285714287,335.1808016640799,738,1375.0714285714287,335.1808016640799,839.5,1375.0714285714287,335.1808016640799,942.5,1375.0714285714287,335.1808016640799,1061,1375.0714285714287,335.1808016640799,1185,1375.0714285714287,335.1808016640799,1285.7,1375.0714285714287,335.1808016640799,1388.9,1375.0714285714287,335.1808016640799,1489.5,1375.0714285714287,335.1808016640799,1590.8,1375.0714285714287,335.1808016640799,1696.7,1375.0714285714287,335.1808016640799,1801.5,1375.0714285714287,335.1808016640799,1905.9,1375.0714285714287,335.1808016640799,2018,1375.0714285714287,335.1808016640799,2126.4,1375.0714285714287,335.1808016640799,2227.5,1375.0714285714287,335.1808016640799,2330.8,1375.0714285714287,335.1808016640799,2431.8,1375.0714285714287,335.1808016640799,2541.3,1375.0714285714287,335.1808016640799,2641.3,1375.0714285714287,335.1808016640799,2741.4,1375.0714285714287,335.1808016640799,2842.2,1375.0714285714287,335.1808016640799,2946.2,1375.0714285714287,335.1808016640799,3057,1375.0714285714287,335.1808016640799,3168.8,1375.0714285714287,335.1808016640799,3278,1375.0714285714287,335.1808016640799,3387.5,1375.0714285714287,335.1808016640799,3495.1,1375.0714285714287,335.1808016640799,3616,1375.0714285714287,335.1808016640799,3718.7,1375.0714285714287,335.1808016640799,3821.8,1375.0714285714287,335.1808016640799,3923.4,1375.0714285714287,335.1808016640799,4025.8,1375.0714285714287,335.1808016640799,4131.3,1375.0714285714287,335.1808016640799,4237.4,1375.0714285714287,335.1808016640799,4343.1,1375.0714285714287,335.1808016640799,4461.3,1375.0714285714287,335.1808016640799,4565,1375.0714285714287,335.1808016640799,4671.3,1375.0714285714287,335.1808016640799,4777.5,1375.0714285714287,335.1808016640799,4888.8,1375.0714285714287,335.1808016640799,4991.8]","[1578.3,1578.3,1000,0,578.3,""smooth"",""left"",""left"",""good_move"",4201.1,2620.3,2078.1,1580.8,542.2,""smooth"",""down"",""down"",""good_move"",6695.4,2491.7,1978.9,4203.7,512.8,""oops"",""down"",""left"",""good_move"",10070,3374.1,2925.1,6695.9,449,""oops"",""down"",""down"",""good_move"",21365.2,11294.8,2343.8,18478.4,543,""smooth"",""down"",""down"",""good_move"",24108.4,2742.9,1818.2,21365.5,924.7,""smooth"",""left"",""left"",""good_move""]","",""
"14319","","<div style=""width:500px;"">
  <p>What determined the result of this run?</p>
  </div>","72","html-slider-response","66","778325","0.0-10.0-1.4","50","1","2025-07-02 10:18:49","80fe4187154257d5fb01684ea91b68b9","31.51.53.164","Mozilla/5.0 (Windows NT 10.0; Win64; x64) AppleWebKit/537.36 (KHTML, like Gecko) Chrome/137.0.0.0 Safari/537.36","WebKit","Chrome","137.0.0.0","Windows","10.0","https://app.prolific.com/","en-US,en;q=0.9","5d1290103b20b0000102e8e3","683db6dfa200031b80f2a654","6865077a0202f353346dd238","5d1290103b20b0000102e8e3","2025-07-02T10:31:50.713Z","","","","","","AttribQ","","","","","","","","","","","","","","","","","","","","","","","","","","","","","","","","","","","","","","50"
"5790","","<div style=""width:500px;"">
  <p>How much control did you have over the ball?</p>
  </div>","66","html-slider-response","67","784131","0.0-10.0-2.4","50","1","2025-07-02 10:18:49","80fe4187154257d5fb01684ea91b68b9","31.51.53.164","Mozilla/5.0 (Windows NT 10.0; Win64; x64) AppleWebKit/537.36 (KHTML, like Gecko) Chrome/137.0.0.0 Safari/537.36","WebKit","Chrome","137.0.0.0","Windows","10.0","https://app.prolific.com/","en-US,en;q=0.9","5d1290103b20b0000102e8e3","683db6dfa200031b80f2a654","6865077a0202f353346dd238","5d1290103b20b0000102e8e3","2025-07-02T10:31:56.521Z","","","","","","ControlQ","","","","","","","","","","","","","","","","","","","","","","","","","","","","","","","","","","","","","","50"
"11922","","<div style=""width:500px;"">
  <p>How would you describe your current emotional state?</p>
  </div>","60","html-slider-response","68","796072","0.0-10.0-3.4","50","1","2025-07-02 10:18:49","80fe4187154257d5fb01684ea91b68b9","31.51.53.164","Mozilla/5.0 (Windows NT 10.0; Win64; x64) AppleWebKit/537.36 (KHTML, like Gecko) Chrome/137.0.0.0 Safari/537.36","WebKit","Chrome","137.0.0.0","Windows","10.0","https://app.prolific.com/","en-US,en;q=0.9","5d1290103b20b0000102e8e3","683db6dfa200031b80f2a654","6865077a0202f353346dd238","5d1290103b20b0000102e8e3","2025-07-02T10:32:08.461Z","","","","","","StressQ","","","","","","","","","","","","","","","","","","","","","","","","","","","","","","","","","","","","","","50"
"5752","","<div style=""width:500px;"">
  <p>What best describes how you currently feel?</p>
  </div>","69","html-slider-response","69","801838","0.0-10.0-4.4","50","1","2025-07-02 10:18:49","80fe4187154257d5fb01684ea91b68b9","31.51.53.164","Mozilla/5.0 (Windows NT 10.0; Win64; x64) AppleWebKit/537.36 (KHTML, like Gecko) Chrome/137.0.0.0 Safari/537.36","WebKit","Chrome","137.0.0.0","Windows","10.0","https://app.prolific.com/","en-US,en;q=0.9","5d1290103b20b0000102e8e3","683db6dfa200031b80f2a654","6865077a0202f353346dd238","5d1290103b20b0000102e8e3","2025-07-02T10:32:14.227Z","","","","","","MotivationQ","","","","","","","","","","","","","","","","","","","","","","","","","","","","","","","","","","","","","","50"
"","","","","ctl-task-cpt","70","851828","0.0-10.0-0.5","50","1","2025-07-02 10:18:49","80fe4187154257d5fb01684ea91b68b9","31.51.53.164","Mozilla/5.0 (Windows NT 10.0; Win64; x64) AppleWebKit/537.36 (KHTML, like Gecko) Chrome/137.0.0.0 Safari/537.36","WebKit","Chrome","137.0.0.0","Windows","10.0","https://app.prolific.com/","en-US,en;q=0.9","5d1290103b20b0000102e8e3","683db6dfa200031b80f2a654","6865077a0202f353346dd238","5d1290103b20b0000102e8e3","2025-07-02T10:33:04.216Z","","","","","","","","","","","","","","","","win-only","3","g1:SW,g2:NE","0.5","6","0","805989.3","1582.7","6586.8","46976.3","1","4","8","6","1","1","0","4","4","0.030303030303030304","5004.1","3000","825","[""down"",""left""]","{""num_key_presses"":9,""num_perfect"":5,""num_errors"":1,""num_randdir"":3,""num_randdir_good_moves"":1,""num_whilered"":0,""num_whileblue"":0,""num_blue"":4,""num_good_moves"":6}","[422.57142857142856,428.1808016640799,0.1,422.57142857142856,428.1808016640799,108.2,422.57142857142856,428.1808016640799,211.5,422.57142857142856,428.1808016640799,315,422.57142857142856,428.1808016640799,420.7,422.57142857142856,428.1808016640799,531.1,422.57142857142856,428.1808016640799,631.3,422.57142857142856,428.1808016640799,743.2,422.57142857142856,428.1808016640799,844.6,422.57142857142856,428.1808016640799,947.7,422.57142857142856,428.1808016640799,1074.8,422.57142857142856,428.1808016640799,1186,422.57142857142856,428.1808016640799,1296.4,422.57142857142856,428.1808016640799,1399.2,422.57142857142856,428.1808016640799,1499.4,422.57142857142856,428.1808016640799,1608.2,422.57142857142856,428.1808016640799,1711.4,422.57142857142856,428.1808016640799,1811.7,422.57142857142856,428.1808016640799,1914.6,422.57142857142856,428.1808016640799,2023.6,422.57142857142856,428.1808016640799,2124.8,422.57142857142856,428.1808016640799,2227.5,422.57142857142856,428.1808016640799,2335.8,422.57142857142856,428.1808016640799,2441.8,422.57142857142856,428.1808016640799,2548.5,422.57142857142856,428.1808016640799,2649.1,422.57142857142856,428.1808016640799,2749.4,422.57142857142856,425.1808016640799,2862.8,422.57142857142856,425.1808016640799,2982.5,422.57142857142856,425.1808016640799,3088.6,422.57142857142856,425.1808016640799,3192.1,422.57142857142856,425.1808016640799,3314.8,422.57142857142856,425.1808016640799,3418.9,422.57142857142856,425.1808016640799,3522.8,422.57142857142856,425.1808016640799,3628.8,422.57142857142856,425.1808016640799,3735.4,422.57142857142856,425.1808016640799,3837.8,422.57142857142856,425.1808016640799,3943.7,422.57142857142856,425.1808016640799,4047.8,422.57142857142856,425.1808016640799,4151.8,422.57142857142856,425.1808016640799,4255.1,422.57142857142856,425.1808016640799,4363.7,422.57142857142856,425.1808016640799,4466.9,422.57142857142856,425.1808016640799,4572.7,422.57142857142856,425.1808016640799,4675,422.57142857142856,425.1808016640799,4781.5,422.57142857142856,425.1808016640799,4894.6,422.57142857142856,425.1808016640799,4999]","[468.9,468.9,1000,0,-531.1,""error"",""-"",""-"",""no_move"",8627.2,8157.9,2867.6,5222.7,536.9,""oops"",""down"",""up"",""bad_move"",15384.1,6752.4,2634.8,12167.1,582.2,""smooth"",""left"",""left"",""good_move"",18535.5,3149.6,2603.3,15386,546.2,""oops"",""down"",""left"",""good_move"",23832.4,5295.4,1822.3,21538.1,472,""smooth"",""down"",""down"",""good_move"",30730.1,6897.4,2703.7,27624.7,401.8,""oops"",""down"",""up"",""bad_move"",33642.9,2912.4,2216.1,30730.5,696.3,""smooth"",""down"",""down"",""good_move"",36565.2,2921.8,2314.7,33643.4,607.2,""smooth"",""down"",""down"",""good_move"",40167,3599.5,3004.3,36567.5,595.2,""smooth"",""down"",""down"",""good_move""]","",""
"4886","","<div style=""width:500px;"">
  <p>What determined the result of this run?</p>
  </div>","40","html-slider-response","71","856722","0.0-10.0-1.5","50","1","2025-07-02 10:18:49","80fe4187154257d5fb01684ea91b68b9","31.51.53.164","Mozilla/5.0 (Windows NT 10.0; Win64; x64) AppleWebKit/537.36 (KHTML, like Gecko) Chrome/137.0.0.0 Safari/537.36","WebKit","Chrome","137.0.0.0","Windows","10.0","https://app.prolific.com/","en-US,en;q=0.9","5d1290103b20b0000102e8e3","683db6dfa200031b80f2a654","6865077a0202f353346dd238","5d1290103b20b0000102e8e3","2025-07-02T10:33:09.112Z","","","","","","AttribQ","","","","","","","","","","","","","","","","","","","","","","","","","","","","","","","","","","","","","","50"
"4470","","<div style=""width:500px;"">
  <p>How much control did you have over the ball?</p>
  </div>","29","html-slider-response","72","861203","0.0-10.0-2.5","50","1","2025-07-02 10:18:49","80fe4187154257d5fb01684ea91b68b9","31.51.53.164","Mozilla/5.0 (Windows NT 10.0; Win64; x64) AppleWebKit/537.36 (KHTML, like Gecko) Chrome/137.0.0.0 Safari/537.36","WebKit","Chrome","137.0.0.0","Windows","10.0","https://app.prolific.com/","en-US,en;q=0.9","5d1290103b20b0000102e8e3","683db6dfa200031b80f2a654","6865077a0202f353346dd238","5d1290103b20b0000102e8e3","2025-07-02T10:33:13.591Z","","","","","","ControlQ","","","","","","","","","","","","","","","","","","","","","","","","","","","","","","","","","","","","","","50"
"3554","","<div style=""width:500px;"">
  <p>How would you describe your current emotional state?</p>
  </div>","65","html-slider-response","73","864759","0.0-10.0-3.5","50","1","2025-07-02 10:18:49","80fe4187154257d5fb01684ea91b68b9","31.51.53.164","Mozilla/5.0 (Windows NT 10.0; Win64; x64) AppleWebKit/537.36 (KHTML, like Gecko) Chrome/137.0.0.0 Safari/537.36","WebKit","Chrome","137.0.0.0","Windows","10.0","https://app.prolific.com/","en-US,en;q=0.9","5d1290103b20b0000102e8e3","683db6dfa200031b80f2a654","6865077a0202f353346dd238","5d1290103b20b0000102e8e3","2025-07-02T10:33:17.147Z","","","","","","StressQ","","","","","","","","","","","","","","","","","","","","","","","","","","","","","","","","","","","","","","50"
"3739","","<div style=""width:500px;"">
  <p>What best describes how you currently feel?</p>
  </div>","71","html-slider-response","74","868501","0.0-10.0-4.5","50","1","2025-07-02 10:18:49","80fe4187154257d5fb01684ea91b68b9","31.51.53.164","Mozilla/5.0 (Windows NT 10.0; Win64; x64) AppleWebKit/537.36 (KHTML, like Gecko) Chrome/137.0.0.0 Safari/537.36","WebKit","Chrome","137.0.0.0","Windows","10.0","https://app.prolific.com/","en-US,en;q=0.9","5d1290103b20b0000102e8e3","683db6dfa200031b80f2a654","6865077a0202f353346dd238","5d1290103b20b0000102e8e3","2025-07-02T10:33:20.889Z","","","","","","MotivationQ","","","","","","","","","","","","","","","","","","","","","","","","","","","","","","","","","","","","","","50"
"","","","","ctl-task-cpt","75","937906","0.0-10.0-0.6","50","1","2025-07-02 10:18:49","80fe4187154257d5fb01684ea91b68b9","31.51.53.164","Mozilla/5.0 (Windows NT 10.0; Win64; x64) AppleWebKit/537.36 (KHTML, like Gecko) Chrome/137.0.0.0 Safari/537.36","WebKit","Chrome","137.0.0.0","Windows","10.0","https://app.prolific.com/","en-US,en;q=0.9","5d1290103b20b0000102e8e3","683db6dfa200031b80f2a654","6865077a0202f353346dd238","5d1290103b20b0000102e8e3","2025-07-02T10:34:30.294Z","","","","","","","","","","","","","","","","win-only","0","g1:NW,g2:SE","0.4","7","0","872651.6","1640.2","6643.1","66378.4","1","4","8","6","2","-8","-8","0","4","0","5002.9","3000","-610","[""down"",""right""]","{""num_key_presses"":13,""num_perfect"":6,""num_errors"":0,""num_randdir"":7,""num_randdir_good_moves"":1,""num_whilered"":0,""num_whileblue"":0,""num_blue"":4,""num_good_moves"":7}","[412.07142857142856,411.6808016640799,1.3,412.07142857142856,411.6808016640799,100.3,412.07142857142856,411.6808016640799,212.9,412.07142857142856,411.6808016640799,317,412.07142857142856,411.6808016640799,421.8,412.07142857142856,411.6808016640799,528.3,412.07142857142856,411.6808016640799,629.3,412.07142857142856,411.6808016640799,729.3,412.07142857142856,411.6808016640799,831.4,412.07142857142856,411.6808016640799,941.8,412.07142857142856,411.6808016640799,1050.1,412.07142857142856,411.6808016640799,1168.4,412.07142857142856,411.6808016640799,1280.6,412.07142857142856,411.6808016640799,1392.5,412.07142857142856,411.6808016640799,1493.4,412.07142857142856,411.6808016640799,1603.3,412.07142857142856,411.6808016640799,1710.5,412.07142857142856,411.6808016640799,1820.9,412.07142857142856,411.6808016640799,1921,412.07142857142856,411.6808016640799,2034.5,412.07142857142856,411.6808016640799,2142.5,412.07142857142856,411.6808016640799,2254.9,412.07142857142856,411.6808016640799,2357.5,412.07142857142856,411.6808016640799,2474.7,412.07142857142856,411.6808016640799,2580.1,412.07142857142856,411.6808016640799,2687.7,412.07142857142856,411.6808016640799,2790.9,412.07142857142856,411.6808016640799,2891.2,412.07142857142856,411.6808016640799,2992.1,412.07142857142856,411.6808016640799,3106,412.07142857142856,411.6808016640799,3208.2,412.07142857142856,411.6808016640799,3310.3,412.07142857142856,411.6808016640799,3415.1,412.07142857142856,411.6808016640799,3521.6,412.07142857142856,411.6808016640799,3627,412.07142857142856,411.6808016640799,3730.6,412.07142857142856,411.6808016640799,3843.1,412.07142857142856,411.6808016640799,3950.6,412.07142857142856,411.6808016640799,4060.3,412.07142857142856,411.6808016640799,4172.1,412.07142857142856,411.6808016640799,4277.4,412.07142857142856,411.6808016640799,4378.3,412.07142857142856,411.6808016640799,4482.7,412.07142857142856,411.6808016640799,4586.8,412.07142857142856,411.6808016640799,4695.6,412.07142857142856,411.6808016640799,4798.5,412.07142857142856,411.6808016640799,4909.3]","[1633,1633,1000,0,633.1,""oops"",""down"",""right"",""good_move"",12974.3,11340.8,2854.5,9479,640.8,""smooth"",""down"",""down"",""good_move"",16463.5,3488.4,2904.7,12975.1,583.7,""oops"",""down"",""left"",""bad_move"",20323.8,3859.9,2440.7,16463.9,1419.2,""oops"",""right"",""left"",""bad_move"",23827.9,3503.9,3049.4,20324,454.5,""oops"",""right"",""left"",""bad_move"",26788.8,2960.5,2228.3,23828.3,732.3,""oops"",""down"",""up"",""bad_move"",29786,2994.7,2108.8,26791.3,885.9,""smooth"",""down"",""down"",""good_move"",32347.9,2561.3,2155.2,29786.6,406.1,""oops"",""right"",""up"",""bad_move"",35914,3565.8,2230.4,32348.2,1335.4,""smooth"",""right"",""right"",""good_move"",38966.7,3052,2420.6,35914.7,631.4,""smooth"",""right"",""right"",""good_move"",42487.9,3520.7,2919,38967.2,601.7,""smooth"",""right"",""right"",""good_move"",45814.3,3325.9,2952.6,42488.5,373.3,""smooth"",""right"",""right"",""good_move"",55145.2,9327.5,1855.6,52779.5,510.1,""oops"",""down"",""left"",""bad_move""]","",""
"4535","","<div style=""width:500px;"">
  <p>What determined the result of this run?</p>
  </div>","10","html-slider-response","76","942452","0.0-10.0-1.6","50","1","2025-07-02 10:18:49","80fe4187154257d5fb01684ea91b68b9","31.51.53.164","Mozilla/5.0 (Windows NT 10.0; Win64; x64) AppleWebKit/537.36 (KHTML, like Gecko) Chrome/137.0.0.0 Safari/537.36","WebKit","Chrome","137.0.0.0","Windows","10.0","https://app.prolific.com/","en-US,en;q=0.9","5d1290103b20b0000102e8e3","683db6dfa200031b80f2a654","6865077a0202f353346dd238","5d1290103b20b0000102e8e3","2025-07-02T10:34:34.840Z","","","","","","AttribQ","","","","","","","","","","","","","","","","","","","","","","","","","","","","","","","","","","","","","","50"
"11888","","<div style=""width:500px;"">
  <p>How much control did you have over the ball?</p>
  </div>","9","html-slider-response","77","954344","0.0-10.0-2.6","50","1","2025-07-02 10:18:49","80fe4187154257d5fb01684ea91b68b9","31.51.53.164","Mozilla/5.0 (Windows NT 10.0; Win64; x64) AppleWebKit/537.36 (KHTML, like Gecko) Chrome/137.0.0.0 Safari/537.36","WebKit","Chrome","137.0.0.0","Windows","10.0","https://app.prolific.com/","en-US,en;q=0.9","5d1290103b20b0000102e8e3","683db6dfa200031b80f2a654","6865077a0202f353346dd238","5d1290103b20b0000102e8e3","2025-07-02T10:34:46.732Z","","","","","","ControlQ","","","","","","","","","","","","","","","","","","","","","","","","","","","","","","","","","","","","","","50"
"6338","","<div style=""width:500px;"">
  <p>How would you describe your current emotional state?</p>
  </div>","73","html-slider-response","78","960684","0.0-10.0-3.6","50","1","2025-07-02 10:18:49","80fe4187154257d5fb01684ea91b68b9","31.51.53.164","Mozilla/5.0 (Windows NT 10.0; Win64; x64) AppleWebKit/537.36 (KHTML, like Gecko) Chrome/137.0.0.0 Safari/537.36","WebKit","Chrome","137.0.0.0","Windows","10.0","https://app.prolific.com/","en-US,en;q=0.9","5d1290103b20b0000102e8e3","683db6dfa200031b80f2a654","6865077a0202f353346dd238","5d1290103b20b0000102e8e3","2025-07-02T10:34:53.072Z","","","","","","StressQ","","","","","","","","","","","","","","","","","","","","","","","","","","","","","","","","","","","","","","50"
"63310","","<div style=""width:500px;"">
  <p>What best describes how you currently feel?</p>
  </div>","76","html-slider-response","79","1023996","0.0-10.0-4.6","50","1","2025-07-02 10:18:49","80fe4187154257d5fb01684ea91b68b9","31.51.53.164","Mozilla/5.0 (Windows NT 10.0; Win64; x64) AppleWebKit/537.36 (KHTML, like Gecko) Chrome/137.0.0.0 Safari/537.36","WebKit","Chrome","137.0.0.0","Windows","10.0","https://app.prolific.com/","en-US,en;q=0.9","5d1290103b20b0000102e8e3","683db6dfa200031b80f2a654","6865077a0202f353346dd238","5d1290103b20b0000102e8e3","2025-07-02T10:35:56.385Z","","","","","","MotivationQ","","","","","","","","","","","","","","","","","","","","","","","","","","","","","","","","","","","","","","50"
"","","","","ctl-task-cpt","80","1055325","0.0-10.0-0.7","50","1","2025-07-02 10:18:49","80fe4187154257d5fb01684ea91b68b9","31.51.53.164","Mozilla/5.0 (Windows NT 10.0; Win64; x64) AppleWebKit/537.36 (KHTML, like Gecko) Chrome/137.0.0.0 Safari/537.36","WebKit","Chrome","137.0.0.0","Windows","10.0","https://app.prolific.com/","en-US,en;q=0.9","5d1290103b20b0000102e8e3","683db6dfa200031b80f2a654","6865077a0202f353346dd238","5d1290103b20b0000102e8e3","2025-07-02T10:36:27.713Z","","","","","","","","","","","","","","","","win-only","0","g1:NW,g2:SE","0.3","8","0","1028159.5","1536.1","6553.6","28284.9","1","4","4","6","1","1","0","0","0","0","5017.5","3000","1920","[""left"",""up""]","{""num_key_presses"":5,""num_perfect"":2,""num_errors"":1,""num_randdir"":2,""num_randdir_good_moves"":2,""num_whilered"":0,""num_whileblue"":0,""num_blue"":1,""num_good_moves"":4}","[419.57142857142856,419.1808016640799,3.9,419.57142857142856,419.1808016640799,109.2,419.57142857142856,419.1808016640799,211.2,419.57142857142856,419.1808016640799,334,419.57142857142856,419.1808016640799,443.8,419.57142857142856,419.1808016640799,551.5,419.57142857142856,419.1808016640799,680.7,419.57142857142856,419.1808016640799,793.3,419.57142857142856,419.1808016640799,913.8,419.57142857142856,419.1808016640799,1026.5,419.57142857142856,419.1808016640799,1129.8,419.57142857142856,419.1808016640799,1246.8,419.57142857142856,419.1808016640799,1357.3,419.57142857142856,419.1808016640799,1477.6,419.57142857142856,419.1808016640799,1580.6,419.57142857142856,419.1808016640799,1692.7,419.57142857142856,419.1808016640799,1793.8,419.57142857142856,419.1808016640799,1907.6,419.57142857142856,419.1808016640799,2023.3,419.57142857142856,419.1808016640799,2128.6,419.57142857142856,419.1808016640799,2245.6,419.57142857142856,419.1808016640799,2368.5,419.57142857142856,419.1808016640799,2469.7,419.57142857142856,419.1808016640799,2599.3,419.57142857142856,419.1808016640799,2714.5,419.57142857142856,419.1808016640799,2817.3,419.57142857142856,419.1808016640799,2924,419.57142857142856,419.1808016640799,3030.6,419.57142857142856,419.1808016640799,3154.4,419.57142857142856,419.1808016640799,3268.3,419.57142857142856,419.1808016640799,3370.9,419.57142857142856,419.1808016640799,3475.6,419.57142857142856,419.1808016640799,3597.8,419.57142857142856,419.1808016640799,3725.6,419.57142857142856,419.1808016640799,3854.3,419.57142857142856,419.1808016640799,3978.1,419.57142857142856,419.1808016640799,4113.8,419.57142857142856,419.1808016640799,4236.4,419.57142857142856,419.1808016640799,4362.5,419.57142857142856,419.1808016640799,4484.2,419.57142857142856,419.1808016640799,4614,419.57142857142856,419.1808016640799,4717.6,419.57142857142856,419.1808016640799,4836.4,419.57142857142856,419.1808016640799,4949.7]","[472.4,472.4,1000,0,-527.5,""error"",""-"",""-"",""no_move"",5198.9,4725.9,3200.7,1488.8,509.4,""oops"",""right"",""left"",""good_move"",9071.4,3871.8,2577.4,5199.6,1294.4,""smooth"",""up"",""up"",""good_move"",13288.7,4216.2,2648.4,9072.6,1567.7,""oops"",""up"",""up"",""good_move"",21425.6,8136.2,2923.5,17966.4,535.8,""smooth"",""left"",""left"",""good_move""]","",""
"3546","","<div style=""width:500px;"">
  <p>What determined the result of this run?</p>
  </div>","67","html-slider-response","81","1058876","0.0-10.0-1.7","50","1","2025-07-02 10:18:49","80fe4187154257d5fb01684ea91b68b9","31.51.53.164","Mozilla/5.0 (Windows NT 10.0; Win64; x64) AppleWebKit/537.36 (KHTML, like Gecko) Chrome/137.0.0.0 Safari/537.36","WebKit","Chrome","137.0.0.0","Windows","10.0","https://app.prolific.com/","en-US,en;q=0.9","5d1290103b20b0000102e8e3","683db6dfa200031b80f2a654","6865077a0202f353346dd238","5d1290103b20b0000102e8e3","2025-07-02T10:36:31.264Z","","","","","","AttribQ","","","","","","","","","","","","","","","","","","","","","","","","","","","","","","","","","","","","","","50"
"3261","","<div style=""width:500px;"">
  <p>How much control did you have over the ball?</p>
  </div>","27","html-slider-response","82","1062139","0.0-10.0-2.7","50","1","2025-07-02 10:18:49","80fe4187154257d5fb01684ea91b68b9","31.51.53.164","Mozilla/5.0 (Windows NT 10.0; Win64; x64) AppleWebKit/537.36 (KHTML, like Gecko) Chrome/137.0.0.0 Safari/537.36","WebKit","Chrome","137.0.0.0","Windows","10.0","https://app.prolific.com/","en-US,en;q=0.9","5d1290103b20b0000102e8e3","683db6dfa200031b80f2a654","6865077a0202f353346dd238","5d1290103b20b0000102e8e3","2025-07-02T10:36:34.528Z","","","","","","ControlQ","","","","","","","","","","","","","","","","","","","","","","","","","","","","","","","","","","","","","","50"
"3001","","<div style=""width:500px;"">
  <p>How would you describe your current emotional state?</p>
  </div>","68","html-slider-response","83","1065143","0.0-10.0-3.7","50","1","2025-07-02 10:18:49","80fe4187154257d5fb01684ea91b68b9","31.51.53.164","Mozilla/5.0 (Windows NT 10.0; Win64; x64) AppleWebKit/537.36 (KHTML, like Gecko) Chrome/137.0.0.0 Safari/537.36","WebKit","Chrome","137.0.0.0","Windows","10.0","https://app.prolific.com/","en-US,en;q=0.9","5d1290103b20b0000102e8e3","683db6dfa200031b80f2a654","6865077a0202f353346dd238","5d1290103b20b0000102e8e3","2025-07-02T10:36:37.531Z","","","","","","StressQ","","","","","","","","","","","","","","","","","","","","","","","","","","","","","","","","","","","","","","50"
"2389","","<div style=""width:500px;"">
  <p>What best describes how you currently feel?</p>
  </div>","72","html-slider-response","84","1067536","0.0-10.0-4.7","50","1","2025-07-02 10:18:49","80fe4187154257d5fb01684ea91b68b9","31.51.53.164","Mozilla/5.0 (Windows NT 10.0; Win64; x64) AppleWebKit/537.36 (KHTML, like Gecko) Chrome/137.0.0.0 Safari/537.36","WebKit","Chrome","137.0.0.0","Windows","10.0","https://app.prolific.com/","en-US,en;q=0.9","5d1290103b20b0000102e8e3","683db6dfa200031b80f2a654","6865077a0202f353346dd238","5d1290103b20b0000102e8e3","2025-07-02T10:36:39.924Z","","","","","","MotivationQ","","","","","","","","","","","","","","","","","","","","","","","","","","","","","","","","","","","","","","50"
"","","","","ctl-task-cpt","85","1106523","0.0-10.0-0.8","50","1","2025-07-02 10:18:49","80fe4187154257d5fb01684ea91b68b9","31.51.53.164","Mozilla/5.0 (Windows NT 10.0; Win64; x64) AppleWebKit/537.36 (KHTML, like Gecko) Chrome/137.0.0.0 Safari/537.36","WebKit","Chrome","137.0.0.0","Windows","10.0","https://app.prolific.com/","en-US,en;q=0.9","5d1290103b20b0000102e8e3","683db6dfa200031b80f2a654","6865077a0202f353346dd238","5d1290103b20b0000102e8e3","2025-07-02T10:37:18.911Z","","","","","","","","","","","","","","","","win-only","3","g1:SW,g2:NE","0.4","9","0","1071686.4","1376.7","6392.9","35950.2","1","4","4","6","2","4","4","4","0","0.030303030303030304","5016.2","3000","2295","[""up"",""right""]","{""num_key_presses"":6,""num_perfect"":2,""num_errors"":0,""num_randdir"":4,""num_randdir_good_moves"":4,""num_whilered"":0,""num_whileblue"":0,""num_blue"":2,""num_good_moves"":6}","[419.57142857142856,410.1808016640799,0.9,419.57142857142856,410.1808016640799,109.2,419.57142857142856,410.1808016640799,214.8,419.57142857142856,410.1808016640799,326.9,419.57142857142856,410.1808016640799,450,419.57142857142856,410.1808016640799,553.3,419.57142857142856,410.1808016640799,660,419.57142857142856,410.1808016640799,766.3,419.57142857142856,410.1808016640799,884.5,419.57142857142856,410.1808016640799,984.9,419.57142857142856,410.1808016640799,1103.5,419.57142857142856,410.1808016640799,1206.2,419.57142857142856,410.1808016640799,1324,419.57142857142856,410.1808016640799,1439.4,419.57142857142856,410.1808016640799,1549.4,419.57142857142856,410.1808016640799,1662.3,419.57142857142856,410.1808016640799,1780.6,419.57142857142856,410.1808016640799,1888,419.57142857142856,410.1808016640799,1994.1,419.57142857142856,410.1808016640799,2106.9,419.57142857142856,410.1808016640799,2207.1,419.57142857142856,410.1808016640799,2318.2,419.57142857142856,410.1808016640799,2422.7,419.57142857142856,410.1808016640799,2531.3,419.57142857142856,410.1808016640799,2633.9,419.57142857142856,410.1808016640799,2739.9,419.57142857142856,410.1808016640799,2848.5,419.57142857142856,410.1808016640799,2967.5,419.57142857142856,410.1808016640799,3083.8,419.57142857142856,410.1808016640799,3204.2,419.57142857142856,410.1808016640799,3319.5,419.57142857142856,410.1808016640799,3434.4,419.57142857142856,410.1808016640799,3541.2,419.57142857142856,410.1808016640799,3643.3,419.57142857142856,410.1808016640799,3766.3,419.57142857142856,410.1808016640799,3866.7,419.57142857142856,410.1808016640799,3970.6,419.57142857142856,410.1808016640799,4075.7,419.57142857142856,410.1808016640799,4180.1,419.57142857142856,410.1808016640799,4287.7,419.57142857142856,410.1808016640799,4392.8,419.57142857142856,410.1808016640799,4504.9,419.57142857142856,410.1808016640799,4620.2,419.57142857142856,410.1808016640799,4729.9,419.57142857142856,410.1808016640799,4833.2,419.57142857142856,410.1808016640799,4950.2]","[1652,1652,1000,0,652,""smooth"",""right"",""right"",""good_move"",4967.8,3315.3,2614.1,1652.5,701.2,""oops"",""right"",""up"",""good_move"",11258.9,6290.4,2016.5,4968.5,4273.9,""smooth"",""right"",""right"",""good_move"",17515.6,6256.2,2458.6,14476.5,580.5,""oops"",""right"",""right"",""good_move"",23771.2,6255.1,2556.3,20657.6,557.3,""oops"",""up"",""up"",""good_move"",29178.9,5407.4,2687,23771.5,2720.4,""oops"",""up"",""up"",""good_move""]","",""
"2686","","<div style=""width:500px;"">
  <p>What determined the result of this run?</p>
  </div>","60","html-slider-response","86","1109213","0.0-10.0-1.8","50","1","2025-07-02 10:18:49","80fe4187154257d5fb01684ea91b68b9","31.51.53.164","Mozilla/5.0 (Windows NT 10.0; Win64; x64) AppleWebKit/537.36 (KHTML, like Gecko) Chrome/137.0.0.0 Safari/537.36","WebKit","Chrome","137.0.0.0","Windows","10.0","https://app.prolific.com/","en-US,en;q=0.9","5d1290103b20b0000102e8e3","683db6dfa200031b80f2a654","6865077a0202f353346dd238","5d1290103b20b0000102e8e3","2025-07-02T10:37:21.601Z","","","","","","AttribQ","","","","","","","","","","","","","","","","","","","","","","","","","","","","","","","","","","","","","","50"
"2882","","<div style=""width:500px;"">
  <p>How much control did you have over the ball?</p>
  </div>","70","html-slider-response","87","1112098","0.0-10.0-2.8","50","1","2025-07-02 10:18:49","80fe4187154257d5fb01684ea91b68b9","31.51.53.164","Mozilla/5.0 (Windows NT 10.0; Win64; x64) AppleWebKit/537.36 (KHTML, like Gecko) Chrome/137.0.0.0 Safari/537.36","WebKit","Chrome","137.0.0.0","Windows","10.0","https://app.prolific.com/","en-US,en;q=0.9","5d1290103b20b0000102e8e3","683db6dfa200031b80f2a654","6865077a0202f353346dd238","5d1290103b20b0000102e8e3","2025-07-02T10:37:24.486Z","","","","","","ControlQ","","","","","","","","","","","","","","","","","","","","","","","","","","","","","","","","","","","","","","50"
"2394","","<div style=""width:500px;"">
  <p>How would you describe your current emotional state?</p>
  </div>","70","html-slider-response","88","1114496","0.0-10.0-3.8","50","1","2025-07-02 10:18:49","80fe4187154257d5fb01684ea91b68b9","31.51.53.164","Mozilla/5.0 (Windows NT 10.0; Win64; x64) AppleWebKit/537.36 (KHTML, like Gecko) Chrome/137.0.0.0 Safari/537.36","WebKit","Chrome","137.0.0.0","Windows","10.0","https://app.prolific.com/","en-US,en;q=0.9","5d1290103b20b0000102e8e3","683db6dfa200031b80f2a654","6865077a0202f353346dd238","5d1290103b20b0000102e8e3","2025-07-02T10:37:26.885Z","","","","","","StressQ","","","","","","","","","","","","","","","","","","","","","","","","","","","","","","","","","","","","","","50"
"3154","","<div style=""width:500px;"">
  <p>What best describes how you currently feel?</p>
  </div>","77","html-slider-response","89","1117654","0.0-10.0-4.8","50","1","2025-07-02 10:18:49","80fe4187154257d5fb01684ea91b68b9","31.51.53.164","Mozilla/5.0 (Windows NT 10.0; Win64; x64) AppleWebKit/537.36 (KHTML, like Gecko) Chrome/137.0.0.0 Safari/537.36","WebKit","Chrome","137.0.0.0","Windows","10.0","https://app.prolific.com/","en-US,en;q=0.9","5d1290103b20b0000102e8e3","683db6dfa200031b80f2a654","6865077a0202f353346dd238","5d1290103b20b0000102e8e3","2025-07-02T10:37:30.042Z","","","","","","MotivationQ","","","","","","","","","","","","","","","","","","","","","","","","","","","","","","","","","","","","","","50"
