"rt","response_timestamp","stimulus","response","trial_type","trial_index","time_elapsed","internal_node_id","run_id","condition","recorded_at","source_code_version","ip","user_agent","device","browser","browser_version","platform","platform_version","referer","accept_language","PROLIFIC_PID","STUDY_ID","SESSION_ID","prolific_id","realtime","view_history","question_order","consent","success","question_id","eventType","responses","item_order","radio_event_ids","radio_event_times","key_event_times","mouse_event_times","straightlining","zigzagging","honeypot","which_type","canvas_config","goals_layout","control_level","trial_number","tutorial_trial_number","trial_start_time","phase1_start_time","phase2_start_time","phase3_start_time","goal_1_value","goal_1_distance","goal_2_value","goal_2_distance","goal_selected","outcome","outcome_total","participant_final_score","participant_initial_score","participant_final_score_prop","goal_choice_rt","allocated_time","allocated_time_remaining","goal_direction","counts","mouse_movements","key_presses","correct","slider_start"
"76144","1751451699533","<p style='font-size:40px;line-height:1.25'><strong>Welcome to the experiment!</strong></p><p style='font-size:1.1em;line-height:1.25'>Thank you for your interest in our experiment! Before you begin, it is important that we obtain your informed consent to participate in the study.</p><p style='font-size:1.1em;line-height:1.25'>On the next screen will be an <strong>information sheet</strong> for you to read. To participate in the study we need you to read this information sheet and the following consent form carefully. If you agree with all the statements, please click the <strong>I agree</strong> button.</p><p style='font-size:1.1em;line-height:1.25'>Press <strong>Next</strong> to read the information sheet.</p>","0","custom-html-button-response","0","76146","0.0-0.0","131","1","2025-07-02 10:20:22","80fe4187154257d5fb01684ea91b68b9","94.101.25.101","Mozilla/5.0 (X11; Linux x86_64) AppleWebKit/537.36 (KHTML, like Gecko) Chrome/138.0.0.0 Safari/537.36","WebKit","Chrome","138.0.0.0","Linux","","https://app.prolific.com/","pl-PL,pl;q=0.9,en-US;q=0.8,en;q=0.7","5d6e3252dfe6d10001dbe508","683db6dfa200031b80f2a654","6865077503ff999137a55a17","5d6e3252dfe6d10001dbe508","2025-07-02T10:21:39.533Z","","","","","","","","","","","","","","","","","","","","","","","","","","","","","","","","","","","","","","","","","","","",""
"3439","","","","instructions","1","79586","0.0-1.0","131","1","2025-07-02 10:20:22","80fe4187154257d5fb01684ea91b68b9","94.101.25.101","Mozilla/5.0 (X11; Linux x86_64) AppleWebKit/537.36 (KHTML, like Gecko) Chrome/138.0.0.0 Safari/537.36","WebKit","Chrome","138.0.0.0","Linux","","https://app.prolific.com/","pl-PL,pl;q=0.9,en-US;q=0.8,en;q=0.7","5d6e3252dfe6d10001dbe508","683db6dfa200031b80f2a654","6865077503ff999137a55a17","5d6e3252dfe6d10001dbe508","","[{""page_index"":0,""viewing_time"":2425},{""page_index"":1,""viewing_time"":1013}]","","","","","","","","","","","","","","","","","","","","","","","","","","","","","","","","","","","","","","","","","","",""
"3068","","","{""Q0"":"""",""Q1"":"""",""Q2"":"""",""Q3"":"""",""Q4"":"""",""Q5"":"""",""Q6"":""I agree""}","survey-multi-choice","2","82656","0.0-2.0","131","1","2025-07-02 10:20:22","80fe4187154257d5fb01684ea91b68b9","94.101.25.101","Mozilla/5.0 (X11; Linux x86_64) AppleWebKit/537.36 (KHTML, like Gecko) Chrome/138.0.0.0 Safari/537.36","WebKit","Chrome","138.0.0.0","Linux","","https://app.prolific.com/","pl-PL,pl;q=0.9,en-US;q=0.8,en;q=0.7","5d6e3252dfe6d10001dbe508","683db6dfa200031b80f2a654","6865077503ff999137a55a17","5d6e3252dfe6d10001dbe508","","","[0,1,2,3,4,5,6]","true","","","","","","","","","","","","","","","","","","","","","","","","","","","","","","","","","","","","","","","","",""
"16424","","","","fullscreen","3","100082","0.0-4.0","131","1","2025-07-02 10:20:22","80fe4187154257d5fb01684ea91b68b9","94.101.25.101","Mozilla/5.0 (X11; Linux x86_64) AppleWebKit/537.36 (KHTML, like Gecko) Chrome/138.0.0.0 Safari/537.36","WebKit","Chrome","138.0.0.0","Linux","","https://app.prolific.com/","pl-PL,pl;q=0.9,en-US;q=0.8,en;q=0.7","5d6e3252dfe6d10001dbe508","683db6dfa200031b80f2a654","6865077503ff999137a55a17","5d6e3252dfe6d10001dbe508","","","","","true","","","","","","","","","","","","","","","","","","","","","","","","","","","","","","","","","","","","","","","",""
"8900","1751451732370"," <p style='font-size:1.1em;line-height:1.25'>Thank you for completing the consent form and closing all other tabs.</p><p style='font-size:1.1em;line-height:1.25'>We will now invite you to fill in some demographic information and questionnaires, before starting the game.<br>This will take about 5 minutes.<br></p><p style='font-size:1.1em;line-height:1.25'>Press the <strong>Next</strong> button to continue.</p>","0","custom-html-button-response","4","108983","0.0-5.0","131","1","2025-07-02 10:20:22","80fe4187154257d5fb01684ea91b68b9","94.101.25.101","Mozilla/5.0 (X11; Linux x86_64) AppleWebKit/537.36 (KHTML, like Gecko) Chrome/138.0.0.0 Safari/537.36","WebKit","Chrome","138.0.0.0","Linux","","https://app.prolific.com/","pl-PL,pl;q=0.9,en-US;q=0.8,en;q=0.7","5d6e3252dfe6d10001dbe508","683db6dfa200031b80f2a654","6865077503ff999137a55a17","5d6e3252dfe6d10001dbe508","2025-07-02T10:22:12.370Z","","","","","","","","","","","","","","","","","","","","","","","","","","","","","","","","","","","","","","","","","","","",""
"3452","","","{""age"":""30""}","survey-text","5","112438","0.0-6.0-0.0","131","1","2025-07-02 10:20:22","80fe4187154257d5fb01684ea91b68b9","94.101.25.101","Mozilla/5.0 (X11; Linux x86_64) AppleWebKit/537.36 (KHTML, like Gecko) Chrome/138.0.0.0 Safari/537.36","WebKit","Chrome","138.0.0.0","Linux","","https://app.prolific.com/","pl-PL,pl;q=0.9,en-US;q=0.8,en;q=0.7","5d6e3252dfe6d10001dbe508","683db6dfa200031b80f2a654","6865077503ff999137a55a17","5d6e3252dfe6d10001dbe508","","","","","","0","demographics","","","","","","","","","","","","","","","","","","","","","","","","","","","","","","","","","","","","","",""
"3110","","","{""gender_identity"":""male/man""}","survey-multi-choice","6","115549","0.0-6.0-1.0","131","1","2025-07-02 10:20:22","80fe4187154257d5fb01684ea91b68b9","94.101.25.101","Mozilla/5.0 (X11; Linux x86_64) AppleWebKit/537.36 (KHTML, like Gecko) Chrome/138.0.0.0 Safari/537.36","WebKit","Chrome","138.0.0.0","Linux","","https://app.prolific.com/","pl-PL,pl;q=0.9,en-US;q=0.8,en;q=0.7","5d6e3252dfe6d10001dbe508","683db6dfa200031b80f2a654","6865077503ff999137a55a17","5d6e3252dfe6d10001dbe508","","","[0]","","","1","demographics","","","","","","","","","","","","","","","","","","","","","","","","","","","","","","","","","","","","","",""
"4658","","","{""assigned_sex"":""male""}","survey-multi-choice","7","120208","0.0-6.0-2.0","131","1","2025-07-02 10:20:22","80fe4187154257d5fb01684ea91b68b9","94.101.25.101","Mozilla/5.0 (X11; Linux x86_64) AppleWebKit/537.36 (KHTML, like Gecko) Chrome/138.0.0.0 Safari/537.36","WebKit","Chrome","138.0.0.0","Linux","","https://app.prolific.com/","pl-PL,pl;q=0.9,en-US;q=0.8,en;q=0.7","5d6e3252dfe6d10001dbe508","683db6dfa200031b80f2a654","6865077503ff999137a55a17","5d6e3252dfe6d10001dbe508","","","[0]","","","2","demographics","","","","","","","","","","","","","","","","","","","","","","","","","","","","","","","","","","","","","",""
"5789","","","{""menstrual_cycle"":""No""}","survey-multi-choice","8","125998","0.0-6.0-3.0","131","1","2025-07-02 10:20:22","80fe4187154257d5fb01684ea91b68b9","94.101.25.101","Mozilla/5.0 (X11; Linux x86_64) AppleWebKit/537.36 (KHTML, like Gecko) Chrome/138.0.0.0 Safari/537.36","WebKit","Chrome","138.0.0.0","Linux","","https://app.prolific.com/","pl-PL,pl;q=0.9,en-US;q=0.8,en;q=0.7","5d6e3252dfe6d10001dbe508","683db6dfa200031b80f2a654","6865077503ff999137a55a17","5d6e3252dfe6d10001dbe508","","","[0]","","","4","demographics","","","","","","","","","","","","","","","","","","","","","","","","","","","","","","","","","","","","","",""
"4813","","","{""education"":""Master's Degree (e.g., MSc)""}","survey-multi-choice","9","130812","0.0-6.0-4.0","131","1","2025-07-02 10:20:22","80fe4187154257d5fb01684ea91b68b9","94.101.25.101","Mozilla/5.0 (X11; Linux x86_64) AppleWebKit/537.36 (KHTML, like Gecko) Chrome/138.0.0.0 Safari/537.36","WebKit","Chrome","138.0.0.0","Linux","","https://app.prolific.com/","pl-PL,pl;q=0.9,en-US;q=0.8,en;q=0.7","5d6e3252dfe6d10001dbe508","683db6dfa200031b80f2a654","6865077503ff999137a55a17","5d6e3252dfe6d10001dbe508","","","[0]","","","5","demographics","","","","","","","","","","","","","","","","","","","","","","","","","","","","","","","","","","","","","",""
"10103","","","{""education"":""Higher National Diploma""}","survey-multi-choice","10","140916","0.0-6.0-5.0","131","1","2025-07-02 10:20:22","80fe4187154257d5fb01684ea91b68b9","94.101.25.101","Mozilla/5.0 (X11; Linux x86_64) AppleWebKit/537.36 (KHTML, like Gecko) Chrome/138.0.0.0 Safari/537.36","WebKit","Chrome","138.0.0.0","Linux","","https://app.prolific.com/","pl-PL,pl;q=0.9,en-US;q=0.8,en;q=0.7","5d6e3252dfe6d10001dbe508","683db6dfa200031b80f2a654","6865077503ff999137a55a17","5d6e3252dfe6d10001dbe508","2025-07-02T10:22:44.303Z","","[0]","","","6","demographics","","","","","","","","","","","","","","","","","","","","","","","","","","","","","","","","","","","","","",""
"8954","","","{""mental_health_condition"":"""",""mental_health_treatment"":"""",""psychiatric_medication"":""""}","survey-text","11","149873","0.0-7.0-0.0","131","1","2025-07-02 10:20:22","80fe4187154257d5fb01684ea91b68b9","94.101.25.101","Mozilla/5.0 (X11; Linux x86_64) AppleWebKit/537.36 (KHTML, like Gecko) Chrome/138.0.0.0 Safari/537.36","WebKit","Chrome","138.0.0.0","Linux","","https://app.prolific.com/","pl-PL,pl;q=0.9,en-US;q=0.8,en;q=0.7","5d6e3252dfe6d10001dbe508","683db6dfa200031b80f2a654","6865077503ff999137a55a17","5d6e3252dfe6d10001dbe508","2025-07-02T10:22:53.260Z","","","","","1","mental_health","","","","","","","","","","","","","","","","","","","","","","","","","","","","","","","","","","","","","",""
"38319","","","{""depression_history"":[""Prefer not to say""]}","survey-multi-select","12","188195","0.0-7.0-1.0","131","1","2025-07-02 10:20:22","80fe4187154257d5fb01684ea91b68b9","94.101.25.101","Mozilla/5.0 (X11; Linux x86_64) AppleWebKit/537.36 (KHTML, like Gecko) Chrome/138.0.0.0 Safari/537.36","WebKit","Chrome","138.0.0.0","Linux","","https://app.prolific.com/","pl-PL,pl;q=0.9,en-US;q=0.8,en;q=0.7","5d6e3252dfe6d10001dbe508","683db6dfa200031b80f2a654","6865077503ff999137a55a17","5d6e3252dfe6d10001dbe508","","","[0]","","","","mental_health","","","","","","","","","","","","","","","","","","","","","","","","","","","","","","","","","","","","","",""
"91486","","","","survey-template","13","279686","0.0-7.0-3.0","131","1","2025-07-02 10:20:22","80fe4187154257d5fb01684ea91b68b9","94.101.25.101","Mozilla/5.0 (X11; Linux x86_64) AppleWebKit/537.36 (KHTML, like Gecko) Chrome/138.0.0.0 Safari/537.36","WebKit","Chrome","138.0.0.0","Linux","","https://app.prolific.com/","pl-PL,pl;q=0.9,en-US;q=0.8,en;q=0.7","5d6e3252dfe6d10001dbe508","683db6dfa200031b80f2a654","6865077503ff999137a55a17","5d6e3252dfe6d10001dbe508","2025-07-02T10:25:03.073Z","","","","","","ius","{""Q01"":""1"",""Q02"":""2"",""Q03"":""2"",""Q04"":""2"",""Q05"":""3"",""Q06"":""0"",""Q07"":""1"",""Q08"":""0"",""Q09"":""1"",""Q10"":""0"",""Q11"":""3"",""Q12"":""2"",""Q13"":""2""}","[0,1,2,3,4,5,6,7,8,9,10,11,12]","[""Q01"",""Q02"",""Q03"",""Q04"",""Q05"",""Q06"",""Q07"",""Q08"",""Q09"",""Q10"",""Q11"",""Q11"",""Q12"",""Q13""]","[12016.5,17548.89999999944,21701.5,29500.299999999814,33642.89999999944,41372.699999999255,46938.39999999944,53703.09999999963,61850.09999999963,69035.89999999944,72275.39999999944,73761.59999999963,81726.59999999963,85341.89999999944]","[]","[12016.5,16683.89999999944,17548.89999999944,20830.39999999944,21701.5,29500.299999999814,33642.89999999944,40484.59999999963,41372.699999999255,46938.39999999944,53703.09999999963,61850.09999999963,69035.89999999944,71820.09999999963,72275.39999999944,73761.59999999963,81726.59999999963,85341.89999999944,91484.09999999963]","0.38461538461538464","0.5833333333333334","0","","","","","","","","","","","","","","","","","","","","","","","","","","","","",""
"4999","1751451908073","<p style='font-size:1.1em;line-height:1.25'>In the following, we will ask you a few questions relating to your experiences over the past month.<br></p><p style='font-size:1.1em;line-height:1.25'>Press the <strong>Next</strong> button to continue.</p>","0","custom-html-button-response","14","284686","0.0-7.0-4.0","131","1","2025-07-02 10:20:22","80fe4187154257d5fb01684ea91b68b9","94.101.25.101","Mozilla/5.0 (X11; Linux x86_64) AppleWebKit/537.36 (KHTML, like Gecko) Chrome/138.0.0.0 Safari/537.36","WebKit","Chrome","138.0.0.0","Linux","","https://app.prolific.com/","pl-PL,pl;q=0.9,en-US;q=0.8,en;q=0.7","5d6e3252dfe6d10001dbe508","683db6dfa200031b80f2a654","6865077503ff999137a55a17","5d6e3252dfe6d10001dbe508","2025-07-02T10:25:08.073Z","","","","","","","","","","","","","","","","","","","","","","","","","","","","","","","","","","","","","","","","","","","",""
"100286.60000000056","","","","survey-template","15","384975","0.0-7.0-5.0","131","1","2025-07-02 10:20:22","80fe4187154257d5fb01684ea91b68b9","94.101.25.101","Mozilla/5.0 (X11; Linux x86_64) AppleWebKit/537.36 (KHTML, like Gecko) Chrome/138.0.0.0 Safari/537.36","WebKit","Chrome","138.0.0.0","Linux","","https://app.prolific.com/","pl-PL,pl;q=0.9,en-US;q=0.8,en;q=0.7","5d6e3252dfe6d10001dbe508","683db6dfa200031b80f2a654","6865077503ff999137a55a17","5d6e3252dfe6d10001dbe508","2025-07-02T10:26:48.362Z","","","","","","pss","{""Q01"":""0"",""Q02"":""1"",""Q03"":""1"",""Q04"":""1"",""Q05"":""2"",""Q06"":""1"",""Q07"":""1"",""Q08"":""2"",""Q09"":""0"",""Q10"":""1""}","[0,1,2,3,4,5,6,7,8,9]","[""Q01"",""Q02"",""Q03"",""Q04"",""Q05"",""Q06"",""Q06"",""Q07"",""Q08"",""Q09"",""Q10""]","[18513.300000000745,24156,34323.10000000056,41470.10000000056,47538.10000000056,54605.10000000056,61386.200000000186,67986.10000000056,79544.20000000019,87781.20000000019,94317]","[]","[0,18513.300000000745,23686.900000000373,24156,33543,33962.90000000037,34323.10000000056,41470.10000000056,46623.60000000056,47538.10000000056,54605.10000000056,61386.200000000186,67986.10000000056,79544.20000000019,87781.20000000019,94317,100284.80000000075]","0.4","0.5555555555555556","0","","","","","","","","","","","","","","","","","","","","","","","","","","","","",""
"4452","1751452012816","<p style='font-size:1.1em;line-height:1.25'>Thank you for your answers! Now we will ask you a few more questions relating to your feelings in the last 24 hours.<br></p><p style='font-size:1.1em;line-height:1.25'>Press the <strong>Next</strong> button to continue.</p>","0","custom-html-button-response","16","389429","0.0-7.0-6.0","131","1","2025-07-02 10:20:22","80fe4187154257d5fb01684ea91b68b9","94.101.25.101","Mozilla/5.0 (X11; Linux x86_64) AppleWebKit/537.36 (KHTML, like Gecko) Chrome/138.0.0.0 Safari/537.36","WebKit","Chrome","138.0.0.0","Linux","","https://app.prolific.com/","pl-PL,pl;q=0.9,en-US;q=0.8,en;q=0.7","5d6e3252dfe6d10001dbe508","683db6dfa200031b80f2a654","6865077503ff999137a55a17","5d6e3252dfe6d10001dbe508","2025-07-02T10:26:52.816Z","","","","","","","","","","","","","","","","","","","","","","","","","","","","","","","","","","","","","","","","","","","",""
"87967.69999999925","","","","survey-template","17","477401","0.0-7.0-7.0","131","1","2025-07-02 10:20:22","80fe4187154257d5fb01684ea91b68b9","94.101.25.101","Mozilla/5.0 (X11; Linux x86_64) AppleWebKit/537.36 (KHTML, like Gecko) Chrome/138.0.0.0 Safari/537.36","WebKit","Chrome","138.0.0.0","Linux","","https://app.prolific.com/","pl-PL,pl;q=0.9,en-US;q=0.8,en;q=0.7","5d6e3252dfe6d10001dbe508","683db6dfa200031b80f2a654","6865077503ff999137a55a17","5d6e3252dfe6d10001dbe508","2025-07-02T10:28:20.788Z","","","","","","drsp","{""Q01"":""0"",""Q02"":""0"",""Q03"":""0"",""Q04"":""0"",""Q05"":""0"",""Q06"":""0"",""Q07"":""0"",""Q08"":""0"",""Q09"":""1"",""Q10"":""0"",""Q11"":""1"",""Q12"":""0"",""Q13"":""0"",""Q14"":""0"",""Q15"":""1"",""Q16"":""0"",""Q17"":""0"",""Q18"":""0"",""Q19"":""1"",""Q20"":""0"",""Q21"":""0""}","[0,1,2,3,4,5,6,7,8,9,10,11,12,13,14,15,16,17,18,19,20]","[""Q01"",""Q02"",""Q03"",""Q04"",""Q05"",""Q06"",""Q07"",""Q08"",""Q09"",""Q10"",""Q11"",""Q12"",""Q13"",""Q14"",""Q15"",""Q16"",""Q17"",""Q18"",""Q19"",""Q20"",""Q21""]","[3649.699999999255,4999,6378.699999999255,12448.5,14376.899999999441,17676.39999999944,19353.39999999944,20672.5,23750.799999999814,26618.199999999255,28405.699999999255,32373.39999999944,38029.5,43402.09999999963,47508.59999999963,49558,50876.199999999255,60258,71454.39999999944,76968.89999999944,81579.59999999963]","[]","[0,3649.699999999255,4999,6378.699999999255,12448.5,14376.899999999441,17393.39999999944,17676.39999999944,19353.39999999944,20672.5,23750.799999999814,26618.199999999255,28405.699999999255,32373.39999999944,38029.5,42906.199999999255,43402.09999999963,47508.59999999963,49558,50876.199999999255,60258,71454.39999999944,76968.89999999944,81579.59999999963,87963.79999999981]","0.8095238095238095","0.4","0","","","","","","","","","","","","","","","","","","","","","","","","","","","","",""
"19831.599999999627","","","","survey-template","18","497234","0.0-7.0-8.0","131","1","2025-07-02 10:20:22","80fe4187154257d5fb01684ea91b68b9","94.101.25.101","Mozilla/5.0 (X11; Linux x86_64) AppleWebKit/537.36 (KHTML, like Gecko) Chrome/138.0.0.0 Safari/537.36","WebKit","Chrome","138.0.0.0","Linux","","https://app.prolific.com/","pl-PL,pl;q=0.9,en-US;q=0.8,en;q=0.7","5d6e3252dfe6d10001dbe508","683db6dfa200031b80f2a654","6865077503ff999137a55a17","5d6e3252dfe6d10001dbe508","2025-07-02T10:28:40.622Z","","","","","","stress","{""Q01"":""0"",""Q02"":""3"",""Q03"":""0""}","[0,1,2]","[""Q01"",""Q02"",""Q03""]","[5298.4000000003725,10866.099999999627,17398.700000000186]","[]","[5298.4000000003725,10866.099999999627,17398.700000000186,19830.900000000373]","0.6666666666666666","0","0","","","","","","","","","","","","","","","","","","","","","","","","","","","","",""
"204650","","","","instructions","19","701886","0.0-8.0-0.0","131","1","2025-07-02 10:20:22","80fe4187154257d5fb01684ea91b68b9","94.101.25.101","Mozilla/5.0 (X11; Linux x86_64) AppleWebKit/537.36 (KHTML, like Gecko) Chrome/138.0.0.0 Safari/537.36","WebKit","Chrome","138.0.0.0","Linux","","https://app.prolific.com/","pl-PL,pl;q=0.9,en-US;q=0.8,en;q=0.7","5d6e3252dfe6d10001dbe508","683db6dfa200031b80f2a654","6865077503ff999137a55a17","5d6e3252dfe6d10001dbe508","","[{""page_index"":0,""viewing_time"":47804},{""page_index"":1,""viewing_time"":44820},{""page_index"":2,""viewing_time"":17974},{""page_index"":3,""viewing_time"":94052}]","","","","","","","","","","","","","","","","","","","","","","","","","","","","","","","","","","","","","","","","","","",""
"","","","","ctl-task-cpt","20","724711","0.0-8.0-1.0","131","1","2025-07-02 10:20:22","80fe4187154257d5fb01684ea91b68b9","94.101.25.101","Mozilla/5.0 (X11; Linux x86_64) AppleWebKit/537.36 (KHTML, like Gecko) Chrome/138.0.0.0 Safari/537.36","WebKit","Chrome","138.0.0.0","Linux","","https://app.prolific.com/","pl-PL,pl;q=0.9,en-US;q=0.8,en;q=0.7","5d6e3252dfe6d10001dbe508","683db6dfa200031b80f2a654","6865077503ff999137a55a17","5d6e3252dfe6d10001dbe508","","","","","","","","","","","","","","","","","win-only","1","g1:NE,g2:SW","1","0","1","703386.6","5844.9","9846.1","19818.3","2","4","4","6","1","2","1","1","0","0.007575757575757576","2601.2","4000","2840","[""up"",""right""]","{""num_key_presses"":5,""num_perfect"":4,""num_errors"":1,""num_randdir"":0,""num_randdir_good_moves"":0,""num_whilered"":0,""num_whileblue"":0,""num_blue"":0,""num_good_moves"":4}","[418.57142857142856,413.47767857142856,0.3,418.57142857142856,413.47767857142856,100.6,418.57142857142856,413.47767857142856,205.5,420.57142857142856,413.47767857142856,310.4,437.57142857142856,425.47767857142856,410.5,437.57142857142856,426.47767857142856,511.2,437.57142857142856,426.47767857142856,611.6,437.57142857142856,426.47767857142856,715.7,437.57142857142856,426.47767857142856,820.4,470.57142857142856,408.47767857142856,920.5,491.57142857142856,395.47767857142856,1020.6,508.57142857142856,376.47767857142856,1125.4,508.57142857142856,376.47767857142856,1225.4,496.57142857142856,374.47767857142856,1328.2,485.57142857142856,369.47767857142856,1430.5,484.57142857142856,368.47767857142856,1530.5,482.57142857142856,366.47767857142856,1635.4,481.57142857142856,363.47767857142856,1735.4,481.57142857142856,362.47767857142856,1835.4,481.57142857142856,362.47767857142856,1935.4,481.57142857142856,362.47767857142856,2040.4,481.57142857142856,362.47767857142856,2140.4,557.5714285714286,288.47767857142856,2240.5,656.5714285714286,166.47767857142856,2340.5,710.5714285714286,101.47767857142857,2440.9,747.5714285714286,92.47767857142857,2540.9,768.5714285714286,93.47767857142857,2641,768.5714285714286,93.47767857142857,2746.3,781.5714285714286,122.47767857142857,2851.2,844.5714285714286,203.47767857142856,2951.2,863.5714285714286,239.47767857142856,3055.8,861.5714285714286,249.47767857142856,3155.9,858.5714285714286,253.47767857142856,3256.3,857.5714285714286,255.47767857142856,3356.5,856.5714285714286,255.47767857142856,3462.3,856.5714285714286,255.47767857142856,3565.7,851.5714285714286,256.47767857142856,3665.8,848.5714285714286,257.47767857142856,3765.9,848.5714285714286,257.47767857142856,3865.9,848.5714285714286,257.47767857142856,3971.1]","[1386.3,1386.3,1000,0,386.3,""smooth"",""up"",""up"",""good_move"",1732.6,346,1573.8,1386.7,-1227.8,""error"",""-"",""-"",""no_move"",5185.9,3453.1,2190.6,2734.2,261.1,""smooth"",""right"",""right"",""good_move"",7582,2395.6,2109,5186.4,286.6,""smooth"",""right"",""right"",""good_move"",9877.7,2295.7,2043,7582.1,252.7,""smooth"",""up"",""up"",""good_move""]","",""
"34064","","","","instructions","21","758775","0.0-8.0-2.0","131","1","2025-07-02 10:20:22","80fe4187154257d5fb01684ea91b68b9","94.101.25.101","Mozilla/5.0 (X11; Linux x86_64) AppleWebKit/537.36 (KHTML, like Gecko) Chrome/138.0.0.0 Safari/537.36","WebKit","Chrome","138.0.0.0","Linux","","https://app.prolific.com/","pl-PL,pl;q=0.9,en-US;q=0.8,en;q=0.7","5d6e3252dfe6d10001dbe508","683db6dfa200031b80f2a654","6865077503ff999137a55a17","5d6e3252dfe6d10001dbe508","","[{""page_index"":0,""viewing_time"":34064}]","","","","","","","","","","","","","","","","","","","","","","","","","","","","","","","","","","","","","","","","","","",""
"","","","","ctl-task-cpt","22","812454","0.0-8.0-3.0","131","1","2025-07-02 10:20:22","80fe4187154257d5fb01684ea91b68b9","94.101.25.101","Mozilla/5.0 (X11; Linux x86_64) AppleWebKit/537.36 (KHTML, like Gecko) Chrome/138.0.0.0 Safari/537.36","WebKit","Chrome","138.0.0.0","Linux","","https://app.prolific.com/","pl-PL,pl;q=0.9,en-US;q=0.8,en;q=0.7","5d6e3252dfe6d10001dbe508","683db6dfa200031b80f2a654","6865077503ff999137a55a17","5d6e3252dfe6d10001dbe508","","","","","","","","","","","","","","","","","win-only","1","g1:NE,g2:SW","0.35","0","3","760275.8","1800.6","5805.9","50671.2","2","4","8","6","1","-2","-6","0","0","0","2164.5","4000","-3005","[""up"",""right""]","{""num_key_presses"":15,""num_perfect"":4,""num_errors"":4,""num_randdir"":7,""num_randdir_good_moves"":1,""num_whilered"":0,""num_whileblue"":3,""num_blue"":4,""num_good_moves"":5}","[418.57142857142856,424.47767857142856,0.1,418.57142857142856,424.47767857142856,105,453.57142857142856,473.47767857142856,205,464.57142857142856,487.47767857142856,305,464.57142857142856,488.47767857142856,409.7,464.57142857142856,490.47767857142856,509.8,464.57142857142856,490.47767857142856,614.8,467.57142857142856,483.47767857142856,714.9,474.57142857142856,455.47767857142856,814.9,485.57142857142856,389.47767857142856,920,486.57142857142856,380.47767857142856,1020.1,487.57142857142856,347.47767857142856,1121.5,487.57142857142856,338.47767857142856,1224.8,487.57142857142856,338.47767857142856,1324.8,487.57142857142856,338.47767857142856,1424.8,487.57142857142856,338.47767857142856,1524.9,535.5714285714286,318.47767857142856,1624.9,604.5714285714286,282.47767857142856,1729.8,637.5714285714286,237.47767857142856,1829.8,669.5714285714286,206.47767857142856,1929.8,724.5714285714286,140.47767857142856,2029.9,743.5714285714286,94.47767857142857,2130.1,741.5714285714286,86.47767857142857,2235.6,860.5714285714286,152.47767857142856,2338.3,1229.5714285714287,240.47767857142856,2440.5,1248.5714285714287,240.47767857142856,2545.3,1248.5714285714287,240.47767857142856,2650.5,1248.5714285714287,240.47767857142856,2755.7,1248.5714285714287,240.47767857142856,2860,1248.5714285714287,240.47767857142856,2960.1,1248.5714285714287,240.47767857142856,3065.2,1248.5714285714287,240.47767857142856,3170.2,1248.5714285714287,240.47767857142856,3270.4,1248.5714285714287,240.47767857142856,3371.8,1248.5714285714287,240.47767857142856,3475,1248.5714285714287,240.47767857142856,3579.8,1248.5714285714287,240.47767857142856,3679.8,1248.5714285714287,240.47767857142856,3785.1,1248.5714285714287,240.47767857142856,3890,1248.5714285714287,240.47767857142856,3995]","[607.3,607.3,1000,0,-392.7,""error"",""-"",""-"",""no_move"",4201.1,3593.6,2295.6,1609.5,296,""oops"",""right"",""left"",""bad_move"",7136.8,2935.4,2364.5,4201.5,570.8,""oops"",""right"",""down"",""bad_move"",9987.8,2850.7,2328.3,7137.2,522.4,""oops"",""down"",""down"",""bad_move"",15288.1,5300,2228.7,12789.5,269.9,""smooth"",""down"",""down"",""bad_move"",17986.9,2698.6,2361.1,15288.3,337.5,""while_blue"",""left"",""right"",""good_move"",20277.3,2290.1,2026,17987.2,264.1,""smooth"",""right"",""right"",""good_move"",22130.9,1853.2,1571.6,20277.7,281.6,""oops"",""right"",""left"",""bad_move"",24556.9,2425.8,2081,22131.1,344.8,""smooth"",""left"",""left"",""bad_move"",27544.9,2987.7,2718.6,24557.2,269.1,""smooth"",""right"",""right"",""good_move"",30313.3,2768.2,2513.2,27545.1,255,""oops"",""left"",""left"",""bad_move"",33307,2993.5,2770.9,30313.5,222.6,""while_blue"",""left"",""up"",""good_move"",36031.2,2723.8,2365.6,33307.4,358.2,""oops"",""left"",""left"",""bad_move"",39057.1,3025.7,2661.4,36031.4,364.3,""oops"",""left"",""right"",""good_move"",42142.3,3084.9,2852,39057.4,232.9,""while_blue"",""left"",""down"",""bad_move""]","",""
"58555","","","","instructions","23","871010","0.0-8.0-4.0","131","1","2025-07-02 10:20:22","80fe4187154257d5fb01684ea91b68b9","94.101.25.101","Mozilla/5.0 (X11; Linux x86_64) AppleWebKit/537.36 (KHTML, like Gecko) Chrome/138.0.0.0 Safari/537.36","WebKit","Chrome","138.0.0.0","Linux","","https://app.prolific.com/","pl-PL,pl;q=0.9,en-US;q=0.8,en;q=0.7","5d6e3252dfe6d10001dbe508","683db6dfa200031b80f2a654","6865077503ff999137a55a17","5d6e3252dfe6d10001dbe508","","[{""page_index"":0,""viewing_time"":14606},{""page_index"":1,""viewing_time"":43950}]","","","","","","","","","","","","","","","","","","","","","","","","","","","","","","","","","","","","","","","","","","",""
"14239","","","{""green_ball"":[""Ball always moves in the direction I press""]}","survey-multi-select","24","885251","0.0-8.0-5.0-0.0","131","1","2025-07-02 10:20:22","80fe4187154257d5fb01684ea91b68b9","94.101.25.101","Mozilla/5.0 (X11; Linux x86_64) AppleWebKit/537.36 (KHTML, like Gecko) Chrome/138.0.0.0 Safari/537.36","WebKit","Chrome","138.0.0.0","Linux","","https://app.prolific.com/","pl-PL,pl;q=0.9,en-US;q=0.8,en;q=0.7","5d6e3252dfe6d10001dbe508","683db6dfa200031b80f2a654","6865077503ff999137a55a17","5d6e3252dfe6d10001dbe508","","","[0]","","","","quiz","","","","","","","","","","","","","","","","","","","","","","","","","","","","","","","","","","","","","false",""
"3497","","<p align='center'><b>INCORRECT.</b> Usually the green ball moves in the indicated direction, but sometimes it shakes and moves randomly. </p>","0","html-button-response","25","888750","0.0-8.0-5.0-1.0","131","1","2025-07-02 10:20:22","80fe4187154257d5fb01684ea91b68b9","94.101.25.101","Mozilla/5.0 (X11; Linux x86_64) AppleWebKit/537.36 (KHTML, like Gecko) Chrome/138.0.0.0 Safari/537.36","WebKit","Chrome","138.0.0.0","Linux","","https://app.prolific.com/","pl-PL,pl;q=0.9,en-US;q=0.8,en;q=0.7","5d6e3252dfe6d10001dbe508","683db6dfa200031b80f2a654","6865077503ff999137a55a17","5d6e3252dfe6d10001dbe508","","","","","","","","","","","","","","","","","","","","","","","","","","","","","","","","","","","","","","","","","","","","",""
"15810","","","{""green_ball"":[""Ball sometimes shakes and moves in a random direction""]}","survey-multi-select","26","904562","0.0-8.0-5.1-0.1","131","1","2025-07-02 10:20:22","80fe4187154257d5fb01684ea91b68b9","94.101.25.101","Mozilla/5.0 (X11; Linux x86_64) AppleWebKit/537.36 (KHTML, like Gecko) Chrome/138.0.0.0 Safari/537.36","WebKit","Chrome","138.0.0.0","Linux","","https://app.prolific.com/","pl-PL,pl;q=0.9,en-US;q=0.8,en;q=0.7","5d6e3252dfe6d10001dbe508","683db6dfa200031b80f2a654","6865077503ff999137a55a17","5d6e3252dfe6d10001dbe508","","","[0]","","","","quiz","","","","","","","","","","","","","","","","","","","","","","","","","","","","","","","","","","","","","true",""
"1664","","<p align='center'><b>CORRECT!</b> Indeed, the green ball may sometimes shake and move in a random direction.</p>","0","html-button-response","27","906228","0.0-8.0-5.1-1.1","131","1","2025-07-02 10:20:22","80fe4187154257d5fb01684ea91b68b9","94.101.25.101","Mozilla/5.0 (X11; Linux x86_64) AppleWebKit/537.36 (KHTML, like Gecko) Chrome/138.0.0.0 Safari/537.36","WebKit","Chrome","138.0.0.0","Linux","","https://app.prolific.com/","pl-PL,pl;q=0.9,en-US;q=0.8,en;q=0.7","5d6e3252dfe6d10001dbe508","683db6dfa200031b80f2a654","6865077503ff999137a55a17","5d6e3252dfe6d10001dbe508","","","","","","","","","","","","","","","","","","","","","","","","","","","","","","","","","","","","","","","","","","","","",""
"9307","","","{""yellow_ball"":[""Ball doesn‘t move and I get -1 penalty point""]}","survey-multi-select","28","915536","0.0-8.0-6.0-0.0","131","1","2025-07-02 10:20:22","80fe4187154257d5fb01684ea91b68b9","94.101.25.101","Mozilla/5.0 (X11; Linux x86_64) AppleWebKit/537.36 (KHTML, like Gecko) Chrome/138.0.0.0 Safari/537.36","WebKit","Chrome","138.0.0.0","Linux","","https://app.prolific.com/","pl-PL,pl;q=0.9,en-US;q=0.8,en;q=0.7","5d6e3252dfe6d10001dbe508","683db6dfa200031b80f2a654","6865077503ff999137a55a17","5d6e3252dfe6d10001dbe508","","","[0]","","","","quiz","","","","","","","","","","","","","","","","","","","","","","","","","","","","","","","","","","","","","true",""
"1226","","<p align='center'><b>CORRECT!</b> Indeed, the yellow ball never moves and you receive a penalty.</p>","0","html-button-response","29","916763","0.0-8.0-6.0-1.0","131","1","2025-07-02 10:20:22","80fe4187154257d5fb01684ea91b68b9","94.101.25.101","Mozilla/5.0 (X11; Linux x86_64) AppleWebKit/537.36 (KHTML, like Gecko) Chrome/138.0.0.0 Safari/537.36","WebKit","Chrome","138.0.0.0","Linux","","https://app.prolific.com/","pl-PL,pl;q=0.9,en-US;q=0.8,en;q=0.7","5d6e3252dfe6d10001dbe508","683db6dfa200031b80f2a654","6865077503ff999137a55a17","5d6e3252dfe6d10001dbe508","","","","","","","","","","","","","","","","","","","","","","","","","","","","","","","","","","","","","","","","","","","","",""
"24696","","","{""blue_ball"":[""Ball always shakes and moves in a random direction""]}","survey-multi-select","30","941461","0.0-8.0-7.0-0.0","131","1","2025-07-02 10:20:22","80fe4187154257d5fb01684ea91b68b9","94.101.25.101","Mozilla/5.0 (X11; Linux x86_64) AppleWebKit/537.36 (KHTML, like Gecko) Chrome/138.0.0.0 Safari/537.36","WebKit","Chrome","138.0.0.0","Linux","","https://app.prolific.com/","pl-PL,pl;q=0.9,en-US;q=0.8,en;q=0.7","5d6e3252dfe6d10001dbe508","683db6dfa200031b80f2a654","6865077503ff999137a55a17","5d6e3252dfe6d10001dbe508","","","[0]","","","","quiz","","","","","","","","","","","","","","","","","","","","","","","","","","","","","","","","","","","","","true",""
"3285","","<p align='center'><b>CORRECT!</b> Indeed, the blue ball always shakes and moves in a random direction. Also there is a penalty of -1 point.</p>","0","html-button-response","31","944748","0.0-8.0-7.0-1.0","131","1","2025-07-02 10:20:22","80fe4187154257d5fb01684ea91b68b9","94.101.25.101","Mozilla/5.0 (X11; Linux x86_64) AppleWebKit/537.36 (KHTML, like Gecko) Chrome/138.0.0.0 Safari/537.36","WebKit","Chrome","138.0.0.0","Linux","","https://app.prolific.com/","pl-PL,pl;q=0.9,en-US;q=0.8,en;q=0.7","5d6e3252dfe6d10001dbe508","683db6dfa200031b80f2a654","6865077503ff999137a55a17","5d6e3252dfe6d10001dbe508","","","","","","","","","","","","","","","","","","","","","","","","","","","","","","","","","","","","","","","","","","","","",""
"4198","","","{""bonus"":[""When I reach 50% of points""]}","survey-multi-select","32","948949","0.0-8.0-8.0-0.0","131","1","2025-07-02 10:20:22","80fe4187154257d5fb01684ea91b68b9","94.101.25.101","Mozilla/5.0 (X11; Linux x86_64) AppleWebKit/537.36 (KHTML, like Gecko) Chrome/138.0.0.0 Safari/537.36","WebKit","Chrome","138.0.0.0","Linux","","https://app.prolific.com/","pl-PL,pl;q=0.9,en-US;q=0.8,en;q=0.7","5d6e3252dfe6d10001dbe508","683db6dfa200031b80f2a654","6865077503ff999137a55a17","5d6e3252dfe6d10001dbe508","","","[0]","","","","quiz","","","","","","","","","","","","","","","","","","","","","","","","","","","","","","","","","","","","","true",""
"2055","","<p align='center'><b>CORRECT!</b> Indeed, you receive 2 pounds extra when you reach 50% of points.</p>","0","html-button-response","33","951006","0.0-8.0-8.0-1.0","131","1","2025-07-02 10:20:22","80fe4187154257d5fb01684ea91b68b9","94.101.25.101","Mozilla/5.0 (X11; Linux x86_64) AppleWebKit/537.36 (KHTML, like Gecko) Chrome/138.0.0.0 Safari/537.36","WebKit","Chrome","138.0.0.0","Linux","","https://app.prolific.com/","pl-PL,pl;q=0.9,en-US;q=0.8,en;q=0.7","5d6e3252dfe6d10001dbe508","683db6dfa200031b80f2a654","6865077503ff999137a55a17","5d6e3252dfe6d10001dbe508","","","","","","","","","","","","","","","","","","","","","","","","","","","","","","","","","","","","","","","","","","","","",""
"2870","","","","instructions","34","953876","0.0-8.0-9.0","131","1","2025-07-02 10:20:22","80fe4187154257d5fb01684ea91b68b9","94.101.25.101","Mozilla/5.0 (X11; Linux x86_64) AppleWebKit/537.36 (KHTML, like Gecko) Chrome/138.0.0.0 Safari/537.36","WebKit","Chrome","138.0.0.0","Linux","","https://app.prolific.com/","pl-PL,pl;q=0.9,en-US;q=0.8,en;q=0.7","5d6e3252dfe6d10001dbe508","683db6dfa200031b80f2a654","6865077503ff999137a55a17","5d6e3252dfe6d10001dbe508","","[{""page_index"":0,""viewing_time"":2869}]","","","","","","","","","","","","","","","","","","","","","","","","","","","","","","","","","","","","","","","","","","",""
"23217","","<p>Before you start with this game please answer the following three questions yourself. </p>
  <p>Through this game, we measure several aspects of your cognitive performance, such as reaction times, multi-tasking capabilities </p>
  <p>and the ability to assess the situation you are in.</p>
  <p></p>
  <p><b>How good do you usually are in such tasks?</b></p>","75","html-slider-response","35","977094","0.0-9.0-0.0","131","1","2025-07-02 10:20:22","80fe4187154257d5fb01684ea91b68b9","94.101.25.101","Mozilla/5.0 (X11; Linux x86_64) AppleWebKit/537.36 (KHTML, like Gecko) Chrome/138.0.0.0 Safari/537.36","WebKit","Chrome","138.0.0.0","Linux","","https://app.prolific.com/","pl-PL,pl;q=0.9,en-US;q=0.8,en;q=0.7","5d6e3252dfe6d10001dbe508","683db6dfa200031b80f2a654","6865077503ff999137a55a17","5d6e3252dfe6d10001dbe508","2025-07-02T10:36:40.482Z","","","","","","PreSkillQ","","","","","","","","","","","","","","","","","","","","","","","","","","","","","","","","","","","","","","50"
"17356","","<div style=""width:500px;"">
  <p>How well do you think you will perform in this task compared to other participants?</p>
  </div>","50","html-slider-response","36","994453","0.0-9.0-1.0","131","1","2025-07-02 10:20:22","80fe4187154257d5fb01684ea91b68b9","94.101.25.101","Mozilla/5.0 (X11; Linux x86_64) AppleWebKit/537.36 (KHTML, like Gecko) Chrome/138.0.0.0 Safari/537.36","WebKit","Chrome","138.0.0.0","Linux","","https://app.prolific.com/","pl-PL,pl;q=0.9,en-US;q=0.8,en;q=0.7","5d6e3252dfe6d10001dbe508","683db6dfa200031b80f2a654","6865077503ff999137a55a17","5d6e3252dfe6d10001dbe508","2025-07-02T10:36:57.840Z","","","","","","PrePerfQ","","","","","","","","","","","","","","","","","","","","","","","","","","","","","","","","","","","","","","50"
"7806","","<div style=""width:500px;"">
  <p>What best describes how you currently feel?</p>
  </div>","85","html-slider-response","37","1002260","0.0-9.0-2.0","131","1","2025-07-02 10:20:22","80fe4187154257d5fb01684ea91b68b9","94.101.25.101","Mozilla/5.0 (X11; Linux x86_64) AppleWebKit/537.36 (KHTML, like Gecko) Chrome/138.0.0.0 Safari/537.36","WebKit","Chrome","138.0.0.0","Linux","","https://app.prolific.com/","pl-PL,pl;q=0.9,en-US;q=0.8,en;q=0.7","5d6e3252dfe6d10001dbe508","683db6dfa200031b80f2a654","6865077503ff999137a55a17","5d6e3252dfe6d10001dbe508","2025-07-02T10:37:05.647Z","","","","","","PreMotivationQ","","","","","","","","","","","","","","","","","","","","","","","","","","","","","","","","","","","","","","50"
"","","","","ctl-task-cpt","38","1028151","0.0-10.0-0.0","131","1","2025-07-02 10:20:22","80fe4187154257d5fb01684ea91b68b9","94.101.25.101","Mozilla/5.0 (X11; Linux x86_64) AppleWebKit/537.36 (KHTML, like Gecko) Chrome/138.0.0.0 Safari/537.36","WebKit","Chrome","138.0.0.0","Linux","","https://app.prolific.com/","pl-PL,pl;q=0.9,en-US;q=0.8,en;q=0.7","5d6e3252dfe6d10001dbe508","683db6dfa200031b80f2a654","6865077503ff999137a55a17","5d6e3252dfe6d10001dbe508","2025-07-02T10:37:31.538Z","","","","","","","","","","","","","","","","win-only","2","g1:SE,g2:NW","1","1","0","1003760.6","1293.7","6296","22880.6","1","4","4","6","2","4","4","4","0","0.030303030303030304","5002.3","3000","1185","[""left"",""up""]","{""num_key_presses"":6,""num_perfect"":6,""num_errors"":0,""num_randdir"":0,""num_randdir_good_moves"":0,""num_whilered"":0,""num_whileblue"":0,""num_blue"":1,""num_good_moves"":6}","[420.57142857142856,425.47767857142856,0.3,419.57142857142856,422.47767857142856,101.6,263.57142857142856,384.47767857142856,201.7,-145.42857142857144,327.47767857142856,306.7,-166.42857142857144,327.47767857142856,406.8,-166.42857142857144,327.47767857142856,511.7,-166.42857142857144,327.47767857142856,611.7,-166.42857142857144,327.47767857142856,711.7,-166.42857142857144,327.47767857142856,811.8,-166.42857142857144,327.47767857142856,916.6,-166.42857142857144,327.47767857142856,1016.6,-166.42857142857144,327.47767857142856,1116.6,-166.42857142857144,327.47767857142856,1221.5,-166.42857142857144,327.47767857142856,1321.7,-166.42857142857144,327.47767857142856,1426.8,-166.42857142857144,327.47767857142856,1526.8,-166.42857142857144,327.47767857142856,1626.8,-166.42857142857144,327.47767857142856,1726.9,-166.42857142857144,327.47767857142856,1831.5,-166.42857142857144,327.47767857142856,1931.6,-166.42857142857144,327.47767857142856,2031.6,-166.42857142857144,327.47767857142856,2131.6,-166.42857142857144,327.47767857142856,2231.8,-166.42857142857144,327.47767857142856,2336.7,-166.42857142857144,327.47767857142856,2442.2,-166.42857142857144,327.47767857142856,2546.9,-166.42857142857144,327.47767857142856,2651.6,-166.42857142857144,327.47767857142856,2751.6,-166.42857142857144,327.47767857142856,2851.8,-166.42857142857144,327.47767857142856,2959,-166.42857142857144,327.47767857142856,3061.8,-166.42857142857144,327.47767857142856,3166.7,-166.42857142857144,327.47767857142856,3266.7,-166.42857142857144,327.47767857142856,3366.8,-166.42857142857144,327.47767857142856,3471.6,-166.42857142857144,327.47767857142856,3571.7,-166.42857142857144,327.47767857142856,3676.9,-166.42857142857144,327.47767857142856,3777.2,-166.42857142857144,327.47767857142856,3878,-166.42857142857144,327.47767857142856,3981.9,-166.42857142857144,327.47767857142856,4086.7,-166.42857142857144,327.47767857142856,4191.8,-166.42857142857144,327.47767857142856,4292,-166.42857142857144,327.47767857142856,4396.7,-166.42857142857144,327.47767857142856,4496.7,-166.42857142857144,327.47767857142856,4596.7,-166.42857142857144,327.47767857142856,4701.7,-166.42857142857144,327.47767857142856,4806.7,-166.42857142857144,327.47767857142856,4906.7]","[1318.1,1318.1,1000,0,318.1,""smooth"",""up"",""up"",""good_move"",3453.6,2135.1,1793.1,1318.5,342,""smooth"",""left"",""left"",""good_move"",5637.6,2183.7,1872.1,3453.9,311.6,""smooth"",""left"",""left"",""good_move"",8000.3,2362.3,2115.9,5638,246.4,""smooth"",""left"",""left"",""good_move"",11082,3081.6,2726,8000.4,355.6,""smooth"",""up"",""up"",""good_move"",16479.3,5397.2,1789.9,14414.2,275.2,""smooth"",""up"",""up"",""good_move""]","",""
"6902","","<div style=""width:500px;"">
  <p>What determined the result of this run?</p>
  </div>","87","html-slider-response","39","1035054","0.0-10.0-1.0","131","1","2025-07-02 10:20:22","80fe4187154257d5fb01684ea91b68b9","94.101.25.101","Mozilla/5.0 (X11; Linux x86_64) AppleWebKit/537.36 (KHTML, like Gecko) Chrome/138.0.0.0 Safari/537.36","WebKit","Chrome","138.0.0.0","Linux","","https://app.prolific.com/","pl-PL,pl;q=0.9,en-US;q=0.8,en;q=0.7","5d6e3252dfe6d10001dbe508","683db6dfa200031b80f2a654","6865077503ff999137a55a17","5d6e3252dfe6d10001dbe508","2025-07-02T10:37:38.441Z","","","","","","AttribQ","","","","","","","","","","","","","","","","","","","","","","","","","","","","","","","","","","","","","","50"
"3808","","<div style=""width:500px;"">
  <p>How much control did you have over the ball?</p>
  </div>","100","html-slider-response","40","1038864","0.0-10.0-2.0","131","1","2025-07-02 10:20:22","80fe4187154257d5fb01684ea91b68b9","94.101.25.101","Mozilla/5.0 (X11; Linux x86_64) AppleWebKit/537.36 (KHTML, like Gecko) Chrome/138.0.0.0 Safari/537.36","WebKit","Chrome","138.0.0.0","Linux","","https://app.prolific.com/","pl-PL,pl;q=0.9,en-US;q=0.8,en;q=0.7","5d6e3252dfe6d10001dbe508","683db6dfa200031b80f2a654","6865077503ff999137a55a17","5d6e3252dfe6d10001dbe508","2025-07-02T10:37:42.251Z","","","","","","ControlQ","","","","","","","","","","","","","","","","","","","","","","","","","","","","","","","","","","","","","","50"
"5232","","<div style=""width:500px;"">
  <p>How would you describe your current emotional state?</p>
  </div>","4","html-slider-response","41","1044097","0.0-10.0-3.0","131","1","2025-07-02 10:20:22","80fe4187154257d5fb01684ea91b68b9","94.101.25.101","Mozilla/5.0 (X11; Linux x86_64) AppleWebKit/537.36 (KHTML, like Gecko) Chrome/138.0.0.0 Safari/537.36","WebKit","Chrome","138.0.0.0","Linux","","https://app.prolific.com/","pl-PL,pl;q=0.9,en-US;q=0.8,en;q=0.7","5d6e3252dfe6d10001dbe508","683db6dfa200031b80f2a654","6865077503ff999137a55a17","5d6e3252dfe6d10001dbe508","2025-07-02T10:37:47.484Z","","","","","","StressQ","","","","","","","","","","","","","","","","","","","","","","","","","","","","","","","","","","","","","","50"
"6297","","<div style=""width:500px;"">
  <p>What best describes how you currently feel?</p>
  </div>","85","html-slider-response","42","1050395","0.0-10.0-4.0","131","1","2025-07-02 10:20:22","80fe4187154257d5fb01684ea91b68b9","94.101.25.101","Mozilla/5.0 (X11; Linux x86_64) AppleWebKit/537.36 (KHTML, like Gecko) Chrome/138.0.0.0 Safari/537.36","WebKit","Chrome","138.0.0.0","Linux","","https://app.prolific.com/","pl-PL,pl;q=0.9,en-US;q=0.8,en;q=0.7","5d6e3252dfe6d10001dbe508","683db6dfa200031b80f2a654","6865077503ff999137a55a17","5d6e3252dfe6d10001dbe508","2025-07-02T10:37:53.782Z","","","","","","MotivationQ","","","","","","","","","","","","","","","","","","","","","","","","","","","","","","","","","","","","","","50"
"","","","","ctl-task-cpt","43","1094835","0.0-10.0-0.1","131","1","2025-07-02 10:20:22","80fe4187154257d5fb01684ea91b68b9","94.101.25.101","Mozilla/5.0 (X11; Linux x86_64) AppleWebKit/537.36 (KHTML, like Gecko) Chrome/138.0.0.0 Safari/537.36","WebKit","Chrome","138.0.0.0","Linux","","https://app.prolific.com/","pl-PL,pl;q=0.9,en-US;q=0.8,en;q=0.7","5d6e3252dfe6d10001dbe508","683db6dfa200031b80f2a654","6865077503ff999137a55a17","5d6e3252dfe6d10001dbe508","2025-07-02T10:38:38.222Z","","","","","","","","","","","","","","","","win-only","2","g1:SE,g2:NW","0.9","2","0","1051896.4","973.5","5976","41426","1","4","8","6","2","8","8","12","4","0.09090909090909091","5002.5","3000","720","[""left"",""up""]","{""num_key_presses"":8,""num_perfect"":7,""num_errors"":0,""num_randdir"":1,""num_randdir_good_moves"":0,""num_whilered"":0,""num_whileblue"":0,""num_blue"":4,""num_good_moves"":7}","[415.57142857142856,415.47767857142856,0.1,414.57142857142856,415.47767857142856,102.8,180.57142857142856,367.47767857142856,209,-201.42857142857144,255.47767857142856,313.2,-174.42857142857144,280.47767857142856,414.2,-174.42857142857144,280.47767857142856,516.8,-174.42857142857144,280.47767857142856,617.8,-174.42857142857144,280.47767857142856,722.4,-174.42857142857144,280.47767857142856,828.6,-174.42857142857144,280.47767857142856,931,-174.42857142857144,280.47767857142856,1032.5,-174.42857142857144,280.47767857142856,1137,-174.42857142857144,280.47767857142856,1237.1,-174.42857142857144,280.47767857142856,1337.1,-174.42857142857144,280.47767857142856,1437.2,-174.42857142857144,280.47767857142856,1544.1,-174.42857142857144,280.47767857142856,1644.3,-174.42857142857144,280.47767857142856,1747.5,-174.42857142857144,280.47767857142856,1849.3,-174.42857142857144,280.47767857142856,1952.1,-174.42857142857144,280.47767857142856,2057.3,-174.42857142857144,280.47767857142856,2157.4,-174.42857142857144,280.47767857142856,2263.5,-174.42857142857144,280.47767857142856,2363.5,-174.42857142857144,280.47767857142856,2465.7,-174.42857142857144,280.47767857142856,2567.3,-174.42857142857144,280.47767857142856,2667.4,-174.42857142857144,280.47767857142856,2767.7,-174.42857142857144,280.47767857142856,2872.6,-174.42857142857144,280.47767857142856,2972.8,-174.42857142857144,280.47767857142856,3078.1,-174.42857142857144,280.47767857142856,3178.8,-174.42857142857144,280.47767857142856,3279.1,-174.42857142857144,280.47767857142856,3380.2,-174.42857142857144,280.47767857142856,3482,-174.42857142857144,280.47767857142856,3582.3,-174.42857142857144,280.47767857142856,3687.1,-174.42857142857144,280.47767857142856,3787.3,-174.42857142857144,280.47767857142856,3887.4,-174.42857142857144,280.47767857142856,3987.8,-174.42857142857144,280.47767857142856,4093.5,-174.42857142857144,280.47767857142856,4197.4,-174.42857142857144,280.47767857142856,4297.4,-174.42857142857144,280.47767857142856,4398.3,-174.42857142857144,280.47767857142856,4500.7,-174.42857142857144,280.47767857142856,4602.4,-174.42857142857144,280.47767857142856,4703,-174.42857142857144,280.47767857142856,4807.9,-174.42857142857144,280.47767857142856,4910]","[1304.1,1304.2,1000,0,304.2,""smooth"",""up"",""up"",""good_move"",3956.2,2651.6,2322.9,1304.6,328.7,""smooth"",""up"",""up"",""good_move"",7322.9,3366.4,3101.6,3956.5,264.8,""smooth"",""up"",""up"",""good_move"",20279.4,12956.1,2175.1,17830.3,274,""smooth"",""left"",""left"",""good_move"",23843.5,3563.6,3225.2,20279.9,338.4,""oops"",""left"",""right"",""bad_move"",26506.7,2662.8,2384.2,23843.9,278.6,""smooth"",""left"",""left"",""good_move"",29465.2,2958.3,2661.3,26507,297,""smooth"",""left"",""left"",""good_move"",35350.7,5885.2,2340.8,32710.1,299.8,""smooth"",""left"",""left"",""good_move""]","",""
"4444","","<div style=""width:500px;"">
  <p>What determined the result of this run?</p>
  </div>","67","html-slider-response","44","1099280","0.0-10.0-1.1","131","1","2025-07-02 10:20:22","80fe4187154257d5fb01684ea91b68b9","94.101.25.101","Mozilla/5.0 (X11; Linux x86_64) AppleWebKit/537.36 (KHTML, like Gecko) Chrome/138.0.0.0 Safari/537.36","WebKit","Chrome","138.0.0.0","Linux","","https://app.prolific.com/","pl-PL,pl;q=0.9,en-US;q=0.8,en;q=0.7","5d6e3252dfe6d10001dbe508","683db6dfa200031b80f2a654","6865077503ff999137a55a17","5d6e3252dfe6d10001dbe508","2025-07-02T10:38:42.667Z","","","","","","AttribQ","","","","","","","","","","","","","","","","","","","","","","","","","","","","","","","","","","","","","","50"
"3200","","<div style=""width:500px;"">
  <p>How much control did you have over the ball?</p>
  </div>","89","html-slider-response","45","1102482","0.0-10.0-2.1","131","1","2025-07-02 10:20:22","80fe4187154257d5fb01684ea91b68b9","94.101.25.101","Mozilla/5.0 (X11; Linux x86_64) AppleWebKit/537.36 (KHTML, like Gecko) Chrome/138.0.0.0 Safari/537.36","WebKit","Chrome","138.0.0.0","Linux","","https://app.prolific.com/","pl-PL,pl;q=0.9,en-US;q=0.8,en;q=0.7","5d6e3252dfe6d10001dbe508","683db6dfa200031b80f2a654","6865077503ff999137a55a17","5d6e3252dfe6d10001dbe508","2025-07-02T10:38:45.869Z","","","","","","ControlQ","","","","","","","","","","","","","","","","","","","","","","","","","","","","","","","","","","","","","","50"
"4810","","<div style=""width:500px;"">
  <p>How would you describe your current emotional state?</p>
  </div>","10","html-slider-response","46","1107292","0.0-10.0-3.1","131","1","2025-07-02 10:20:22","80fe4187154257d5fb01684ea91b68b9","94.101.25.101","Mozilla/5.0 (X11; Linux x86_64) AppleWebKit/537.36 (KHTML, like Gecko) Chrome/138.0.0.0 Safari/537.36","WebKit","Chrome","138.0.0.0","Linux","","https://app.prolific.com/","pl-PL,pl;q=0.9,en-US;q=0.8,en;q=0.7","5d6e3252dfe6d10001dbe508","683db6dfa200031b80f2a654","6865077503ff999137a55a17","5d6e3252dfe6d10001dbe508","2025-07-02T10:38:50.679Z","","","","","","StressQ","","","","","","","","","","","","","","","","","","","","","","","","","","","","","","","","","","","","","","50"
"3026","","<div style=""width:500px;"">
  <p>What best describes how you currently feel?</p>
  </div>","97","html-slider-response","47","1110320","0.0-10.0-4.1","131","1","2025-07-02 10:20:22","80fe4187154257d5fb01684ea91b68b9","94.101.25.101","Mozilla/5.0 (X11; Linux x86_64) AppleWebKit/537.36 (KHTML, like Gecko) Chrome/138.0.0.0 Safari/537.36","WebKit","Chrome","138.0.0.0","Linux","","https://app.prolific.com/","pl-PL,pl;q=0.9,en-US;q=0.8,en;q=0.7","5d6e3252dfe6d10001dbe508","683db6dfa200031b80f2a654","6865077503ff999137a55a17","5d6e3252dfe6d10001dbe508","2025-07-02T10:38:53.707Z","","","","","","MotivationQ","","","","","","","","","","","","","","","","","","","","","","","","","","","","","","","","","","","","","","50"
"","","","","ctl-task-cpt","48","1152972","0.0-10.0-0.2","131","1","2025-07-02 10:20:22","80fe4187154257d5fb01684ea91b68b9","94.101.25.101","Mozilla/5.0 (X11; Linux x86_64) AppleWebKit/537.36 (KHTML, like Gecko) Chrome/138.0.0.0 Safari/537.36","WebKit","Chrome","138.0.0.0","Linux","","https://app.prolific.com/","pl-PL,pl;q=0.9,en-US;q=0.8,en;q=0.7","5d6e3252dfe6d10001dbe508","683db6dfa200031b80f2a654","6865077503ff999137a55a17","5d6e3252dfe6d10001dbe508","2025-07-02T10:39:36.359Z","","","","","","","","","","","","","","","","win-only","3","g1:SW,g2:NE","0.8","3","0","1111820.1","882.1","5885.6","39642","1","4","4","6","2","4","4","16","12","0.12121212121212122","5003.5","3000","515","[""up"",""right""]","{""num_key_presses"":8,""num_perfect"":6,""num_errors"":0,""num_randdir"":2,""num_randdir_good_moves"":1,""num_whilered"":0,""num_whileblue"":0,""num_blue"":3,""num_good_moves"":7}","[422.57142857142856,414.47767857142856,0.4,437.57142857142856,414.47767857142856,103.2,881.5714285714286,429.47767857142856,208.3,1108.5714285714287,413.47767857142856,309.9,1108.5714285714287,413.47767857142856,413.4,1108.5714285714287,413.47767857142856,513.4,1108.5714285714287,413.47767857142856,613.4,1108.5714285714287,413.47767857142856,718.2,1108.5714285714287,413.47767857142856,818.3,1108.5714285714287,413.47767857142856,923.3,1108.5714285714287,413.47767857142856,1028.4,1108.5714285714287,413.47767857142856,1133.2,1108.5714285714287,413.47767857142856,1233.2,1108.5714285714287,413.47767857142856,1338.2,1108.5714285714287,413.47767857142856,1438.8,1108.5714285714287,413.47767857142856,1543.4,1108.5714285714287,413.47767857142856,1648.4,1108.5714285714287,413.47767857142856,1748.4,1108.5714285714287,413.47767857142856,1848.7,1108.5714285714287,413.47767857142856,1953.3,1108.5714285714287,413.47767857142856,2053.4,1108.5714285714287,413.47767857142856,2158.3,1108.5714285714287,413.47767857142856,2258.3,1108.5714285714287,413.47767857142856,2358.3,1108.5714285714287,413.47767857142856,2463.6,1108.5714285714287,413.47767857142856,2568.2,1108.5714285714287,413.47767857142856,2669.2,1108.5714285714287,413.47767857142856,2770.1,1108.5714285714287,413.47767857142856,2873.2,1108.5714285714287,413.47767857142856,2973.2,1108.5714285714287,413.47767857142856,3073.3,1108.5714285714287,413.47767857142856,3178.4,1108.5714285714287,413.47767857142856,3279.5,1108.5714285714287,413.47767857142856,3383.3,1108.5714285714287,413.47767857142856,3483.4,1108.5714285714287,413.47767857142856,3583.4,1108.5714285714287,413.47767857142856,3688.1,1108.5714285714287,413.47767857142856,3788.2,1108.5714285714287,413.47767857142856,3888.4,1108.5714285714287,413.47767857142856,3988.4,1108.5714285714287,413.47767857142856,4088.7,1108.5714285714287,413.47767857142856,4193.6,1108.5714285714287,413.47767857142856,4293.6,1108.5714285714287,413.47767857142856,4398.5,1108.5714285714287,413.47767857142856,4503.3,1108.5714285714287,413.47767857142856,4603.3,1108.5714285714287,413.47767857142856,4709.2,1108.5714285714287,413.47767857142856,4813.3,1108.5714285714287,413.47767857142856,4914.2]","[1346.9,1346.9,1000,0,346.9,""smooth"",""right"",""right"",""good_move"",8231.8,6884.4,2876.6,5041.7,313.5,""smooth"",""right"",""right"",""good_move"",11280.1,3048.2,2719.9,8231.9,328.3,""oops"",""right"",""right"",""good_move"",13825.2,2544.9,2187.2,11280.3,357.7,""smooth"",""up"",""up"",""good_move"",21184.6,7358.4,3219,17669.6,296,""oops"",""up"",""down"",""bad_move"",26896,5710.9,2386.2,24184.6,325.2,""smooth"",""up"",""up"",""good_move"",30647.7,3751.3,3423.7,26896.4,327.6,""smooth"",""up"",""up"",""good_move"",33648.5,3000.5,2720.9,30648,279.6,""smooth"",""up"",""up"",""good_move""]","",""
"5463","","<div style=""width:500px;"">
  <p>What determined the result of this run?</p>
  </div>","59","html-slider-response","49","1158436","0.0-10.0-1.2","131","1","2025-07-02 10:20:22","80fe4187154257d5fb01684ea91b68b9","94.101.25.101","Mozilla/5.0 (X11; Linux x86_64) AppleWebKit/537.36 (KHTML, like Gecko) Chrome/138.0.0.0 Safari/537.36","WebKit","Chrome","138.0.0.0","Linux","","https://app.prolific.com/","pl-PL,pl;q=0.9,en-US;q=0.8,en;q=0.7","5d6e3252dfe6d10001dbe508","683db6dfa200031b80f2a654","6865077503ff999137a55a17","5d6e3252dfe6d10001dbe508","2025-07-02T10:39:41.823Z","","","","","","AttribQ","","","","","","","","","","","","","","","","","","","","","","","","","","","","","","","","","","","","","","50"
"3565","","<div style=""width:500px;"">
  <p>How much control did you have over the ball?</p>
  </div>","64","html-slider-response","50","1162002","0.0-10.0-2.2","131","1","2025-07-02 10:20:22","80fe4187154257d5fb01684ea91b68b9","94.101.25.101","Mozilla/5.0 (X11; Linux x86_64) AppleWebKit/537.36 (KHTML, like Gecko) Chrome/138.0.0.0 Safari/537.36","WebKit","Chrome","138.0.0.0","Linux","","https://app.prolific.com/","pl-PL,pl;q=0.9,en-US;q=0.8,en;q=0.7","5d6e3252dfe6d10001dbe508","683db6dfa200031b80f2a654","6865077503ff999137a55a17","5d6e3252dfe6d10001dbe508","2025-07-02T10:39:45.389Z","","","","","","ControlQ","","","","","","","","","","","","","","","","","","","","","","","","","","","","","","","","","","","","","","50"
"5043","","<div style=""width:500px;"">
  <p>How would you describe your current emotional state?</p>
  </div>","16","html-slider-response","51","1167046","0.0-10.0-3.2","131","1","2025-07-02 10:20:22","80fe4187154257d5fb01684ea91b68b9","94.101.25.101","Mozilla/5.0 (X11; Linux x86_64) AppleWebKit/537.36 (KHTML, like Gecko) Chrome/138.0.0.0 Safari/537.36","WebKit","Chrome","138.0.0.0","Linux","","https://app.prolific.com/","pl-PL,pl;q=0.9,en-US;q=0.8,en;q=0.7","5d6e3252dfe6d10001dbe508","683db6dfa200031b80f2a654","6865077503ff999137a55a17","5d6e3252dfe6d10001dbe508","2025-07-02T10:39:50.433Z","","","","","","StressQ","","","","","","","","","","","","","","","","","","","","","","","","","","","","","","","","","","","","","","50"
"4764","","<div style=""width:500px;"">
  <p>What best describes how you currently feel?</p>
  </div>","93","html-slider-response","52","1171811","0.0-10.0-4.2","131","1","2025-07-02 10:20:22","80fe4187154257d5fb01684ea91b68b9","94.101.25.101","Mozilla/5.0 (X11; Linux x86_64) AppleWebKit/537.36 (KHTML, like Gecko) Chrome/138.0.0.0 Safari/537.36","WebKit","Chrome","138.0.0.0","Linux","","https://app.prolific.com/","pl-PL,pl;q=0.9,en-US;q=0.8,en;q=0.7","5d6e3252dfe6d10001dbe508","683db6dfa200031b80f2a654","6865077503ff999137a55a17","5d6e3252dfe6d10001dbe508","2025-07-02T10:39:55.198Z","","","","","","MotivationQ","","","","","","","","","","","","","","","","","","","","","","","","","","","","","","","","","","","","","","50"
"","","","","ctl-task-cpt","53","1211825","0.0-10.0-0.3","131","1","2025-07-02 10:20:22","80fe4187154257d5fb01684ea91b68b9","94.101.25.101","Mozilla/5.0 (X11; Linux x86_64) AppleWebKit/537.36 (KHTML, like Gecko) Chrome/138.0.0.0 Safari/537.36","WebKit","Chrome","138.0.0.0","Linux","","https://app.prolific.com/","pl-PL,pl;q=0.9,en-US;q=0.8,en;q=0.7","5d6e3252dfe6d10001dbe508","683db6dfa200031b80f2a654","6865077503ff999137a55a17","5d6e3252dfe6d10001dbe508","2025-07-02T10:40:35.212Z","","","","","","","","","","","","","","","","win-only","0","g1:NW,g2:SE","0.7","4","0","1173312.2","1316.6","6320.2","37004.5","1","4","8","6","2","-8","-10","6","16","0.045454545454545456","948","3000","-2500","[""down"",""right""]","{""num_key_presses"":11,""num_perfect"":6,""num_errors"":2,""num_randdir"":3,""num_randdir_good_moves"":0,""num_whilered"":0,""num_whileblue"":2,""num_blue"":2,""num_good_moves"":6}","[418.57142857142856,428.47767857142856,0.3,418.57142857142856,427.47767857142856,101.9,418.57142857142856,427.47767857142856,204.3,418.57142857142856,427.47767857142856,310.1,418.57142857142856,427.47767857142856,410.1,418.57142857142856,427.47767857142856,511.1,466.57142857142856,504.47767857142856,611.8,679.5714285714286,726.4776785714286,714.8,705.5714285714286,745.4776785714286,825,739.5714285714286,772.4776785714286,932.9,749.5714285714286,776.4776785714286,1038.2,863.5714285714286,749.4776785714286,1142.1,1210.5714285714287,659.4776785714286,1243.8,1213.5714285714287,658.4776785714286,1346.8,1213.5714285714287,658.4776785714286,1452.9,1213.5714285714287,658.4776785714286,1558,1213.5714285714287,658.4776785714286,1660.4,1213.5714285714287,658.4776785714286,1762.9,1213.5714285714287,658.4776785714286,1864.6,1213.5714285714287,658.4776785714286,1973.9,1213.5714285714287,658.4776785714286,2076.3,1213.5714285714287,658.4776785714286,2177.3,1213.5714285714287,658.4776785714286,2278,1213.5714285714287,658.4776785714286,2380.1,1213.5714285714287,658.4776785714286,2480.8,1213.5714285714287,658.4776785714286,2586.1,1213.5714285714287,658.4776785714286,2686.8,1213.5714285714287,658.4776785714286,2791.7,1213.5714285714287,658.4776785714286,2893,1213.5714285714287,658.4776785714286,2995.6,1213.5714285714287,658.4776785714286,3096,1213.5714285714287,658.4776785714286,3203.6,1213.5714285714287,658.4776785714286,3310.8,1213.5714285714287,658.4776785714286,3413,1213.5714285714287,658.4776785714286,3514.8,1213.5714285714287,658.4776785714286,3614.8,1213.5714285714287,658.4776785714286,3722.3,1213.5714285714287,658.4776785714286,3822.6,1213.5714285714287,658.4776785714286,3926,1213.5714285714287,658.4776785714286,4028.6,1213.5714285714287,658.4776785714286,4129.7,1213.5714285714287,658.4776785714286,4230.2,1213.5714285714287,658.4776785714286,4339.3,1213.5714285714287,658.4776785714286,4440.4,1213.5714285714287,658.4776785714286,4542.4,1213.5714285714287,658.4776785714286,4645,1213.5714285714287,658.4776785714286,4758.9,1213.5714285714287,658.4776785714286,4865.4,1213.5714285714287,658.4776785714286,4967.7]","[1269,1269,1002.8,0,266.2,""while_blue"",""right"",""up"",""bad_move"",4253.1,2983.7,2542.6,1269.4,441.1,""smooth"",""right"",""right"",""good_move"",6854.1,2600.6,2270.2,4253.5,330.4,""oops"",""right"",""up"",""bad_move"",10241,3386.6,3031.2,6854.4,355.4,""oops"",""right"",""left"",""bad_move"",12300.6,2059.4,1726.6,10241.2,332.8,""smooth"",""right"",""right"",""good_move"",14712,2411.2,2106.6,12300.8,304.6,""while_blue"",""right"",""left"",""bad_move"",17153.5,2441.1,1980.6,14712.4,460.5,""smooth"",""down"",""down"",""good_move"",19809.8,2655.8,2304.6,17154,351.2,""smooth"",""down"",""down"",""good_move"",22578.7,2768.6,2454.3,19810.1,314.3,""smooth"",""down"",""down"",""good_move"",25638.1,3059.2,2752.3,22578.9,306.9,""smooth"",""down"",""down"",""good_move"",28203.4,2565.1,2246.3,25638.3,318.8,""oops"",""down"",""up"",""bad_move""]","",""
"5452","","<div style=""width:500px;"">
  <p>What determined the result of this run?</p>
  </div>","8","html-slider-response","54","1217279","0.0-10.0-1.3","131","1","2025-07-02 10:20:22","80fe4187154257d5fb01684ea91b68b9","94.101.25.101","Mozilla/5.0 (X11; Linux x86_64) AppleWebKit/537.36 (KHTML, like Gecko) Chrome/138.0.0.0 Safari/537.36","WebKit","Chrome","138.0.0.0","Linux","","https://app.prolific.com/","pl-PL,pl;q=0.9,en-US;q=0.8,en;q=0.7","5d6e3252dfe6d10001dbe508","683db6dfa200031b80f2a654","6865077503ff999137a55a17","5d6e3252dfe6d10001dbe508","2025-07-02T10:40:40.666Z","","","","","","AttribQ","","","","","","","","","","","","","","","","","","","","","","","","","","","","","","","","","","","","","","50"
"4294","","<div style=""width:500px;"">
  <p>How much control did you have over the ball?</p>
  </div>","17","html-slider-response","55","1221574","0.0-10.0-2.3","131","1","2025-07-02 10:20:22","80fe4187154257d5fb01684ea91b68b9","94.101.25.101","Mozilla/5.0 (X11; Linux x86_64) AppleWebKit/537.36 (KHTML, like Gecko) Chrome/138.0.0.0 Safari/537.36","WebKit","Chrome","138.0.0.0","Linux","","https://app.prolific.com/","pl-PL,pl;q=0.9,en-US;q=0.8,en;q=0.7","5d6e3252dfe6d10001dbe508","683db6dfa200031b80f2a654","6865077503ff999137a55a17","5d6e3252dfe6d10001dbe508","2025-07-02T10:40:44.961Z","","","","","","ControlQ","","","","","","","","","","","","","","","","","","","","","","","","","","","","","","","","","","","","","","50"
"5771","","<div style=""width:500px;"">
  <p>How would you describe your current emotional state?</p>
  </div>","41","html-slider-response","56","1227346","0.0-10.0-3.3","131","1","2025-07-02 10:20:22","80fe4187154257d5fb01684ea91b68b9","94.101.25.101","Mozilla/5.0 (X11; Linux x86_64) AppleWebKit/537.36 (KHTML, like Gecko) Chrome/138.0.0.0 Safari/537.36","WebKit","Chrome","138.0.0.0","Linux","","https://app.prolific.com/","pl-PL,pl;q=0.9,en-US;q=0.8,en;q=0.7","5d6e3252dfe6d10001dbe508","683db6dfa200031b80f2a654","6865077503ff999137a55a17","5d6e3252dfe6d10001dbe508","2025-07-02T10:40:50.734Z","","","","","","StressQ","","","","","","","","","","","","","","","","","","","","","","","","","","","","","","","","","","","","","","50"
"3660","","<div style=""width:500px;"">
  <p>What best describes how you currently feel?</p>
  </div>","81","html-slider-response","57","1231008","0.0-10.0-4.3","131","1","2025-07-02 10:20:22","80fe4187154257d5fb01684ea91b68b9","94.101.25.101","Mozilla/5.0 (X11; Linux x86_64) AppleWebKit/537.36 (KHTML, like Gecko) Chrome/138.0.0.0 Safari/537.36","WebKit","Chrome","138.0.0.0","Linux","","https://app.prolific.com/","pl-PL,pl;q=0.9,en-US;q=0.8,en;q=0.7","5d6e3252dfe6d10001dbe508","683db6dfa200031b80f2a654","6865077503ff999137a55a17","5d6e3252dfe6d10001dbe508","2025-07-02T10:40:54.395Z","","","","","","MotivationQ","","","","","","","","","","","","","","","","","","","","","","","","","","","","","","","","","","","","","","50"
"","","","","ctl-task-cpt","58","1287442","0.0-10.0-0.4","131","1","2025-07-02 10:20:22","80fe4187154257d5fb01684ea91b68b9","94.101.25.101","Mozilla/5.0 (X11; Linux x86_64) AppleWebKit/537.36 (KHTML, like Gecko) Chrome/138.0.0.0 Safari/537.36","WebKit","Chrome","138.0.0.0","Linux","","https://app.prolific.com/","pl-PL,pl;q=0.9,en-US;q=0.8,en;q=0.7","5d6e3252dfe6d10001dbe508","683db6dfa200031b80f2a654","6865077503ff999137a55a17","5d6e3252dfe6d10001dbe508","2025-07-02T10:41:50.829Z","","","","","","","","","","","","","","","","win-only","1","g1:NE,g2:SW","0.6","5","0","1232508.6","851.6","5860.9","53424.4","1","4","4","6","2","4","4","10","6","0.07575757575757576","906","3000","30","[""down"",""left""]","{""num_key_presses"":12,""num_perfect"":8,""num_errors"":0,""num_randdir"":4,""num_randdir_good_moves"":1,""num_whilered"":0,""num_whileblue"":0,""num_blue"":4,""num_good_moves"":9}","[417.57142857142856,427.47767857142856,0.1,417.57142857142856,426.47767857142856,100.6,417.57142857142856,426.47767857142856,206.2,411.57142857142856,428.47767857142856,308.7,411.57142857142856,428.47767857142856,410.2,411.57142857142856,428.47767857142856,515.3,311.57142857142856,525.4776785714286,616.3,152.57142857142856,770.4776785714286,721.5,95.57142857142857,791.4776785714286,825.1,59.57142857142857,786.4776785714286,926.2,63.57142857142857,787.4776785714286,1029.3,327.57142857142856,713.4776785714286,1134.1,973.5714285714286,538.4776785714286,1238.8,1118.5714285714287,501.47767857142856,1349,1118.5714285714287,501.47767857142856,1453.4,1118.5714285714287,501.47767857142856,1562.8,1118.5714285714287,501.47767857142856,1667.7,1118.5714285714287,501.47767857142856,1773.8,1118.5714285714287,501.47767857142856,1877.7,1118.5714285714287,501.47767857142856,1981.4,1118.5714285714287,501.47767857142856,2090.8,1118.5714285714287,501.47767857142856,2195.3,1118.5714285714287,501.47767857142856,2297.3,1118.5714285714287,501.47767857142856,2401.5,1118.5714285714287,501.47767857142856,2510.6,1118.5714285714287,501.47767857142856,2614.5,1118.5714285714287,501.47767857142856,2714.9,1118.5714285714287,501.47767857142856,2827.2,1118.5714285714287,501.47767857142856,2927.3,1118.5714285714287,501.47767857142856,3028.2,1118.5714285714287,501.47767857142856,3132.3,1118.5714285714287,501.47767857142856,3232.5,1118.5714285714287,501.47767857142856,3333,1118.5714285714287,501.47767857142856,3433.2,1118.5714285714287,501.47767857142856,3536.1,1118.5714285714287,501.47767857142856,3642.8,1118.5714285714287,501.47767857142856,3745.7,1118.5714285714287,501.47767857142856,3845.9,1118.5714285714287,501.47767857142856,3948.1,1118.5714285714287,501.47767857142856,4050.2,1118.5714285714287,501.47767857142856,4159.2,1118.5714285714287,501.47767857142856,4265.4,1118.5714285714287,501.47767857142856,4365.7,1118.5714285714287,501.47767857142856,4473.7,1118.5714285714287,501.47767857142856,4576.8,1118.5714285714287,501.47767857142856,4680.8,1118.5714285714287,501.47767857142856,4781.5,1118.5714285714287,501.47767857142856,4883.6,1118.5714285714287,501.47767857142856,4992]","[1333.9,1333.9,1000,0,333.9,""smooth"",""down"",""down"",""good_move"",3814.8,2480.5,2184.6,1334.3,295.9,""oops"",""down"",""right"",""bad_move"",6634.5,2819.1,2532.5,3815.4,286.6,""oops"",""down"",""right"",""bad_move"",9990.6,3355.9,3050.6,6634.8,305.3,""oops"",""down"",""down"",""good_move"",16125.8,6135,2751.5,13074.7,299.6,""smooth"",""down"",""down"",""good_move"",22665.3,6539.2,2488.4,19859.3,317.6,""smooth"",""left"",""left"",""good_move"",25766.3,3100.6,2783.1,22665.7,317.5,""smooth"",""left"",""left"",""good_move"",31806.6,6040.1,2217.2,29309.3,280.1,""smooth"",""left"",""left"",""good_move"",37887.3,6080.4,2421.8,35152.8,312.7,""smooth"",""left"",""left"",""good_move"",41193.6,3306.1,2980.9,37887.5,325.2,""oops"",""left"",""right"",""bad_move"",44452.7,3258.5,3010.9,41194.2,247.6,""smooth"",""left"",""left"",""good_move"",47454,3001,2699.2,44453,301.8,""smooth"",""left"",""left"",""good_move""]","",""
"3204","","<div style=""width:500px;"">
  <p>What determined the result of this run?</p>
  </div>","26","html-slider-response","59","1290647","0.0-10.0-1.4","131","1","2025-07-02 10:20:22","80fe4187154257d5fb01684ea91b68b9","94.101.25.101","Mozilla/5.0 (X11; Linux x86_64) AppleWebKit/537.36 (KHTML, like Gecko) Chrome/138.0.0.0 Safari/537.36","WebKit","Chrome","138.0.0.0","Linux","","https://app.prolific.com/","pl-PL,pl;q=0.9,en-US;q=0.8,en;q=0.7","5d6e3252dfe6d10001dbe508","683db6dfa200031b80f2a654","6865077503ff999137a55a17","5d6e3252dfe6d10001dbe508","2025-07-02T10:41:54.034Z","","","","","","AttribQ","","","","","","","","","","","","","","","","","","","","","","","","","","","","","","","","","","","","","","50"
"3851","","<div style=""width:500px;"">
  <p>How much control did you have over the ball?</p>
  </div>","50","html-slider-response","60","1294500","0.0-10.0-2.4","131","1","2025-07-02 10:20:22","80fe4187154257d5fb01684ea91b68b9","94.101.25.101","Mozilla/5.0 (X11; Linux x86_64) AppleWebKit/537.36 (KHTML, like Gecko) Chrome/138.0.0.0 Safari/537.36","WebKit","Chrome","138.0.0.0","Linux","","https://app.prolific.com/","pl-PL,pl;q=0.9,en-US;q=0.8,en;q=0.7","5d6e3252dfe6d10001dbe508","683db6dfa200031b80f2a654","6865077503ff999137a55a17","5d6e3252dfe6d10001dbe508","2025-07-02T10:41:57.887Z","","","","","","ControlQ","","","","","","","","","","","","","","","","","","","","","","","","","","","","","","","","","","","","","","50"
"3940","","<div style=""width:500px;"">
  <p>How would you describe your current emotional state?</p>
  </div>","37","html-slider-response","61","1298442","0.0-10.0-3.4","131","1","2025-07-02 10:20:22","80fe4187154257d5fb01684ea91b68b9","94.101.25.101","Mozilla/5.0 (X11; Linux x86_64) AppleWebKit/537.36 (KHTML, like Gecko) Chrome/138.0.0.0 Safari/537.36","WebKit","Chrome","138.0.0.0","Linux","","https://app.prolific.com/","pl-PL,pl;q=0.9,en-US;q=0.8,en;q=0.7","5d6e3252dfe6d10001dbe508","683db6dfa200031b80f2a654","6865077503ff999137a55a17","5d6e3252dfe6d10001dbe508","2025-07-02T10:42:01.829Z","","","","","","StressQ","","","","","","","","","","","","","","","","","","","","","","","","","","","","","","","","","","","","","","50"
"2636","","<div style=""width:500px;"">
  <p>What best describes how you currently feel?</p>
  </div>","94","html-slider-response","62","1301080","0.0-10.0-4.4","131","1","2025-07-02 10:20:22","80fe4187154257d5fb01684ea91b68b9","94.101.25.101","Mozilla/5.0 (X11; Linux x86_64) AppleWebKit/537.36 (KHTML, like Gecko) Chrome/138.0.0.0 Safari/537.36","WebKit","Chrome","138.0.0.0","Linux","","https://app.prolific.com/","pl-PL,pl;q=0.9,en-US;q=0.8,en;q=0.7","5d6e3252dfe6d10001dbe508","683db6dfa200031b80f2a654","6865077503ff999137a55a17","5d6e3252dfe6d10001dbe508","2025-07-02T10:42:04.467Z","","","","","","MotivationQ","","","","","","","","","","","","","","","","","","","","","","","","","","","","","","","","","","","","","","50"
"","","","","ctl-task-cpt","63","1338960","0.0-10.0-0.5","131","1","2025-07-02 10:20:22","80fe4187154257d5fb01684ea91b68b9","94.101.25.101","Mozilla/5.0 (X11; Linux x86_64) AppleWebKit/537.36 (KHTML, like Gecko) Chrome/138.0.0.0 Safari/537.36","WebKit","Chrome","138.0.0.0","Linux","","https://app.prolific.com/","pl-PL,pl;q=0.9,en-US;q=0.8,en;q=0.7","5d6e3252dfe6d10001dbe508","683db6dfa200031b80f2a654","6865077503ff999137a55a17","5d6e3252dfe6d10001dbe508","2025-07-02T10:42:42.347Z","","","","","","","","","","","","","","","","win-only","3","g1:SW,g2:NE","0.5","6","0","1302581.5","2412.6","7421","34861.7","1","4","8","6","2","8","8","18","10","0.13636363636363635","935.6","3000","625","[""up"",""right""]","{""num_key_presses"":10,""num_perfect"":5,""num_errors"":0,""num_randdir"":5,""num_randdir_good_moves"":3,""num_whilered"":0,""num_whileblue"":0,""num_blue"":0,""num_good_moves"":8}","[418.57142857142856,420.47767857142856,0.2,418.57142857142856,420.47767857142856,105.9,419.57142857142856,420.47767857142856,209.9,419.57142857142856,420.47767857142856,311.5,419.57142857142856,420.47767857142856,411.8,419.57142857142856,420.47767857142856,513.3,426.57142857142856,420.47767857142856,613.5,589.5714285714286,313.47767857142856,715.7,749.5714285714286,152.47767857142856,822.2,773.5714285714286,99.47767857142857,928.8,773.5714285714286,99.47767857142857,1035.3,923.5714285714286,121.47767857142857,1137.5,1261.5714285714287,108.47767857142857,1238.4,1262.5714285714287,108.47767857142857,1341.3,1262.5714285714287,107.47767857142857,1441.3,1262.5714285714287,107.47767857142857,1542.9,1262.5714285714287,107.47767857142857,1647,1262.5714285714287,107.47767857142857,1747.4,1262.5714285714287,107.47767857142857,1847.5,1262.5714285714287,107.47767857142857,1950.1,1262.5714285714287,107.47767857142857,2058.2,1262.5714285714287,107.47767857142857,2159.6,1262.5714285714287,107.47767857142857,2261.7,1262.5714285714287,107.47767857142857,2364.5,1262.5714285714287,107.47767857142857,2464.5,1262.5714285714287,107.47767857142857,2570.3,1262.5714285714287,107.47767857142857,2671.8,1262.5714285714287,107.47767857142857,2777.4,1262.5714285714287,107.47767857142857,2879.7,1262.5714285714287,107.47767857142857,2980.5,1262.5714285714287,107.47767857142857,3082.3,1262.5714285714287,107.47767857142857,3184.7,1262.5714285714287,107.47767857142857,3286.4,1262.5714285714287,107.47767857142857,3393.6,1262.5714285714287,107.47767857142857,3494.6,1262.5714285714287,107.47767857142857,3595.2,1262.5714285714287,107.47767857142857,3701.8,1262.5714285714287,107.47767857142857,3805.9,1262.5714285714287,107.47767857142857,3907.2,1262.5714285714287,107.47767857142857,4013.7,1262.5714285714287,107.47767857142857,4123,1262.5714285714287,107.47767857142857,4231.6,1262.5714285714287,107.47767857142857,4337.8,1262.5714285714287,107.47767857142857,4440.3,1262.5714285714287,107.47767857142857,4540.5,1262.5714285714287,107.47767857142857,4641.9,1262.5714285714287,107.47767857142857,4743.8,1262.5714285714287,107.47767857142857,4844.7,1262.5714285714287,107.47767857142857,4949.4]","[1302.4,1302.4,1000,0,302.4,""smooth"",""right"",""right"",""good_move"",4673,3370.2,3043.7,1302.8,326.6,""smooth"",""right"",""right"",""good_move"",9108.7,4435.4,4029.6,4673.3,405.8,""smooth"",""right"",""right"",""good_move"",11829.1,2720.2,2373.6,9108.9,346.6,""oops"",""up"",""down"",""bad_move"",14328.4,2498.8,2190.6,11829.6,308.2,""oops"",""up"",""left"",""bad_move"",16724.7,2395.8,2044.2,14328.9,351.6,""oops"",""up"",""right"",""good_move"",19761.7,3036.7,2693.6,16725,343.1,""smooth"",""up"",""up"",""good_move"",22054.6,2292.4,1977.1,19762.2,315.3,""smooth"",""up"",""up"",""good_move"",24586.3,2531.5,2252.5,22054.8,279,""oops"",""up"",""up"",""good_move"",27329.4,2742.7,2454.3,24586.7,288.4,""oops"",""up"",""up"",""good_move""]","",""
"4733","","<div style=""width:500px;"">
  <p>What determined the result of this run?</p>
  </div>","39","html-slider-response","64","1343694","0.0-10.0-1.5","131","1","2025-07-02 10:20:22","80fe4187154257d5fb01684ea91b68b9","94.101.25.101","Mozilla/5.0 (X11; Linux x86_64) AppleWebKit/537.36 (KHTML, like Gecko) Chrome/138.0.0.0 Safari/537.36","WebKit","Chrome","138.0.0.0","Linux","","https://app.prolific.com/","pl-PL,pl;q=0.9,en-US;q=0.8,en;q=0.7","5d6e3252dfe6d10001dbe508","683db6dfa200031b80f2a654","6865077503ff999137a55a17","5d6e3252dfe6d10001dbe508","2025-07-02T10:42:47.081Z","","","","","","AttribQ","","","","","","","","","","","","","","","","","","","","","","","","","","","","","","","","","","","","","","50"
"5570","","<div style=""width:500px;"">
  <p>How much control did you have over the ball?</p>
  </div>","44","html-slider-response","65","1349265","0.0-10.0-2.5","131","1","2025-07-02 10:20:22","80fe4187154257d5fb01684ea91b68b9","94.101.25.101","Mozilla/5.0 (X11; Linux x86_64) AppleWebKit/537.36 (KHTML, like Gecko) Chrome/138.0.0.0 Safari/537.36","WebKit","Chrome","138.0.0.0","Linux","","https://app.prolific.com/","pl-PL,pl;q=0.9,en-US;q=0.8,en;q=0.7","5d6e3252dfe6d10001dbe508","683db6dfa200031b80f2a654","6865077503ff999137a55a17","5d6e3252dfe6d10001dbe508","2025-07-02T10:42:52.652Z","","","","","","ControlQ","","","","","","","","","","","","","","","","","","","","","","","","","","","","","","","","","","","","","","50"
"4088","","<div style=""width:500px;"">
  <p>How would you describe your current emotional state?</p>
  </div>","32","html-slider-response","66","1353354","0.0-10.0-3.5","131","1","2025-07-02 10:20:22","80fe4187154257d5fb01684ea91b68b9","94.101.25.101","Mozilla/5.0 (X11; Linux x86_64) AppleWebKit/537.36 (KHTML, like Gecko) Chrome/138.0.0.0 Safari/537.36","WebKit","Chrome","138.0.0.0","Linux","","https://app.prolific.com/","pl-PL,pl;q=0.9,en-US;q=0.8,en;q=0.7","5d6e3252dfe6d10001dbe508","683db6dfa200031b80f2a654","6865077503ff999137a55a17","5d6e3252dfe6d10001dbe508","2025-07-02T10:42:56.741Z","","","","","","StressQ","","","","","","","","","","","","","","","","","","","","","","","","","","","","","","","","","","","","","","50"
"2267","","<div style=""width:500px;"">
  <p>What best describes how you currently feel?</p>
  </div>","85","html-slider-response","67","1355622","0.0-10.0-4.5","131","1","2025-07-02 10:20:22","80fe4187154257d5fb01684ea91b68b9","94.101.25.101","Mozilla/5.0 (X11; Linux x86_64) AppleWebKit/537.36 (KHTML, like Gecko) Chrome/138.0.0.0 Safari/537.36","WebKit","Chrome","138.0.0.0","Linux","","https://app.prolific.com/","pl-PL,pl;q=0.9,en-US;q=0.8,en;q=0.7","5d6e3252dfe6d10001dbe508","683db6dfa200031b80f2a654","6865077503ff999137a55a17","5d6e3252dfe6d10001dbe508","2025-07-02T10:42:59.009Z","","","","","","MotivationQ","","","","","","","","","","","","","","","","","","","","","","","","","","","","","","","","","","","","","","50"
"","","","","ctl-task-cpt","68","1422272","0.0-10.0-0.6","131","1","2025-07-02 10:20:22","80fe4187154257d5fb01684ea91b68b9","94.101.25.101","Mozilla/5.0 (X11; Linux x86_64) AppleWebKit/537.36 (KHTML, like Gecko) Chrome/138.0.0.0 Safari/537.36","WebKit","Chrome","138.0.0.0","Linux","","https://app.prolific.com/","pl-PL,pl;q=0.9,en-US;q=0.8,en;q=0.7","5d6e3252dfe6d10001dbe508","683db6dfa200031b80f2a654","6865077503ff999137a55a17","5d6e3252dfe6d10001dbe508","2025-07-02T10:44:05.659Z","","","","","","","","","","","","","","","","win-only","3","g1:SW,g2:NE","0.4","7","0","1357123","1736.1","6748.7","63635.1","1","4","8","6","2","-8","-10","8","18","0.06060606060606061","2107.6","3000","-1555","[""up"",""right""]","{""num_key_presses"":17,""num_perfect"":6,""num_errors"":2,""num_randdir"":9,""num_randdir_good_moves"":2,""num_whilered"":0,""num_whileblue"":2,""num_blue"":4,""num_good_moves"":10}","[414.57142857142856,421.47767857142856,0.2,414.57142857142856,421.47767857142856,104.3,414.57142857142856,421.47767857142856,210.4,414.57142857142856,421.47767857142856,318.2,414.57142857142856,421.47767857142856,423.8,414.57142857142856,421.47767857142856,526.3,411.57142857142856,424.47767857142856,635,286.57142857142856,535.4776785714286,739,85.57142857142857,711.4776785714286,848,57.57142857142857,758.4776785714286,950.9,60.57142857142857,760.4776785714286,1055.6,78.57142857142857,753.4776785714286,1162.5,78.57142857142857,753.4776785714286,1266,79.57142857142857,752.4776785714286,1374.3,79.57142857142857,752.4776785714286,1477.4,79.57142857142857,752.4776785714286,1583.2,86.57142857142857,748.4776785714286,1685.8,629.5714285714286,339.47767857142856,1793.1,754.5714285714286,238.47767857142856,1899.6,746.5714285714286,178.47767857142856,2001.1,763.5714285714286,93.47767857142857,2102.8,764.5714285714286,92.47767857142857,2212,1079.5714285714287,90.47767857142857,2318.7,1215.5714285714287,56.47767857142857,2426.7,1215.5714285714287,56.47767857142857,2533.3,1215.5714285714287,56.47767857142857,2634.7,1215.5714285714287,56.47767857142857,2743.4,1215.5714285714287,56.47767857142857,2845.9,1215.5714285714287,56.47767857142857,2949.9,1215.5714285714287,56.47767857142857,3054.4,1215.5714285714287,56.47767857142857,3160.8,1215.5714285714287,56.47767857142857,3267.1,1215.5714285714287,56.47767857142857,3371.8,1215.5714285714287,56.47767857142857,3476.7,1215.5714285714287,56.47767857142857,3582.9,1215.5714285714287,56.47767857142857,3687.1,1215.5714285714287,56.47767857142857,3794.7,1215.5714285714287,56.47767857142857,3896.1,1215.5714285714287,56.47767857142857,3997.9,1215.5714285714287,56.47767857142857,4102.3,1215.5714285714287,56.47767857142857,4203,1215.5714285714287,56.47767857142857,4308.9,1215.5714285714287,56.47767857142857,4410.2,1215.5714285714287,56.47767857142857,4517.4,1215.5714285714287,56.47767857142857,4623.7,1215.5714285714287,56.47767857142857,4726.3,1215.5714285714287,56.47767857142857,4830.9,1215.5714285714287,56.47767857142857,4933.9]","[1342.4,1342.4,1000,0,342.4,""oops"",""up"",""down"",""bad_move"",4551.7,3209,2874.3,1342.8,334.7,""smooth"",""up"",""up"",""good_move"",7218.8,2666.7,2315.5,4552.1,351.2,""oops"",""up"",""down"",""bad_move"",10580.1,3361,3054.7,7219.1,306.3,""smooth"",""up"",""up"",""good_move"",13767.8,3187.5,2927,10580.3,260.5,""while_blue"",""right"",""up"",""good_move"",16744.1,2976,2564.2,13768.1,411.8,""smooth"",""up"",""up"",""good_move"",19330.8,2586.5,2169.9,16744.3,416.6,""oops"",""up"",""up"",""good_move"",21935.2,2604.1,2238.3,19331.1,365.8,""smooth"",""right"",""right"",""good_move"",24812.8,2877.1,2556.2,21935.7,320.9,""oops"",""right"",""left"",""bad_move"",35332.4,10519.3,2558.2,32411.4,362.9,""oops"",""right"",""right"",""good_move"",38052.1,2719.5,2348.7,35332.7,370.8,""oops"",""right"",""left"",""bad_move"",40723.5,2671,2347.9,38052.5,323.1,""oops"",""right"",""down"",""bad_move"",43547.8,2823.9,2512,40723.9,311.9,""smooth"",""right"",""right"",""good_move"",45914,2365.9,2085.9,43548.1,280,""oops"",""right"",""left"",""bad_move"",48760.5,2846.2,2577.6,45914.3,268.6,""while_blue"",""right"",""up"",""good_move"",51212,2450.9,2161.1,48761.1,289.8,""smooth"",""right"",""right"",""good_move"",54177.9,2965.7,2670.2,51212.2,295.5,""oops"",""right"",""left"",""bad_move""]","",""
"3212","","<div style=""width:500px;"">
  <p>What determined the result of this run?</p>
  </div>","0","html-slider-response","69","1425486","0.0-10.0-1.6","131","1","2025-07-02 10:20:22","80fe4187154257d5fb01684ea91b68b9","94.101.25.101","Mozilla/5.0 (X11; Linux x86_64) AppleWebKit/537.36 (KHTML, like Gecko) Chrome/138.0.0.0 Safari/537.36","WebKit","Chrome","138.0.0.0","Linux","","https://app.prolific.com/","pl-PL,pl;q=0.9,en-US;q=0.8,en;q=0.7","5d6e3252dfe6d10001dbe508","683db6dfa200031b80f2a654","6865077503ff999137a55a17","5d6e3252dfe6d10001dbe508","2025-07-02T10:44:08.873Z","","","","","","AttribQ","","","","","","","","","","","","","","","","","","","","","","","","","","","","","","","","","","","","","","50"
"4736","","<div style=""width:500px;"">
  <p>How much control did you have over the ball?</p>
  </div>","4","html-slider-response","70","1430224","0.0-10.0-2.6","131","1","2025-07-02 10:20:22","80fe4187154257d5fb01684ea91b68b9","94.101.25.101","Mozilla/5.0 (X11; Linux x86_64) AppleWebKit/537.36 (KHTML, like Gecko) Chrome/138.0.0.0 Safari/537.36","WebKit","Chrome","138.0.0.0","Linux","","https://app.prolific.com/","pl-PL,pl;q=0.9,en-US;q=0.8,en;q=0.7","5d6e3252dfe6d10001dbe508","683db6dfa200031b80f2a654","6865077503ff999137a55a17","5d6e3252dfe6d10001dbe508","2025-07-02T10:44:13.611Z","","","","","","ControlQ","","","","","","","","","","","","","","","","","","","","","","","","","","","","","","","","","","","","","","50"
"2032","","<div style=""width:500px;"">
  <p>How would you describe your current emotional state?</p>
  </div>","59","html-slider-response","71","1432257","0.0-10.0-3.6","131","1","2025-07-02 10:20:22","80fe4187154257d5fb01684ea91b68b9","94.101.25.101","Mozilla/5.0 (X11; Linux x86_64) AppleWebKit/537.36 (KHTML, like Gecko) Chrome/138.0.0.0 Safari/537.36","WebKit","Chrome","138.0.0.0","Linux","","https://app.prolific.com/","pl-PL,pl;q=0.9,en-US;q=0.8,en;q=0.7","5d6e3252dfe6d10001dbe508","683db6dfa200031b80f2a654","6865077503ff999137a55a17","5d6e3252dfe6d10001dbe508","2025-07-02T10:44:15.644Z","","","","","","StressQ","","","","","","","","","","","","","","","","","","","","","","","","","","","","","","","","","","","","","","50"
"2064","","<div style=""width:500px;"">
  <p>What best describes how you currently feel?</p>
  </div>","85","html-slider-response","72","1434322","0.0-10.0-4.6","131","1","2025-07-02 10:20:22","80fe4187154257d5fb01684ea91b68b9","94.101.25.101","Mozilla/5.0 (X11; Linux x86_64) AppleWebKit/537.36 (KHTML, like Gecko) Chrome/138.0.0.0 Safari/537.36","WebKit","Chrome","138.0.0.0","Linux","","https://app.prolific.com/","pl-PL,pl;q=0.9,en-US;q=0.8,en;q=0.7","5d6e3252dfe6d10001dbe508","683db6dfa200031b80f2a654","6865077503ff999137a55a17","5d6e3252dfe6d10001dbe508","2025-07-02T10:44:17.709Z","","","","","","MotivationQ","","","","","","","","","","","","","","","","","","","","","","","","","","","","","","","","","","","","","","50"
"","","","","ctl-task-cpt","73","1484025","0.0-10.0-0.7","131","1","2025-07-02 10:20:22","80fe4187154257d5fb01684ea91b68b9","94.101.25.101","Mozilla/5.0 (X11; Linux x86_64) AppleWebKit/537.36 (KHTML, like Gecko) Chrome/138.0.0.0 Safari/537.36","WebKit","Chrome","138.0.0.0","Linux","","https://app.prolific.com/","pl-PL,pl;q=0.9,en-US;q=0.8,en;q=0.7","5d6e3252dfe6d10001dbe508","683db6dfa200031b80f2a654","6865077503ff999137a55a17","5d6e3252dfe6d10001dbe508","2025-07-02T10:45:07.413Z","","","","","","","","","","","","","","","","win-only","2","g1:SE,g2:NW","0.3","8","0","1435822.9","935.7","5938.1","46683.6","1","4","4","6","2","4","4","12","8","0.09090909090909091","1295","3000","780","[""left"",""up""]","{""num_key_presses"":12,""num_perfect"":5,""num_errors"":0,""num_randdir"":7,""num_randdir_good_moves"":4,""num_whilered"":0,""num_whileblue"":0,""num_blue"":2,""num_good_moves"":9}","[410.57142857142856,424.47767857142856,0.1,410.57142857142856,424.47767857142856,104.1,410.57142857142856,424.47767857142856,208.1,410.57142857142856,424.47767857142856,312.8,410.57142857142856,424.47767857142856,414.5,382.57142857142856,412.47767857142856,518.7,258.57142857142856,346.47767857142856,625.8,191.57142857142856,258.47767857142856,726.7,236.57142857142856,332.47767857142856,834.2,371.57142857142856,474.47767857142856,939.1,264.57142857142856,346.47767857142856,1041.6,76.57142857142857,138.47767857142856,1147,80.57142857142857,75.47767857142857,1256.1,81.57142857142857,64.47767857142857,1362.5,-128.42857142857144,71.47767857142857,1463.2,-396.42857142857144,65.47767857142857,1567,-403.42857142857144,80.47767857142857,1671.4,-403.42857142857144,80.47767857142857,1774.8,-403.42857142857144,80.47767857142857,1877.7,-403.42857142857144,80.47767857142857,1984.6,-403.42857142857144,80.47767857142857,2088.4,-403.42857142857144,80.47767857142857,2196.1,-403.42857142857144,80.47767857142857,2302.3,-403.42857142857144,80.47767857142857,2410.1,-403.42857142857144,80.47767857142857,2511.9,-403.42857142857144,80.47767857142857,2616.1,-403.42857142857144,80.47767857142857,2717.9,-403.42857142857144,80.47767857142857,2823.6,-403.42857142857144,80.47767857142857,2926.2,-403.42857142857144,80.47767857142857,3032.6,-403.42857142857144,80.47767857142857,3140.4,-403.42857142857144,80.47767857142857,3246,-403.42857142857144,80.47767857142857,3351.1,-403.42857142857144,80.47767857142857,3452.2,-403.42857142857144,80.47767857142857,3561,-403.42857142857144,80.47767857142857,3663.8,-403.42857142857144,80.47767857142857,3766.4,-403.42857142857144,80.47767857142857,3872.2,-403.42857142857144,80.47767857142857,3972.9,-403.42857142857144,80.47767857142857,4075.8,-403.42857142857144,80.47767857142857,4184.8,-403.42857142857144,80.47767857142857,4289.4,-403.42857142857144,80.47767857142857,4394.8,-403.42857142857144,80.47767857142857,4499.2,-403.42857142857144,80.47767857142857,4602.8,-403.42857142857144,80.47767857142857,4703.2,-403.42857142857144,80.47767857142857,4814.1,-403.42857142857144,80.47767857142857,4915.7]","[4937.2,4937.3,2567.7,2006.2,363.4,""oops"",""left"",""left"",""good_move"",7554.3,2616.7,2236.3,4937.7,380.3,""oops"",""left"",""down"",""bad_move"",10939.3,3384.5,3061.4,7554.8,323.1,""smooth"",""left"",""left"",""good_move"",17786.9,6847.5,2508.2,14961,317.8,""oops"",""left"",""left"",""good_move"",20620.5,2833.3,2444.6,17787.2,388.7,""smooth"",""up"",""up"",""good_move"",23825.8,3204.9,2832.2,20620.9,372.7,""oops"",""up"",""up"",""good_move"",26824.3,2998.4,2681.1,23826,317.3,""oops"",""up"",""right"",""bad_move"",29983.7,3159,2814.2,26824.7,344.8,""smooth"",""up"",""up"",""good_move"",32322.7,2338.7,1881.9,29984,456.8,""oops"",""up"",""right"",""bad_move"",35266.9,2944,2657.9,32323,286,""oops"",""left"",""up"",""good_move"",38378.8,3111.7,2822.6,35267.1,289.1,""smooth"",""left"",""left"",""good_move"",40577.5,2198.4,1871.1,38379.1,327.3,""smooth"",""left"",""left"",""good_move""]","",""
"2746","","<div style=""width:500px;"">
  <p>What determined the result of this run?</p>
  </div>","37","html-slider-response","74","1486774","0.0-10.0-1.7","131","1","2025-07-02 10:20:22","80fe4187154257d5fb01684ea91b68b9","94.101.25.101","Mozilla/5.0 (X11; Linux x86_64) AppleWebKit/537.36 (KHTML, like Gecko) Chrome/138.0.0.0 Safari/537.36","WebKit","Chrome","138.0.0.0","Linux","","https://app.prolific.com/","pl-PL,pl;q=0.9,en-US;q=0.8,en;q=0.7","5d6e3252dfe6d10001dbe508","683db6dfa200031b80f2a654","6865077503ff999137a55a17","5d6e3252dfe6d10001dbe508","2025-07-02T10:45:10.161Z","","","","","","AttribQ","","","","","","","","","","","","","","","","","","","","","","","","","","","","","","","","","","","","","","50"
"4319","","<div style=""width:500px;"">
  <p>How much control did you have over the ball?</p>
  </div>","40","html-slider-response","75","1491094","0.0-10.0-2.7","131","1","2025-07-02 10:20:22","80fe4187154257d5fb01684ea91b68b9","94.101.25.101","Mozilla/5.0 (X11; Linux x86_64) AppleWebKit/537.36 (KHTML, like Gecko) Chrome/138.0.0.0 Safari/537.36","WebKit","Chrome","138.0.0.0","Linux","","https://app.prolific.com/","pl-PL,pl;q=0.9,en-US;q=0.8,en;q=0.7","5d6e3252dfe6d10001dbe508","683db6dfa200031b80f2a654","6865077503ff999137a55a17","5d6e3252dfe6d10001dbe508","2025-07-02T10:45:14.481Z","","","","","","ControlQ","","","","","","","","","","","","","","","","","","","","","","","","","","","","","","","","","","","","","","50"
"3760","","<div style=""width:500px;"">
  <p>How would you describe your current emotional state?</p>
  </div>","39","html-slider-response","76","1494855","0.0-10.0-3.7","131","1","2025-07-02 10:20:22","80fe4187154257d5fb01684ea91b68b9","94.101.25.101","Mozilla/5.0 (X11; Linux x86_64) AppleWebKit/537.36 (KHTML, like Gecko) Chrome/138.0.0.0 Safari/537.36","WebKit","Chrome","138.0.0.0","Linux","","https://app.prolific.com/","pl-PL,pl;q=0.9,en-US;q=0.8,en;q=0.7","5d6e3252dfe6d10001dbe508","683db6dfa200031b80f2a654","6865077503ff999137a55a17","5d6e3252dfe6d10001dbe508","2025-07-02T10:45:18.242Z","","","","","","StressQ","","","","","","","","","","","","","","","","","","","","","","","","","","","","","","","","","","","","","","50"
"2370","","<div style=""width:500px;"">
  <p>What best describes how you currently feel?</p>
  </div>","83","html-slider-response","77","1497226","0.0-10.0-4.7","131","1","2025-07-02 10:20:22","80fe4187154257d5fb01684ea91b68b9","94.101.25.101","Mozilla/5.0 (X11; Linux x86_64) AppleWebKit/537.36 (KHTML, like Gecko) Chrome/138.0.0.0 Safari/537.36","WebKit","Chrome","138.0.0.0","Linux","","https://app.prolific.com/","pl-PL,pl;q=0.9,en-US;q=0.8,en;q=0.7","5d6e3252dfe6d10001dbe508","683db6dfa200031b80f2a654","6865077503ff999137a55a17","5d6e3252dfe6d10001dbe508","2025-07-02T10:45:20.613Z","","","","","","MotivationQ","","","","","","","","","","","","","","","","","","","","","","","","","","","","","","","","","","","","","","50"
"","","","","ctl-task-cpt","78","1533415","0.0-10.0-0.8","131","1","2025-07-02 10:20:22","80fe4187154257d5fb01684ea91b68b9","94.101.25.101","Mozilla/5.0 (X11; Linux x86_64) AppleWebKit/537.36 (KHTML, like Gecko) Chrome/138.0.0.0 Safari/537.36","WebKit","Chrome","138.0.0.0","Linux","","https://app.prolific.com/","pl-PL,pl;q=0.9,en-US;q=0.8,en;q=0.7","5d6e3252dfe6d10001dbe508","683db6dfa200031b80f2a654","6865077503ff999137a55a17","5d6e3252dfe6d10001dbe508","2025-07-02T10:45:56.803Z","","","","","","","","","","","","","","","","win-only","0","g1:NW,g2:SE","0.4","9","0","1498727.6","1306.8","6314.6","33169.9","1","4","8","6","2","8","7","19","12","0.14393939393939395","2038","3000","1745","[""down"",""right""]","{""num_key_presses"":8,""num_perfect"":4,""num_errors"":1,""num_randdir"":3,""num_randdir_good_moves"":3,""num_whilered"":0,""num_whileblue"":1,""num_blue"":2,""num_good_moves"":7}","[413.57142857142856,421.47767857142856,0.2,413.57142857142856,421.47767857142856,102.1,413.57142857142856,421.47767857142856,207,414.57142857142856,419.47767857142856,309.7,414.57142857142856,419.47767857142856,419.2,415.57142857142856,427.47767857142856,530.4,415.57142857142856,427.47767857142856,636.7,415.57142857142856,428.47767857142856,743.4,473.57142857142856,513.4776785714286,852.3,644.5714285714286,680.4776785714286,954.5,732.5714285714286,734.4776785714286,1066.2,739.5714285714286,736.4776785714286,1169,743.5714285714286,737.4776785714286,1275.4,758.5714285714286,748.4776785714286,1377,758.5714285714286,748.4776785714286,1482.4,758.5714285714286,748.4776785714286,1583,758.5714285714286,748.4776785714286,1688.2,758.5714285714286,748.4776785714286,1791.7,758.5714285714286,748.4776785714286,1893.9,758.5714285714286,748.4776785714286,2003.7,758.5714285714286,748.4776785714286,2103.8,782.5714285714286,745.4776785714286,2209.6,962.5714285714286,674.4776785714286,2321.2,1006.5714285714286,658.4776785714286,2428.8,1006.5714285714286,658.4776785714286,2538.1,1006.5714285714286,658.4776785714286,2642.4,1006.5714285714286,658.4776785714286,2743.4,1006.5714285714286,658.4776785714286,2850.6,1006.5714285714286,658.4776785714286,2958.4,1006.5714285714286,658.4776785714286,3065.5,1006.5714285714286,658.4776785714286,3174.2,1006.5714285714286,658.4776785714286,3275.4,1006.5714285714286,658.4776785714286,3380.1,1006.5714285714286,658.4776785714286,3483.2,1006.5714285714286,658.4776785714286,3591.8,1006.5714285714286,658.4776785714286,3694.4,1006.5714285714286,658.4776785714286,3799.5,1006.5714285714286,658.4776785714286,3905.2,1006.5714285714286,658.4776785714286,4017.2,1006.5714285714286,658.4776785714286,4124.6,1006.5714285714286,658.4776785714286,4228.9,1006.5714285714286,658.4776785714286,4337.2,1006.5714285714286,658.4776785714286,4441.6,1006.5714285714286,658.4776785714286,4544.2,1006.5714285714286,658.4776785714286,4652.1,1006.5714285714286,658.4776785714286,4759.2,1006.5714285714286,658.4776785714286,4871.6,1006.5714285714286,658.4776785714286,4976.2]","[4769.2,4769.3,2494.2,2008.5,266.6,""while_blue"",""down"",""up"",""bad_move"",7419.4,2649.7,2258.9,4769.7,390.8,""smooth"",""right"",""right"",""good_move"",10478.5,3058.8,2608.3,7419.7,450.5,""smooth"",""right"",""right"",""good_move"",13496.9,3018.2,2639.3,10478.8,378.9,""smooth"",""right"",""right"",""good_move"",17064.2,3567,3211.3,13497.2,355.7,""smooth"",""down"",""down"",""good_move"",20308.2,3243.7,2960.7,17064.5,283,""oops"",""down"",""down"",""good_move"",23673.7,3365.1,3047.2,20308.6,317.9,""oops"",""down"",""down"",""good_move"",26642.2,2968.4,2573.9,23673.9,394.4,""oops"",""down"",""down"",""good_move""]","",""
"3057","","<div style=""width:500px;"">
  <p>What determined the result of this run?</p>
  </div>","59","html-slider-response","79","1536474","0.0-10.0-1.8","131","1","2025-07-02 10:20:22","80fe4187154257d5fb01684ea91b68b9","94.101.25.101","Mozilla/5.0 (X11; Linux x86_64) AppleWebKit/537.36 (KHTML, like Gecko) Chrome/138.0.0.0 Safari/537.36","WebKit","Chrome","138.0.0.0","Linux","","https://app.prolific.com/","pl-PL,pl;q=0.9,en-US;q=0.8,en;q=0.7","5d6e3252dfe6d10001dbe508","683db6dfa200031b80f2a654","6865077503ff999137a55a17","5d6e3252dfe6d10001dbe508","2025-07-02T10:45:59.861Z","","","","","","AttribQ","","","","","","","","","","","","","","","","","","","","","","","","","","","","","","","","","","","","","","50"
"4566","","<div style=""width:500px;"">
  <p>How much control did you have over the ball?</p>
  </div>","66","html-slider-response","80","1541042","0.0-10.0-2.8","131","1","2025-07-02 10:20:22","80fe4187154257d5fb01684ea91b68b9","94.101.25.101","Mozilla/5.0 (X11; Linux x86_64) AppleWebKit/537.36 (KHTML, like Gecko) Chrome/138.0.0.0 Safari/537.36","WebKit","Chrome","138.0.0.0","Linux","","https://app.prolific.com/","pl-PL,pl;q=0.9,en-US;q=0.8,en;q=0.7","5d6e3252dfe6d10001dbe508","683db6dfa200031b80f2a654","6865077503ff999137a55a17","5d6e3252dfe6d10001dbe508","2025-07-02T10:46:04.429Z","","","","","","ControlQ","","","","","","","","","","","","","","","","","","","","","","","","","","","","","","","","","","","","","","50"
"3518","","<div style=""width:500px;"">
  <p>How would you describe your current emotional state?</p>
  </div>","39","html-slider-response","81","1544561","0.0-10.0-3.8","131","1","2025-07-02 10:20:22","80fe4187154257d5fb01684ea91b68b9","94.101.25.101","Mozilla/5.0 (X11; Linux x86_64) AppleWebKit/537.36 (KHTML, like Gecko) Chrome/138.0.0.0 Safari/537.36","WebKit","Chrome","138.0.0.0","Linux","","https://app.prolific.com/","pl-PL,pl;q=0.9,en-US;q=0.8,en;q=0.7","5d6e3252dfe6d10001dbe508","683db6dfa200031b80f2a654","6865077503ff999137a55a17","5d6e3252dfe6d10001dbe508","2025-07-02T10:46:07.948Z","","","","","","StressQ","","","","","","","","","","","","","","","","","","","","","","","","","","","","","","","","","","","","","","50"
"2764","","<div style=""width:500px;"">
  <p>What best describes how you currently feel?</p>
  </div>","87","html-slider-response","82","1547326","0.0-10.0-4.8","131","1","2025-07-02 10:20:22","80fe4187154257d5fb01684ea91b68b9","94.101.25.101","Mozilla/5.0 (X11; Linux x86_64) AppleWebKit/537.36 (KHTML, like Gecko) Chrome/138.0.0.0 Safari/537.36","WebKit","Chrome","138.0.0.0","Linux","","https://app.prolific.com/","pl-PL,pl;q=0.9,en-US;q=0.8,en;q=0.7","5d6e3252dfe6d10001dbe508","683db6dfa200031b80f2a654","6865077503ff999137a55a17","5d6e3252dfe6d10001dbe508","2025-07-02T10:46:10.713Z","","","","","","MotivationQ","","","","","","","","","","","","","","","","","","","","","","","","","","","","","","","","","","","","","","50"
