"rt","response_timestamp","stimulus","response","trial_type","trial_index","time_elapsed","internal_node_id","run_id","condition","recorded_at","source_code_version","ip","user_agent","device","browser","browser_version","platform","platform_version","referer","accept_language","PROLIFIC_PID","STUDY_ID","SESSION_ID","prolific_id","realtime","view_history","question_order","consent","success","question_id","eventType","responses","item_order","radio_event_ids","radio_event_times","key_event_times","mouse_event_times","straightlining","zigzagging","honeypot","which_type","canvas_config","goals_layout","control_level","trial_number","tutorial_trial_number","trial_start_time","phase1_start_time","phase2_start_time","phase3_start_time","goal_1_value","goal_1_distance","goal_2_value","goal_2_distance","goal_selected","outcome","outcome_total","participant_final_score","participant_initial_score","participant_final_score_prop","goal_choice_rt","allocated_time","allocated_time_remaining","goal_direction","counts","mouse_movements","key_presses","correct","slider_start"
"1933","1751451514993","<p style='font-size:40px;line-height:1.25'><strong>Welcome to the experiment!</strong></p><p style='font-size:1.1em;line-height:1.25'>Thank you for your interest in our experiment! Before you begin, it is important that we obtain your informed consent to participate in the study.</p><p style='font-size:1.1em;line-height:1.25'>On the next screen will be an <strong>information sheet</strong> for you to read. To participate in the study we need you to read this information sheet and the following consent form carefully. If you agree with all the statements, please click the <strong>I agree</strong> button.</p><p style='font-size:1.1em;line-height:1.25'>Press <strong>Next</strong> to read the information sheet.</p>","0","custom-html-button-response","0","1937","0.0-0.0","23","1","2025-07-02 10:18:32","80fe4187154257d5fb01684ea91b68b9","212.159.106.248","Mozilla/5.0 (Windows NT 10.0; Win64; x64) AppleWebKit/537.36 (KHTML, like Gecko) Chrome/137.0.0.0 Safari/537.36","WebKit","Chrome","137.0.0.0","Windows","10.0","https://app.prolific.com/","en-US,en;q=0.9","5d8e154af2858200171fdb95","683db6dfa200031b80f2a654","68650762f31b3bb398cc28a5","5d8e154af2858200171fdb95","2025-07-02T10:18:34.996Z","","","","","","","","","","","","","","","","","","","","","","","","","","","","","","","","","","","","","","","","","","","",""
"9042","","","","instructions","1","10981","0.0-1.0","23","1","2025-07-02 10:18:32","80fe4187154257d5fb01684ea91b68b9","212.159.106.248","Mozilla/5.0 (Windows NT 10.0; Win64; x64) AppleWebKit/537.36 (KHTML, like Gecko) Chrome/137.0.0.0 Safari/537.36","WebKit","Chrome","137.0.0.0","Windows","10.0","https://app.prolific.com/","en-US,en;q=0.9","5d8e154af2858200171fdb95","683db6dfa200031b80f2a654","68650762f31b3bb398cc28a5","5d8e154af2858200171fdb95","","[{""page_index"":0,""viewing_time"":7266},{""page_index"":1,""viewing_time"":1775}]","","","","","","","","","","","","","","","","","","","","","","","","","","","","","","","","","","","","","","","","","","",""
"3565","","","{""Q0"":"""",""Q1"":"""",""Q2"":"""",""Q3"":"""",""Q4"":"""",""Q5"":"""",""Q6"":""I agree""}","survey-multi-choice","2","14551","0.0-2.0","23","1","2025-07-02 10:18:32","80fe4187154257d5fb01684ea91b68b9","212.159.106.248","Mozilla/5.0 (Windows NT 10.0; Win64; x64) AppleWebKit/537.36 (KHTML, like Gecko) Chrome/137.0.0.0 Safari/537.36","WebKit","Chrome","137.0.0.0","Windows","10.0","https://app.prolific.com/","en-US,en;q=0.9","5d8e154af2858200171fdb95","683db6dfa200031b80f2a654","68650762f31b3bb398cc28a5","5d8e154af2858200171fdb95","","","[0,1,2,3,4,5,6]","true","","","","","","","","","","","","","","","","","","","","","","","","","","","","","","","","","","","","","","","","",""
"10831","","","","fullscreen","3","26403","0.0-4.0","23","1","2025-07-02 10:18:32","80fe4187154257d5fb01684ea91b68b9","212.159.106.248","Mozilla/5.0 (Windows NT 10.0; Win64; x64) AppleWebKit/537.36 (KHTML, like Gecko) Chrome/137.0.0.0 Safari/537.36","WebKit","Chrome","137.0.0.0","Windows","10.0","https://app.prolific.com/","en-US,en;q=0.9","5d8e154af2858200171fdb95","683db6dfa200031b80f2a654","68650762f31b3bb398cc28a5","5d8e154af2858200171fdb95","","","","","true","","","","","","","","","","","","","","","","","","","","","","","","","","","","","","","","","","","","","","","",""
"12385","1751451551847"," <p style='font-size:1.1em;line-height:1.25'>Thank you for completing the consent form and closing all other tabs.</p><p style='font-size:1.1em;line-height:1.25'>We will now invite you to fill in some demographic information and questionnaires, before starting the game.<br>This will take about 5 minutes.<br></p><p style='font-size:1.1em;line-height:1.25'>Press the <strong>Next</strong> button to continue.</p>","0","custom-html-button-response","4","38790","0.0-5.0","23","1","2025-07-02 10:18:32","80fe4187154257d5fb01684ea91b68b9","212.159.106.248","Mozilla/5.0 (Windows NT 10.0; Win64; x64) AppleWebKit/537.36 (KHTML, like Gecko) Chrome/137.0.0.0 Safari/537.36","WebKit","Chrome","137.0.0.0","Windows","10.0","https://app.prolific.com/","en-US,en;q=0.9","5d8e154af2858200171fdb95","683db6dfa200031b80f2a654","68650762f31b3bb398cc28a5","5d8e154af2858200171fdb95","2025-07-02T10:19:11.848Z","","","","","","","","","","","","","","","","","","","","","","","","","","","","","","","","","","","","","","","","","","","",""
"4119","","","{""age"":""39""}","survey-text","5","42911","0.0-6.0-0.0","23","1","2025-07-02 10:18:32","80fe4187154257d5fb01684ea91b68b9","212.159.106.248","Mozilla/5.0 (Windows NT 10.0; Win64; x64) AppleWebKit/537.36 (KHTML, like Gecko) Chrome/137.0.0.0 Safari/537.36","WebKit","Chrome","137.0.0.0","Windows","10.0","https://app.prolific.com/","en-US,en;q=0.9","5d8e154af2858200171fdb95","683db6dfa200031b80f2a654","68650762f31b3bb398cc28a5","5d8e154af2858200171fdb95","","","","","","0","demographics","","","","","","","","","","","","","","","","","","","","","","","","","","","","","","","","","","","","","",""
"1805","","","{""gender_identity"":""female/woman""}","survey-multi-choice","6","44719","0.0-6.0-1.0","23","1","2025-07-02 10:18:32","80fe4187154257d5fb01684ea91b68b9","212.159.106.248","Mozilla/5.0 (Windows NT 10.0; Win64; x64) AppleWebKit/537.36 (KHTML, like Gecko) Chrome/137.0.0.0 Safari/537.36","WebKit","Chrome","137.0.0.0","Windows","10.0","https://app.prolific.com/","en-US,en;q=0.9","5d8e154af2858200171fdb95","683db6dfa200031b80f2a654","68650762f31b3bb398cc28a5","5d8e154af2858200171fdb95","","","[0]","","","1","demographics","","","","","","","","","","","","","","","","","","","","","","","","","","","","","","","","","","","","","",""
"2086","","","{""assigned_sex"":""female""}","survey-multi-choice","7","46807","0.0-6.0-2.0","23","1","2025-07-02 10:18:32","80fe4187154257d5fb01684ea91b68b9","212.159.106.248","Mozilla/5.0 (Windows NT 10.0; Win64; x64) AppleWebKit/537.36 (KHTML, like Gecko) Chrome/137.0.0.0 Safari/537.36","WebKit","Chrome","137.0.0.0","Windows","10.0","https://app.prolific.com/","en-US,en;q=0.9","5d8e154af2858200171fdb95","683db6dfa200031b80f2a654","68650762f31b3bb398cc28a5","5d8e154af2858200171fdb95","","","[0]","","","2","demographics","","","","","","","","","","","","","","","","","","","","","","","","","","","","","","","","","","","","","",""
"2589","","","{""menstrual_cycle"":""Yes""}","survey-multi-choice","8","49398","0.0-6.0-3.0","23","1","2025-07-02 10:18:32","80fe4187154257d5fb01684ea91b68b9","212.159.106.248","Mozilla/5.0 (Windows NT 10.0; Win64; x64) AppleWebKit/537.36 (KHTML, like Gecko) Chrome/137.0.0.0 Safari/537.36","WebKit","Chrome","137.0.0.0","Windows","10.0","https://app.prolific.com/","en-US,en;q=0.9","5d8e154af2858200171fdb95","683db6dfa200031b80f2a654","68650762f31b3bb398cc28a5","5d8e154af2858200171fdb95","","","[0]","","","4","demographics","","","","","","","","","","","","","","","","","","","","","","","","","","","","","","","","","","","","","",""
"2259","","","{""education"":""Bachelor's Degree (e.g., BA)""}","survey-multi-choice","9","51660","0.0-6.0-4.0","23","1","2025-07-02 10:18:32","80fe4187154257d5fb01684ea91b68b9","212.159.106.248","Mozilla/5.0 (Windows NT 10.0; Win64; x64) AppleWebKit/537.36 (KHTML, like Gecko) Chrome/137.0.0.0 Safari/537.36","WebKit","Chrome","137.0.0.0","Windows","10.0","https://app.prolific.com/","en-US,en;q=0.9","5d8e154af2858200171fdb95","683db6dfa200031b80f2a654","68650762f31b3bb398cc28a5","5d8e154af2858200171fdb95","","","[0]","","","5","demographics","","","","","","","","","","","","","","","","","","","","","","","","","","","","","","","","","","","","","",""
"4373","","","{""education"":""GCSE/Standard Grades""}","survey-multi-choice","10","56035","0.0-6.0-5.0","23","1","2025-07-02 10:18:32","80fe4187154257d5fb01684ea91b68b9","212.159.106.248","Mozilla/5.0 (Windows NT 10.0; Win64; x64) AppleWebKit/537.36 (KHTML, like Gecko) Chrome/137.0.0.0 Safari/537.36","WebKit","Chrome","137.0.0.0","Windows","10.0","https://app.prolific.com/","en-US,en;q=0.9","5d8e154af2858200171fdb95","683db6dfa200031b80f2a654","68650762f31b3bb398cc28a5","5d8e154af2858200171fdb95","2025-07-02T10:19:29.093Z","","[0]","","","6","demographics","","","","","","","","","","","","","","","","","","","","","","","","","","","","","","","","","","","","","",""
"10626","","","{""mental_health_condition"":""n/a"",""mental_health_treatment"":""n/a"",""psychiatric_medication"":""n/a""}","survey-text","11","66664","0.0-7.0-0.0","23","1","2025-07-02 10:18:32","80fe4187154257d5fb01684ea91b68b9","212.159.106.248","Mozilla/5.0 (Windows NT 10.0; Win64; x64) AppleWebKit/537.36 (KHTML, like Gecko) Chrome/137.0.0.0 Safari/537.36","WebKit","Chrome","137.0.0.0","Windows","10.0","https://app.prolific.com/","en-US,en;q=0.9","5d8e154af2858200171fdb95","683db6dfa200031b80f2a654","68650762f31b3bb398cc28a5","5d8e154af2858200171fdb95","2025-07-02T10:19:39.722Z","","","","","1","mental_health","","","","","","","","","","","","","","","","","","","","","","","","","","","","","","","","","","","","","",""
"8820","","","{""depression_history"":[""No""]}","survey-multi-select","12","75490","0.0-7.0-1.0","23","1","2025-07-02 10:18:32","80fe4187154257d5fb01684ea91b68b9","212.159.106.248","Mozilla/5.0 (Windows NT 10.0; Win64; x64) AppleWebKit/537.36 (KHTML, like Gecko) Chrome/137.0.0.0 Safari/537.36","WebKit","Chrome","137.0.0.0","Windows","10.0","https://app.prolific.com/","en-US,en;q=0.9","5d8e154af2858200171fdb95","683db6dfa200031b80f2a654","68650762f31b3bb398cc28a5","5d8e154af2858200171fdb95","","","[0]","","","","mental_health","","","","","","","","","","","","","","","","","","","","","","","","","","","","","","","","","","","","","",""
"26085.799999952316","","","","survey-template","13","101584","0.0-7.0-3.0","23","1","2025-07-02 10:18:32","80fe4187154257d5fb01684ea91b68b9","212.159.106.248","Mozilla/5.0 (Windows NT 10.0; Win64; x64) AppleWebKit/537.36 (KHTML, like Gecko) Chrome/137.0.0.0 Safari/537.36","WebKit","Chrome","137.0.0.0","Windows","10.0","https://app.prolific.com/","en-US,en;q=0.9","5d8e154af2858200171fdb95","683db6dfa200031b80f2a654","68650762f31b3bb398cc28a5","5d8e154af2858200171fdb95","2025-07-02T10:20:14.642Z","","","","","","ius","{""Q01"":""0"",""Q02"":""2"",""Q03"":""0"",""Q04"":""1"",""Q05"":""1"",""Q06"":""0"",""Q07"":""0"",""Q08"":""0"",""Q09"":""2"",""Q10"":""2"",""Q11"":""1"",""Q12"":""2"",""Q13"":""0""}","[0,1,2,3,4,5,6,7,8,9,10,11,12]","[""Q01"",""Q02"",""Q03"",""Q04"",""Q05"",""Q05"",""Q06"",""Q07"",""Q08"",""Q09"",""Q10"",""Q10"",""Q11"",""Q12"",""Q12"",""Q13""]","[1822.6999998092651,3275.399999856949,7196.799999952316,8966.299999952316,9832.199999809265,11332.699999809265,11665.899999856949,13066.599999904633,13332.799999952316,16550.199999809265,17116,19599.099999904633,21665.699999809265,22167.599999904633,23916.299999952316,25017.39999985695]","[]","[1822.6999998092651,3275.399999856949,6382.299999952316,7196.799999952316,8966.299999952316,9832.199999809265,11332.699999809265,11665.899999856949,13066.599999904633,13332.799999952316,16550.199999809265,17116,18499.199999809265,19599.099999904633,21665.699999809265,22167.599999904633,23916.299999952316,25017.39999985695,26082.599999904633]","0.46153846153846156","0.3333333333333333","0","","","","","","","","","","","","","","","","","","","","","","","","","","","","",""
"1407","1751451616050","<p style='font-size:1.1em;line-height:1.25'>In the following, we will ask you a few questions relating to your experiences over the past month.<br></p><p style='font-size:1.1em;line-height:1.25'>Press the <strong>Next</strong> button to continue.</p>","0","custom-html-button-response","14","102992","0.0-7.0-4.0","23","1","2025-07-02 10:18:32","80fe4187154257d5fb01684ea91b68b9","212.159.106.248","Mozilla/5.0 (Windows NT 10.0; Win64; x64) AppleWebKit/537.36 (KHTML, like Gecko) Chrome/137.0.0.0 Safari/537.36","WebKit","Chrome","137.0.0.0","Windows","10.0","https://app.prolific.com/","en-US,en;q=0.9","5d8e154af2858200171fdb95","683db6dfa200031b80f2a654","68650762f31b3bb398cc28a5","5d8e154af2858200171fdb95","2025-07-02T10:20:16.051Z","","","","","","","","","","","","","","","","","","","","","","","","","","","","","","","","","","","","","","","","","","","",""
"88443.40000009537","","","","survey-template","15","191439","0.0-7.0-5.0","23","1","2025-07-02 10:18:32","80fe4187154257d5fb01684ea91b68b9","212.159.106.248","Mozilla/5.0 (Windows NT 10.0; Win64; x64) AppleWebKit/537.36 (KHTML, like Gecko) Chrome/137.0.0.0 Safari/537.36","WebKit","Chrome","137.0.0.0","Windows","10.0","https://app.prolific.com/","en-US,en;q=0.9","5d8e154af2858200171fdb95","683db6dfa200031b80f2a654","68650762f31b3bb398cc28a5","5d8e154af2858200171fdb95","2025-07-02T10:21:44.497Z","","","","","","pss","{""Q01"":""1"",""Q02"":""0"",""Q03"":""1"",""Q04"":""1"",""Q05"":""1"",""Q06"":""0"",""Q07"":""1"",""Q08"":""1"",""Q09"":""2"",""Q10"":""0""}","[0,1,2,3,4,5,6,7,8,9]","[""Q01"",""Q01"",""Q02"",""Q03"",""Q03"",""Q04"",""Q05"",""Q06"",""Q04"",""Q05"",""Q07"",""Q07"",""Q08"",""Q09"",""Q10""]","[55837.59999990463,56949.200000047684,58639.40000009537,58953.700000047684,60821.90000009537,61086.59999990463,61339.299999952316,61671.90000009537,66922.29999995232,71106,73938.79999995232,76089.40000009537,79290.70000004768,83173.90000009537,87541.90000009537]","[]","[0.20000004768371582,55837.59999990463,56949.200000047684,58639.40000009537,58953.700000047684,60821.90000009537,61086.59999990463,61339.299999952316,61671.90000009537,66922.29999995232,71106,73938.79999995232,76089.40000009537,79290.70000004768,83173.90000009537,87541.90000009537,88440.79999995232]","0.4","0.3333333333333333","0","","","","","","","","","","","","","","","","","","","","","","","","","","","","",""
"1041","1751451705541","<p style='font-size:1.1em;line-height:1.25'>Thank you for your answers! Now we will ask you a few more questions relating to your feelings in the last 24 hours.<br></p><p style='font-size:1.1em;line-height:1.25'>Press the <strong>Next</strong> button to continue.</p>","0","custom-html-button-response","16","192483","0.0-7.0-6.0","23","1","2025-07-02 10:18:32","80fe4187154257d5fb01684ea91b68b9","212.159.106.248","Mozilla/5.0 (Windows NT 10.0; Win64; x64) AppleWebKit/537.36 (KHTML, like Gecko) Chrome/137.0.0.0 Safari/537.36","WebKit","Chrome","137.0.0.0","Windows","10.0","https://app.prolific.com/","en-US,en;q=0.9","5d8e154af2858200171fdb95","683db6dfa200031b80f2a654","68650762f31b3bb398cc28a5","5d8e154af2858200171fdb95","2025-07-02T10:21:45.541Z","","","","","","","","","","","","","","","","","","","","","","","","","","","","","","","","","","","","","","","","","","","",""
"37226","","","","survey-template","17","229714","0.0-7.0-7.0","23","1","2025-07-02 10:18:32","80fe4187154257d5fb01684ea91b68b9","212.159.106.248","Mozilla/5.0 (Windows NT 10.0; Win64; x64) AppleWebKit/537.36 (KHTML, like Gecko) Chrome/137.0.0.0 Safari/537.36","WebKit","Chrome","137.0.0.0","Windows","10.0","https://app.prolific.com/","en-US,en;q=0.9","5d8e154af2858200171fdb95","683db6dfa200031b80f2a654","68650762f31b3bb398cc28a5","5d8e154af2858200171fdb95","2025-07-02T10:22:22.773Z","","","","","","drsp","{""Q01"":""0"",""Q02"":""0"",""Q03"":""0"",""Q04"":""0"",""Q05"":""1"",""Q06"":""0"",""Q07"":""2"",""Q08"":""0"",""Q09"":""0"",""Q10"":""0"",""Q11"":""0"",""Q12"":""1"",""Q13"":""1"",""Q14"":""2"",""Q15"":""1"",""Q16"":""0"",""Q17"":""0"",""Q18"":""0"",""Q19"":""0"",""Q20"":""0"",""Q21"":""0""}","[0,1,2,3,4,5,6,7,8,9,10,11,12,13,14,15,16,17,18,19,20]","[""Q01"",""Q03"",""Q04"",""Q06"",""Q05"",""Q07"",""Q08"",""Q07"",""Q07"",""Q09"",""Q10"",""Q11"",""Q12"",""Q12"",""Q13"",""Q13"",""Q17"",""Q14"",""Q14"",""Q15"",""Q16"",""Q14"",""Q15"",""Q18"",""Q19"",""Q20"",""Q21"",""Q02""]","[7937.600000143051,8770.900000095367,8987.100000143051,9436.799999952316,10270.400000095367,11002.700000047684,11353.400000095367,11802.799999952316,12254.299999952316,12987.600000143051,13236.799999952316,14453.5,14703.799999952316,15986.400000095367,16336.600000143051,17371,18120.10000014305,19153,19853.700000047684,20653,20902.900000095367,21752.700000047684,25953.10000014305,26937.400000095367,27220.299999952316,27520.299999952316,30505.60000014305,35779.60000014305]","[]","[0.20000004768371582,7937.600000143051,8202.200000047684,8770.900000095367,8987.100000143051,9234.700000047684,9436.799999952316,10270.400000095367,11002.700000047684,11353.400000095367,11802.799999952316,12254.299999952316,12987.600000143051,13236.799999952316,14453.5,14703.799999952316,14935.900000095367,15986.400000095367,16336.600000143051,17371,17669.700000047684,17918,18120.10000014305,18502.299999952316,19153,19853.700000047684,20653,20902.900000095367,21752.700000047684,25953.10000014305,26937.400000095367,27220.299999952316,27520.299999952316,30505.60000014305,32086.400000095367,35779.60000014305,37219.40000009537]","0.7142857142857143","0.3","0","","","","","","","","","","","","","","","","","","","","","","","","","","","","",""
"9133.200000047684","","","","survey-template","18","238851","0.0-7.0-8.0","23","1","2025-07-02 10:18:32","80fe4187154257d5fb01684ea91b68b9","212.159.106.248","Mozilla/5.0 (Windows NT 10.0; Win64; x64) AppleWebKit/537.36 (KHTML, like Gecko) Chrome/137.0.0.0 Safari/537.36","WebKit","Chrome","137.0.0.0","Windows","10.0","https://app.prolific.com/","en-US,en;q=0.9","5d8e154af2858200171fdb95","683db6dfa200031b80f2a654","68650762f31b3bb398cc28a5","5d8e154af2858200171fdb95","2025-07-02T10:22:31.909Z","","","","","","stress","{""Q01"":""1"",""Q02"":""2"",""Q03"":""0""}","[0,1,2]","[""Q01"",""Q02"",""Q03""]","[2508.100000143051,6345.200000047684,8342.300000190735]","[]","[2508.100000143051,6345.200000047684,8018.600000143051,8342.300000190735,9132.100000143051]","0.3333333333333333","0","0","","","","","","","","","","","","","","","","","","","","","","","","","","","","",""
"79049","","","","instructions","19","317901","0.0-8.0-0.0","23","1","2025-07-02 10:18:32","80fe4187154257d5fb01684ea91b68b9","212.159.106.248","Mozilla/5.0 (Windows NT 10.0; Win64; x64) AppleWebKit/537.36 (KHTML, like Gecko) Chrome/137.0.0.0 Safari/537.36","WebKit","Chrome","137.0.0.0","Windows","10.0","https://app.prolific.com/","en-US,en;q=0.9","5d8e154af2858200171fdb95","683db6dfa200031b80f2a654","68650762f31b3bb398cc28a5","5d8e154af2858200171fdb95","","[{""page_index"":0,""viewing_time"":33632},{""page_index"":1,""viewing_time"":1899},{""page_index"":0,""viewing_time"":1382},{""page_index"":1,""viewing_time"":11997},{""page_index"":0,""viewing_time"":6886},{""page_index"":1,""viewing_time"":5429},{""page_index"":2,""viewing_time"":4436},{""page_index"":3,""viewing_time"":13387}]","","","","","","","","","","","","","","","","","","","","","","","","","","","","","","","","","","","","","","","","","","",""
"","","","","ctl-task-cpt","20","339607","0.0-8.0-1.0","23","1","2025-07-02 10:18:32","80fe4187154257d5fb01684ea91b68b9","212.159.106.248","Mozilla/5.0 (Windows NT 10.0; Win64; x64) AppleWebKit/537.36 (KHTML, like Gecko) Chrome/137.0.0.0 Safari/537.36","WebKit","Chrome","137.0.0.0","Windows","10.0","https://app.prolific.com/","en-US,en;q=0.9","5d8e154af2858200171fdb95","683db6dfa200031b80f2a654","68650762f31b3bb398cc28a5","5d8e154af2858200171fdb95","","","","","","","","","","","","","","","","","win-only","1","g1:NE,g2:SW","1","0","1","319066.7","2457.2","6462.1","18694.5","2","4","4","6","1","2","1","1","0","0.007575757575757576","1349.2","4000","3060","[""up"",""right""]","{""num_key_presses"":4,""num_perfect"":3,""num_errors"":1,""num_randdir"":0,""num_randdir_good_moves"":0,""num_whilered"":0,""num_whileblue"":1,""num_blue"":2,""num_good_moves"":4}","[401.9683035714286,398.8745535714286,0.4,401.9683035714286,398.8745535714286,104.7,401.9683035714286,398.8745535714286,204.9,401.9683035714286,398.8745535714286,305.7,401.9683035714286,398.8745535714286,406.2,401.9683035714286,398.8745535714286,509.2,392.9683035714286,407.8745535714286,612.7,392.9683035714286,407.8745535714286,713.3,392.9683035714286,407.8745535714286,813.6,721.9683035714286,170.87455357142858,913.8,742.9683035714286,159.87455357142858,1014,768.9683035714286,73.87455357142856,1115.6,762.9683035714286,66.87455357142856,1220.5,742.9683035714286,74.87455357142856,1324.2,742.9683035714286,79.87455357142856,1424.4,742.9683035714286,79.87455357142856,1530,742.9683035714286,79.87455357142856,1630.8,742.9683035714286,79.87455357142856,1734.5,742.9683035714286,77.87455357142856,1839,742.9683035714286,77.87455357142856,1939.5,742.9683035714286,77.87455357142856,2046.7,742.9683035714286,77.87455357142856,2147.5,742.9683035714286,77.87455357142856,2248.9,742.9683035714286,77.87455357142856,2354,742.9683035714286,77.87455357142856,2463.9,742.9683035714286,77.87455357142856,2563.9,742.9683035714286,77.87455357142856,2664,742.9683035714286,77.87455357142856,2764.1,742.9683035714286,77.87455357142856,2868.8,742.9683035714286,77.87455357142856,2969.3,742.9683035714286,77.87455357142856,3069.3,742.9683035714286,77.87455357142856,3173.8,742.9683035714286,77.87455357142856,3274,742.9683035714286,77.87455357142856,3374.6,742.9683035714286,77.87455357142856,3480.1,742.9683035714286,77.87455357142856,3580.8,742.9683035714286,77.87455357142856,3683.7,742.9683035714286,77.87455357142856,3783.7,742.9683035714286,77.87455357142856,3883.7,742.9683035714286,77.87455357142856,3983.9]","[1324.4,1324.4,1000,0,324.4,""smooth"",""up"",""up"",""good_move"",4111,2786.1,2444.8,1325.1,341.1,""smooth"",""right"",""right"",""good_move"",6613.6,2501.9,2166.2,4111.8,335.7,""smooth"",""right"",""right"",""good_move"",12125,5511.1,2066.4,9704,354.6,""while_blue"",""up"",""up"",""good_move""]","",""
"11414","","","","instructions","21","351023","0.0-8.0-2.0","23","1","2025-07-02 10:18:32","80fe4187154257d5fb01684ea91b68b9","212.159.106.248","Mozilla/5.0 (Windows NT 10.0; Win64; x64) AppleWebKit/537.36 (KHTML, like Gecko) Chrome/137.0.0.0 Safari/537.36","WebKit","Chrome","137.0.0.0","Windows","10.0","https://app.prolific.com/","en-US,en;q=0.9","5d8e154af2858200171fdb95","683db6dfa200031b80f2a654","68650762f31b3bb398cc28a5","5d8e154af2858200171fdb95","","[{""page_index"":0,""viewing_time"":11414}]","","","","","","","","","","","","","","","","","","","","","","","","","","","","","","","","","","","","","","","","","","",""
"","","","","ctl-task-cpt","22","393214","0.0-8.0-3.0","23","1","2025-07-02 10:18:32","80fe4187154257d5fb01684ea91b68b9","212.159.106.248","Mozilla/5.0 (Windows NT 10.0; Win64; x64) AppleWebKit/537.36 (KHTML, like Gecko) Chrome/137.0.0.0 Safari/537.36","WebKit","Chrome","137.0.0.0","Windows","10.0","https://app.prolific.com/","en-US,en;q=0.9","5d8e154af2858200171fdb95","683db6dfa200031b80f2a654","68650762f31b3bb398cc28a5","5d8e154af2858200171fdb95","","","","","","","","","","","","","","","","","win-only","1","g1:NE,g2:SW","0.35","0","3","352184.6","1338.8","5342","39182.3","2","4","8","6","1","-2","-2","0","0","0","940.5","4000","-2990","[""up"",""right""]","{""num_key_presses"":10,""num_perfect"":4,""num_errors"":0,""num_randdir"":6,""num_randdir_good_moves"":2,""num_whilered"":0,""num_whileblue"":0,""num_blue"":1,""num_good_moves"":6}","[397.9683035714286,390.8745535714286,0.4,397.9683035714286,390.8745535714286,103.2,397.9683035714286,390.8745535714286,207.2,397.9683035714286,390.8745535714286,308,397.9683035714286,390.8745535714286,415.2,577.9683035714286,258.8745535714286,517.1,682.9683035714286,159.87455357142858,617.9,714.9683035714286,124.87455357142856,723.5,717.9683035714286,118.87455357142856,827.4,715.9683035714286,84.87455357142856,936.6,715.9683035714286,84.87455357142856,1037.9,715.9683035714286,84.87455357142856,1142.9,715.9683035714286,84.87455357142856,1243.4,715.9683035714286,84.87455357142856,1350.7,715.9683035714286,84.87455357142856,1452.3,715.9683035714286,84.87455357142856,1558,715.9683035714286,84.87455357142856,1664.2,715.9683035714286,84.87455357142856,1769.2,715.9683035714286,84.87455357142856,1872.7,715.9683035714286,84.87455357142856,1974.2,715.9683035714286,84.87455357142856,2079.2,715.9683035714286,84.87455357142856,2183.3,715.9683035714286,84.87455357142856,2287.5,715.9683035714286,84.87455357142856,2387.9,715.9683035714286,84.87455357142856,2492.9,715.9683035714286,84.87455357142856,2592.9,715.9683035714286,84.87455357142856,2693.3,715.9683035714286,84.87455357142856,2793.3,715.9683035714286,84.87455357142856,2900.6,715.9683035714286,84.87455357142856,3002.7,715.9683035714286,84.87455357142856,3102.8,715.9683035714286,84.87455357142856,3202.9,715.9683035714286,84.87455357142856,3306.9,715.9683035714286,84.87455357142856,3407.8,715.9683035714286,84.87455357142856,3511.9,715.9683035714286,84.87455357142856,3612.1,715.9683035714286,84.87455357142856,3712.2,715.9683035714286,84.87455357142856,3812.9,715.9683035714286,84.87455357142856,3917.7]","[1371.2,1371.2,1000,0,371.2,""smooth"",""up"",""up"",""good_move"",5086.2,3714.6,3266.1,1371.6,448.5,""oops"",""right"",""left"",""bad_move"",11553,6466.1,2762.3,8464.3,326.4,""oops"",""right"",""down"",""bad_move"",14535.5,2982,2317.8,11553.7,664.1,""oops"",""right"",""left"",""bad_move"",17071.8,2535.7,2134.9,14536.1,400.8,""smooth"",""right"",""right"",""good_move"",20659.9,3587.6,3211.6,17072.3,376,""smooth"",""up"",""up"",""good_move"",23145.1,2484.9,2160.9,20660.3,323.9,""oops"",""right"",""up"",""good_move"",25865.8,2720.3,2407.2,23145.6,313,""oops"",""right"",""right"",""good_move"",28208.9,2342.8,2033,25866.1,309.8,""smooth"",""right"",""right"",""good_move"",30924.6,2715.3,2407.3,28209.3,308,""oops"",""right"",""down"",""bad_move""]","",""
"21825","","","","instructions","23","415041","0.0-8.0-4.0","23","1","2025-07-02 10:18:32","80fe4187154257d5fb01684ea91b68b9","212.159.106.248","Mozilla/5.0 (Windows NT 10.0; Win64; x64) AppleWebKit/537.36 (KHTML, like Gecko) Chrome/137.0.0.0 Safari/537.36","WebKit","Chrome","137.0.0.0","Windows","10.0","https://app.prolific.com/","en-US,en;q=0.9","5d8e154af2858200171fdb95","683db6dfa200031b80f2a654","68650762f31b3bb398cc28a5","5d8e154af2858200171fdb95","","[{""page_index"":0,""viewing_time"":7070},{""page_index"":1,""viewing_time"":14755}]","","","","","","","","","","","","","","","","","","","","","","","","","","","","","","","","","","","","","","","","","","",""
"11158","","","{""green_ball"":[""Ball sometimes shakes and moves in a random direction""]}","survey-multi-select","24","426207","0.0-8.0-5.0-0.0","23","1","2025-07-02 10:18:32","80fe4187154257d5fb01684ea91b68b9","212.159.106.248","Mozilla/5.0 (Windows NT 10.0; Win64; x64) AppleWebKit/537.36 (KHTML, like Gecko) Chrome/137.0.0.0 Safari/537.36","WebKit","Chrome","137.0.0.0","Windows","10.0","https://app.prolific.com/","en-US,en;q=0.9","5d8e154af2858200171fdb95","683db6dfa200031b80f2a654","68650762f31b3bb398cc28a5","5d8e154af2858200171fdb95","","","[0]","","","","quiz","","","","","","","","","","","","","","","","","","","","","","","","","","","","","","","","","","","","","true",""
"1166","","<p align='center'><b>CORRECT!</b> Indeed, the green ball may sometimes shake and move in a random direction.</p>","0","html-button-response","25","427376","0.0-8.0-5.0-1.0","23","1","2025-07-02 10:18:32","80fe4187154257d5fb01684ea91b68b9","212.159.106.248","Mozilla/5.0 (Windows NT 10.0; Win64; x64) AppleWebKit/537.36 (KHTML, like Gecko) Chrome/137.0.0.0 Safari/537.36","WebKit","Chrome","137.0.0.0","Windows","10.0","https://app.prolific.com/","en-US,en;q=0.9","5d8e154af2858200171fdb95","683db6dfa200031b80f2a654","68650762f31b3bb398cc28a5","5d8e154af2858200171fdb95","","","","","","","","","","","","","","","","","","","","","","","","","","","","","","","","","","","","","","","","","","","","",""
"7441","","","{""yellow_ball"":[""Ball doesn‘t move and I get -1 penalty point""]}","survey-multi-select","26","434820","0.0-8.0-6.0-0.0","23","1","2025-07-02 10:18:32","80fe4187154257d5fb01684ea91b68b9","212.159.106.248","Mozilla/5.0 (Windows NT 10.0; Win64; x64) AppleWebKit/537.36 (KHTML, like Gecko) Chrome/137.0.0.0 Safari/537.36","WebKit","Chrome","137.0.0.0","Windows","10.0","https://app.prolific.com/","en-US,en;q=0.9","5d8e154af2858200171fdb95","683db6dfa200031b80f2a654","68650762f31b3bb398cc28a5","5d8e154af2858200171fdb95","","","[0]","","","","quiz","","","","","","","","","","","","","","","","","","","","","","","","","","","","","","","","","","","","","true",""
"1166","","<p align='center'><b>CORRECT!</b> Indeed, the yellow ball never moves and you receive a penalty.</p>","0","html-button-response","27","435988","0.0-8.0-6.0-1.0","23","1","2025-07-02 10:18:32","80fe4187154257d5fb01684ea91b68b9","212.159.106.248","Mozilla/5.0 (Windows NT 10.0; Win64; x64) AppleWebKit/537.36 (KHTML, like Gecko) Chrome/137.0.0.0 Safari/537.36","WebKit","Chrome","137.0.0.0","Windows","10.0","https://app.prolific.com/","en-US,en;q=0.9","5d8e154af2858200171fdb95","683db6dfa200031b80f2a654","68650762f31b3bb398cc28a5","5d8e154af2858200171fdb95","","","","","","","","","","","","","","","","","","","","","","","","","","","","","","","","","","","","","","","","","","","","",""
"6473","","","{""blue_ball"":[""Ball always shakes and moves in a random direction""]}","survey-multi-select","28","442464","0.0-8.0-7.0-0.0","23","1","2025-07-02 10:18:32","80fe4187154257d5fb01684ea91b68b9","212.159.106.248","Mozilla/5.0 (Windows NT 10.0; Win64; x64) AppleWebKit/537.36 (KHTML, like Gecko) Chrome/137.0.0.0 Safari/537.36","WebKit","Chrome","137.0.0.0","Windows","10.0","https://app.prolific.com/","en-US,en;q=0.9","5d8e154af2858200171fdb95","683db6dfa200031b80f2a654","68650762f31b3bb398cc28a5","5d8e154af2858200171fdb95","","","[0]","","","","quiz","","","","","","","","","","","","","","","","","","","","","","","","","","","","","","","","","","","","","true",""
"1077","","<p align='center'><b>CORRECT!</b> Indeed, the blue ball always shakes and moves in a random direction. Also there is a penalty of -1 point.</p>","0","html-button-response","29","443543","0.0-8.0-7.0-1.0","23","1","2025-07-02 10:18:32","80fe4187154257d5fb01684ea91b68b9","212.159.106.248","Mozilla/5.0 (Windows NT 10.0; Win64; x64) AppleWebKit/537.36 (KHTML, like Gecko) Chrome/137.0.0.0 Safari/537.36","WebKit","Chrome","137.0.0.0","Windows","10.0","https://app.prolific.com/","en-US,en;q=0.9","5d8e154af2858200171fdb95","683db6dfa200031b80f2a654","68650762f31b3bb398cc28a5","5d8e154af2858200171fdb95","","","","","","","","","","","","","","","","","","","","","","","","","","","","","","","","","","","","","","","","","","","","",""
"3617","","","{""bonus"":[""When I reach 50% of points""]}","survey-multi-select","30","447162","0.0-8.0-8.0-0.0","23","1","2025-07-02 10:18:32","80fe4187154257d5fb01684ea91b68b9","212.159.106.248","Mozilla/5.0 (Windows NT 10.0; Win64; x64) AppleWebKit/537.36 (KHTML, like Gecko) Chrome/137.0.0.0 Safari/537.36","WebKit","Chrome","137.0.0.0","Windows","10.0","https://app.prolific.com/","en-US,en;q=0.9","5d8e154af2858200171fdb95","683db6dfa200031b80f2a654","68650762f31b3bb398cc28a5","5d8e154af2858200171fdb95","","","[0]","","","","quiz","","","","","","","","","","","","","","","","","","","","","","","","","","","","","","","","","","","","","true",""
"909","","<p align='center'><b>CORRECT!</b> Indeed, you receive 2 pounds extra when you reach 50% of points.</p>","0","html-button-response","31","448073","0.0-8.0-8.0-1.0","23","1","2025-07-02 10:18:32","80fe4187154257d5fb01684ea91b68b9","212.159.106.248","Mozilla/5.0 (Windows NT 10.0; Win64; x64) AppleWebKit/537.36 (KHTML, like Gecko) Chrome/137.0.0.0 Safari/537.36","WebKit","Chrome","137.0.0.0","Windows","10.0","https://app.prolific.com/","en-US,en;q=0.9","5d8e154af2858200171fdb95","683db6dfa200031b80f2a654","68650762f31b3bb398cc28a5","5d8e154af2858200171fdb95","","","","","","","","","","","","","","","","","","","","","","","","","","","","","","","","","","","","","","","","","","","","",""
"1469","","","","instructions","32","449543","0.0-8.0-9.0","23","1","2025-07-02 10:18:32","80fe4187154257d5fb01684ea91b68b9","212.159.106.248","Mozilla/5.0 (Windows NT 10.0; Win64; x64) AppleWebKit/537.36 (KHTML, like Gecko) Chrome/137.0.0.0 Safari/537.36","WebKit","Chrome","137.0.0.0","Windows","10.0","https://app.prolific.com/","en-US,en;q=0.9","5d8e154af2858200171fdb95","683db6dfa200031b80f2a654","68650762f31b3bb398cc28a5","5d8e154af2858200171fdb95","","[{""page_index"":0,""viewing_time"":1468}]","","","","","","","","","","","","","","","","","","","","","","","","","","","","","","","","","","","","","","","","","","",""
"4312","","<p>Before you start with this game please answer the following three questions yourself. </p>
  <p>Through this game, we measure several aspects of your cognitive performance, such as reaction times, multi-tasking capabilities </p>
  <p>and the ability to assess the situation you are in.</p>
  <p></p>
  <p><b>How good do you usually are in such tasks?</b></p>","61","html-slider-response","33","453858","0.0-9.0-0.0","23","1","2025-07-02 10:18:32","80fe4187154257d5fb01684ea91b68b9","212.159.106.248","Mozilla/5.0 (Windows NT 10.0; Win64; x64) AppleWebKit/537.36 (KHTML, like Gecko) Chrome/137.0.0.0 Safari/537.36","WebKit","Chrome","137.0.0.0","Windows","10.0","https://app.prolific.com/","en-US,en;q=0.9","5d8e154af2858200171fdb95","683db6dfa200031b80f2a654","68650762f31b3bb398cc28a5","5d8e154af2858200171fdb95","2025-07-02T10:26:06.916Z","","","","","","PreSkillQ","","","","","","","","","","","","","","","","","","","","","","","","","","","","","","","","","","","","","","50"
"30819","","<div style=""width:500px;"">
  <p>How well do you think you will perform in this task compared to other participants?</p>
  </div>","40","html-slider-response","34","484678","0.0-9.0-1.0","23","1","2025-07-02 10:18:32","80fe4187154257d5fb01684ea91b68b9","212.159.106.248","Mozilla/5.0 (Windows NT 10.0; Win64; x64) AppleWebKit/537.36 (KHTML, like Gecko) Chrome/137.0.0.0 Safari/537.36","WebKit","Chrome","137.0.0.0","Windows","10.0","https://app.prolific.com/","en-US,en;q=0.9","5d8e154af2858200171fdb95","683db6dfa200031b80f2a654","68650762f31b3bb398cc28a5","5d8e154af2858200171fdb95","2025-07-02T10:26:37.736Z","","","","","","PrePerfQ","","","","","","","","","","","","","","","","","","","","","","","","","","","","","","","","","","","","","","50"
"2482","","<div style=""width:500px;"">
  <p>What best describes how you currently feel?</p>
  </div>","78","html-slider-response","35","487163","0.0-9.0-2.0","23","1","2025-07-02 10:18:32","80fe4187154257d5fb01684ea91b68b9","212.159.106.248","Mozilla/5.0 (Windows NT 10.0; Win64; x64) AppleWebKit/537.36 (KHTML, like Gecko) Chrome/137.0.0.0 Safari/537.36","WebKit","Chrome","137.0.0.0","Windows","10.0","https://app.prolific.com/","en-US,en;q=0.9","5d8e154af2858200171fdb95","683db6dfa200031b80f2a654","68650762f31b3bb398cc28a5","5d8e154af2858200171fdb95","2025-07-02T10:26:40.221Z","","","","","","PreMotivationQ","","","","","","","","","","","","","","","","","","","","","","","","","","","","","","","","","","","","","","50"
"","","","","ctl-task-cpt","36","510757","0.0-10.0-0.0","23","1","2025-07-02 10:18:32","80fe4187154257d5fb01684ea91b68b9","212.159.106.248","Mozilla/5.0 (Windows NT 10.0; Win64; x64) AppleWebKit/537.36 (KHTML, like Gecko) Chrome/137.0.0.0 Safari/537.36","WebKit","Chrome","137.0.0.0","Windows","10.0","https://app.prolific.com/","en-US,en;q=0.9","5d8e154af2858200171fdb95","683db6dfa200031b80f2a654","68650762f31b3bb398cc28a5","5d8e154af2858200171fdb95","2025-07-02T10:27:03.815Z","","","","","","","","","","","","","","","","win-only","3","g1:SW,g2:NE","1","1","0","488327","1541.9","6547.1","20571","1","4","8","6","1","1","1","1","0","0.007575757575757576","994.7","3000","1670","[""down"",""left""]","{""num_key_presses"":4,""num_perfect"":4,""num_errors"":0,""num_randdir"":0,""num_randdir_good_moves"":0,""num_whilered"":0,""num_whileblue"":0,""num_blue"":1,""num_good_moves"":4}","[399.9683035714286,394.8745535714286,0.2,399.9683035714286,394.8745535714286,107,399.9683035714286,394.8745535714286,212.7,399.9683035714286,394.8745535714286,313.9,492.9683035714286,314.8745535714286,418.9,513.9683035714286,308.8745535714286,519.5,133.96830357142858,609.8745535714286,628.7,60.968303571428564,665.8745535714286,730.8,15.968303571428564,745.8745535714286,834.1,16.968303571428564,739.8745535714286,944.6,17.968303571428564,737.8745535714286,1049.7,17.968303571428564,737.8745535714286,1161.6,17.968303571428564,737.8745535714286,1264.3,17.968303571428564,737.8745535714286,1364.8,17.968303571428564,737.8745535714286,1468.8,17.968303571428564,737.8745535714286,1569.6,17.968303571428564,737.8745535714286,1674.7,17.968303571428564,737.8745535714286,1779.4,17.968303571428564,737.8745535714286,1879.9,17.968303571428564,737.8745535714286,1980.5,17.968303571428564,737.8745535714286,2085.4,17.968303571428564,737.8745535714286,2199.2,17.968303571428564,737.8745535714286,2303.7,17.968303571428564,737.8745535714286,2405.4,17.968303571428564,737.8745535714286,2509.3,17.968303571428564,737.8745535714286,2614.4,17.968303571428564,737.8745535714286,2718.9,17.968303571428564,737.8745535714286,2818.9,17.968303571428564,737.8745535714286,2919.2,17.968303571428564,737.8745535714286,3019.5,17.968303571428564,737.8745535714286,3119.5,17.968303571428564,737.8745535714286,3220.3,17.968303571428564,737.8745535714286,3324.4,17.968303571428564,737.8745535714286,3428.2,17.968303571428564,737.8745535714286,3529.4,17.968303571428564,737.8745535714286,3634,17.968303571428564,737.8745535714286,3735.1,17.968303571428564,737.8745535714286,3844.7,17.968303571428564,737.8745535714286,3945.5,17.968303571428564,737.8745535714286,4049.4,17.968303571428564,737.8745535714286,4149.7,17.968303571428564,737.8745535714286,4254.8,17.968303571428564,737.8745535714286,4359.5,17.968303571428564,737.8745535714286,4463.2,17.968303571428564,737.8745535714286,4564,17.968303571428564,737.8745535714286,4669.1,17.968303571428564,737.8745535714286,4769.6,17.968303571428564,737.8745535714286,4874.6,17.968303571428564,737.8745535714286,4978.2]","[1359.4,1359.4,1000,0,359.4,""smooth"",""left"",""left"",""good_move"",7888.3,6528.2,2625,4829.4,433.9,""smooth"",""down"",""down"",""good_move"",10964.1,3075.2,2594.4,7888.9,480.8,""smooth"",""left"",""left"",""good_move"",13916.3,2951.9,2604.6,10964.4,347.3,""smooth"",""down"",""down"",""good_move""]","",""
"2680","","<div style=""width:500px;"">
  <p>What determined the result of this run?</p>
  </div>","94","html-slider-response","37","513440","0.0-10.0-1.0","23","1","2025-07-02 10:18:32","80fe4187154257d5fb01684ea91b68b9","212.159.106.248","Mozilla/5.0 (Windows NT 10.0; Win64; x64) AppleWebKit/537.36 (KHTML, like Gecko) Chrome/137.0.0.0 Safari/537.36","WebKit","Chrome","137.0.0.0","Windows","10.0","https://app.prolific.com/","en-US,en;q=0.9","5d8e154af2858200171fdb95","683db6dfa200031b80f2a654","68650762f31b3bb398cc28a5","5d8e154af2858200171fdb95","2025-07-02T10:27:06.498Z","","","","","","AttribQ","","","","","","","","","","","","","","","","","","","","","","","","","","","","","","","","","","","","","","50"
"3250","","<div style=""width:500px;"">
  <p>How much control did you have over the ball?</p>
  </div>","97","html-slider-response","38","516692","0.0-10.0-2.0","23","1","2025-07-02 10:18:32","80fe4187154257d5fb01684ea91b68b9","212.159.106.248","Mozilla/5.0 (Windows NT 10.0; Win64; x64) AppleWebKit/537.36 (KHTML, like Gecko) Chrome/137.0.0.0 Safari/537.36","WebKit","Chrome","137.0.0.0","Windows","10.0","https://app.prolific.com/","en-US,en;q=0.9","5d8e154af2858200171fdb95","683db6dfa200031b80f2a654","68650762f31b3bb398cc28a5","5d8e154af2858200171fdb95","2025-07-02T10:27:09.750Z","","","","","","ControlQ","","","","","","","","","","","","","","","","","","","","","","","","","","","","","","","","","","","","","","50"
"3310","","<div style=""width:500px;"">
  <p>How would you describe your current emotional state?</p>
  </div>","0","html-slider-response","39","520004","0.0-10.0-3.0","23","1","2025-07-02 10:18:32","80fe4187154257d5fb01684ea91b68b9","212.159.106.248","Mozilla/5.0 (Windows NT 10.0; Win64; x64) AppleWebKit/537.36 (KHTML, like Gecko) Chrome/137.0.0.0 Safari/537.36","WebKit","Chrome","137.0.0.0","Windows","10.0","https://app.prolific.com/","en-US,en;q=0.9","5d8e154af2858200171fdb95","683db6dfa200031b80f2a654","68650762f31b3bb398cc28a5","5d8e154af2858200171fdb95","2025-07-02T10:27:13.062Z","","","","","","StressQ","","","","","","","","","","","","","","","","","","","","","","","","","","","","","","","","","","","","","","50"
"2734","","<div style=""width:500px;"">
  <p>What best describes how you currently feel?</p>
  </div>","83","html-slider-response","40","522740","0.0-10.0-4.0","23","1","2025-07-02 10:18:32","80fe4187154257d5fb01684ea91b68b9","212.159.106.248","Mozilla/5.0 (Windows NT 10.0; Win64; x64) AppleWebKit/537.36 (KHTML, like Gecko) Chrome/137.0.0.0 Safari/537.36","WebKit","Chrome","137.0.0.0","Windows","10.0","https://app.prolific.com/","en-US,en;q=0.9","5d8e154af2858200171fdb95","683db6dfa200031b80f2a654","68650762f31b3bb398cc28a5","5d8e154af2858200171fdb95","2025-07-02T10:27:15.798Z","","","","","","MotivationQ","","","","","","","","","","","","","","","","","","","","","","","","","","","","","","","","","","","","","","50"
"","","","","ctl-task-cpt","41","543508","0.0-10.0-0.1","23","1","2025-07-02 10:18:32","80fe4187154257d5fb01684ea91b68b9","212.159.106.248","Mozilla/5.0 (Windows NT 10.0; Win64; x64) AppleWebKit/537.36 (KHTML, like Gecko) Chrome/137.0.0.0 Safari/537.36","WebKit","Chrome","137.0.0.0","Windows","10.0","https://app.prolific.com/","en-US,en;q=0.9","5d8e154af2858200171fdb95","683db6dfa200031b80f2a654","68650762f31b3bb398cc28a5","5d8e154af2858200171fdb95","2025-07-02T10:27:36.566Z","","","","","","","","","","","","","","","","win-only","3","g1:SW,g2:NE","0.9","2","0","523903.5","2595.2","7597.1","17751.2","1","4","4","6","1","1","1","2","1","0.015151515151515152","1063.7","3000","1785","[""down"",""left""]","{""num_key_presses"":4,""num_perfect"":4,""num_errors"":0,""num_randdir"":0,""num_randdir_good_moves"":0,""num_whilered"":0,""num_whileblue"":0,""num_blue"":0,""num_good_moves"":4}","[397.9683035714286,393.8745535714286,0.7,397.9683035714286,393.8745535714286,101.1,397.9683035714286,393.8745535714286,201.7,397.9683035714286,393.8745535714286,305.2,397.9683035714286,393.8745535714286,406.4,633.9683035714286,244.87455357142858,510.1,686.9683035714286,211.87455357142858,611.5,154.96830357142858,618.8745535714286,721.3,122.96830357142856,666.8745535714286,825.9,74.96830357142856,722.8745535714286,937.9,41.968303571428564,729.8745535714286,1039.7,40.968303571428564,729.8745535714286,1146.7,40.968303571428564,729.8745535714286,1251.5,40.968303571428564,729.8745535714286,1352,40.968303571428564,729.8745535714286,1455.7,40.968303571428564,729.8745535714286,1567.4,40.968303571428564,729.8745535714286,1670.4,40.968303571428564,729.8745535714286,1776.3,40.968303571428564,729.8745535714286,1884.8,40.968303571428564,729.8745535714286,1986.2,40.968303571428564,729.8745535714286,2090.9,40.968303571428564,729.8745535714286,2201,40.968303571428564,729.8745535714286,2306.8,40.968303571428564,729.8745535714286,2417.5,40.968303571428564,729.8745535714286,2518.6,40.968303571428564,729.8745535714286,2621.7,40.968303571428564,729.8745535714286,2722.5,40.968303571428564,729.8745535714286,2826.2,40.968303571428564,729.8745535714286,2926.6,40.968303571428564,729.8745535714286,3036.6,40.968303571428564,729.8745535714286,3137.7,40.968303571428564,729.8745535714286,3240.3,40.968303571428564,729.8745535714286,3340.7,40.968303571428564,729.8745535714286,3449.4,40.968303571428564,729.8745535714286,3551.6,40.968303571428564,729.8745535714286,3655.2,40.968303571428564,729.8745535714286,3755.4,40.968303571428564,729.8745535714286,3855.7,40.968303571428564,729.8745535714286,3960.4,40.968303571428564,729.8745535714286,4067.5,40.968303571428564,729.8745535714286,4167.6,40.968303571428564,729.8745535714286,4268.6,40.968303571428564,729.8745535714286,4371.2,40.968303571428564,729.8745535714286,4475.8,40.968303571428564,729.8745535714286,4580.5,40.968303571428564,729.8745535714286,4686.6,40.968303571428564,729.8745535714286,4786.6,40.968303571428564,729.8745535714286,4890.5,40.968303571428564,729.8745535714286,4991.2]","[1347.9,1347.9,1000,0,347.9,""smooth"",""left"",""left"",""good_move"",4046.9,2698.4,2329.8,1348.5,368.6,""smooth"",""down"",""down"",""good_move"",7732.1,3684.6,3270,4047.5,414.7,""smooth"",""left"",""left"",""good_move"",10052.4,2319.9,1921,7732.5,398.9,""smooth"",""down"",""down"",""good_move""]","",""
"2434","","<div style=""width:500px;"">
  <p>What determined the result of this run?</p>
  </div>","99","html-slider-response","42","545945","0.0-10.0-1.1","23","1","2025-07-02 10:18:32","80fe4187154257d5fb01684ea91b68b9","212.159.106.248","Mozilla/5.0 (Windows NT 10.0; Win64; x64) AppleWebKit/537.36 (KHTML, like Gecko) Chrome/137.0.0.0 Safari/537.36","WebKit","Chrome","137.0.0.0","Windows","10.0","https://app.prolific.com/","en-US,en;q=0.9","5d8e154af2858200171fdb95","683db6dfa200031b80f2a654","68650762f31b3bb398cc28a5","5d8e154af2858200171fdb95","2025-07-02T10:27:39.003Z","","","","","","AttribQ","","","","","","","","","","","","","","","","","","","","","","","","","","","","","","","","","","","","","","50"
"2066","","<div style=""width:500px;"">
  <p>How much control did you have over the ball?</p>
  </div>","99","html-slider-response","43","548013","0.0-10.0-2.1","23","1","2025-07-02 10:18:32","80fe4187154257d5fb01684ea91b68b9","212.159.106.248","Mozilla/5.0 (Windows NT 10.0; Win64; x64) AppleWebKit/537.36 (KHTML, like Gecko) Chrome/137.0.0.0 Safari/537.36","WebKit","Chrome","137.0.0.0","Windows","10.0","https://app.prolific.com/","en-US,en;q=0.9","5d8e154af2858200171fdb95","683db6dfa200031b80f2a654","68650762f31b3bb398cc28a5","5d8e154af2858200171fdb95","2025-07-02T10:27:41.071Z","","","","","","ControlQ","","","","","","","","","","","","","","","","","","","","","","","","","","","","","","","","","","","","","","50"
"2052","","<div style=""width:500px;"">
  <p>How would you describe your current emotional state?</p>
  </div>","0","html-slider-response","44","550067","0.0-10.0-3.1","23","1","2025-07-02 10:18:32","80fe4187154257d5fb01684ea91b68b9","212.159.106.248","Mozilla/5.0 (Windows NT 10.0; Win64; x64) AppleWebKit/537.36 (KHTML, like Gecko) Chrome/137.0.0.0 Safari/537.36","WebKit","Chrome","137.0.0.0","Windows","10.0","https://app.prolific.com/","en-US,en;q=0.9","5d8e154af2858200171fdb95","683db6dfa200031b80f2a654","68650762f31b3bb398cc28a5","5d8e154af2858200171fdb95","2025-07-02T10:27:43.125Z","","","","","","StressQ","","","","","","","","","","","","","","","","","","","","","","","","","","","","","","","","","","","","","","50"
"2698","","<div style=""width:500px;"">
  <p>What best describes how you currently feel?</p>
  </div>","85","html-slider-response","45","552766","0.0-10.0-4.1","23","1","2025-07-02 10:18:32","80fe4187154257d5fb01684ea91b68b9","212.159.106.248","Mozilla/5.0 (Windows NT 10.0; Win64; x64) AppleWebKit/537.36 (KHTML, like Gecko) Chrome/137.0.0.0 Safari/537.36","WebKit","Chrome","137.0.0.0","Windows","10.0","https://app.prolific.com/","en-US,en;q=0.9","5d8e154af2858200171fdb95","683db6dfa200031b80f2a654","68650762f31b3bb398cc28a5","5d8e154af2858200171fdb95","2025-07-02T10:27:45.825Z","","","","","","MotivationQ","","","","","","","","","","","","","","","","","","","","","","","","","","","","","","","","","","","","","","50"
"","","","","ctl-task-cpt","46","572396","0.0-10.0-0.2","23","1","2025-07-02 10:18:32","80fe4187154257d5fb01684ea91b68b9","212.159.106.248","Mozilla/5.0 (Windows NT 10.0; Win64; x64) AppleWebKit/537.36 (KHTML, like Gecko) Chrome/137.0.0.0 Safari/537.36","WebKit","Chrome","137.0.0.0","Windows","10.0","https://app.prolific.com/","en-US,en;q=0.9","5d8e154af2858200171fdb95","683db6dfa200031b80f2a654","68650762f31b3bb398cc28a5","5d8e154af2858200171fdb95","2025-07-02T10:28:05.454Z","","","","","","","","","","","","","","","","win-only","1","g1:NE,g2:SW","0.8","3","0","553931.7","969.1","5970.7","16617.2","1","4","4","6","1","1","1","3","2","0.022727272727272728","807.2","3000","1760","[""up"",""right""]","{""num_key_presses"":4,""num_perfect"":4,""num_errors"":0,""num_randdir"":0,""num_randdir_good_moves"":0,""num_whilered"":0,""num_whileblue"":0,""num_blue"":0,""num_good_moves"":4}","[392.9683035714286,399.8745535714286,0.2,392.9683035714286,399.8745535714286,102.2,392.9683035714286,399.8745535714286,205.4,392.9683035714286,399.8745535714286,307.7,596.9683035714286,208.87455357142858,411.5,679.9683035714286,149.87455357142858,520.3,703.9683035714286,118.87455357142856,621.1,705.9683035714286,114.87455357142856,723.1,702.9683035714286,114.87455357142856,833.4,702.9683035714286,114.87455357142856,933.7,702.9683035714286,114.87455357142856,1035,702.9683035714286,114.87455357142856,1137,702.9683035714286,114.87455357142856,1242.5,702.9683035714286,114.87455357142856,1343,702.9683035714286,114.87455357142856,1449.4,702.9683035714286,114.87455357142856,1554.8,702.9683035714286,114.87455357142856,1656.6,702.9683035714286,114.87455357142856,1765.9,702.9683035714286,114.87455357142856,1869.1,702.9683035714286,114.87455357142856,1971.8,702.9683035714286,114.87455357142856,2076.4,702.9683035714286,114.87455357142856,2177.9,702.9683035714286,114.87455357142856,2281.8,702.9683035714286,114.87455357142856,2386.1,702.9683035714286,114.87455357142856,2489.2,702.9683035714286,114.87455357142856,2591.7,702.9683035714286,114.87455357142856,2692.8,702.9683035714286,114.87455357142856,2801.3,702.9683035714286,114.87455357142856,2901.4,702.9683035714286,114.87455357142856,3002.7,702.9683035714286,114.87455357142856,3106.9,702.9683035714286,114.87455357142856,3207.4,702.9683035714286,114.87455357142856,3311.9,702.9683035714286,114.87455357142856,3417.5,702.9683035714286,114.87455357142856,3521.6,702.9683035714286,114.87455357142856,3622.6,702.9683035714286,114.87455357142856,3722.7,702.9683035714286,114.87455357142856,3822.9,702.9683035714286,114.87455357142856,3926.7,702.9683035714286,114.87455357142856,4027,702.9683035714286,114.87455357142856,4134.8,702.9683035714286,114.87455357142856,4236.3,702.9683035714286,114.87455357142856,4336.4,702.9683035714286,114.87455357142856,4438.6,702.9683035714286,114.87455357142856,4550.7,702.9683035714286,114.87455357142856,4652.2,702.9683035714286,114.87455357142856,4756.4,702.9683035714286,114.87455357142856,4861.7,702.9683035714286,114.87455357142856,4967.2]","[1383.4,1383.4,1000,0,383.4,""smooth"",""right"",""right"",""good_move"",4115.7,2731.8,2245.7,1383.9,486.1,""smooth"",""up"",""up"",""good_move"",7663.9,3547.6,3188.5,4116.3,359.1,""smooth"",""right"",""right"",""good_move"",10536.9,2872.9,2552.2,7664.1,320.7,""smooth"",""up"",""up"",""good_move""]","",""
"3134","","<div style=""width:500px;"">
  <p>What determined the result of this run?</p>
  </div>","99","html-slider-response","47","575532","0.0-10.0-1.2","23","1","2025-07-02 10:18:32","80fe4187154257d5fb01684ea91b68b9","212.159.106.248","Mozilla/5.0 (Windows NT 10.0; Win64; x64) AppleWebKit/537.36 (KHTML, like Gecko) Chrome/137.0.0.0 Safari/537.36","WebKit","Chrome","137.0.0.0","Windows","10.0","https://app.prolific.com/","en-US,en;q=0.9","5d8e154af2858200171fdb95","683db6dfa200031b80f2a654","68650762f31b3bb398cc28a5","5d8e154af2858200171fdb95","2025-07-02T10:28:08.590Z","","","","","","AttribQ","","","","","","","","","","","","","","","","","","","","","","","","","","","","","","","","","","","","","","50"
"2771","","<div style=""width:500px;"">
  <p>How much control did you have over the ball?</p>
  </div>","99","html-slider-response","48","578304","0.0-10.0-2.2","23","1","2025-07-02 10:18:32","80fe4187154257d5fb01684ea91b68b9","212.159.106.248","Mozilla/5.0 (Windows NT 10.0; Win64; x64) AppleWebKit/537.36 (KHTML, like Gecko) Chrome/137.0.0.0 Safari/537.36","WebKit","Chrome","137.0.0.0","Windows","10.0","https://app.prolific.com/","en-US,en;q=0.9","5d8e154af2858200171fdb95","683db6dfa200031b80f2a654","68650762f31b3bb398cc28a5","5d8e154af2858200171fdb95","2025-07-02T10:28:11.362Z","","","","","","ControlQ","","","","","","","","","","","","","","","","","","","","","","","","","","","","","","","","","","","","","","50"
"2499","","<div style=""width:500px;"">
  <p>How would you describe your current emotional state?</p>
  </div>","0","html-slider-response","49","580804","0.0-10.0-3.2","23","1","2025-07-02 10:18:32","80fe4187154257d5fb01684ea91b68b9","212.159.106.248","Mozilla/5.0 (Windows NT 10.0; Win64; x64) AppleWebKit/537.36 (KHTML, like Gecko) Chrome/137.0.0.0 Safari/537.36","WebKit","Chrome","137.0.0.0","Windows","10.0","https://app.prolific.com/","en-US,en;q=0.9","5d8e154af2858200171fdb95","683db6dfa200031b80f2a654","68650762f31b3bb398cc28a5","5d8e154af2858200171fdb95","2025-07-02T10:28:13.862Z","","","","","","StressQ","","","","","","","","","","","","","","","","","","","","","","","","","","","","","","","","","","","","","","50"
"1593","","<div style=""width:500px;"">
  <p>What best describes how you currently feel?</p>
  </div>","87","html-slider-response","50","582398","0.0-10.0-4.2","23","1","2025-07-02 10:18:32","80fe4187154257d5fb01684ea91b68b9","212.159.106.248","Mozilla/5.0 (Windows NT 10.0; Win64; x64) AppleWebKit/537.36 (KHTML, like Gecko) Chrome/137.0.0.0 Safari/537.36","WebKit","Chrome","137.0.0.0","Windows","10.0","https://app.prolific.com/","en-US,en;q=0.9","5d8e154af2858200171fdb95","683db6dfa200031b80f2a654","68650762f31b3bb398cc28a5","5d8e154af2858200171fdb95","2025-07-02T10:28:15.456Z","","","","","","MotivationQ","","","","","","","","","","","","","","","","","","","","","","","","","","","","","","","","","","","","","","50"
"","","","","ctl-task-cpt","51","607347","0.0-10.0-0.3","23","1","2025-07-02 10:18:32","80fe4187154257d5fb01684ea91b68b9","212.159.106.248","Mozilla/5.0 (Windows NT 10.0; Win64; x64) AppleWebKit/537.36 (KHTML, like Gecko) Chrome/137.0.0.0 Safari/537.36","WebKit","Chrome","137.0.0.0","Windows","10.0","https://app.prolific.com/","en-US,en;q=0.9","5d8e154af2858200171fdb95","683db6dfa200031b80f2a654","68650762f31b3bb398cc28a5","5d8e154af2858200171fdb95","2025-07-02T10:28:40.405Z","","","","","","","","","","","","","","","","win-only","0","g1:NW,g2:SE","0.7","4","0","583561.1","1124","6125.8","21930.6","1","4","8","6","1","1","1","4","3","0.030303030303030304","1226.7","3000","1845","[""left"",""up""]","{""num_key_presses"":4,""num_perfect"":3,""num_errors"":0,""num_randdir"":1,""num_randdir_good_moves"":1,""num_whilered"":0,""num_whileblue"":0,""num_blue"":2,""num_good_moves"":4}","[399.9683035714286,391.8745535714286,0.3,399.9683035714286,391.8745535714286,102.6,399.9683035714286,391.8745535714286,204,399.9683035714286,391.8745535714286,306.9,399.9683035714286,391.8745535714286,413.1,370.9683035714286,360.8745535714286,517.3,140.96830357142858,28.874553571428564,618.7,136.96830357142858,19.874553571428564,719.5,136.96830357142858,19.874553571428564,822.3,106.96830357142856,52.874553571428564,927,89.96830357142856,72.87455357142856,1037.1,87.96830357142856,78.87455357142856,1141.8,87.96830357142856,78.87455357142856,1249.2,87.96830357142856,78.87455357142856,1352.1,87.96830357142856,78.87455357142856,1456.8,87.96830357142856,78.87455357142856,1561.9,87.96830357142856,78.87455357142856,1668.5,87.96830357142856,78.87455357142856,1772.6,87.96830357142856,78.87455357142856,1877.6,87.96830357142856,78.87455357142856,1984.3,87.96830357142856,78.87455357142856,2085.6,87.96830357142856,78.87455357142856,2186.6,87.96830357142856,78.87455357142856,2287.5,87.96830357142856,78.87455357142856,2389,87.96830357142856,78.87455357142856,2491.8,87.96830357142856,78.87455357142856,2591.9,87.96830357142856,78.87455357142856,2692.3,87.96830357142856,78.87455357142856,2801.8,87.96830357142856,78.87455357142856,2902.7,87.96830357142856,78.87455357142856,3003.6,87.96830357142856,78.87455357142856,3107.2,87.96830357142856,78.87455357142856,3207.3,87.96830357142856,78.87455357142856,3312.3,87.96830357142856,78.87455357142856,3413.1,87.96830357142856,78.87455357142856,3521.6,87.96830357142856,78.87455357142856,3621.7,87.96830357142856,78.87455357142856,3722.2,87.96830357142856,78.87455357142856,3834.1,87.96830357142856,78.87455357142856,3936.1,87.96830357142856,78.87455357142856,4036.5,87.96830357142856,78.87455357142856,4136.5,87.96830357142856,78.87455357142856,4237.2,87.96830357142856,78.87455357142856,4341.9,87.96830357142856,78.87455357142856,4442.3,87.96830357142856,78.87455357142856,4547.2,87.96830357142856,78.87455357142856,4651.9,87.96830357142856,78.87455357142856,4752.4,87.96830357142856,78.87455357142856,4856.4,87.96830357142856,78.87455357142856,4956.8]","[1387.9,1387.9,1000,0,387.9,""smooth"",""left"",""left"",""good_move"",4548.3,3159.7,2707.9,1388.6,451.8,""smooth"",""up"",""up"",""good_move"",10444.8,5896.1,2202.7,7945.1,297.1,""smooth"",""left"",""left"",""good_move"",15698.7,5253.5,1920.2,13439.8,338.7,""oops"",""up"",""up"",""good_move""]","",""
"2359","","<div style=""width:500px;"">
  <p>What determined the result of this run?</p>
  </div>","99","html-slider-response","52","609708","0.0-10.0-1.3","23","1","2025-07-02 10:18:32","80fe4187154257d5fb01684ea91b68b9","212.159.106.248","Mozilla/5.0 (Windows NT 10.0; Win64; x64) AppleWebKit/537.36 (KHTML, like Gecko) Chrome/137.0.0.0 Safari/537.36","WebKit","Chrome","137.0.0.0","Windows","10.0","https://app.prolific.com/","en-US,en;q=0.9","5d8e154af2858200171fdb95","683db6dfa200031b80f2a654","68650762f31b3bb398cc28a5","5d8e154af2858200171fdb95","2025-07-02T10:28:42.766Z","","","","","","AttribQ","","","","","","","","","","","","","","","","","","","","","","","","","","","","","","","","","","","","","","50"
"3193","","<div style=""width:500px;"">
  <p>How much control did you have over the ball?</p>
  </div>","99","html-slider-response","53","612902","0.0-10.0-2.3","23","1","2025-07-02 10:18:32","80fe4187154257d5fb01684ea91b68b9","212.159.106.248","Mozilla/5.0 (Windows NT 10.0; Win64; x64) AppleWebKit/537.36 (KHTML, like Gecko) Chrome/137.0.0.0 Safari/537.36","WebKit","Chrome","137.0.0.0","Windows","10.0","https://app.prolific.com/","en-US,en;q=0.9","5d8e154af2858200171fdb95","683db6dfa200031b80f2a654","68650762f31b3bb398cc28a5","5d8e154af2858200171fdb95","2025-07-02T10:28:45.960Z","","","","","","ControlQ","","","","","","","","","","","","","","","","","","","","","","","","","","","","","","","","","","","","","","50"
"2532","","<div style=""width:500px;"">
  <p>How would you describe your current emotional state?</p>
  </div>","0","html-slider-response","54","615436","0.0-10.0-3.3","23","1","2025-07-02 10:18:32","80fe4187154257d5fb01684ea91b68b9","212.159.106.248","Mozilla/5.0 (Windows NT 10.0; Win64; x64) AppleWebKit/537.36 (KHTML, like Gecko) Chrome/137.0.0.0 Safari/537.36","WebKit","Chrome","137.0.0.0","Windows","10.0","https://app.prolific.com/","en-US,en;q=0.9","5d8e154af2858200171fdb95","683db6dfa200031b80f2a654","68650762f31b3bb398cc28a5","5d8e154af2858200171fdb95","2025-07-02T10:28:48.494Z","","","","","","StressQ","","","","","","","","","","","","","","","","","","","","","","","","","","","","","","","","","","","","","","50"
"1287","","<div style=""width:500px;"">
  <p>What best describes how you currently feel?</p>
  </div>","84","html-slider-response","55","616725","0.0-10.0-4.3","23","1","2025-07-02 10:18:32","80fe4187154257d5fb01684ea91b68b9","212.159.106.248","Mozilla/5.0 (Windows NT 10.0; Win64; x64) AppleWebKit/537.36 (KHTML, like Gecko) Chrome/137.0.0.0 Safari/537.36","WebKit","Chrome","137.0.0.0","Windows","10.0","https://app.prolific.com/","en-US,en;q=0.9","5d8e154af2858200171fdb95","683db6dfa200031b80f2a654","68650762f31b3bb398cc28a5","5d8e154af2858200171fdb95","2025-07-02T10:28:49.783Z","","","","","","MotivationQ","","","","","","","","","","","","","","","","","","","","","","","","","","","","","","","","","","","","","","50"
"","","","","ctl-task-cpt","56","643066","0.0-10.0-0.4","23","1","2025-07-02 10:18:32","80fe4187154257d5fb01684ea91b68b9","212.159.106.248","Mozilla/5.0 (Windows NT 10.0; Win64; x64) AppleWebKit/537.36 (KHTML, like Gecko) Chrome/137.0.0.0 Safari/537.36","WebKit","Chrome","137.0.0.0","Windows","10.0","https://app.prolific.com/","en-US,en;q=0.9","5d8e154af2858200171fdb95","683db6dfa200031b80f2a654","68650762f31b3bb398cc28a5","5d8e154af2858200171fdb95","2025-07-02T10:29:16.124Z","","","","","","","","","","","","","","","","win-only","3","g1:SW,g2:NE","0.6","5","0","617887.1","1522.2","6522.8","23321.6","1","4","4","6","1","1","1","5","4","0.03787878787878788","842.4","3000","1820","[""down"",""left""]","{""num_key_presses"":4,""num_perfect"":3,""num_errors"":0,""num_randdir"":1,""num_randdir_good_moves"":1,""num_whilered"":0,""num_whileblue"":0,""num_blue"":2,""num_good_moves"":4}","[397.9683035714286,393.8745535714286,0.4,397.9683035714286,393.8745535714286,108,397.9683035714286,393.8745535714286,218.7,397.9683035714286,393.8745535714286,318.7,397.9683035714286,393.8745535714286,422.9,104.96830357142856,656.8745535714286,527,53.968303571428564,702.8745535714286,628.4,40.968303571428564,725.8745535714286,728.9,32.968303571428564,733.8745535714286,829.5,32.968303571428564,733.8745535714286,935,32.968303571428564,733.8745535714286,1040,32.968303571428564,733.8745535714286,1140.6,32.968303571428564,733.8745535714286,1241.7,32.968303571428564,733.8745535714286,1345.6,32.968303571428564,733.8745535714286,1449.7,32.968303571428564,733.8745535714286,1549.7,32.968303571428564,733.8745535714286,1650.4,32.968303571428564,733.8745535714286,1764.6,32.968303571428564,733.8745535714286,1868.9,32.968303571428564,733.8745535714286,1968.9,32.968303571428564,733.8745535714286,2070.1,32.968303571428564,733.8745535714286,2170.3,32.968303571428564,733.8745535714286,2270.7,32.968303571428564,733.8745535714286,2382.1,32.968303571428564,733.8745535714286,2485.4,32.968303571428564,733.8745535714286,2585.4,32.968303571428564,733.8745535714286,2691.6,32.968303571428564,733.8745535714286,2800.2,32.968303571428564,733.8745535714286,2904.7,32.968303571428564,733.8745535714286,3014.1,32.968303571428564,733.8745535714286,3115.1,32.968303571428564,733.8745535714286,3235,32.968303571428564,733.8745535714286,3340.1,32.968303571428564,733.8745535714286,3449.2,32.968303571428564,733.8745535714286,3554.7,32.968303571428564,733.8745535714286,3663,32.968303571428564,733.8745535714286,3763.5,32.968303571428564,733.8745535714286,3865.5,32.968303571428564,733.8745535714286,3965.9,32.968303571428564,733.8745535714286,4068.8,32.968303571428564,733.8745535714286,4168.9,32.968303571428564,733.8745535714286,4269.2,32.968303571428564,733.8745535714286,4381.2,32.968303571428564,733.8745535714286,4485.3,32.968303571428564,733.8745535714286,4597.2,32.968303571428564,733.8745535714286,4698.4,32.968303571428564,733.8745535714286,4799.4,32.968303571428564,733.8745535714286,4899.4]","[1379,1379,1000,0,379,""smooth"",""left"",""left"",""good_move"",8011,6631.5,2375.7,5298.7,336.6,""smooth"",""down"",""down"",""good_move"",10319.5,2308.1,1812.1,8011.4,496,""oops"",""left"",""down"",""good_move"",16681.7,6361.6,2911.1,13444.7,325.9,""smooth"",""left"",""left"",""good_move""]","",""
"2339","","<div style=""width:500px;"">
  <p>What determined the result of this run?</p>
  </div>","76","html-slider-response","57","645406","0.0-10.0-1.4","23","1","2025-07-02 10:18:32","80fe4187154257d5fb01684ea91b68b9","212.159.106.248","Mozilla/5.0 (Windows NT 10.0; Win64; x64) AppleWebKit/537.36 (KHTML, like Gecko) Chrome/137.0.0.0 Safari/537.36","WebKit","Chrome","137.0.0.0","Windows","10.0","https://app.prolific.com/","en-US,en;q=0.9","5d8e154af2858200171fdb95","683db6dfa200031b80f2a654","68650762f31b3bb398cc28a5","5d8e154af2858200171fdb95","2025-07-02T10:29:18.464Z","","","","","","AttribQ","","","","","","","","","","","","","","","","","","","","","","","","","","","","","","","","","","","","","","50"
"2800","","<div style=""width:500px;"">
  <p>How much control did you have over the ball?</p>
  </div>","77","html-slider-response","58","648208","0.0-10.0-2.4","23","1","2025-07-02 10:18:32","80fe4187154257d5fb01684ea91b68b9","212.159.106.248","Mozilla/5.0 (Windows NT 10.0; Win64; x64) AppleWebKit/537.36 (KHTML, like Gecko) Chrome/137.0.0.0 Safari/537.36","WebKit","Chrome","137.0.0.0","Windows","10.0","https://app.prolific.com/","en-US,en;q=0.9","5d8e154af2858200171fdb95","683db6dfa200031b80f2a654","68650762f31b3bb398cc28a5","5d8e154af2858200171fdb95","2025-07-02T10:29:21.266Z","","","","","","ControlQ","","","","","","","","","","","","","","","","","","","","","","","","","","","","","","","","","","","","","","50"
"2341","","<div style=""width:500px;"">
  <p>How would you describe your current emotional state?</p>
  </div>","0","html-slider-response","59","650551","0.0-10.0-3.4","23","1","2025-07-02 10:18:32","80fe4187154257d5fb01684ea91b68b9","212.159.106.248","Mozilla/5.0 (Windows NT 10.0; Win64; x64) AppleWebKit/537.36 (KHTML, like Gecko) Chrome/137.0.0.0 Safari/537.36","WebKit","Chrome","137.0.0.0","Windows","10.0","https://app.prolific.com/","en-US,en;q=0.9","5d8e154af2858200171fdb95","683db6dfa200031b80f2a654","68650762f31b3bb398cc28a5","5d8e154af2858200171fdb95","2025-07-02T10:29:23.609Z","","","","","","StressQ","","","","","","","","","","","","","","","","","","","","","","","","","","","","","","","","","","","","","","50"
"2114","","<div style=""width:500px;"">
  <p>What best describes how you currently feel?</p>
  </div>","80","html-slider-response","60","652666","0.0-10.0-4.4","23","1","2025-07-02 10:18:32","80fe4187154257d5fb01684ea91b68b9","212.159.106.248","Mozilla/5.0 (Windows NT 10.0; Win64; x64) AppleWebKit/537.36 (KHTML, like Gecko) Chrome/137.0.0.0 Safari/537.36","WebKit","Chrome","137.0.0.0","Windows","10.0","https://app.prolific.com/","en-US,en;q=0.9","5d8e154af2858200171fdb95","683db6dfa200031b80f2a654","68650762f31b3bb398cc28a5","5d8e154af2858200171fdb95","2025-07-02T10:29:25.724Z","","","","","","MotivationQ","","","","","","","","","","","","","","","","","","","","","","","","","","","","","","","","","","","","","","50"
"","","","","ctl-task-cpt","61","672899","0.0-10.0-0.5","23","1","2025-07-02 10:18:32","80fe4187154257d5fb01684ea91b68b9","212.159.106.248","Mozilla/5.0 (Windows NT 10.0; Win64; x64) AppleWebKit/537.36 (KHTML, like Gecko) Chrome/137.0.0.0 Safari/537.36","WebKit","Chrome","137.0.0.0","Windows","10.0","https://app.prolific.com/","en-US,en;q=0.9","5d8e154af2858200171fdb95","683db6dfa200031b80f2a654","68650762f31b3bb398cc28a5","5d8e154af2858200171fdb95","2025-07-02T10:29:45.957Z","","","","","","","","","","","","","","","","win-only","0","g1:NW,g2:SE","0.5","6","0","653827.6","854.2","5858.6","17211.8","1","4","8","6","1","1","1","6","5","0.045454545454545456","1028.6","3000","1735","[""left"",""up""]","{""num_key_presses"":4,""num_perfect"":2,""num_errors"":0,""num_randdir"":2,""num_randdir_good_moves"":2,""num_whilered"":0,""num_whileblue"":0,""num_blue"":0,""num_good_moves"":4}","[398.9683035714286,387.8745535714286,0.4,398.9683035714286,387.8745535714286,114.1,398.9683035714286,387.8745535714286,217.7,398.9683035714286,387.8745535714286,322,398.9683035714286,387.8745535714286,423.5,336.9683035714286,343.8745535714286,527.6,128.96830357142858,165.87455357142858,629.9,116.96830357142856,153.87455357142858,733.9,119.96830357142856,125.87455357142856,839.8,93.96830357142856,88.87455357142856,940.7,89.96830357142856,87.87455357142856,1042.3,89.96830357142856,87.87455357142856,1143.7,89.96830357142856,87.87455357142856,1244.4,89.96830357142856,87.87455357142856,1348.1,89.96830357142856,87.87455357142856,1461.7,89.96830357142856,87.87455357142856,1562,89.96830357142856,87.87455357142856,1662.2,89.96830357142856,87.87455357142856,1762.9,89.96830357142856,87.87455357142856,1863.2,89.96830357142856,87.87455357142856,1977,89.96830357142856,87.87455357142856,2081.2,89.96830357142856,87.87455357142856,2182.6,89.96830357142856,87.87455357142856,2286.7,89.96830357142856,87.87455357142856,2393.6,89.96830357142856,87.87455357142856,2496.1,89.96830357142856,87.87455357142856,2597,89.96830357142856,87.87455357142856,2711.2,89.96830357142856,87.87455357142856,2812.5,89.96830357142856,87.87455357142856,2917.8,89.96830357142856,87.87455357142856,3024.8,89.96830357142856,87.87455357142856,3126.5,89.96830357142856,87.87455357142856,3228.9,89.96830357142856,87.87455357142856,3331.8,89.96830357142856,87.87455357142856,3431.9,89.96830357142856,87.87455357142856,3536.7,89.96830357142856,87.87455357142856,3644.8,89.96830357142856,87.87455357142856,3746.1,89.96830357142856,87.87455357142856,3846.6,89.96830357142856,87.87455357142856,3947.4,89.96830357142856,87.87455357142856,4061.5,89.96830357142856,87.87455357142856,4162,89.96830357142856,87.87455357142856,4262.5,89.96830357142856,87.87455357142856,4367,89.96830357142856,87.87455357142856,4468.1,89.96830357142856,87.87455357142856,4571.6,89.96830357142856,87.87455357142856,4676.1,89.96830357142856,87.87455357142856,4778.6,89.96830357142856,87.87455357142856,4879.2,89.96830357142856,87.87455357142856,4981.8]","[1508,1508,1000,0,508,""oops"",""up"",""up"",""good_move"",4737.1,3228.4,2816.8,1508.7,411.6,""smooth"",""left"",""left"",""good_move"",7889.8,3152.4,2642.5,4737.5,509.9,""smooth"",""up"",""up"",""good_move"",11233.5,3343.3,3024.6,7890.2,318.7,""oops"",""left"",""left"",""good_move""]","",""
"1957","","<div style=""width:500px;"">
  <p>What determined the result of this run?</p>
  </div>","84","html-slider-response","62","674859","0.0-10.0-1.5","23","1","2025-07-02 10:18:32","80fe4187154257d5fb01684ea91b68b9","212.159.106.248","Mozilla/5.0 (Windows NT 10.0; Win64; x64) AppleWebKit/537.36 (KHTML, like Gecko) Chrome/137.0.0.0 Safari/537.36","WebKit","Chrome","137.0.0.0","Windows","10.0","https://app.prolific.com/","en-US,en;q=0.9","5d8e154af2858200171fdb95","683db6dfa200031b80f2a654","68650762f31b3bb398cc28a5","5d8e154af2858200171fdb95","2025-07-02T10:29:47.917Z","","","","","","AttribQ","","","","","","","","","","","","","","","","","","","","","","","","","","","","","","","","","","","","","","50"
"2025","","<div style=""width:500px;"">
  <p>How much control did you have over the ball?</p>
  </div>","83","html-slider-response","63","676885","0.0-10.0-2.5","23","1","2025-07-02 10:18:32","80fe4187154257d5fb01684ea91b68b9","212.159.106.248","Mozilla/5.0 (Windows NT 10.0; Win64; x64) AppleWebKit/537.36 (KHTML, like Gecko) Chrome/137.0.0.0 Safari/537.36","WebKit","Chrome","137.0.0.0","Windows","10.0","https://app.prolific.com/","en-US,en;q=0.9","5d8e154af2858200171fdb95","683db6dfa200031b80f2a654","68650762f31b3bb398cc28a5","5d8e154af2858200171fdb95","2025-07-02T10:29:49.943Z","","","","","","ControlQ","","","","","","","","","","","","","","","","","","","","","","","","","","","","","","","","","","","","","","50"
"1470","","<div style=""width:500px;"">
  <p>How would you describe your current emotional state?</p>
  </div>","0","html-slider-response","64","678356","0.0-10.0-3.5","23","1","2025-07-02 10:18:32","80fe4187154257d5fb01684ea91b68b9","212.159.106.248","Mozilla/5.0 (Windows NT 10.0; Win64; x64) AppleWebKit/537.36 (KHTML, like Gecko) Chrome/137.0.0.0 Safari/537.36","WebKit","Chrome","137.0.0.0","Windows","10.0","https://app.prolific.com/","en-US,en;q=0.9","5d8e154af2858200171fdb95","683db6dfa200031b80f2a654","68650762f31b3bb398cc28a5","5d8e154af2858200171fdb95","2025-07-02T10:29:51.414Z","","","","","","StressQ","","","","","","","","","","","","","","","","","","","","","","","","","","","","","","","","","","","","","","50"
"1284","","<div style=""width:500px;"">
  <p>What best describes how you currently feel?</p>
  </div>","89","html-slider-response","65","679642","0.0-10.0-4.5","23","1","2025-07-02 10:18:32","80fe4187154257d5fb01684ea91b68b9","212.159.106.248","Mozilla/5.0 (Windows NT 10.0; Win64; x64) AppleWebKit/537.36 (KHTML, like Gecko) Chrome/137.0.0.0 Safari/537.36","WebKit","Chrome","137.0.0.0","Windows","10.0","https://app.prolific.com/","en-US,en;q=0.9","5d8e154af2858200171fdb95","683db6dfa200031b80f2a654","68650762f31b3bb398cc28a5","5d8e154af2858200171fdb95","2025-07-02T10:29:52.700Z","","","","","","MotivationQ","","","","","","","","","","","","","","","","","","","","","","","","","","","","","","","","","","","","","","50"
"","","","","ctl-task-cpt","66","701752","0.0-10.0-0.6","23","1","2025-07-02 10:18:32","80fe4187154257d5fb01684ea91b68b9","212.159.106.248","Mozilla/5.0 (Windows NT 10.0; Win64; x64) AppleWebKit/537.36 (KHTML, like Gecko) Chrome/137.0.0.0 Safari/537.36","WebKit","Chrome","137.0.0.0","Windows","10.0","https://app.prolific.com/","en-US,en;q=0.9","5d8e154af2858200171fdb95","683db6dfa200031b80f2a654","68650762f31b3bb398cc28a5","5d8e154af2858200171fdb95","2025-07-02T10:30:14.810Z","","","","","","","","","","","","","","","","win-only","3","g1:SW,g2:NE","0.4","7","0","680805.5","946.4","5955.3","19086.7","1","4","4","6","1","1","1","7","6","0.05303030303030303","880.4","3000","1775","[""down"",""left""]","{""num_key_presses"":4,""num_perfect"":4,""num_errors"":0,""num_randdir"":0,""num_randdir_good_moves"":0,""num_whilered"":0,""num_whileblue"":0,""num_blue"":1,""num_good_moves"":4}","[398.9683035714286,392.8745535714286,0.2,398.9683035714286,392.8745535714286,101.1,398.9683035714286,392.8745535714286,211.4,398.9683035714286,392.8745535714286,317.8,426.9683035714286,381.8745535714286,421.8,507.9683035714286,363.8745535714286,522.4,142.96830357142858,664.8745535714286,624.2,83.96830357142856,696.8745535714286,724.7,62.968303571428564,705.8745535714286,824.9,58.968303571428564,705.8745535714286,930,58.968303571428564,705.8745535714286,1037.3,58.968303571428564,705.8745535714286,1139.4,58.968303571428564,705.8745535714286,1239.9,58.968303571428564,705.8745535714286,1344,58.968303571428564,705.8745535714286,1444.8,58.968303571428564,705.8745535714286,1555,58.968303571428564,705.8745535714286,1656.8,58.968303571428564,705.8745535714286,1759.2,58.968303571428564,705.8745535714286,1865.1,58.968303571428564,705.8745535714286,1977.3,58.968303571428564,705.8745535714286,2079.9,58.968303571428564,705.8745535714286,2181.2,58.968303571428564,705.8745535714286,2294.6,58.968303571428564,705.8745535714286,2410.4,58.968303571428564,705.8745535714286,2514.9,58.968303571428564,705.8745535714286,2614.9,58.968303571428564,705.8745535714286,2726.4,58.968303571428564,705.8745535714286,2841,58.968303571428564,705.8745535714286,2944.5,58.968303571428564,705.8745535714286,3044.5,58.968303571428564,705.8745535714286,3145,58.968303571428564,705.8745535714286,3262.6,58.968303571428564,705.8745535714286,3364.7,58.968303571428564,705.8745535714286,3465.1,58.968303571428564,705.8745535714286,3576.3,58.968303571428564,705.8745535714286,3676.3,58.968303571428564,705.8745535714286,3777.6,58.968303571428564,705.8745535714286,3879.4,58.968303571428564,705.8745535714286,3979.5,58.968303571428564,705.8745535714286,4080,58.968303571428564,705.8745535714286,4180,58.968303571428564,705.8745535714286,4293.5,58.968303571428564,705.8745535714286,4394.4,58.968303571428564,705.8745535714286,4496.4,58.968303571428564,705.8745535714286,4599.3,58.968303571428564,705.8745535714286,4704.9,58.968303571428564,705.8745535714286,4810.9,58.968303571428564,705.8745535714286,4911.7]","[1445.5,1445.6,1000,0,445.6,""smooth"",""left"",""left"",""good_move"",4097.5,2651.3,2289.6,1446.2,361.7,""smooth"",""down"",""down"",""good_move"",6613.4,2515.4,2127,4098,388.4,""smooth"",""down"",""down"",""good_move"",13042,6427.9,2573.4,10145.7,322.9,""smooth"",""left"",""left"",""good_move""]","",""
"3749","","<div style=""width:500px;"">
  <p>What determined the result of this run?</p>
  </div>","98","html-slider-response","67","705503","0.0-10.0-1.6","23","1","2025-07-02 10:18:32","80fe4187154257d5fb01684ea91b68b9","212.159.106.248","Mozilla/5.0 (Windows NT 10.0; Win64; x64) AppleWebKit/537.36 (KHTML, like Gecko) Chrome/137.0.0.0 Safari/537.36","WebKit","Chrome","137.0.0.0","Windows","10.0","https://app.prolific.com/","en-US,en;q=0.9","5d8e154af2858200171fdb95","683db6dfa200031b80f2a654","68650762f31b3bb398cc28a5","5d8e154af2858200171fdb95","2025-07-02T10:30:18.561Z","","","","","","AttribQ","","","","","","","","","","","","","","","","","","","","","","","","","","","","","","","","","","","","","","50"
"2275","","<div style=""width:500px;"">
  <p>How much control did you have over the ball?</p>
  </div>","99","html-slider-response","68","707779","0.0-10.0-2.6","23","1","2025-07-02 10:18:32","80fe4187154257d5fb01684ea91b68b9","212.159.106.248","Mozilla/5.0 (Windows NT 10.0; Win64; x64) AppleWebKit/537.36 (KHTML, like Gecko) Chrome/137.0.0.0 Safari/537.36","WebKit","Chrome","137.0.0.0","Windows","10.0","https://app.prolific.com/","en-US,en;q=0.9","5d8e154af2858200171fdb95","683db6dfa200031b80f2a654","68650762f31b3bb398cc28a5","5d8e154af2858200171fdb95","2025-07-02T10:30:20.837Z","","","","","","ControlQ","","","","","","","","","","","","","","","","","","","","","","","","","","","","","","","","","","","","","","50"
"2534","","<div style=""width:500px;"">
  <p>How would you describe your current emotional state?</p>
  </div>","0","html-slider-response","69","710314","0.0-10.0-3.6","23","1","2025-07-02 10:18:32","80fe4187154257d5fb01684ea91b68b9","212.159.106.248","Mozilla/5.0 (Windows NT 10.0; Win64; x64) AppleWebKit/537.36 (KHTML, like Gecko) Chrome/137.0.0.0 Safari/537.36","WebKit","Chrome","137.0.0.0","Windows","10.0","https://app.prolific.com/","en-US,en;q=0.9","5d8e154af2858200171fdb95","683db6dfa200031b80f2a654","68650762f31b3bb398cc28a5","5d8e154af2858200171fdb95","2025-07-02T10:30:23.372Z","","","","","","StressQ","","","","","","","","","","","","","","","","","","","","","","","","","","","","","","","","","","","","","","50"
"1459","","<div style=""width:500px;"">
  <p>What best describes how you currently feel?</p>
  </div>","87","html-slider-response","70","711775","0.0-10.0-4.6","23","1","2025-07-02 10:18:32","80fe4187154257d5fb01684ea91b68b9","212.159.106.248","Mozilla/5.0 (Windows NT 10.0; Win64; x64) AppleWebKit/537.36 (KHTML, like Gecko) Chrome/137.0.0.0 Safari/537.36","WebKit","Chrome","137.0.0.0","Windows","10.0","https://app.prolific.com/","en-US,en;q=0.9","5d8e154af2858200171fdb95","683db6dfa200031b80f2a654","68650762f31b3bb398cc28a5","5d8e154af2858200171fdb95","2025-07-02T10:30:24.834Z","","","","","","MotivationQ","","","","","","","","","","","","","","","","","","","","","","","","","","","","","","","","","","","","","","50"
"","","","","ctl-task-cpt","71","765760","0.0-10.0-0.7","23","1","2025-07-02 10:18:32","80fe4187154257d5fb01684ea91b68b9","212.159.106.248","Mozilla/5.0 (Windows NT 10.0; Win64; x64) AppleWebKit/537.36 (KHTML, like Gecko) Chrome/137.0.0.0 Safari/537.36","WebKit","Chrome","137.0.0.0","Windows","10.0","https://app.prolific.com/","en-US,en;q=0.9","5d8e154af2858200171fdb95","683db6dfa200031b80f2a654","68650762f31b3bb398cc28a5","5d8e154af2858200171fdb95","2025-07-02T10:31:18.818Z","","","","","","","","","","","","","","","","win-only","0","g1:NW,g2:SE","0.3","8","0","712938.2","5970","10977.8","50961.7","1","4","8","6","1","-1","-1","6","7","0.045454545454545456","919.3","3000","-2060","[""left"",""up""]","{""num_key_presses"":9,""num_perfect"":2,""num_errors"":0,""num_randdir"":7,""num_randdir_good_moves"":2,""num_whilered"":0,""num_whileblue"":0,""num_blue"":3,""num_good_moves"":4}","[392.9683035714286,390.8745535714286,0.6,392.9683035714286,390.8745535714286,100.7,392.9683035714286,390.8745535714286,201,392.9683035714286,390.8745535714286,302.2,392.9683035714286,390.8745535714286,403.1,224.96830357142858,290.8745535714286,509.5,137.96830357142858,65.87455357142856,616.2,120.96830357142856,54.874553571428564,721.8,110.96830357142856,67.87455357142856,822.5,103.96830357142856,93.87455357142856,928,103.96830357142856,93.87455357142856,1028.7,103.96830357142856,93.87455357142856,1141.1,103.96830357142856,93.87455357142856,1244.3,103.96830357142856,93.87455357142856,1347.1,103.96830357142856,93.87455357142856,1447.4,103.96830357142856,93.87455357142856,1551.4,103.96830357142856,93.87455357142856,1655.7,103.96830357142856,93.87455357142856,1772.1,103.96830357142856,93.87455357142856,1876.5,103.96830357142856,93.87455357142856,1980.9,103.96830357142856,93.87455357142856,2086.8,103.96830357142856,93.87455357142856,2190.1,103.96830357142856,93.87455357142856,2290.8,103.96830357142856,93.87455357142856,2405.6,103.96830357142856,93.87455357142856,2505.9,103.96830357142856,93.87455357142856,2606.5,103.96830357142856,93.87455357142856,2706.6,103.96830357142856,93.87455357142856,2822.2,103.96830357142856,93.87455357142856,2924,103.96830357142856,93.87455357142856,3035.9,103.96830357142856,93.87455357142856,3138.1,103.96830357142856,93.87455357142856,3239.7,103.96830357142856,93.87455357142856,3341.4,103.96830357142856,93.87455357142856,3441.4,103.96830357142856,93.87455357142856,3542.9,103.96830357142856,93.87455357142856,3647.6,103.96830357142856,93.87455357142856,3750.7,103.96830357142856,93.87455357142856,3851,103.96830357142856,93.87455357142856,3951.6,103.96830357142856,93.87455357142856,4055.9,103.96830357142856,93.87455357142856,4156.2,103.96830357142856,93.87455357142856,4261.6,103.96830357142856,93.87455357142856,4366.8,103.96830357142856,93.87455357142856,4466.9,103.96830357142856,93.87455357142856,4570.7,103.96830357142856,93.87455357142856,4672.6,103.96830357142856,93.87455357142856,4772.7,103.96830357142856,93.87455357142856,4875.2,103.96830357142856,93.87455357142856,4976.7]","[1460.2,1460.2,1000,0,460.2,""oops"",""up"",""right"",""bad_move"",5241.7,3781,3360.7,1460.7,420.3,""smooth"",""up"",""up"",""good_move"",7929.9,2687.5,2288.9,5242.4,398.6,""smooth"",""left"",""left"",""good_move"",10446.5,2516,1996.5,7930.5,519.5,""oops"",""left"",""up"",""good_move"",17262,6815,2815.9,14153.7,292.4,""oops"",""left"",""right"",""bad_move"",19562.5,2299.9,1896,17262.6,403.9,""oops"",""left"",""down"",""bad_move"",23239.8,3676.7,3280,19563.1,396.7,""oops"",""left"",""right"",""bad_move"",26351.1,3110.7,2568.7,23240.4,542,""oops"",""left"",""up"",""good_move"",37321.1,10969.3,2808.2,34130.4,382.5,""oops"",""left"",""right"",""bad_move""]","",""
"3394","","<div style=""width:500px;"">
  <p>What determined the result of this run?</p>
  </div>","11","html-slider-response","72","769156","0.0-10.0-1.7","23","1","2025-07-02 10:18:32","80fe4187154257d5fb01684ea91b68b9","212.159.106.248","Mozilla/5.0 (Windows NT 10.0; Win64; x64) AppleWebKit/537.36 (KHTML, like Gecko) Chrome/137.0.0.0 Safari/537.36","WebKit","Chrome","137.0.0.0","Windows","10.0","https://app.prolific.com/","en-US,en;q=0.9","5d8e154af2858200171fdb95","683db6dfa200031b80f2a654","68650762f31b3bb398cc28a5","5d8e154af2858200171fdb95","2025-07-02T10:31:22.214Z","","","","","","AttribQ","","","","","","","","","","","","","","","","","","","","","","","","","","","","","","","","","","","","","","50"
"3411","","<div style=""width:500px;"">
  <p>How much control did you have over the ball?</p>
  </div>","0","html-slider-response","73","772570","0.0-10.0-2.7","23","1","2025-07-02 10:18:32","80fe4187154257d5fb01684ea91b68b9","212.159.106.248","Mozilla/5.0 (Windows NT 10.0; Win64; x64) AppleWebKit/537.36 (KHTML, like Gecko) Chrome/137.0.0.0 Safari/537.36","WebKit","Chrome","137.0.0.0","Windows","10.0","https://app.prolific.com/","en-US,en;q=0.9","5d8e154af2858200171fdb95","683db6dfa200031b80f2a654","68650762f31b3bb398cc28a5","5d8e154af2858200171fdb95","2025-07-02T10:31:25.628Z","","","","","","ControlQ","","","","","","","","","","","","","","","","","","","","","","","","","","","","","","","","","","","","","","50"
"3208","","<div style=""width:500px;"">
  <p>How would you describe your current emotional state?</p>
  </div>","29","html-slider-response","74","775780","0.0-10.0-3.7","23","1","2025-07-02 10:18:32","80fe4187154257d5fb01684ea91b68b9","212.159.106.248","Mozilla/5.0 (Windows NT 10.0; Win64; x64) AppleWebKit/537.36 (KHTML, like Gecko) Chrome/137.0.0.0 Safari/537.36","WebKit","Chrome","137.0.0.0","Windows","10.0","https://app.prolific.com/","en-US,en;q=0.9","5d8e154af2858200171fdb95","683db6dfa200031b80f2a654","68650762f31b3bb398cc28a5","5d8e154af2858200171fdb95","2025-07-02T10:31:28.838Z","","","","","","StressQ","","","","","","","","","","","","","","","","","","","","","","","","","","","","","","","","","","","","","","50"
"3539","","<div style=""width:500px;"">
  <p>What best describes how you currently feel?</p>
  </div>","66","html-slider-response","75","779320","0.0-10.0-4.7","23","1","2025-07-02 10:18:32","80fe4187154257d5fb01684ea91b68b9","212.159.106.248","Mozilla/5.0 (Windows NT 10.0; Win64; x64) AppleWebKit/537.36 (KHTML, like Gecko) Chrome/137.0.0.0 Safari/537.36","WebKit","Chrome","137.0.0.0","Windows","10.0","https://app.prolific.com/","en-US,en;q=0.9","5d8e154af2858200171fdb95","683db6dfa200031b80f2a654","68650762f31b3bb398cc28a5","5d8e154af2858200171fdb95","2025-07-02T10:31:32.379Z","","","","","","MotivationQ","","","","","","","","","","","","","","","","","","","","","","","","","","","","","","","","","","","","","","50"
"","","","","ctl-task-cpt","76","838790","0.0-10.0-0.8","23","1","2025-07-02 10:18:32","80fe4187154257d5fb01684ea91b68b9","212.159.106.248","Mozilla/5.0 (Windows NT 10.0; Win64; x64) AppleWebKit/537.36 (KHTML, like Gecko) Chrome/137.0.0.0 Safari/537.36","WebKit","Chrome","137.0.0.0","Windows","10.0","https://app.prolific.com/","en-US,en;q=0.9","5d8e154af2858200171fdb95","683db6dfa200031b80f2a654","68650762f31b3bb398cc28a5","5d8e154af2858200171fdb95","2025-07-02T10:32:31.849Z","","","","","","","","","","","","","","","","win-only","0","g1:NW,g2:SE","0.4","9","0","780484","3309.8","8324.5","56428.2","1","4","8","6","1","1","1","7","6","0.05303030303030303","1039.7","3000","1045","[""left"",""up""]","{""num_key_presses"":12,""num_perfect"":4,""num_errors"":0,""num_randdir"":8,""num_randdir_good_moves"":5,""num_whilered"":0,""num_whileblue"":0,""num_blue"":2,""num_good_moves"":8}","[393.9683035714286,390.8745535714286,0.6,393.9683035714286,390.8745535714286,105.9,393.9683035714286,390.8745535714286,213.2,393.9683035714286,390.8745535714286,317.7,393.9683035714286,390.8745535714286,418,65.96830357142856,141.87455357142858,525.2,2.9683035714285637,61.874553571428564,626.2,-5.031696428571436,43.874553571428564,726.7,3.9683035714285637,52.874553571428564,827.3,49.968303571428564,79.87455357142856,935.7,55.968303571428564,85.87455357142856,1037.3,55.968303571428564,85.87455357142856,1151.9,55.968303571428564,85.87455357142856,1253,55.968303571428564,85.87455357142856,1357.4,55.968303571428564,85.87455357142856,1459.2,55.968303571428564,85.87455357142856,1565.2,55.968303571428564,85.87455357142856,1671.8,55.968303571428564,85.87455357142856,1774.8,55.968303571428564,85.87455357142856,1876.7,55.968303571428564,85.87455357142856,1982.7,55.968303571428564,85.87455357142856,2086.4,55.968303571428564,85.87455357142856,2199.4,55.968303571428564,85.87455357142856,2302.1,55.968303571428564,85.87455357142856,2406.5,55.968303571428564,85.87455357142856,2509.7,55.968303571428564,85.87455357142856,2612.3,55.968303571428564,85.87455357142856,2714.1,55.968303571428564,85.87455357142856,2824.1,55.968303571428564,85.87455357142856,2929,55.968303571428564,85.87455357142856,3037.1,55.968303571428564,85.87455357142856,3140.2,55.968303571428564,85.87455357142856,3246.2,55.968303571428564,85.87455357142856,3349.9,55.968303571428564,85.87455357142856,3454.3,55.968303571428564,85.87455357142856,3558.2,55.968303571428564,85.87455357142856,3664.3,55.968303571428564,85.87455357142856,3774.9,55.968303571428564,85.87455357142856,3877.4,55.968303571428564,85.87455357142856,3981.2,55.968303571428564,85.87455357142856,4100.7,55.968303571428564,85.87455357142856,4204.4,55.968303571428564,85.87455357142856,4307.5,55.968303571428564,85.87455357142856,4409.1,55.968303571428564,85.87455357142856,4516.8,55.968303571428564,85.87455357142856,4617,55.968303571428564,85.87455357142856,4717.4,55.968303571428564,85.87455357142856,4821.8,55.968303571428564,85.87455357142856,4934.2]","[1362.2,1362.3,1000,0,362.3,""smooth"",""left"",""left"",""good_move"",12537.7,11174.7,3163.7,8892,482,""oops"",""up"",""right"",""bad_move"",16029.7,3491.3,2816.5,12538.4,674.8,""oops"",""left"",""down"",""bad_move"",19290.8,3259.9,2674,16030.9,585.9,""oops"",""right"",""up"",""good_move"",22677.2,3385.6,2996.7,19291.6,389,""oops"",""right"",""down"",""bad_move"",26366.4,3688.2,3333.7,22678.2,354.5,""smooth"",""right"",""right"",""bad_move"",28824.1,2457.2,1848.1,26366.9,609.1,""oops"",""up"",""left"",""good_move"",31695.4,2870.8,2400.3,28824.6,470.5,""smooth"",""up"",""up"",""good_move"",35089.8,3393.9,2999.1,31696,394.7,""smooth"",""up"",""up"",""good_move"",39048.5,3958.4,2845,35090.1,1113.4,""oops"",""up"",""up"",""good_move"",43620.5,4571.7,2774.5,39048.8,1797.3,""oops"",""left"",""left"",""good_move"",47688.8,4067.6,3544.6,43621.2,523,""oops"",""left"",""left"",""good_move""]","",""
"3682","","<div style=""width:500px;"">
  <p>What determined the result of this run?</p>
  </div>","58","html-slider-response","77","842476","0.0-10.0-1.8","23","1","2025-07-02 10:18:32","80fe4187154257d5fb01684ea91b68b9","212.159.106.248","Mozilla/5.0 (Windows NT 10.0; Win64; x64) AppleWebKit/537.36 (KHTML, like Gecko) Chrome/137.0.0.0 Safari/537.36","WebKit","Chrome","137.0.0.0","Windows","10.0","https://app.prolific.com/","en-US,en;q=0.9","5d8e154af2858200171fdb95","683db6dfa200031b80f2a654","68650762f31b3bb398cc28a5","5d8e154af2858200171fdb95","2025-07-02T10:32:35.534Z","","","","","","AttribQ","","","","","","","","","","","","","","","","","","","","","","","","","","","","","","","","","","","","","","50"
"4438","","<div style=""width:500px;"">
  <p>How much control did you have over the ball?</p>
  </div>","16","html-slider-response","78","846918","0.0-10.0-2.8","23","1","2025-07-02 10:18:32","80fe4187154257d5fb01684ea91b68b9","212.159.106.248","Mozilla/5.0 (Windows NT 10.0; Win64; x64) AppleWebKit/537.36 (KHTML, like Gecko) Chrome/137.0.0.0 Safari/537.36","WebKit","Chrome","137.0.0.0","Windows","10.0","https://app.prolific.com/","en-US,en;q=0.9","5d8e154af2858200171fdb95","683db6dfa200031b80f2a654","68650762f31b3bb398cc28a5","5d8e154af2858200171fdb95","2025-07-02T10:32:39.976Z","","","","","","ControlQ","","","","","","","","","","","","","","","","","","","","","","","","","","","","","","","","","","","","","","50"
"3343","","<div style=""width:500px;"">
  <p>How would you describe your current emotional state?</p>
  </div>","19","html-slider-response","79","850265","0.0-10.0-3.8","23","1","2025-07-02 10:18:32","80fe4187154257d5fb01684ea91b68b9","212.159.106.248","Mozilla/5.0 (Windows NT 10.0; Win64; x64) AppleWebKit/537.36 (KHTML, like Gecko) Chrome/137.0.0.0 Safari/537.36","WebKit","Chrome","137.0.0.0","Windows","10.0","https://app.prolific.com/","en-US,en;q=0.9","5d8e154af2858200171fdb95","683db6dfa200031b80f2a654","68650762f31b3bb398cc28a5","5d8e154af2858200171fdb95","2025-07-02T10:32:43.323Z","","","","","","StressQ","","","","","","","","","","","","","","","","","","","","","","","","","","","","","","","","","","","","","","50"
"3226","","<div style=""width:500px;"">
  <p>What best describes how you currently feel?</p>
  </div>","62","html-slider-response","80","853495","0.0-10.0-4.8","23","1","2025-07-02 10:18:32","80fe4187154257d5fb01684ea91b68b9","212.159.106.248","Mozilla/5.0 (Windows NT 10.0; Win64; x64) AppleWebKit/537.36 (KHTML, like Gecko) Chrome/137.0.0.0 Safari/537.36","WebKit","Chrome","137.0.0.0","Windows","10.0","https://app.prolific.com/","en-US,en;q=0.9","5d8e154af2858200171fdb95","683db6dfa200031b80f2a654","68650762f31b3bb398cc28a5","5d8e154af2858200171fdb95","2025-07-02T10:32:46.554Z","","","","","","MotivationQ","","","","","","","","","","","","","","","","","","","","","","","","","","","","","","","","","","","","","","50"
"","","","","ctl-task-cpt","81","913696","0.0-10.0-0.9","23","1","2025-07-02 10:18:32","80fe4187154257d5fb01684ea91b68b9","212.159.106.248","Mozilla/5.0 (Windows NT 10.0; Win64; x64) AppleWebKit/537.36 (KHTML, like Gecko) Chrome/137.0.0.0 Safari/537.36","WebKit","Chrome","137.0.0.0","Windows","10.0","https://app.prolific.com/","en-US,en;q=0.9","5d8e154af2858200171fdb95","683db6dfa200031b80f2a654","68650762f31b3bb398cc28a5","5d8e154af2858200171fdb95","2025-07-02T10:33:46.754Z","","","","","","","","","","","","","","","","win-only","3","g1:SW,g2:NE","0.5","10","0","854660.1","1414.9","6421.3","57163.9","1","4","4","6","1","1","-1","6","7","0.045454545454545456","922.5","3000","2065","[""down"",""left""]","{""num_key_presses"":10,""num_perfect"":4,""num_errors"":2,""num_randdir"":4,""num_randdir_good_moves"":1,""num_whilered"":0,""num_whileblue"":2,""num_blue"":3,""num_good_moves"":7}","[394.9683035714286,393.8745535714286,0.4,394.9683035714286,393.8745535714286,119.4,394.9683035714286,393.8745535714286,229.8,394.9683035714286,393.8745535714286,339,504.9683035714286,324.8745535714286,456.9,207.96830357142858,570.8745535714286,586.9,132.96830357142858,648.8745535714286,699.8,80.96830357142856,724.8745535714286,825,64.96830357142856,732.8745535714286,966.1,64.96830357142856,732.8745535714286,1076.2,64.96830357142856,732.8745535714286,1193.2,64.96830357142856,732.8745535714286,1301.2,64.96830357142856,732.8745535714286,1406.2,64.96830357142856,732.8745535714286,1513,64.96830357142856,732.8745535714286,1619,64.96830357142856,732.8745535714286,1725.9,64.96830357142856,732.8745535714286,1845.2,64.96830357142856,732.8745535714286,1947.8,64.96830357142856,732.8745535714286,2097.4,64.96830357142856,732.8745535714286,2208.7,64.96830357142856,732.8745535714286,2308.8,64.96830357142856,732.8745535714286,2413.5,64.96830357142856,732.8745535714286,2520,64.96830357142856,732.8745535714286,2629.3,64.96830357142856,732.8745535714286,2742.7,64.96830357142856,732.8745535714286,2847,64.96830357142856,732.8745535714286,2960.5,64.96830357142856,732.8745535714286,3075.5,64.96830357142856,732.8745535714286,3182,64.96830357142856,732.8745535714286,3284.1,64.96830357142856,732.8745535714286,3397.7,64.96830357142856,732.8745535714286,3522.8,64.96830357142856,732.8745535714286,3634.8,64.96830357142856,732.8745535714286,3745.1,64.96830357142856,732.8745535714286,3848.4,64.96830357142856,732.8745535714286,4007.3,64.96830357142856,732.8745535714286,4108,64.96830357142856,732.8745535714286,4383.7,64.96830357142856,732.8745535714286,4548.5,64.96830357142856,732.8745535714286,4663.7,64.96830357142856,732.8745535714286,4826.7,64.96830357142856,732.8745535714286,4947.5]","[1642.5,1642.5,1000,0,642.5,""smooth"",""left"",""left"",""good_move"",9322.3,7679.6,2373.8,1642.7,5305.8,""oops"",""down"",""up"",""bad_move"",16982.4,7659.7,7251.2,9322.7,408.5,""while_blue"",""left"",""down"",""good_move"",20040,3057,2305.3,16983,751.7,""smooth"",""left"",""left"",""good_move"",28637.1,8596,8166.9,20041.2,429,""while_blue"",""down"",""down"",""good_move"",31479.1,2841.1,1981.3,28638,859.8,""oops"",""down"",""up"",""bad_move"",38108.2,6628.8,3180.4,31479.4,3448.4,""oops"",""down"",""right"",""bad_move"",41704,3595.1,2925,38108.9,670.1,""smooth"",""down"",""down"",""good_move"",44300.6,2595.9,2181.6,41704.7,414.3,""oops"",""left"",""left"",""good_move"",50359.9,6058.6,1683.9,48307.5,368.5,""smooth"",""down"",""down"",""good_move""]","",""
"7286","","<div style=""width:500px;"">
  <p>What determined the result of this run?</p>
  </div>","38","html-slider-response","82","920986","0.0-10.0-1.9","23","1","2025-07-02 10:18:32","80fe4187154257d5fb01684ea91b68b9","212.159.106.248","Mozilla/5.0 (Windows NT 10.0; Win64; x64) AppleWebKit/537.36 (KHTML, like Gecko) Chrome/137.0.0.0 Safari/537.36","WebKit","Chrome","137.0.0.0","Windows","10.0","https://app.prolific.com/","en-US,en;q=0.9","5d8e154af2858200171fdb95","683db6dfa200031b80f2a654","68650762f31b3bb398cc28a5","5d8e154af2858200171fdb95","2025-07-02T10:33:54.044Z","","","","","","AttribQ","","","","","","","","","","","","","","","","","","","","","","","","","","","","","","","","","","","","","","50"
"6918","","<div style=""width:500px;"">
  <p>How much control did you have over the ball?</p>
  </div>","26","html-slider-response","83","927906","0.0-10.0-2.9","23","1","2025-07-02 10:18:32","80fe4187154257d5fb01684ea91b68b9","212.159.106.248","Mozilla/5.0 (Windows NT 10.0; Win64; x64) AppleWebKit/537.36 (KHTML, like Gecko) Chrome/137.0.0.0 Safari/537.36","WebKit","Chrome","137.0.0.0","Windows","10.0","https://app.prolific.com/","en-US,en;q=0.9","5d8e154af2858200171fdb95","683db6dfa200031b80f2a654","68650762f31b3bb398cc28a5","5d8e154af2858200171fdb95","2025-07-02T10:34:00.965Z","","","","","","ControlQ","","","","","","","","","","","","","","","","","","","","","","","","","","","","","","","","","","","","","","50"
"3812","","<div style=""width:500px;"">
  <p>How would you describe your current emotional state?</p>
  </div>","43","html-slider-response","84","931727","0.0-10.0-3.9","23","1","2025-07-02 10:18:32","80fe4187154257d5fb01684ea91b68b9","212.159.106.248","Mozilla/5.0 (Windows NT 10.0; Win64; x64) AppleWebKit/537.36 (KHTML, like Gecko) Chrome/137.0.0.0 Safari/537.36","WebKit","Chrome","137.0.0.0","Windows","10.0","https://app.prolific.com/","en-US,en;q=0.9","5d8e154af2858200171fdb95","683db6dfa200031b80f2a654","68650762f31b3bb398cc28a5","5d8e154af2858200171fdb95","2025-07-02T10:34:04.785Z","","","","","","StressQ","","","","","","","","","","","","","","","","","","","","","","","","","","","","","","","","","","","","","","50"
"3359","","<div style=""width:500px;"">
  <p>What best describes how you currently feel?</p>
  </div>","56","html-slider-response","85","935089","0.0-10.0-4.9","23","1","2025-07-02 10:18:32","80fe4187154257d5fb01684ea91b68b9","212.159.106.248","Mozilla/5.0 (Windows NT 10.0; Win64; x64) AppleWebKit/537.36 (KHTML, like Gecko) Chrome/137.0.0.0 Safari/537.36","WebKit","Chrome","137.0.0.0","Windows","10.0","https://app.prolific.com/","en-US,en;q=0.9","5d8e154af2858200171fdb95","683db6dfa200031b80f2a654","68650762f31b3bb398cc28a5","5d8e154af2858200171fdb95","2025-07-02T10:34:08.147Z","","","","","","MotivationQ","","","","","","","","","","","","","","","","","","","","","","","","","","","","","","","","","","","","","","50"
