"rt","response_timestamp","stimulus","response","trial_type","trial_index","time_elapsed","internal_node_id","run_id","condition","recorded_at","source_code_version","ip","user_agent","device","browser","browser_version","platform","platform_version","referer","accept_language","PROLIFIC_PID","STUDY_ID","SESSION_ID","prolific_id","realtime","view_history","question_order","consent","success","question_id","eventType","responses","item_order","radio_event_ids","radio_event_times","key_event_times","mouse_event_times","straightlining","zigzagging","honeypot","which_type","canvas_config","goals_layout","control_level","trial_number","tutorial_trial_number","trial_start_time","phase1_start_time","phase2_start_time","phase3_start_time","goal_1_value","goal_1_distance","goal_2_value","goal_2_distance","goal_selected","outcome","outcome_total","participant_final_score","participant_initial_score","participant_final_score_prop","goal_choice_rt","allocated_time","allocated_time_remaining","goal_direction","counts","mouse_movements","key_presses","correct","slider_start","sub_question"
"101924","1751451631458","<p style='font-size:40px;line-height:1.25'><strong>Welcome to the experiment!</strong></p><p style='font-size:1.1em;line-height:1.25'>Thank you for your interest in our experiment! Before you begin, it is important that we obtain your informed consent to participate in the study.</p><p style='font-size:1.1em;line-height:1.25'>On the next screen will be an <strong>information sheet</strong> for you to read. To participate in the study we need you to read this information sheet and the following consent form carefully. If you agree with all the statements, please click the <strong>I agree</strong> button.</p><p style='font-size:1.1em;line-height:1.25'>Press <strong>Next</strong> to read the information sheet.</p>","0","custom-html-button-response","0","101930","0.0-0.0","51","1","2025-07-02 10:18:49","80fe4187154257d5fb01684ea91b68b9","212.69.57.202","Mozilla/5.0 (X11; CrOS x86_64 14541.0.0) AppleWebKit/537.36 (KHTML, like Gecko) Chrome/137.0.0.0 Safari/537.36","WebKit","Chrome","137.0.0.0","ChromeOS","14541.0.0","https://app.prolific.com/","en-GB,en;q=0.9","5d9a55cb01556d0013fa8369","683db6dfa200031b80f2a654","6865077b3f4aef8c7a87bb4a","5d9a55cb01556d0013fa8369","2025-07-02T10:20:31.462Z","","","","","","","","","","","","","","","","","","","","","","","","","","","","","","","","","","","","","","","","","","","","",""
"8005","","","","instructions","1","109939","0.0-1.0","51","1","2025-07-02 10:18:49","80fe4187154257d5fb01684ea91b68b9","212.69.57.202","Mozilla/5.0 (X11; CrOS x86_64 14541.0.0) AppleWebKit/537.36 (KHTML, like Gecko) Chrome/137.0.0.0 Safari/537.36","WebKit","Chrome","137.0.0.0","ChromeOS","14541.0.0","https://app.prolific.com/","en-GB,en;q=0.9","5d9a55cb01556d0013fa8369","683db6dfa200031b80f2a654","6865077b3f4aef8c7a87bb4a","5d9a55cb01556d0013fa8369","","[{""page_index"":0,""viewing_time"":5773},{""page_index"":1,""viewing_time"":2232}]","","","","","","","","","","","","","","","","","","","","","","","","","","","","","","","","","","","","","","","","","","","",""
"4083","","","{""Q0"":"""",""Q1"":"""",""Q2"":"""",""Q3"":"""",""Q4"":"""",""Q5"":"""",""Q6"":""I agree""}","survey-multi-choice","2","114027","0.0-2.0","51","1","2025-07-02 10:18:49","80fe4187154257d5fb01684ea91b68b9","212.69.57.202","Mozilla/5.0 (X11; CrOS x86_64 14541.0.0) AppleWebKit/537.36 (KHTML, like Gecko) Chrome/137.0.0.0 Safari/537.36","WebKit","Chrome","137.0.0.0","ChromeOS","14541.0.0","https://app.prolific.com/","en-GB,en;q=0.9","5d9a55cb01556d0013fa8369","683db6dfa200031b80f2a654","6865077b3f4aef8c7a87bb4a","5d9a55cb01556d0013fa8369","","","[0,1,2,3,4,5,6]","true","","","","","","","","","","","","","","","","","","","","","","","","","","","","","","","","","","","","","","","","","",""
"8634","","","","fullscreen","3","123665","0.0-4.0","51","1","2025-07-02 10:18:49","80fe4187154257d5fb01684ea91b68b9","212.69.57.202","Mozilla/5.0 (X11; CrOS x86_64 14541.0.0) AppleWebKit/537.36 (KHTML, like Gecko) Chrome/137.0.0.0 Safari/537.36","WebKit","Chrome","137.0.0.0","ChromeOS","14541.0.0","https://app.prolific.com/","en-GB,en;q=0.9","5d9a55cb01556d0013fa8369","683db6dfa200031b80f2a654","6865077b3f4aef8c7a87bb4a","5d9a55cb01556d0013fa8369","","","","","true","","","","","","","","","","","","","","","","","","","","","","","","","","","","","","","","","","","","","","","","",""
"3173","1751451656370"," <p style='font-size:1.1em;line-height:1.25'>Thank you for completing the consent form and closing all other tabs.</p><p style='font-size:1.1em;line-height:1.25'>We will now invite you to fill in some demographic information and questionnaires, before starting the game.<br>This will take about 5 minutes.<br></p><p style='font-size:1.1em;line-height:1.25'>Press the <strong>Next</strong> button to continue.</p>","0","custom-html-button-response","4","126839","0.0-5.0","51","1","2025-07-02 10:18:49","80fe4187154257d5fb01684ea91b68b9","212.69.57.202","Mozilla/5.0 (X11; CrOS x86_64 14541.0.0) AppleWebKit/537.36 (KHTML, like Gecko) Chrome/137.0.0.0 Safari/537.36","WebKit","Chrome","137.0.0.0","ChromeOS","14541.0.0","https://app.prolific.com/","en-GB,en;q=0.9","5d9a55cb01556d0013fa8369","683db6dfa200031b80f2a654","6865077b3f4aef8c7a87bb4a","5d9a55cb01556d0013fa8369","2025-07-02T10:20:56.371Z","","","","","","","","","","","","","","","","","","","","","","","","","","","","","","","","","","","","","","","","","","","","",""
"3415","","","{""age"":""37""}","survey-text","5","130259","0.0-6.0-0.0","51","1","2025-07-02 10:18:49","80fe4187154257d5fb01684ea91b68b9","212.69.57.202","Mozilla/5.0 (X11; CrOS x86_64 14541.0.0) AppleWebKit/537.36 (KHTML, like Gecko) Chrome/137.0.0.0 Safari/537.36","WebKit","Chrome","137.0.0.0","ChromeOS","14541.0.0","https://app.prolific.com/","en-GB,en;q=0.9","5d9a55cb01556d0013fa8369","683db6dfa200031b80f2a654","6865077b3f4aef8c7a87bb4a","5d9a55cb01556d0013fa8369","","","","","","0","demographics","","","","","","","","","","","","","","","","","","","","","","","","","","","","","","","","","","","","","","",""
"2956","","","{""gender_identity"":""female/woman""}","survey-multi-choice","6","133217","0.0-6.0-1.0","51","1","2025-07-02 10:18:49","80fe4187154257d5fb01684ea91b68b9","212.69.57.202","Mozilla/5.0 (X11; CrOS x86_64 14541.0.0) AppleWebKit/537.36 (KHTML, like Gecko) Chrome/137.0.0.0 Safari/537.36","WebKit","Chrome","137.0.0.0","ChromeOS","14541.0.0","https://app.prolific.com/","en-GB,en;q=0.9","5d9a55cb01556d0013fa8369","683db6dfa200031b80f2a654","6865077b3f4aef8c7a87bb4a","5d9a55cb01556d0013fa8369","","","[0]","","","1","demographics","","","","","","","","","","","","","","","","","","","","","","","","","","","","","","","","","","","","","","",""
"3726","","","{""assigned_sex"":""female""}","survey-multi-choice","7","136945","0.0-6.0-2.0","51","1","2025-07-02 10:18:49","80fe4187154257d5fb01684ea91b68b9","212.69.57.202","Mozilla/5.0 (X11; CrOS x86_64 14541.0.0) AppleWebKit/537.36 (KHTML, like Gecko) Chrome/137.0.0.0 Safari/537.36","WebKit","Chrome","137.0.0.0","ChromeOS","14541.0.0","https://app.prolific.com/","en-GB,en;q=0.9","5d9a55cb01556d0013fa8369","683db6dfa200031b80f2a654","6865077b3f4aef8c7a87bb4a","5d9a55cb01556d0013fa8369","","","[0]","","","2","demographics","","","","","","","","","","","","","","","","","","","","","","","","","","","","","","","","","","","","","","",""
"3785","","","{""menstrual_cycle"":""Yes""}","survey-multi-choice","8","140731","0.0-6.0-3.0","51","1","2025-07-02 10:18:49","80fe4187154257d5fb01684ea91b68b9","212.69.57.202","Mozilla/5.0 (X11; CrOS x86_64 14541.0.0) AppleWebKit/537.36 (KHTML, like Gecko) Chrome/137.0.0.0 Safari/537.36","WebKit","Chrome","137.0.0.0","ChromeOS","14541.0.0","https://app.prolific.com/","en-GB,en;q=0.9","5d9a55cb01556d0013fa8369","683db6dfa200031b80f2a654","6865077b3f4aef8c7a87bb4a","5d9a55cb01556d0013fa8369","","","[0]","","","4","demographics","","","","","","","","","","","","","","","","","","","","","","","","","","","","","","","","","","","","","","",""
"5080","","","{""education"":""GCSE/Standard Grades""}","survey-multi-choice","9","145814","0.0-6.0-4.0","51","1","2025-07-02 10:18:49","80fe4187154257d5fb01684ea91b68b9","212.69.57.202","Mozilla/5.0 (X11; CrOS x86_64 14541.0.0) AppleWebKit/537.36 (KHTML, like Gecko) Chrome/137.0.0.0 Safari/537.36","WebKit","Chrome","137.0.0.0","ChromeOS","14541.0.0","https://app.prolific.com/","en-GB,en;q=0.9","5d9a55cb01556d0013fa8369","683db6dfa200031b80f2a654","6865077b3f4aef8c7a87bb4a","5d9a55cb01556d0013fa8369","","","[0]","","","5","demographics","","","","","","","","","","","","","","","","","","","","","","","","","","","","","","","","","","","","","","",""
"11362","","","{""education"":""Vocational Qualifications (e.g. City & Guilds)""}","survey-multi-choice","10","157178","0.0-6.0-5.0","51","1","2025-07-02 10:18:49","80fe4187154257d5fb01684ea91b68b9","212.69.57.202","Mozilla/5.0 (X11; CrOS x86_64 14541.0.0) AppleWebKit/537.36 (KHTML, like Gecko) Chrome/137.0.0.0 Safari/537.36","WebKit","Chrome","137.0.0.0","ChromeOS","14541.0.0","https://app.prolific.com/","en-GB,en;q=0.9","5d9a55cb01556d0013fa8369","683db6dfa200031b80f2a654","6865077b3f4aef8c7a87bb4a","5d9a55cb01556d0013fa8369","2025-07-02T10:21:26.710Z","","[0]","","","6","demographics","","","","","","","","","","","","","","","","","","","","","","","","","","","","","","","","","","","","","","",""
"34465","","","{""mental_health_condition"":""generalised anxiety disorder and depression"",""mental_health_treatment"":""medication"",""psychiatric_medication"":""sertraline 50mg""}","survey-text","11","191650","0.0-7.0-0.0","51","1","2025-07-02 10:18:49","80fe4187154257d5fb01684ea91b68b9","212.69.57.202","Mozilla/5.0 (X11; CrOS x86_64 14541.0.0) AppleWebKit/537.36 (KHTML, like Gecko) Chrome/137.0.0.0 Safari/537.36","WebKit","Chrome","137.0.0.0","ChromeOS","14541.0.0","https://app.prolific.com/","en-GB,en;q=0.9","5d9a55cb01556d0013fa8369","683db6dfa200031b80f2a654","6865077b3f4aef8c7a87bb4a","5d9a55cb01556d0013fa8369","2025-07-02T10:22:01.181Z","","","","","1","mental_health","","","","","","","","","","","","","","","","","","","","","","","","","","","","","","","","","","","","","","",""
"6032","","","{""depression_history"":[""Yes""]}","survey-multi-select","12","197688","0.0-7.0-1.0","51","1","2025-07-02 10:18:49","80fe4187154257d5fb01684ea91b68b9","212.69.57.202","Mozilla/5.0 (X11; CrOS x86_64 14541.0.0) AppleWebKit/537.36 (KHTML, like Gecko) Chrome/137.0.0.0 Safari/537.36","WebKit","Chrome","137.0.0.0","ChromeOS","14541.0.0","https://app.prolific.com/","en-GB,en;q=0.9","5d9a55cb01556d0013fa8369","683db6dfa200031b80f2a654","6865077b3f4aef8c7a87bb4a","5d9a55cb01556d0013fa8369","","","[0]","","","","mental_health","","","","","","","","","","","","","","","","","","","","","","","","","","","","","","","","","","","","","","",""
"6208","","","{""depression_episodes"":""more than 5"",""depression_recent"":""Within the past year""}","survey-multi-choice","13","203899","0.0-7.0-2.0-0.0","51","1","2025-07-02 10:18:49","80fe4187154257d5fb01684ea91b68b9","212.69.57.202","Mozilla/5.0 (X11; CrOS x86_64 14541.0.0) AppleWebKit/537.36 (KHTML, like Gecko) Chrome/137.0.0.0 Safari/537.36","WebKit","Chrome","137.0.0.0","ChromeOS","14541.0.0","https://app.prolific.com/","en-GB,en;q=0.9","5d9a55cb01556d0013fa8369","683db6dfa200031b80f2a654","6865077b3f4aef8c7a87bb4a","5d9a55cb01556d0013fa8369","2025-07-02T10:22:13.430Z","","[0,1]","","","3","mental_health","","","","","","","","","","","","","","","","","","","","","","","","","","","","","","","","","","","","","","",""
"36301.09999999404","","","","survey-template","14","240209","0.0-7.0-3.0","51","1","2025-07-02 10:18:49","80fe4187154257d5fb01684ea91b68b9","212.69.57.202","Mozilla/5.0 (X11; CrOS x86_64 14541.0.0) AppleWebKit/537.36 (KHTML, like Gecko) Chrome/137.0.0.0 Safari/537.36","WebKit","Chrome","137.0.0.0","ChromeOS","14541.0.0","https://app.prolific.com/","en-GB,en;q=0.9","5d9a55cb01556d0013fa8369","683db6dfa200031b80f2a654","6865077b3f4aef8c7a87bb4a","5d9a55cb01556d0013fa8369","2025-07-02T10:22:49.740Z","","","","","","ius","{""Q01"":""4"",""Q02"":""4"",""Q03"":""4"",""Q04"":""4"",""Q05"":""4"",""Q06"":""3"",""Q07"":""3"",""Q08"":""0"",""Q09"":""3"",""Q10"":""4"",""Q11"":""4"",""Q12"":""4"",""Q13"":""4""}","[0,1,2,3,4,5,6,7,8,9,10,11,12]","[""Q01"",""Q02"",""Q03"",""Q04"",""Q05"",""Q06"",""Q07"",""Q08"",""Q09"",""Q10"",""Q11"",""Q12"",""Q13""]","[3618.5,6368.79999999702,8103.699999988079,10246.39999999106,13404.89999999106,17340.89999999106,19323.69999998808,21804.89999999106,25431.69999998808,27175.5,29566.89999999106,32933.79999999702,35305.59999999404]","[]","[3618.5,6368.79999999702,8103.699999988079,10246.39999999106,13404.89999999106,17340.89999999106,19323.69999998808,21804.89999999106,25431.69999998808,27175.5,29566.89999999106,32933.79999999702,34169.5,35305.59999999404,36292.59999999404]","0.6923076923076923","0.16666666666666666","0","","","","","","","","","","","","","","","","","","","","","","","","","","","","","",""
"2538","1751451772279","<p style='font-size:1.1em;line-height:1.25'>In the following, we will ask you a few questions relating to your experiences over the past month.<br></p><p style='font-size:1.1em;line-height:1.25'>Press the <strong>Next</strong> button to continue.</p>","0","custom-html-button-response","15","242749","0.0-7.0-4.0","51","1","2025-07-02 10:18:49","80fe4187154257d5fb01684ea91b68b9","212.69.57.202","Mozilla/5.0 (X11; CrOS x86_64 14541.0.0) AppleWebKit/537.36 (KHTML, like Gecko) Chrome/137.0.0.0 Safari/537.36","WebKit","Chrome","137.0.0.0","ChromeOS","14541.0.0","https://app.prolific.com/","en-GB,en;q=0.9","5d9a55cb01556d0013fa8369","683db6dfa200031b80f2a654","6865077b3f4aef8c7a87bb4a","5d9a55cb01556d0013fa8369","2025-07-02T10:22:52.280Z","","","","","","","","","","","","","","","","","","","","","","","","","","","","","","","","","","","","","","","","","","","","",""
"38722.5","","","","survey-template","16","281478","0.0-7.0-5.0","51","1","2025-07-02 10:18:49","80fe4187154257d5fb01684ea91b68b9","212.69.57.202","Mozilla/5.0 (X11; CrOS x86_64 14541.0.0) AppleWebKit/537.36 (KHTML, like Gecko) Chrome/137.0.0.0 Safari/537.36","WebKit","Chrome","137.0.0.0","ChromeOS","14541.0.0","https://app.prolific.com/","en-GB,en;q=0.9","5d9a55cb01556d0013fa8369","683db6dfa200031b80f2a654","6865077b3f4aef8c7a87bb4a","5d9a55cb01556d0013fa8369","2025-07-02T10:23:31.010Z","","","","","","pss","{""Q01"":""2"",""Q02"":""2"",""Q03"":""2"",""Q04"":""1"",""Q05"":""3"",""Q06"":""1"",""Q07"":""1"",""Q08"":""2"",""Q09"":""1"",""Q10"":""1""}","[0,1,2,3,4,5,6,7,8,9]","[""Q01"",""Q02"",""Q03"",""Q04"",""Q05"",""Q06"",""Q07"",""Q08"",""Q09"",""Q10""]","[6890.899999991059,8893.79999999702,10787,14374,17981.79999999702,22895,27099.29999999702,31652,34670.59999999404,37550]","[]","[0,6890.899999991059,8893.79999999702,10787,14374,17981.79999999702,22895,27099.29999999702,31652,34670.59999999404,37550,38715.79999999702]","0.4","0.3333333333333333","0","","","","","","","","","","","","","","","","","","","","","","","","","","","","","",""
"2340","1751451813351","<p style='font-size:1.1em;line-height:1.25'>Thank you for your answers! Now we will ask you a few more questions relating to your feelings in the last 24 hours.<br></p><p style='font-size:1.1em;line-height:1.25'>Press the <strong>Next</strong> button to continue.</p>","0","custom-html-button-response","17","283821","0.0-7.0-6.0","51","1","2025-07-02 10:18:49","80fe4187154257d5fb01684ea91b68b9","212.69.57.202","Mozilla/5.0 (X11; CrOS x86_64 14541.0.0) AppleWebKit/537.36 (KHTML, like Gecko) Chrome/137.0.0.0 Safari/537.36","WebKit","Chrome","137.0.0.0","ChromeOS","14541.0.0","https://app.prolific.com/","en-GB,en;q=0.9","5d9a55cb01556d0013fa8369","683db6dfa200031b80f2a654","6865077b3f4aef8c7a87bb4a","5d9a55cb01556d0013fa8369","2025-07-02T10:23:33.352Z","","","","","","","","","","","","","","","","","","","","","","","","","","","","","","","","","","","","","","","","","","","","",""
"55738.70000000298","","","","survey-template","18","339566","0.0-7.0-7.0","51","1","2025-07-02 10:18:49","80fe4187154257d5fb01684ea91b68b9","212.69.57.202","Mozilla/5.0 (X11; CrOS x86_64 14541.0.0) AppleWebKit/537.36 (KHTML, like Gecko) Chrome/137.0.0.0 Safari/537.36","WebKit","Chrome","137.0.0.0","ChromeOS","14541.0.0","https://app.prolific.com/","en-GB,en;q=0.9","5d9a55cb01556d0013fa8369","683db6dfa200031b80f2a654","6865077b3f4aef8c7a87bb4a","5d9a55cb01556d0013fa8369","2025-07-02T10:24:29.097Z","","","","","","drsp","{""Q01"":""1"",""Q02"":""0"",""Q03"":""0"",""Q04"":""1"",""Q05"":""0"",""Q06"":""0"",""Q07"":""0"",""Q08"":""0"",""Q09"":""2"",""Q10"":""3"",""Q11"":""4"",""Q12"":""3"",""Q13"":""3"",""Q14"":""3"",""Q15"":""3"",""Q16"":""3"",""Q17"":""0"",""Q18"":""4"",""Q19"":""4"",""Q20"":""4"",""Q21"":""0""}","[0,1,2,3,4,5,6,7,8,9,10,11,12,13,14,15,16,17,18,19,20]","[""Q01"",""Q02"",""Q03"",""Q04"",""Q05"",""Q06"",""Q07"",""Q08"",""Q09"",""Q10"",""Q11"",""Q12"",""Q13"",""Q14"",""Q15"",""Q16"",""Q17"",""Q18"",""Q18"",""Q19"",""Q20"",""Q21""]","[5844.5,7947.29999999702,9113.09999999404,10517.40000000596,12829.90000000596,15808.59999999404,17572.90000000596,18828.59999999404,20850.79999999702,23103.20000000298,25215.40000000596,27686.79999999702,29062,31880.59999999404,33843.20000000298,36853.20000000298,39724.90000000596,43401.79999999702,44797.29999999702,49041.79999999702,52280,53933.70000000298]","[]","[0.09999999403953552,5844.5,7947.29999999702,9113.09999999404,10517.40000000596,12829.90000000596,15808.59999999404,17572.90000000596,18828.59999999404,20850.79999999702,23103.20000000298,25215.40000000596,27686.79999999702,29062,31880.59999999404,33843.20000000298,36853.20000000298,38816.40000000596,39724.90000000596,43401.79999999702,44797.29999999702,49041.79999999702,52280,53933.70000000298,55727.5]","0.38095238095238093","0.3","0","","","","","","","","","","","","","","","","","","","","","","","","","","","","","",""
"8923.09999999404","","","","survey-template","19","348494","0.0-7.0-8.0","51","1","2025-07-02 10:18:49","80fe4187154257d5fb01684ea91b68b9","212.69.57.202","Mozilla/5.0 (X11; CrOS x86_64 14541.0.0) AppleWebKit/537.36 (KHTML, like Gecko) Chrome/137.0.0.0 Safari/537.36","WebKit","Chrome","137.0.0.0","ChromeOS","14541.0.0","https://app.prolific.com/","en-GB,en;q=0.9","5d9a55cb01556d0013fa8369","683db6dfa200031b80f2a654","6865077b3f4aef8c7a87bb4a","5d9a55cb01556d0013fa8369","2025-07-02T10:24:38.026Z","","","","","","stress","{""Q01"":""3"",""Q02"":""5"",""Q03"":""0""}","[0,1,2]","[""Q01"",""Q02"",""Q03""]","[3859,5712,7067.29999999702]","[]","[3859,5712,7067.29999999702,8920.09999999404]","0.6666666666666666","0","0","","","","","","","","","","","","","","","","","","","","","","","","","","","","","",""
"17539","","","","instructions","20","366035","0.0-8.0-0.0","51","1","2025-07-02 10:18:49","80fe4187154257d5fb01684ea91b68b9","212.69.57.202","Mozilla/5.0 (X11; CrOS x86_64 14541.0.0) AppleWebKit/537.36 (KHTML, like Gecko) Chrome/137.0.0.0 Safari/537.36","WebKit","Chrome","137.0.0.0","ChromeOS","14541.0.0","https://app.prolific.com/","en-GB,en;q=0.9","5d9a55cb01556d0013fa8369","683db6dfa200031b80f2a654","6865077b3f4aef8c7a87bb4a","5d9a55cb01556d0013fa8369","","[{""page_index"":0,""viewing_time"":10096},{""page_index"":1,""viewing_time"":2949},{""page_index"":2,""viewing_time"":2571},{""page_index"":3,""viewing_time"":1923}]","","","","","","","","","","","","","","","","","","","","","","","","","","","","","","","","","","","","","","","","","","","",""
"","","","","ctl-task-cpt","21","395430","0.0-8.0-1.0","51","1","2025-07-02 10:18:49","80fe4187154257d5fb01684ea91b68b9","212.69.57.202","Mozilla/5.0 (X11; CrOS x86_64 14541.0.0) AppleWebKit/537.36 (KHTML, like Gecko) Chrome/137.0.0.0 Safari/537.36","WebKit","Chrome","137.0.0.0","ChromeOS","14541.0.0","https://app.prolific.com/","en-GB,en;q=0.9","5d9a55cb01556d0013fa8369","683db6dfa200031b80f2a654","6865077b3f4aef8c7a87bb4a","5d9a55cb01556d0013fa8369","","","","","","","","","","","","","","","","","win-only","1","g1:NE,g2:SW","1","0","1","367382.6","3157.4","7179.2","26387.2","2","4","4","6","1","2","-2","0","0","0","4021.7","4000","2565","[""up"",""right""]","{""num_key_presses"":10,""num_perfect"":4,""num_errors"":4,""num_randdir"":0,""num_randdir_good_moves"":0,""num_whilered"":2,""num_whileblue"":0,""num_blue"":0,""num_good_moves"":4}","[424.0714133126395,411.57142761775424,0.6,424.0714133126395,411.57142761775424,104.8,424.0714133126395,411.57142761775424,205.7,439.0714133126395,429.07142761775424,309.9,864.0714133126395,820.3214276177542,412.3,1036.5714133126396,817.8214276177542,520.8,1080.3214133126396,819.0714276177542,623.6,1082.8214133126396,817.8214276177542,728.5,1082.8214133126396,817.8214276177542,833.8,1082.8214133126396,817.8214276177542,938.3,1082.8214133126396,817.8214276177542,1053.8,1082.8214133126396,817.8214276177542,1167,1082.8214133126396,817.8214276177542,1277.9,1082.8214133126396,817.8214276177542,1381.7,1082.8214133126396,817.8214276177542,1512.8,1082.8214133126396,817.8214276177542,1613.3,1082.8214133126396,817.8214276177542,1740.3,1082.8214133126396,817.8214276177542,1841.9,1082.8214133126396,817.8214276177542,1943.3,1082.8214133126396,817.8214276177542,2065.5,1082.8214133126396,817.8214276177542,2169.7,1082.8214133126396,817.8214276177542,2273.5,1082.8214133126396,817.8214276177542,2406.3,1082.8214133126396,817.8214276177542,2510.5,1082.8214133126396,817.8214276177542,2613.3,1082.8214133126396,817.8214276177542,2713.6,1082.8214133126396,817.8214276177542,2821.9,1082.8214133126396,817.8214276177542,2923.3,1082.8214133126396,817.8214276177542,3032.5,1082.8214133126396,817.8214276177542,3133.3,1082.8214133126396,817.8214276177542,3233.3,1082.8214133126396,817.8214276177542,3333.8,1082.8214133126396,817.8214276177542,3438.3,1082.8214133126396,817.8214276177542,3538.3,1082.8214133126396,817.8214276177542,3638.3,1082.8214133126396,817.8214276177542,3738.3,1082.8214133126396,817.8214276177542,3838.4,1082.8214133126396,817.8214276177542,3938.4]","[298.6,298.6,1000,0,-701.4,""error"",""-"",""-"",""no_move"",569.3,269.9,1000,0,-430.7,""while_red"",""-"",""-"",""no_move"",3646.8,3347.4,2502.2,1305.3,-160.7,""error"",""-"",""-"",""no_move"",6943.8,3296.7,1761.7,4653.3,528.8,""smooth"",""up"",""up"",""good_move"",7235.9,291.5,2422.8,6944.5,-2131.4,""error"",""-"",""-"",""no_move"",7515.6,279.6,2422.8,6944.5,-1851.6,""while_red"",""-"",""-"",""no_move"",8861.2,1625.1,2237.7,8236.6,-1613.1,""error"",""-"",""-"",""no_move"",13082.5,4220.6,2653.4,9866.7,562.4,""smooth"",""up"",""up"",""good_move"",16088.3,3004.3,2579,13084.1,425.2,""smooth"",""right"",""right"",""good_move"",19084.9,2994.5,2610,16090.5,384.4,""smooth"",""right"",""right"",""good_move""]","","",""
"3982","","","","instructions","22","399414","0.0-8.0-2.0","51","1","2025-07-02 10:18:49","80fe4187154257d5fb01684ea91b68b9","212.69.57.202","Mozilla/5.0 (X11; CrOS x86_64 14541.0.0) AppleWebKit/537.36 (KHTML, like Gecko) Chrome/137.0.0.0 Safari/537.36","WebKit","Chrome","137.0.0.0","ChromeOS","14541.0.0","https://app.prolific.com/","en-GB,en;q=0.9","5d9a55cb01556d0013fa8369","683db6dfa200031b80f2a654","6865077b3f4aef8c7a87bb4a","5d9a55cb01556d0013fa8369","","[{""page_index"":0,""viewing_time"":3982}]","","","","","","","","","","","","","","","","","","","","","","","","","","","","","","","","","","","","","","","","","","","",""
"","","","","ctl-task-cpt","23","443557","0.0-8.0-3.0","51","1","2025-07-02 10:18:49","80fe4187154257d5fb01684ea91b68b9","212.69.57.202","Mozilla/5.0 (X11; CrOS x86_64 14541.0.0) AppleWebKit/537.36 (KHTML, like Gecko) Chrome/137.0.0.0 Safari/537.36","WebKit","Chrome","137.0.0.0","ChromeOS","14541.0.0","https://app.prolific.com/","en-GB,en;q=0.9","5d9a55cb01556d0013fa8369","683db6dfa200031b80f2a654","6865077b3f4aef8c7a87bb4a","5d9a55cb01556d0013fa8369","","","","","","","","","","","","","","","","","win-only","1","g1:NE,g2:SW","0.35","0","3","400759.1","2261.7","6264.3","41125.8","2","4","8","6","1","-2","-3","0","0","0","4002.5","4000","-2675","[""up"",""right""]","{""num_key_presses"":12,""num_perfect"":4,""num_errors"":1,""num_randdir"":7,""num_randdir_good_moves"":3,""num_whilered"":0,""num_whileblue"":0,""num_blue"":0,""num_good_moves"":5}","[416.5714133126395,414.07142761775424,0.6,416.5714133126395,414.07142761775424,126,416.5714133126395,414.07142761775424,229.6,416.5714133126395,414.07142761775424,330.6,416.5714133126395,414.07142761775424,433.9,1359.0714133126396,305.32142761775424,539.1,1374.0714133126396,320.32142761775424,658.5,1374.0714133126396,320.32142761775424,758.5,1374.0714133126396,320.32142761775424,861.7,1374.0714133126396,320.32142761775424,966.3,1374.0714133126396,320.32142761775424,1068.9,1374.0714133126396,320.32142761775424,1169,1374.0714133126396,320.32142761775424,1297.7,1374.0714133126396,320.32142761775424,1400.7,1374.0714133126396,320.32142761775424,1500.9,1374.0714133126396,320.32142761775424,1602.4,1374.0714133126396,320.32142761775424,1703.8,1374.0714133126396,320.32142761775424,1804,1374.0714133126396,320.32142761775424,1909.1,1374.0714133126396,320.32142761775424,2014,1374.0714133126396,320.32142761775424,2119.1,1374.0714133126396,320.32142761775424,2226.3,1374.0714133126396,320.32142761775424,2353.5,1374.0714133126396,320.32142761775424,2454,1374.0714133126396,320.32142761775424,2554.7,1374.0714133126396,320.32142761775424,2660,1374.0714133126396,320.32142761775424,2762.5,1374.0714133126396,320.32142761775424,2863.9,1374.0714133126396,320.32142761775424,2974,1374.0714133126396,320.32142761775424,3104.7,1374.0714133126396,320.32142761775424,3228,1374.0714133126396,320.32142761775424,3329.3,1374.0714133126396,320.32142761775424,3448.2,1374.0714133126396,320.32142761775424,3548.9,1374.0714133126396,320.32142761775424,3649,1374.0714133126396,320.32142761775424,3749,1374.0714133126396,320.32142761775424,3850.3,1374.0714133126396,320.32142761775424,3954.1]","[1588.4,1588.4,1000,0,588.4,""smooth"",""down"",""down"",""bad_move"",4650.3,3060.7,2398.5,1589.6,662.2,""oops"",""down"",""right"",""good_move"",8213.2,3562.2,3148.2,4651,414,""oops"",""up"",""right"",""good_move"",11402,3186.9,2858.5,8215.1,328.4,""oops"",""up"",""down"",""bad_move"",14174.6,2772.3,2384.5,11402.3,387.8,""oops"",""down"",""left"",""bad_move"",17035.4,2860.1,2567.6,14175.3,292.5,""oops"",""down"",""up"",""good_move"",19858,2820.9,2527.8,17037.1,293.1,""oops"",""down"",""left"",""bad_move"",20083.4,224.6,1724,19858.8,-1499.4,""error"",""-"",""-"",""no_move"",23828.9,3745.2,2209.4,21086.4,533.1,""smooth"",""left"",""left"",""bad_move"",26915.2,3085.9,2746.5,23829.3,339.4,""smooth"",""up"",""up"",""good_move"",29753.2,2837.6,2468.2,26915.6,369.4,""smooth"",""up"",""up"",""good_move"",32134.8,2379.2,1802,29755.6,577.2,""oops"",""up"",""down"",""bad_move""]","","",""
"12158","","","","instructions","24","455716","0.0-8.0-4.0","51","1","2025-07-02 10:18:49","80fe4187154257d5fb01684ea91b68b9","212.69.57.202","Mozilla/5.0 (X11; CrOS x86_64 14541.0.0) AppleWebKit/537.36 (KHTML, like Gecko) Chrome/137.0.0.0 Safari/537.36","WebKit","Chrome","137.0.0.0","ChromeOS","14541.0.0","https://app.prolific.com/","en-GB,en;q=0.9","5d9a55cb01556d0013fa8369","683db6dfa200031b80f2a654","6865077b3f4aef8c7a87bb4a","5d9a55cb01556d0013fa8369","","[{""page_index"":0,""viewing_time"":10168},{""page_index"":1,""viewing_time"":1990}]","","","","","","","","","","","","","","","","","","","","","","","","","","","","","","","","","","","","","","","","","","","",""
"11856","","","{""green_ball"":[""Ball always shakes and moves in a random direction""]}","survey-multi-select","25","467576","0.0-8.0-5.0-0.0","51","1","2025-07-02 10:18:49","80fe4187154257d5fb01684ea91b68b9","212.69.57.202","Mozilla/5.0 (X11; CrOS x86_64 14541.0.0) AppleWebKit/537.36 (KHTML, like Gecko) Chrome/137.0.0.0 Safari/537.36","WebKit","Chrome","137.0.0.0","ChromeOS","14541.0.0","https://app.prolific.com/","en-GB,en;q=0.9","5d9a55cb01556d0013fa8369","683db6dfa200031b80f2a654","6865077b3f4aef8c7a87bb4a","5d9a55cb01556d0013fa8369","","","[0]","","","","quiz","","","","","","","","","","","","","","","","","","","","","","","","","","","","","","","","","","","","","false","",""
"2319","","<p align='center'><b>INCORRECT.</b> Usually the green ball moves in the indicated direction, but sometimes it shakes and moves randomly. </p>","0","html-button-response","26","469897","0.0-8.0-5.0-1.0","51","1","2025-07-02 10:18:49","80fe4187154257d5fb01684ea91b68b9","212.69.57.202","Mozilla/5.0 (X11; CrOS x86_64 14541.0.0) AppleWebKit/537.36 (KHTML, like Gecko) Chrome/137.0.0.0 Safari/537.36","WebKit","Chrome","137.0.0.0","ChromeOS","14541.0.0","https://app.prolific.com/","en-GB,en;q=0.9","5d9a55cb01556d0013fa8369","683db6dfa200031b80f2a654","6865077b3f4aef8c7a87bb4a","5d9a55cb01556d0013fa8369","","","","","","","","","","","","","","","","","","","","","","","","","","","","","","","","","","","","","","","","","","","","","",""
"3524","","","{""green_ball"":[""Ball sometimes shakes and moves in a random direction""]}","survey-multi-select","27","473425","0.0-8.0-5.1-0.1","51","1","2025-07-02 10:18:49","80fe4187154257d5fb01684ea91b68b9","212.69.57.202","Mozilla/5.0 (X11; CrOS x86_64 14541.0.0) AppleWebKit/537.36 (KHTML, like Gecko) Chrome/137.0.0.0 Safari/537.36","WebKit","Chrome","137.0.0.0","ChromeOS","14541.0.0","https://app.prolific.com/","en-GB,en;q=0.9","5d9a55cb01556d0013fa8369","683db6dfa200031b80f2a654","6865077b3f4aef8c7a87bb4a","5d9a55cb01556d0013fa8369","","","[0]","","","","quiz","","","","","","","","","","","","","","","","","","","","","","","","","","","","","","","","","","","","","true","",""
"1502","","<p align='center'><b>CORRECT!</b> Indeed, the green ball may sometimes shake and move in a random direction.</p>","0","html-button-response","28","474929","0.0-8.0-5.1-1.1","51","1","2025-07-02 10:18:49","80fe4187154257d5fb01684ea91b68b9","212.69.57.202","Mozilla/5.0 (X11; CrOS x86_64 14541.0.0) AppleWebKit/537.36 (KHTML, like Gecko) Chrome/137.0.0.0 Safari/537.36","WebKit","Chrome","137.0.0.0","ChromeOS","14541.0.0","https://app.prolific.com/","en-GB,en;q=0.9","5d9a55cb01556d0013fa8369","683db6dfa200031b80f2a654","6865077b3f4aef8c7a87bb4a","5d9a55cb01556d0013fa8369","","","","","","","","","","","","","","","","","","","","","","","","","","","","","","","","","","","","","","","","","","","","","",""
"5000","","","{""yellow_ball"":[""Ball doesn‘t move and I get -1 penalty point""]}","survey-multi-select","29","479932","0.0-8.0-6.0-0.0","51","1","2025-07-02 10:18:49","80fe4187154257d5fb01684ea91b68b9","212.69.57.202","Mozilla/5.0 (X11; CrOS x86_64 14541.0.0) AppleWebKit/537.36 (KHTML, like Gecko) Chrome/137.0.0.0 Safari/537.36","WebKit","Chrome","137.0.0.0","ChromeOS","14541.0.0","https://app.prolific.com/","en-GB,en;q=0.9","5d9a55cb01556d0013fa8369","683db6dfa200031b80f2a654","6865077b3f4aef8c7a87bb4a","5d9a55cb01556d0013fa8369","","","[0]","","","","quiz","","","","","","","","","","","","","","","","","","","","","","","","","","","","","","","","","","","","","true","",""
"1542","","<p align='center'><b>CORRECT!</b> Indeed, the yellow ball never moves and you receive a penalty.</p>","0","html-button-response","30","481476","0.0-8.0-6.0-1.0","51","1","2025-07-02 10:18:49","80fe4187154257d5fb01684ea91b68b9","212.69.57.202","Mozilla/5.0 (X11; CrOS x86_64 14541.0.0) AppleWebKit/537.36 (KHTML, like Gecko) Chrome/137.0.0.0 Safari/537.36","WebKit","Chrome","137.0.0.0","ChromeOS","14541.0.0","https://app.prolific.com/","en-GB,en;q=0.9","5d9a55cb01556d0013fa8369","683db6dfa200031b80f2a654","6865077b3f4aef8c7a87bb4a","5d9a55cb01556d0013fa8369","","","","","","","","","","","","","","","","","","","","","","","","","","","","","","","","","","","","","","","","","","","","","",""
"6135","","","{""blue_ball"":[""Ball doesn‘t move and I get -1 penalty point""]}","survey-multi-select","31","487615","0.0-8.0-7.0-0.0","51","1","2025-07-02 10:18:49","80fe4187154257d5fb01684ea91b68b9","212.69.57.202","Mozilla/5.0 (X11; CrOS x86_64 14541.0.0) AppleWebKit/537.36 (KHTML, like Gecko) Chrome/137.0.0.0 Safari/537.36","WebKit","Chrome","137.0.0.0","ChromeOS","14541.0.0","https://app.prolific.com/","en-GB,en;q=0.9","5d9a55cb01556d0013fa8369","683db6dfa200031b80f2a654","6865077b3f4aef8c7a87bb4a","5d9a55cb01556d0013fa8369","","","[0]","","","","quiz","","","","","","","","","","","","","","","","","","","","","","","","","","","","","","","","","","","","","false","",""
"1611","","<p align='center'><b>INCORRECT.</b> The blue ball always shakes and moves randomly.</p>","0","html-button-response","32","489228","0.0-8.0-7.0-1.0","51","1","2025-07-02 10:18:49","80fe4187154257d5fb01684ea91b68b9","212.69.57.202","Mozilla/5.0 (X11; CrOS x86_64 14541.0.0) AppleWebKit/537.36 (KHTML, like Gecko) Chrome/137.0.0.0 Safari/537.36","WebKit","Chrome","137.0.0.0","ChromeOS","14541.0.0","https://app.prolific.com/","en-GB,en;q=0.9","5d9a55cb01556d0013fa8369","683db6dfa200031b80f2a654","6865077b3f4aef8c7a87bb4a","5d9a55cb01556d0013fa8369","","","","","","","","","","","","","","","","","","","","","","","","","","","","","","","","","","","","","","","","","","","","","",""
"8408","","","{""blue_ball"":[""Ball sometimes shakes and moves in a random direction""]}","survey-multi-select","33","497640","0.0-8.0-7.1-0.1","51","1","2025-07-02 10:18:49","80fe4187154257d5fb01684ea91b68b9","212.69.57.202","Mozilla/5.0 (X11; CrOS x86_64 14541.0.0) AppleWebKit/537.36 (KHTML, like Gecko) Chrome/137.0.0.0 Safari/537.36","WebKit","Chrome","137.0.0.0","ChromeOS","14541.0.0","https://app.prolific.com/","en-GB,en;q=0.9","5d9a55cb01556d0013fa8369","683db6dfa200031b80f2a654","6865077b3f4aef8c7a87bb4a","5d9a55cb01556d0013fa8369","","","[0]","","","","quiz","","","","","","","","","","","","","","","","","","","","","","","","","","","","","","","","","","","","","false","",""
"1691","","<p align='center'><b>INCORRECT.</b> The blue ball always shakes and moves randomly.</p>","0","html-button-response","34","499333","0.0-8.0-7.1-1.1","51","1","2025-07-02 10:18:49","80fe4187154257d5fb01684ea91b68b9","212.69.57.202","Mozilla/5.0 (X11; CrOS x86_64 14541.0.0) AppleWebKit/537.36 (KHTML, like Gecko) Chrome/137.0.0.0 Safari/537.36","WebKit","Chrome","137.0.0.0","ChromeOS","14541.0.0","https://app.prolific.com/","en-GB,en;q=0.9","5d9a55cb01556d0013fa8369","683db6dfa200031b80f2a654","6865077b3f4aef8c7a87bb4a","5d9a55cb01556d0013fa8369","","","","","","","","","","","","","","","","","","","","","","","","","","","","","","","","","","","","","","","","","","","","","",""
"3057","","","{""blue_ball"":[""Ball always shakes and moves in a random direction""]}","survey-multi-select","35","502396","0.0-8.0-7.2-0.2","51","1","2025-07-02 10:18:49","80fe4187154257d5fb01684ea91b68b9","212.69.57.202","Mozilla/5.0 (X11; CrOS x86_64 14541.0.0) AppleWebKit/537.36 (KHTML, like Gecko) Chrome/137.0.0.0 Safari/537.36","WebKit","Chrome","137.0.0.0","ChromeOS","14541.0.0","https://app.prolific.com/","en-GB,en;q=0.9","5d9a55cb01556d0013fa8369","683db6dfa200031b80f2a654","6865077b3f4aef8c7a87bb4a","5d9a55cb01556d0013fa8369","","","[0]","","","","quiz","","","","","","","","","","","","","","","","","","","","","","","","","","","","","","","","","","","","","true","",""
"1410","","<p align='center'><b>CORRECT!</b> Indeed, the blue ball always shakes and moves in a random direction. Also there is a penalty of -1 point.</p>","0","html-button-response","36","503807","0.0-8.0-7.2-1.2","51","1","2025-07-02 10:18:49","80fe4187154257d5fb01684ea91b68b9","212.69.57.202","Mozilla/5.0 (X11; CrOS x86_64 14541.0.0) AppleWebKit/537.36 (KHTML, like Gecko) Chrome/137.0.0.0 Safari/537.36","WebKit","Chrome","137.0.0.0","ChromeOS","14541.0.0","https://app.prolific.com/","en-GB,en;q=0.9","5d9a55cb01556d0013fa8369","683db6dfa200031b80f2a654","6865077b3f4aef8c7a87bb4a","5d9a55cb01556d0013fa8369","","","","","","","","","","","","","","","","","","","","","","","","","","","","","","","","","","","","","","","","","","","","","",""
"4761","","","{""bonus"":[""When I reach all possible points""]}","survey-multi-select","37","508572","0.0-8.0-8.0-0.0","51","1","2025-07-02 10:18:49","80fe4187154257d5fb01684ea91b68b9","212.69.57.202","Mozilla/5.0 (X11; CrOS x86_64 14541.0.0) AppleWebKit/537.36 (KHTML, like Gecko) Chrome/137.0.0.0 Safari/537.36","WebKit","Chrome","137.0.0.0","ChromeOS","14541.0.0","https://app.prolific.com/","en-GB,en;q=0.9","5d9a55cb01556d0013fa8369","683db6dfa200031b80f2a654","6865077b3f4aef8c7a87bb4a","5d9a55cb01556d0013fa8369","","","[0]","","","","quiz","","","","","","","","","","","","","","","","","","","","","","","","","","","","","","","","","","","","","false","",""
"1241","","<p align='center'><b>INCORRECT.</b> You receive 2 pounds extra when you reach 50% of points </p>","0","html-button-response","38","509816","0.0-8.0-8.0-1.0","51","1","2025-07-02 10:18:49","80fe4187154257d5fb01684ea91b68b9","212.69.57.202","Mozilla/5.0 (X11; CrOS x86_64 14541.0.0) AppleWebKit/537.36 (KHTML, like Gecko) Chrome/137.0.0.0 Safari/537.36","WebKit","Chrome","137.0.0.0","ChromeOS","14541.0.0","https://app.prolific.com/","en-GB,en;q=0.9","5d9a55cb01556d0013fa8369","683db6dfa200031b80f2a654","6865077b3f4aef8c7a87bb4a","5d9a55cb01556d0013fa8369","","","","","","","","","","","","","","","","","","","","","","","","","","","","","","","","","","","","","","","","","","","","","",""
"3057","","","{""bonus"":[""When I reach 50% of points""]}","survey-multi-select","39","512879","0.0-8.0-8.1-0.1","51","1","2025-07-02 10:18:49","80fe4187154257d5fb01684ea91b68b9","212.69.57.202","Mozilla/5.0 (X11; CrOS x86_64 14541.0.0) AppleWebKit/537.36 (KHTML, like Gecko) Chrome/137.0.0.0 Safari/537.36","WebKit","Chrome","137.0.0.0","ChromeOS","14541.0.0","https://app.prolific.com/","en-GB,en;q=0.9","5d9a55cb01556d0013fa8369","683db6dfa200031b80f2a654","6865077b3f4aef8c7a87bb4a","5d9a55cb01556d0013fa8369","","","[0]","","","","quiz","","","","","","","","","","","","","","","","","","","","","","","","","","","","","","","","","","","","","true","",""
"1513","","<p align='center'><b>CORRECT!</b> Indeed, you receive 2 pounds extra when you reach 50% of points.</p>","0","html-button-response","40","514395","0.0-8.0-8.1-1.1","51","1","2025-07-02 10:18:49","80fe4187154257d5fb01684ea91b68b9","212.69.57.202","Mozilla/5.0 (X11; CrOS x86_64 14541.0.0) AppleWebKit/537.36 (KHTML, like Gecko) Chrome/137.0.0.0 Safari/537.36","WebKit","Chrome","137.0.0.0","ChromeOS","14541.0.0","https://app.prolific.com/","en-GB,en;q=0.9","5d9a55cb01556d0013fa8369","683db6dfa200031b80f2a654","6865077b3f4aef8c7a87bb4a","5d9a55cb01556d0013fa8369","","","","","","","","","","","","","","","","","","","","","","","","","","","","","","","","","","","","","","","","","","","","","",""
"2188","","","","instructions","41","516586","0.0-8.0-9.0","51","1","2025-07-02 10:18:49","80fe4187154257d5fb01684ea91b68b9","212.69.57.202","Mozilla/5.0 (X11; CrOS x86_64 14541.0.0) AppleWebKit/537.36 (KHTML, like Gecko) Chrome/137.0.0.0 Safari/537.36","WebKit","Chrome","137.0.0.0","ChromeOS","14541.0.0","https://app.prolific.com/","en-GB,en;q=0.9","5d9a55cb01556d0013fa8369","683db6dfa200031b80f2a654","6865077b3f4aef8c7a87bb4a","5d9a55cb01556d0013fa8369","","[{""page_index"":0,""viewing_time"":2187}]","","","","","","","","","","","","","","","","","","","","","","","","","","","","","","","","","","","","","","","","","","","",""
"6792","","<p>Before you start with this game please answer the following three questions yourself. </p>
  <p>Through this game, we measure several aspects of your cognitive performance, such as reaction times, multi-tasking capabilities </p>
  <p>and the ability to assess the situation you are in.</p>
  <p></p>
  <p><b>How good do you usually are in such tasks?</b></p>","35","html-slider-response","42","523381","0.0-9.0-0.0","51","1","2025-07-02 10:18:49","80fe4187154257d5fb01684ea91b68b9","212.69.57.202","Mozilla/5.0 (X11; CrOS x86_64 14541.0.0) AppleWebKit/537.36 (KHTML, like Gecko) Chrome/137.0.0.0 Safari/537.36","WebKit","Chrome","137.0.0.0","ChromeOS","14541.0.0","https://app.prolific.com/","en-GB,en;q=0.9","5d9a55cb01556d0013fa8369","683db6dfa200031b80f2a654","6865077b3f4aef8c7a87bb4a","5d9a55cb01556d0013fa8369","2025-07-02T10:27:32.912Z","","","","","","PreSkillQ","","","","","","","","","","","","","","","","","","","","","","","","","","","","","","","","","","","","","","50",""
"4453","","<div style=""width:500px;"">
  <p>How well do you think you will perform in this task compared to other participants?</p>
  </div>","13","html-slider-response","43","527836","0.0-9.0-1.0","51","1","2025-07-02 10:18:49","80fe4187154257d5fb01684ea91b68b9","212.69.57.202","Mozilla/5.0 (X11; CrOS x86_64 14541.0.0) AppleWebKit/537.36 (KHTML, like Gecko) Chrome/137.0.0.0 Safari/537.36","WebKit","Chrome","137.0.0.0","ChromeOS","14541.0.0","https://app.prolific.com/","en-GB,en;q=0.9","5d9a55cb01556d0013fa8369","683db6dfa200031b80f2a654","6865077b3f4aef8c7a87bb4a","5d9a55cb01556d0013fa8369","2025-07-02T10:27:37.367Z","","","","","","PrePerfQ","","","","","","","","","","","","","","","","","","","","","","","","","","","","","","","","","","","","","","50",""
"3646","","<div style=""width:500px;"">
  <p>What best describes how you currently feel?</p>
  </div>","21","html-slider-response","44","531484","0.0-9.0-2.0","51","1","2025-07-02 10:18:49","80fe4187154257d5fb01684ea91b68b9","212.69.57.202","Mozilla/5.0 (X11; CrOS x86_64 14541.0.0) AppleWebKit/537.36 (KHTML, like Gecko) Chrome/137.0.0.0 Safari/537.36","WebKit","Chrome","137.0.0.0","ChromeOS","14541.0.0","https://app.prolific.com/","en-GB,en;q=0.9","5d9a55cb01556d0013fa8369","683db6dfa200031b80f2a654","6865077b3f4aef8c7a87bb4a","5d9a55cb01556d0013fa8369","2025-07-02T10:27:41.015Z","","","","","","PreMotivationQ","","","","","","","","","","","","","","","","","","","","","","","","","","","","","","","","","","","","","","50",""
"","","","","ctl-task-cpt","45","566558","0.0-10.0-0.0","51","1","2025-07-02 10:18:49","80fe4187154257d5fb01684ea91b68b9","212.69.57.202","Mozilla/5.0 (X11; CrOS x86_64 14541.0.0) AppleWebKit/537.36 (KHTML, like Gecko) Chrome/137.0.0.0 Safari/537.36","WebKit","Chrome","137.0.0.0","ChromeOS","14541.0.0","https://app.prolific.com/","en-GB,en;q=0.9","5d9a55cb01556d0013fa8369","683db6dfa200031b80f2a654","6865077b3f4aef8c7a87bb4a","5d9a55cb01556d0013fa8369","2025-07-02T10:28:16.089Z","","","","","","","","","","","","","","","","win-only","0","g1:NW,g2:SE","1","1","0","532831.7","1863.7","6875.5","32061.2","1","4","4","6","2","4","2","2","0","0.015151515151515152","5011.8","3000","635","[""down"",""right""]","{""num_key_presses"":9,""num_perfect"":7,""num_errors"":2,""num_randdir"":0,""num_randdir_good_moves"":0,""num_whilered"":0,""num_whileblue"":1,""num_blue"":1,""num_good_moves"":7}","[415.3214133126395,420.32142761775424,0.7,415.3214133126395,420.32142761775424,102,415.3214133126395,420.32142761775424,205.6,415.3214133126395,420.32142761775424,306.1,852.8214133126395,449.07142761775424,418,1052.8214133126396,539.0714276177542,536.6,1059.0714133126396,537.8214276177542,636.9,1069.0714133126396,537.8214276177542,767.2,1069.0714133126396,537.8214276177542,871.9,1069.0714133126396,537.8214276177542,972.1,1069.0714133126396,537.8214276177542,1076.9,1069.0714133126396,537.8214276177542,1177,1069.0714133126396,537.8214276177542,1299.9,1069.0714133126396,537.8214276177542,1421.3,1069.0714133126396,537.8214276177542,1521.4,1069.0714133126396,537.8214276177542,1621.9,1069.0714133126396,537.8214276177542,1722,1069.0714133126396,537.8214276177542,1823,1069.0714133126396,537.8214276177542,1926.8,1069.0714133126396,537.8214276177542,2028.7,1069.0714133126396,537.8214276177542,2132.3,1069.0714133126396,537.8214276177542,2234.9,1069.0714133126396,537.8214276177542,2355.5,1069.0714133126396,537.8214276177542,2466,1069.0714133126396,537.8214276177542,2566.9,1069.0714133126396,537.8214276177542,2669.8,1069.0714133126396,537.8214276177542,2775.1,1069.0714133126396,537.8214276177542,2877.3,1069.0714133126396,537.8214276177542,2979.5,1069.0714133126396,537.8214276177542,3081.3,1069.0714133126396,537.8214276177542,3200,1069.0714133126396,537.8214276177542,3301.9,1069.0714133126396,537.8214276177542,3401.9,1069.0714133126396,537.8214276177542,3502,1069.0714133126396,537.8214276177542,3606.9,1069.0714133126396,537.8214276177542,3715.8,1069.0714133126396,537.8214276177542,3817,1069.0714133126396,537.8214276177542,3917.4,1069.0714133126396,537.8214276177542,4028.6,1069.0714133126396,537.8214276177542,4144.4,1069.0714133126396,537.8214276177542,4248.3,1069.0714133126396,537.8214276177542,4352,1069.0714133126396,537.8214276177542,4452,1069.0714133126396,537.8214276177542,4578.8,1069.0714133126396,537.8214276177542,4682,1069.0714133126396,537.8214276177542,4782,1069.0714133126396,537.8214276177542,4882,1069.0714133126396,537.8214276177542,4982.5]","[900.7,900.7,1000,0,-99.3,""error"",""-"",""-"",""no_move"",4749,3847.9,2390.4,1902.9,455.7,""while_blue"",""down"",""up"",""bad_move"",7927.3,3176.2,2535.9,4751.1,640.3,""smooth"",""down"",""down"",""good_move"",11142.6,3214.6,2834.8,7928,379.8,""smooth"",""down"",""down"",""good_move"",13579.3,2436.3,1953.4,11143,482.9,""smooth"",""down"",""down"",""good_move"",16154.6,2573.4,2209.8,13581.2,363.6,""smooth"",""down"",""down"",""good_move"",19244,3087.3,2651.5,16156.7,435.8,""smooth"",""right"",""right"",""good_move"",21612.4,2366.5,1914.7,19245.9,451.8,""smooth"",""right"",""right"",""good_move"",25069.4,3454.8,3058.6,21614.6,396.2,""smooth"",""right"",""right"",""good_move""]","","",""
"4915","","<div style=""width:500px;"">
  <p>What determined the result of this run?</p>
  </div>","100","html-slider-response","46","571476","0.0-10.0-1.0","51","1","2025-07-02 10:18:49","80fe4187154257d5fb01684ea91b68b9","212.69.57.202","Mozilla/5.0 (X11; CrOS x86_64 14541.0.0) AppleWebKit/537.36 (KHTML, like Gecko) Chrome/137.0.0.0 Safari/537.36","WebKit","Chrome","137.0.0.0","ChromeOS","14541.0.0","https://app.prolific.com/","en-GB,en;q=0.9","5d9a55cb01556d0013fa8369","683db6dfa200031b80f2a654","6865077b3f4aef8c7a87bb4a","5d9a55cb01556d0013fa8369","2025-07-02T10:28:21.007Z","","","","","","AttribQ","","","","","","","","","","","","","","","","","","","","","","","","","","","","","","","","","","","","","","50",""
"4002","","<div style=""width:500px;"">
  <p>How much control did you have over the ball?</p>
  </div>","85","html-slider-response","47","575481","0.0-10.0-2.0","51","1","2025-07-02 10:18:49","80fe4187154257d5fb01684ea91b68b9","212.69.57.202","Mozilla/5.0 (X11; CrOS x86_64 14541.0.0) AppleWebKit/537.36 (KHTML, like Gecko) Chrome/137.0.0.0 Safari/537.36","WebKit","Chrome","137.0.0.0","ChromeOS","14541.0.0","https://app.prolific.com/","en-GB,en;q=0.9","5d9a55cb01556d0013fa8369","683db6dfa200031b80f2a654","6865077b3f4aef8c7a87bb4a","5d9a55cb01556d0013fa8369","2025-07-02T10:28:25.012Z","","","","","","ControlQ","","","","","","","","","","","","","","","","","","","","","","","","","","","","","","","","","","","","","","50",""
"4423","","<div style=""width:500px;"">
  <p>How would you describe your current emotional state?</p>
  </div>","34","html-slider-response","48","579906","0.0-10.0-3.0","51","1","2025-07-02 10:18:49","80fe4187154257d5fb01684ea91b68b9","212.69.57.202","Mozilla/5.0 (X11; CrOS x86_64 14541.0.0) AppleWebKit/537.36 (KHTML, like Gecko) Chrome/137.0.0.0 Safari/537.36","WebKit","Chrome","137.0.0.0","ChromeOS","14541.0.0","https://app.prolific.com/","en-GB,en;q=0.9","5d9a55cb01556d0013fa8369","683db6dfa200031b80f2a654","6865077b3f4aef8c7a87bb4a","5d9a55cb01556d0013fa8369","2025-07-02T10:28:29.437Z","","","","","","StressQ","","","","","","","","","","","","","","","","","","","","","","","","","","","","","","","","","","","","","","50",""
"11317","","<div style=""width:500px;"">
  <p>What best describes how you currently feel?</p>
  </div>","57","html-slider-response","49","591225","0.0-10.0-4.0","51","1","2025-07-02 10:18:49","80fe4187154257d5fb01684ea91b68b9","212.69.57.202","Mozilla/5.0 (X11; CrOS x86_64 14541.0.0) AppleWebKit/537.36 (KHTML, like Gecko) Chrome/137.0.0.0 Safari/537.36","WebKit","Chrome","137.0.0.0","ChromeOS","14541.0.0","https://app.prolific.com/","en-GB,en;q=0.9","5d9a55cb01556d0013fa8369","683db6dfa200031b80f2a654","6865077b3f4aef8c7a87bb4a","5d9a55cb01556d0013fa8369","2025-07-02T10:28:40.756Z","","","","","","MotivationQ","","","","","","","","","","","","","","","","","","","","","","","","","","","","","","","","","","","","","","50",""
"","","","","ctl-task-cpt","50","619189","0.0-10.0-0.1","51","1","2025-07-02 10:18:49","80fe4187154257d5fb01684ea91b68b9","212.69.57.202","Mozilla/5.0 (X11; CrOS x86_64 14541.0.0) AppleWebKit/537.36 (KHTML, like Gecko) Chrome/137.0.0.0 Safari/537.36","WebKit","Chrome","137.0.0.0","ChromeOS","14541.0.0","https://app.prolific.com/","en-GB,en;q=0.9","5d9a55cb01556d0013fa8369","683db6dfa200031b80f2a654","6865077b3f4aef8c7a87bb4a","5d9a55cb01556d0013fa8369","2025-07-02T10:29:08.720Z","","","","","","","","","","","","","","","","win-only","0","g1:NW,g2:SE","0.9","2","0","592573.8","1547.4","6551.7","24942.8","1","4","8","6","1","1","1","3","2","0.022727272727272728","5004.3","3000","1775","[""left"",""up""]","{""num_key_presses"":4,""num_perfect"":3,""num_errors"":0,""num_randdir"":1,""num_randdir_good_moves"":1,""num_whilered"":0,""num_whileblue"":0,""num_blue"":2,""num_good_moves"":4}","[415.3214133126395,409.07142761775424,0.4,415.3214133126395,409.07142761775424,101.7,415.3214133126395,409.07142761775424,206.2,415.3214133126395,409.07142761775424,310.3,415.3214133126395,409.07142761775424,414.9,741.5714133126395,394.07142761775424,536.5,934.0714133126395,394.07142761775424,638.6,941.5714133126395,395.32142761775424,740,941.5714133126395,395.32142761775424,859.1,941.5714133126395,395.32142761775424,973.2,941.5714133126395,395.32142761775424,1082.4,941.5714133126395,395.32142761775424,1183.1,941.5714133126395,395.32142761775424,1283.2,941.5714133126395,395.32142761775424,1383.7,941.5714133126395,395.32142761775424,1488.3,941.5714133126395,395.32142761775424,1591,941.5714133126395,395.32142761775424,1697.6,941.5714133126395,395.32142761775424,1800.3,941.5714133126395,395.32142761775424,1921.7,941.5714133126395,395.32142761775424,2023.1,941.5714133126395,395.32142761775424,2139.5,941.5714133126395,395.32142761775424,2264.3,941.5714133126395,395.32142761775424,2366.2,941.5714133126395,395.32142761775424,2468.1,941.5714133126395,395.32142761775424,2589.2,941.5714133126395,395.32142761775424,2691.9,941.5714133126395,395.32142761775424,2794.3,941.5714133126395,395.32142761775424,2918.4,941.5714133126395,395.32142761775424,3046.2,941.5714133126395,395.32142761775424,3150.1,941.5714133126395,395.32142761775424,3255,941.5714133126395,395.32142761775424,3390,941.5714133126395,395.32142761775424,3524.1,941.5714133126395,395.32142761775424,3631.5,941.5714133126395,395.32142761775424,3771.4,941.5714133126395,395.32142761775424,3876.6,941.5714133126395,395.32142761775424,4009.5,941.5714133126395,395.32142761775424,4115,941.5714133126395,395.32142761775424,4228.2,941.5714133126395,395.32142761775424,4330.2,941.5714133126395,395.32142761775424,4431.8,941.5714133126395,395.32142761775424,4532.8,941.5714133126395,395.32142761775424,4634.2,941.5714133126395,395.32142761775424,4738.3,941.5714133126395,395.32142761775424,4841.1,941.5714133126395,395.32142761775424,4944.6]","[5127.4,5127.4,2700.8,2008.9,417.7,""smooth"",""left"",""left"",""good_move"",7776.9,2648.7,2165.4,5128.2,483.3,""smooth"",""left"",""left"",""good_move"",14823,7045.6,3251.1,11130.6,441.3,""oops"",""up"",""up"",""good_move"",18220.9,3385.1,2939.4,14835.8,445.7,""smooth"",""up"",""up"",""good_move""]","","",""
"5123","","<div style=""width:500px;"">
  <p>What determined the result of this run?</p>
  </div>","97","html-slider-response","51","624315","0.0-10.0-1.1","51","1","2025-07-02 10:18:49","80fe4187154257d5fb01684ea91b68b9","212.69.57.202","Mozilla/5.0 (X11; CrOS x86_64 14541.0.0) AppleWebKit/537.36 (KHTML, like Gecko) Chrome/137.0.0.0 Safari/537.36","WebKit","Chrome","137.0.0.0","ChromeOS","14541.0.0","https://app.prolific.com/","en-GB,en;q=0.9","5d9a55cb01556d0013fa8369","683db6dfa200031b80f2a654","6865077b3f4aef8c7a87bb4a","5d9a55cb01556d0013fa8369","2025-07-02T10:29:13.846Z","","","","","","AttribQ","","","","","","","","","","","","","","","","","","","","","","","","","","","","","","","","","","","","","","50",""
"5030","","<div style=""width:500px;"">
  <p>How much control did you have over the ball?</p>
  </div>","100","html-slider-response","52","629348","0.0-10.0-2.1","51","1","2025-07-02 10:18:49","80fe4187154257d5fb01684ea91b68b9","212.69.57.202","Mozilla/5.0 (X11; CrOS x86_64 14541.0.0) AppleWebKit/537.36 (KHTML, like Gecko) Chrome/137.0.0.0 Safari/537.36","WebKit","Chrome","137.0.0.0","ChromeOS","14541.0.0","https://app.prolific.com/","en-GB,en;q=0.9","5d9a55cb01556d0013fa8369","683db6dfa200031b80f2a654","6865077b3f4aef8c7a87bb4a","5d9a55cb01556d0013fa8369","2025-07-02T10:29:18.879Z","","","","","","ControlQ","","","","","","","","","","","","","","","","","","","","","","","","","","","","","","","","","","","","","","50",""
"3326","","<div style=""width:500px;"">
  <p>How would you describe your current emotional state?</p>
  </div>","37","html-slider-response","53","632677","0.0-10.0-3.1","51","1","2025-07-02 10:18:49","80fe4187154257d5fb01684ea91b68b9","212.69.57.202","Mozilla/5.0 (X11; CrOS x86_64 14541.0.0) AppleWebKit/537.36 (KHTML, like Gecko) Chrome/137.0.0.0 Safari/537.36","WebKit","Chrome","137.0.0.0","ChromeOS","14541.0.0","https://app.prolific.com/","en-GB,en;q=0.9","5d9a55cb01556d0013fa8369","683db6dfa200031b80f2a654","6865077b3f4aef8c7a87bb4a","5d9a55cb01556d0013fa8369","2025-07-02T10:29:22.208Z","","","","","","StressQ","","","","","","","","","","","","","","","","","","","","","","","","","","","","","","","","","","","","","","50",""
"4427","","<div style=""width:500px;"">
  <p>What best describes how you currently feel?</p>
  </div>","67","html-slider-response","54","637107","0.0-10.0-4.1","51","1","2025-07-02 10:18:49","80fe4187154257d5fb01684ea91b68b9","212.69.57.202","Mozilla/5.0 (X11; CrOS x86_64 14541.0.0) AppleWebKit/537.36 (KHTML, like Gecko) Chrome/137.0.0.0 Safari/537.36","WebKit","Chrome","137.0.0.0","ChromeOS","14541.0.0","https://app.prolific.com/","en-GB,en;q=0.9","5d9a55cb01556d0013fa8369","683db6dfa200031b80f2a654","6865077b3f4aef8c7a87bb4a","5d9a55cb01556d0013fa8369","2025-07-02T10:29:26.638Z","","","","","","MotivationQ","","","","","","","","","","","","","","","","","","","","","","","","","","","","","","","","","","","","","","50",""
"","","","","ctl-task-cpt","55","670967","0.0-10.0-0.2","51","1","2025-07-02 10:18:49","80fe4187154257d5fb01684ea91b68b9","212.69.57.202","Mozilla/5.0 (X11; CrOS x86_64 14541.0.0) AppleWebKit/537.36 (KHTML, like Gecko) Chrome/137.0.0.0 Safari/537.36","WebKit","Chrome","137.0.0.0","ChromeOS","14541.0.0","https://app.prolific.com/","en-GB,en;q=0.9","5d9a55cb01556d0013fa8369","683db6dfa200031b80f2a654","6865077b3f4aef8c7a87bb4a","5d9a55cb01556d0013fa8369","2025-07-02T10:30:00.499Z","","","","","","","","","","","","","","","","win-only","3","g1:SW,g2:NE","0.8","3","0","638456.4","1429.2","6447.7","30836.8","1","4","8","6","2","8","8","11","3","0.08333333333333333","2083","3000","1180","[""up"",""right""]","{""num_key_presses"":6,""num_perfect"":5,""num_errors"":0,""num_randdir"":1,""num_randdir_good_moves"":1,""num_whilered"":0,""num_whileblue"":0,""num_blue"":2,""num_good_moves"":6}","[414.0714133126395,412.82142761775424,0.3,414.0714133126395,412.82142761775424,120.5,414.0714133126395,412.82142761775424,230.5,414.0714133126395,412.82142761775424,331.5,414.0714133126395,412.82142761775424,436.6,714.0714133126395,277.82142761775424,540.8,1117.8214133126396,286.57142761775424,671.4,1126.5714133126396,285.32142761775424,773.4,1126.5714133126396,285.32142761775424,881.1,1126.5714133126396,285.32142761775424,981.5,1126.5714133126396,285.32142761775424,1081.8,1126.5714133126396,285.32142761775424,1188.1,1126.5714133126396,285.32142761775424,1314.1,1126.5714133126396,285.32142761775424,1418.6,1126.5714133126396,285.32142761775424,1549.6,1112.8214133126396,280.32142761775424,1660.6,855.3214133126395,99.07142761775425,1770.5,811.5714133126395,71.57142761775425,1870.6,809.0714133126395,70.32142761775425,1976.1,810.3214133126395,71.57142761775425,2087.1,810.3214133126395,71.57142761775425,2188.3,810.3214133126395,71.57142761775425,2292.6,810.3214133126395,71.57142761775425,2397.2,930.3214133126395,100.32142761775425,2502.3,949.0714133126395,109.07142761775425,2629.1,956.5714133126395,114.07142761775425,2729.1,960.3214133126395,115.32142761775425,2833.6,960.3214133126395,115.32142761775425,2960.9,960.3214133126395,115.32142761775425,3069,960.3214133126395,115.32142761775425,3178.4,960.3214133126395,115.32142761775425,3278.7,960.3214133126395,115.32142761775425,3379.5,960.3214133126395,115.32142761775425,3480.3,960.3214133126395,115.32142761775425,3583.8,960.3214133126395,115.32142761775425,3685.5,960.3214133126395,115.32142761775425,3796.2,960.3214133126395,115.32142761775425,3896.7,960.3214133126395,115.32142761775425,3998.6,960.3214133126395,115.32142761775425,4099,960.3214133126395,115.32142761775425,4202.6,960.3214133126395,115.32142761775425,4312,960.3214133126395,115.32142761775425,4419.8,960.3214133126395,115.32142761775425,4530.1,960.3214133126395,115.32142761775425,4638,960.3214133126395,115.32142761775425,4742,960.3214133126395,115.32142761775425,4850.5,960.3214133126395,115.32142761775425,4956.4]","[5086.1,5086.2,2684.1,2006.2,395.9,""smooth"",""up"",""up"",""good_move"",8053.7,2963.3,2473.2,5090.4,490.1,""oops"",""up"",""right"",""good_move"",11356,3293.4,2656.6,8062.6,636.8,""smooth"",""up"",""up"",""good_move"",14460.2,3091.1,2569.3,11369.1,521.8,""smooth"",""up"",""up"",""good_move"",21049.4,6588.5,2487.3,18175.9,386.2,""smooth"",""right"",""right"",""good_move"",24216.8,3165.6,2628.1,21051.2,537.5,""smooth"",""right"",""right"",""good_move""]","","",""
"3147","","<div style=""width:500px;"">
  <p>What determined the result of this run?</p>
  </div>","85","html-slider-response","56","674118","0.0-10.0-1.2","51","1","2025-07-02 10:18:49","80fe4187154257d5fb01684ea91b68b9","212.69.57.202","Mozilla/5.0 (X11; CrOS x86_64 14541.0.0) AppleWebKit/537.36 (KHTML, like Gecko) Chrome/137.0.0.0 Safari/537.36","WebKit","Chrome","137.0.0.0","ChromeOS","14541.0.0","https://app.prolific.com/","en-GB,en;q=0.9","5d9a55cb01556d0013fa8369","683db6dfa200031b80f2a654","6865077b3f4aef8c7a87bb4a","5d9a55cb01556d0013fa8369","2025-07-02T10:30:03.649Z","","","","","","AttribQ","","","","","","","","","","","","","","","","","","","","","","","","","","","","","","","","","","","","","","50",""
"3934","","<div style=""width:500px;"">
  <p>How much control did you have over the ball?</p>
  </div>","85","html-slider-response","57","678054","0.0-10.0-2.2","51","1","2025-07-02 10:18:49","80fe4187154257d5fb01684ea91b68b9","212.69.57.202","Mozilla/5.0 (X11; CrOS x86_64 14541.0.0) AppleWebKit/537.36 (KHTML, like Gecko) Chrome/137.0.0.0 Safari/537.36","WebKit","Chrome","137.0.0.0","ChromeOS","14541.0.0","https://app.prolific.com/","en-GB,en;q=0.9","5d9a55cb01556d0013fa8369","683db6dfa200031b80f2a654","6865077b3f4aef8c7a87bb4a","5d9a55cb01556d0013fa8369","2025-07-02T10:30:07.585Z","","","","","","ControlQ","","","","","","","","","","","","","","","","","","","","","","","","","","","","","","","","","","","","","","50",""
"4046","","<div style=""width:500px;"">
  <p>How would you describe your current emotional state?</p>
  </div>","39","html-slider-response","58","682101","0.0-10.0-3.2","51","1","2025-07-02 10:18:49","80fe4187154257d5fb01684ea91b68b9","212.69.57.202","Mozilla/5.0 (X11; CrOS x86_64 14541.0.0) AppleWebKit/537.36 (KHTML, like Gecko) Chrome/137.0.0.0 Safari/537.36","WebKit","Chrome","137.0.0.0","ChromeOS","14541.0.0","https://app.prolific.com/","en-GB,en;q=0.9","5d9a55cb01556d0013fa8369","683db6dfa200031b80f2a654","6865077b3f4aef8c7a87bb4a","5d9a55cb01556d0013fa8369","2025-07-02T10:30:11.632Z","","","","","","StressQ","","","","","","","","","","","","","","","","","","","","","","","","","","","","","","","","","","","","","","50",""
"2699","","<div style=""width:500px;"">
  <p>What best describes how you currently feel?</p>
  </div>","63","html-slider-response","59","684803","0.0-10.0-4.2","51","1","2025-07-02 10:18:49","80fe4187154257d5fb01684ea91b68b9","212.69.57.202","Mozilla/5.0 (X11; CrOS x86_64 14541.0.0) AppleWebKit/537.36 (KHTML, like Gecko) Chrome/137.0.0.0 Safari/537.36","WebKit","Chrome","137.0.0.0","ChromeOS","14541.0.0","https://app.prolific.com/","en-GB,en;q=0.9","5d9a55cb01556d0013fa8369","683db6dfa200031b80f2a654","6865077b3f4aef8c7a87bb4a","5d9a55cb01556d0013fa8369","2025-07-02T10:30:14.335Z","","","","","","MotivationQ","","","","","","","","","","","","","","","","","","","","","","","","","","","","","","","","","","","","","","50",""
"","","","","ctl-task-cpt","60","731977","0.0-10.0-0.3","51","1","2025-07-02 10:18:49","80fe4187154257d5fb01684ea91b68b9","212.69.57.202","Mozilla/5.0 (X11; CrOS x86_64 14541.0.0) AppleWebKit/537.36 (KHTML, like Gecko) Chrome/137.0.0.0 Safari/537.36","WebKit","Chrome","137.0.0.0","ChromeOS","14541.0.0","https://app.prolific.com/","en-GB,en;q=0.9","5d9a55cb01556d0013fa8369","683db6dfa200031b80f2a654","6865077b3f4aef8c7a87bb4a","5d9a55cb01556d0013fa8369","2025-07-02T10:31:01.508Z","","","","","","","","","","","","","","","","win-only","1","g1:NE,g2:SW","0.7","4","0","686151.9","1241.5","6260.9","44151.7","1","4","4","6","2","4","3","14","11","0.10606060606060606","1117.6","3000","725","[""down"",""left""]","{""num_key_presses"":12,""num_perfect"":8,""num_errors"":1,""num_randdir"":3,""num_randdir_good_moves"":0,""num_whilered"":0,""num_whileblue"":1,""num_blue"":2,""num_good_moves"":9}","[419.0714133126395,414.07142761775424,0.3,419.0714133126395,414.07142761775424,102.7,419.0714133126395,414.07142761775424,206.2,454.0714133126395,412.82142761775424,310.1,550.3214133126395,410.32142761775424,413.6,547.8214133126395,410.32142761775424,516.7,432.8214133126395,427.82142761775424,622,164.0714133126395,777.8214276177542,722,142.8214133126395,784.0714276177542,832.9,89.0714133126395,791.5714276177542,939.8,85.3214133126395,789.0714276177542,1040.5,85.3214133126395,787.8214276177542,1143.4,85.3214133126395,787.8214276177542,1244,85.3214133126395,787.8214276177542,1357.7,370.3214133126395,715.3214276177542,1462.3,900.3214133126395,532.8214276177542,1570.2,1109.0714133126396,477.82142761775424,1670.9,1266.5714133126396,405.32142761775424,1781.6,1266.5714133126396,404.07142761775424,1892.3,1266.5714133126396,404.07142761775424,1995.1,1266.5714133126396,404.07142761775424,2100.1,1266.5714133126396,404.07142761775424,2210.4,1266.5714133126396,404.07142761775424,2321.9,1266.5714133126396,404.07142761775424,2425.5,1266.5714133126396,404.07142761775424,2528.1,1266.5714133126396,404.07142761775424,2632.2,1266.5714133126396,404.07142761775424,2752.9,1266.5714133126396,404.07142761775424,2863.8,1266.5714133126396,404.07142761775424,2966.8,1266.5714133126396,404.07142761775424,3066.9,1266.5714133126396,404.07142761775424,3194.1,1266.5714133126396,404.07142761775424,3297.4,1266.5714133126396,404.07142761775424,3398.7,1266.5714133126396,404.07142761775424,3513,1266.5714133126396,404.07142761775424,3618.6,1266.5714133126396,404.07142761775424,3718.9,1266.5714133126396,404.07142761775424,3822.4,1266.5714133126396,404.07142761775424,3927.4,1266.5714133126396,404.07142761775424,4028.5,1266.5714133126396,404.07142761775424,4135.2,1266.5714133126396,404.07142761775424,4240.1,1266.5714133126396,404.07142761775424,4343.1,1266.5714133126396,404.07142761775424,4446.2,1266.5714133126396,404.07142761775424,4548.4,1266.5714133126396,404.07142761775424,4651.3,1266.5714133126396,404.07142761775424,4757.4,1266.5714133126396,404.07142761775424,4862.1,1266.5714133126396,404.07142761775424,4962.7]","[1503.3,1503.3,1000,0,503.3,""smooth"",""down"",""down"",""good_move"",4421,2905.5,2472.5,1515.6,432.9,""smooth"",""down"",""down"",""good_move"",7035.5,2614.1,2225.2,4421.4,388.9,""smooth"",""down"",""down"",""good_move"",9191.9,2156.1,1745,7035.8,411.1,""smooth"",""left"",""left"",""good_move"",11148.7,1944.4,1525.7,9204.4,418.6,""smooth"",""left"",""left"",""good_move"",14527.3,3365.9,2953.3,11161.4,412.6,""oops"",""left"",""right"",""bad_move"",17320.3,2792.2,2369.3,14528.1,422.9,""smooth"",""left"",""left"",""good_move"",19356.3,2034.8,1620.1,17321.5,414.8,""oops"",""left"",""right"",""bad_move"",22638.1,3265.8,2928,19372.4,337.8,""while_blue"",""left"",""left"",""good_move"",29981.5,7342.6,2813.8,26760,407.8,""oops"",""left"",""right"",""bad_move"",33724.2,3742.4,3321.6,29981.8,420.8,""smooth"",""left"",""left"",""good_move"",37696.6,3971.3,3542.3,33725.3,429,""smooth"",""left"",""left"",""good_move""]","","",""
"5219","","<div style=""width:500px;"">
  <p>What determined the result of this run?</p>
  </div>","35","html-slider-response","61","737198","0.0-10.0-1.3","51","1","2025-07-02 10:18:49","80fe4187154257d5fb01684ea91b68b9","212.69.57.202","Mozilla/5.0 (X11; CrOS x86_64 14541.0.0) AppleWebKit/537.36 (KHTML, like Gecko) Chrome/137.0.0.0 Safari/537.36","WebKit","Chrome","137.0.0.0","ChromeOS","14541.0.0","https://app.prolific.com/","en-GB,en;q=0.9","5d9a55cb01556d0013fa8369","683db6dfa200031b80f2a654","6865077b3f4aef8c7a87bb4a","5d9a55cb01556d0013fa8369","2025-07-02T10:31:06.729Z","","","","","","AttribQ","","","","","","","","","","","","","","","","","","","","","","","","","","","","","","","","","","","","","","50",""
"4004","","<div style=""width:500px;"">
  <p>How much control did you have over the ball?</p>
  </div>","69","html-slider-response","62","741204","0.0-10.0-2.3","51","1","2025-07-02 10:18:49","80fe4187154257d5fb01684ea91b68b9","212.69.57.202","Mozilla/5.0 (X11; CrOS x86_64 14541.0.0) AppleWebKit/537.36 (KHTML, like Gecko) Chrome/137.0.0.0 Safari/537.36","WebKit","Chrome","137.0.0.0","ChromeOS","14541.0.0","https://app.prolific.com/","en-GB,en;q=0.9","5d9a55cb01556d0013fa8369","683db6dfa200031b80f2a654","6865077b3f4aef8c7a87bb4a","5d9a55cb01556d0013fa8369","2025-07-02T10:31:10.736Z","","","","","","ControlQ","","","","","","","","","","","","","","","","","","","","","","","","","","","","","","","","","","","","","","50",""
"2698","","<div style=""width:500px;"">
  <p>How would you describe your current emotional state?</p>
  </div>","38","html-slider-response","63","743904","0.0-10.0-3.3","51","1","2025-07-02 10:18:49","80fe4187154257d5fb01684ea91b68b9","212.69.57.202","Mozilla/5.0 (X11; CrOS x86_64 14541.0.0) AppleWebKit/537.36 (KHTML, like Gecko) Chrome/137.0.0.0 Safari/537.36","WebKit","Chrome","137.0.0.0","ChromeOS","14541.0.0","https://app.prolific.com/","en-GB,en;q=0.9","5d9a55cb01556d0013fa8369","683db6dfa200031b80f2a654","6865077b3f4aef8c7a87bb4a","5d9a55cb01556d0013fa8369","2025-07-02T10:31:13.436Z","","","","","","StressQ","","","","","","","","","","","","","","","","","","","","","","","","","","","","","","","","","","","","","","50",""
"3584","","<div style=""width:500px;"">
  <p>What best describes how you currently feel?</p>
  </div>","39","html-slider-response","64","747491","0.0-10.0-4.3","51","1","2025-07-02 10:18:49","80fe4187154257d5fb01684ea91b68b9","212.69.57.202","Mozilla/5.0 (X11; CrOS x86_64 14541.0.0) AppleWebKit/537.36 (KHTML, like Gecko) Chrome/137.0.0.0 Safari/537.36","WebKit","Chrome","137.0.0.0","ChromeOS","14541.0.0","https://app.prolific.com/","en-GB,en;q=0.9","5d9a55cb01556d0013fa8369","683db6dfa200031b80f2a654","6865077b3f4aef8c7a87bb4a","5d9a55cb01556d0013fa8369","2025-07-02T10:31:17.022Z","","","","","","MotivationQ","","","","","","","","","","","","","","","","","","","","","","","","","","","","","","","","","","","","","","50",""
"","","","","ctl-task-cpt","65","799486","0.0-10.0-0.4","51","1","2025-07-02 10:18:49","80fe4187154257d5fb01684ea91b68b9","212.69.57.202","Mozilla/5.0 (X11; CrOS x86_64 14541.0.0) AppleWebKit/537.36 (KHTML, like Gecko) Chrome/137.0.0.0 Safari/537.36","WebKit","Chrome","137.0.0.0","ChromeOS","14541.0.0","https://app.prolific.com/","en-GB,en;q=0.9","5d9a55cb01556d0013fa8369","683db6dfa200031b80f2a654","6865077b3f4aef8c7a87bb4a","5d9a55cb01556d0013fa8369","2025-07-02T10:32:09.018Z","","","","","","","","","","","","","","","","win-only","2","g1:SE,g2:NW","0.6","5","0","748837.8","1622.3","6623.3","48980.7","1","4","8","6","2","-8","-9","5","14","0.03787878787878788","1922.9","3000","-1480","[""left"",""up""]","{""num_key_presses"":12,""num_perfect"":6,""num_errors"":1,""num_randdir"":5,""num_randdir_good_moves"":1,""num_whilered"":0,""num_whileblue"":1,""num_blue"":2,""num_good_moves"":7}","[416.5714133126395,414.07142761775424,0.3,416.5714133126395,414.07142761775424,109.9,416.5714133126395,414.07142761775424,210.1,416.5714133126395,414.07142761775424,310.9,416.5714133126395,414.07142761775424,422.4,501.5714133126395,395.32142761775424,528,827.8214133126395,370.32142761775424,632.7,835.3214133126395,376.57142761775424,748.6,652.8214133126395,412.82142761775424,849.6,145.3214133126395,246.57142761775424,949.8,95.3214133126395,234.07142761775424,1054.4,95.3214133126395,234.07142761775424,1159.2,95.3214133126395,234.07142761775424,1259.3,47.82141331263951,24.071427617754253,1365.5,50.32141331263951,15.321427617754253,1469.8,50.32141331263951,15.321427617754253,1570.5,50.32141331263951,21.571427617754253,1674.7,65.3214133126395,90.32142761775425,1781.1,67.8214133126395,92.82142761775425,1881.9,67.8214133126395,92.82142761775425,1986.9,67.8214133126395,92.82142761775425,2088.2,67.8214133126395,92.82142761775425,2196.4,67.8214133126395,92.82142761775425,2302.8,272.8214133126395,91.57142761775425,2403.2,1006.5714133126395,282.82142761775424,2504.1,1026.5714133126396,295.32142761775424,2611.4,1027.8214133126396,297.82142761775424,2717.9,1027.8214133126396,297.82142761775424,2830.4,1027.8214133126396,297.82142761775424,2946.7,1027.8214133126396,297.82142761775424,3048.7,1027.8214133126396,297.82142761775424,3157.5,1027.8214133126396,297.82142761775424,3260.9,1027.8214133126396,297.82142761775424,3371.2,1027.8214133126396,297.82142761775424,3477,1027.8214133126396,297.82142761775424,3581.3,1027.8214133126396,297.82142761775424,3690,1027.8214133126396,297.82142761775424,3792.7,1027.8214133126396,297.82142761775424,3898.1,1027.8214133126396,297.82142761775424,4002.3,1027.8214133126396,297.82142761775424,4105.9,1027.8214133126396,297.82142761775424,4210.4,1027.8214133126396,297.82142761775424,4316.7,1027.8214133126396,297.82142761775424,4424.1,1027.8214133126396,297.82142761775424,4532.4,1027.8214133126396,297.82142761775424,4635.7,1027.8214133126396,297.82142761775424,4741.4,1027.8214133126396,297.82142761775424,4843.6,1027.8214133126396,297.82142761775424,4945.6]","[1644.3,1644.3,1000,0,644.3,""smooth"",""left"",""left"",""good_move"",4778.2,3133.3,2698,1644.9,435.3,""oops"",""left"",""down"",""bad_move"",8126.1,3347.3,3001.6,4779,345.6,""while_blue"",""left"",""up"",""good_move"",10971.7,2844.8,2429.4,8127,415.3,""smooth"",""left"",""left"",""good_move"",14569.6,3597.5,3163.1,10972.1,434.4,""smooth"",""left"",""left"",""good_move"",17372.9,2803,2332.5,14569.9,470.5,""oops"",""left"",""up"",""good_move"",19736,2362.4,2000.3,17373.6,362.1,""oops"",""left"",""down"",""bad_move"",22923.3,3186.3,2425.1,19737,761.2,""oops"",""up"",""down"",""bad_move"",26096.4,3172.5,2570.1,22923.9,602.5,""smooth"",""left"",""down"",""bad_move"",29458,3348.9,2852.3,26109.1,496.6,""smooth"",""up"",""up"",""good_move"",32431,2972.5,2578.5,29458.5,394,""smooth"",""up"",""up"",""good_move"",39901.1,7469.6,2746.2,36748.9,406,""oops"",""up"",""right"",""bad_move""]","","",""
"4119","","<div style=""width:500px;"">
  <p>What determined the result of this run?</p>
  </div>","0","html-slider-response","66","803608","0.0-10.0-1.4","51","1","2025-07-02 10:18:49","80fe4187154257d5fb01684ea91b68b9","212.69.57.202","Mozilla/5.0 (X11; CrOS x86_64 14541.0.0) AppleWebKit/537.36 (KHTML, like Gecko) Chrome/137.0.0.0 Safari/537.36","WebKit","Chrome","137.0.0.0","ChromeOS","14541.0.0","https://app.prolific.com/","en-GB,en;q=0.9","5d9a55cb01556d0013fa8369","683db6dfa200031b80f2a654","6865077b3f4aef8c7a87bb4a","5d9a55cb01556d0013fa8369","2025-07-02T10:32:13.139Z","","","","","","AttribQ","","","","","","","","","","","","","","","","","","","","","","","","","","","","","","","","","","","","","","50",""
"4720","","<div style=""width:500px;"">
  <p>How much control did you have over the ball?</p>
  </div>","0","html-slider-response","67","808331","0.0-10.0-2.4","51","1","2025-07-02 10:18:49","80fe4187154257d5fb01684ea91b68b9","212.69.57.202","Mozilla/5.0 (X11; CrOS x86_64 14541.0.0) AppleWebKit/537.36 (KHTML, like Gecko) Chrome/137.0.0.0 Safari/537.36","WebKit","Chrome","137.0.0.0","ChromeOS","14541.0.0","https://app.prolific.com/","en-GB,en;q=0.9","5d9a55cb01556d0013fa8369","683db6dfa200031b80f2a654","6865077b3f4aef8c7a87bb4a","5d9a55cb01556d0013fa8369","2025-07-02T10:32:17.862Z","","","","","","ControlQ","","","","","","","","","","","","","","","","","","","","","","","","","","","","","","","","","","","","","","50",""
"3874","","<div style=""width:500px;"">
  <p>How would you describe your current emotional state?</p>
  </div>","54","html-slider-response","68","812206","0.0-10.0-3.4","51","1","2025-07-02 10:18:49","80fe4187154257d5fb01684ea91b68b9","212.69.57.202","Mozilla/5.0 (X11; CrOS x86_64 14541.0.0) AppleWebKit/537.36 (KHTML, like Gecko) Chrome/137.0.0.0 Safari/537.36","WebKit","Chrome","137.0.0.0","ChromeOS","14541.0.0","https://app.prolific.com/","en-GB,en;q=0.9","5d9a55cb01556d0013fa8369","683db6dfa200031b80f2a654","6865077b3f4aef8c7a87bb4a","5d9a55cb01556d0013fa8369","2025-07-02T10:32:21.738Z","","","","","","StressQ","","","","","","","","","","","","","","","","","","","","","","","","","","","","","","","","","","","","","","50",""
"2888","","<div style=""width:500px;"">
  <p>What best describes how you currently feel?</p>
  </div>","2","html-slider-response","69","815097","0.0-10.0-4.4","51","1","2025-07-02 10:18:49","80fe4187154257d5fb01684ea91b68b9","212.69.57.202","Mozilla/5.0 (X11; CrOS x86_64 14541.0.0) AppleWebKit/537.36 (KHTML, like Gecko) Chrome/137.0.0.0 Safari/537.36","WebKit","Chrome","137.0.0.0","ChromeOS","14541.0.0","https://app.prolific.com/","en-GB,en;q=0.9","5d9a55cb01556d0013fa8369","683db6dfa200031b80f2a654","6865077b3f4aef8c7a87bb4a","5d9a55cb01556d0013fa8369","2025-07-02T10:32:24.628Z","","","","","","MotivationQ","","","","","","","","","","","","","","","","","","","","","","","","","","","","","","","","","","","","","","50",""
"","","","","ctl-task-cpt","70","894601","0.0-10.0-0.5","51","1","2025-07-02 10:18:49","80fe4187154257d5fb01684ea91b68b9","212.69.57.202","Mozilla/5.0 (X11; CrOS x86_64 14541.0.0) AppleWebKit/537.36 (KHTML, like Gecko) Chrome/137.0.0.0 Safari/537.36","WebKit","Chrome","137.0.0.0","ChromeOS","14541.0.0","https://app.prolific.com/","en-GB,en;q=0.9","5d9a55cb01556d0013fa8369","683db6dfa200031b80f2a654","6865077b3f4aef8c7a87bb4a","5d9a55cb01556d0013fa8369","2025-07-02T10:33:44.132Z","","","","","","","","","","","","","","","","win-only","3","g1:SW,g2:NE","0.5","6","0","816445.2","1570","6572.7","76478","1","4","4","6","1","-1","-1","4","5","0.030303030303030304","2432.6","3000","-915","[""down"",""left""]","{""num_key_presses"":18,""num_perfect"":8,""num_errors"":0,""num_randdir"":10,""num_randdir_good_moves"":2,""num_whilered"":0,""num_whileblue"":0,""num_blue"":3,""num_good_moves"":9}","[414.0714133126395,415.32142761775424,0.3,414.0714133126395,415.32142761775424,104.7,414.0714133126395,415.32142761775424,206.2,414.0714133126395,415.32142761775424,309.1,414.0714133126395,415.32142761775424,414.9,951.5714133126395,350.32142761775424,524.3,1107.8214133126396,364.07142761775424,625.8,1115.3214133126396,362.82142761775424,727.8,1115.3214133126396,362.82142761775424,828.3,1115.3214133126396,362.82142761775424,932.7,967.8214133126395,472.82142761775424,1039.1,964.0714133126395,476.57142761775424,1140.8,964.0714133126395,476.57142761775424,1244.9,964.0714133126395,476.57142761775424,1360,374.0714133126395,614.0714276177542,1464.3,214.0714133126395,672.8214276177542,1575,214.0714133126395,672.8214276177542,1683.5,214.0714133126395,672.8214276177542,1797.2,-4.678586687360493,806.5714276177542,1900.3,-9.678586687360493,807.8214276177542,2002.8,-9.678586687360493,807.8214276177542,2106.9,1.571413312639507,802.8214276177542,2207.8,97.8214133126395,752.8214276177542,2314.4,97.8214133126395,752.8214276177542,2414.9,97.8214133126395,752.8214276177542,2521.3,97.8214133126395,752.8214276177542,2624.2,97.8214133126395,752.8214276177542,2730.9,97.8214133126395,752.8214276177542,2836,901.5714133126395,636.5714276177542,2937.1,1116.5714133126396,636.5714276177542,3041.2,1120.3214133126396,634.0714276177542,3145.9,1120.3214133126396,634.0714276177542,3250.2,1120.3214133126396,634.0714276177542,3357.4,1120.3214133126396,634.0714276177542,3458.5,1120.3214133126396,634.0714276177542,3572,1120.3214133126396,634.0714276177542,3675,1120.3214133126396,634.0714276177542,3778.8,1120.3214133126396,634.0714276177542,3887,1120.3214133126396,634.0714276177542,3991.2,1120.3214133126396,634.0714276177542,4094.5,1120.3214133126396,634.0714276177542,4210,1120.3214133126396,634.0714276177542,4315.1,1120.3214133126396,634.0714276177542,4420.4,1120.3214133126396,634.0714276177542,4525.1,1120.3214133126396,634.0714276177542,4627.8,1120.3214133126396,634.0714276177542,4734.4,1120.3214133126396,634.0714276177542,4842.3,1120.3214133126396,634.0714276177542,4947.1]","[1579.6,1579.6,1000,0,579.6,""smooth"",""down"",""down"",""good_move"",4378.5,2798.2,2431.1,1580.3,367.1,""smooth"",""down"",""down"",""good_move"",7707.3,3328.1,2812.1,4379.2,516,""smooth"",""left"",""left"",""good_move"",10676.6,2967.7,2436.5,7709.1,531,""oops"",""left"",""right"",""bad_move"",13189.2,2512.1,1870.9,10677.3,641.1,""oops"",""left"",""right"",""bad_move"",16292.8,3103.1,2561.2,13189.7,541.9,""oops"",""right"",""left"",""good_move"",19380.9,3087.4,2455.2,16293.5,632.2,""smooth"",""right"",""right"",""bad_move"",22316.5,2935,2541.1,19381.5,393.9,""oops"",""left"",""up"",""bad_move"",25557.2,3240.1,1603.7,22317.2,1636.4,""smooth"",""left"",""left"",""good_move"",29121.2,3563.6,2576.3,25557.7,987.3,""oops"",""left"",""up"",""bad_move"",33424.1,4302.4,2571.2,29121.7,1731.2,""smooth"",""left"",""left"",""good_move"",37902.7,4478.1,2498.6,33424.6,1979.5,""smooth"",""left"",""left"",""good_move"",42412.6,4509.6,3170,37903,1339.6,""oops"",""down"",""down"",""good_move"",45384.6,2971.2,2543.2,42413.4,428,""oops"",""down"",""up"",""bad_move"",47837.6,2452.7,2036.7,45384.9,416,""smooth"",""down"",""down"",""good_move"",50696.7,2858.7,2470.9,47838,387.8,""oops"",""down"",""right"",""bad_move"",53535.2,2837.9,2421.6,50697.3,416.3,""oops"",""down"",""right"",""bad_move"",66930.9,13395.3,2337.3,64083.5,510.1,""oops"",""down"",""up"",""bad_move""]","","",""
"4031","","<div style=""width:500px;"">
  <p>What determined the result of this run?</p>
  </div>","0","html-slider-response","71","898636","0.0-10.0-1.5","51","1","2025-07-02 10:18:49","80fe4187154257d5fb01684ea91b68b9","212.69.57.202","Mozilla/5.0 (X11; CrOS x86_64 14541.0.0) AppleWebKit/537.36 (KHTML, like Gecko) Chrome/137.0.0.0 Safari/537.36","WebKit","Chrome","137.0.0.0","ChromeOS","14541.0.0","https://app.prolific.com/","en-GB,en;q=0.9","5d9a55cb01556d0013fa8369","683db6dfa200031b80f2a654","6865077b3f4aef8c7a87bb4a","5d9a55cb01556d0013fa8369","2025-07-02T10:33:48.167Z","","","","","","AttribQ","","","","","","","","","","","","","","","","","","","","","","","","","","","","","","","","","","","","","","50",""
"2585","","<div style=""width:500px;"">
  <p>How much control did you have over the ball?</p>
  </div>","0","html-slider-response","72","901224","0.0-10.0-2.5","51","1","2025-07-02 10:18:49","80fe4187154257d5fb01684ea91b68b9","212.69.57.202","Mozilla/5.0 (X11; CrOS x86_64 14541.0.0) AppleWebKit/537.36 (KHTML, like Gecko) Chrome/137.0.0.0 Safari/537.36","WebKit","Chrome","137.0.0.0","ChromeOS","14541.0.0","https://app.prolific.com/","en-GB,en;q=0.9","5d9a55cb01556d0013fa8369","683db6dfa200031b80f2a654","6865077b3f4aef8c7a87bb4a","5d9a55cb01556d0013fa8369","2025-07-02T10:33:50.755Z","","","","","","ControlQ","","","","","","","","","","","","","","","","","","","","","","","","","","","","","","","","","","","","","","50",""
"3646","","<div style=""width:500px;"">
  <p>How would you describe your current emotional state?</p>
  </div>","62","html-slider-response","73","904874","0.0-10.0-3.5","51","1","2025-07-02 10:18:49","80fe4187154257d5fb01684ea91b68b9","212.69.57.202","Mozilla/5.0 (X11; CrOS x86_64 14541.0.0) AppleWebKit/537.36 (KHTML, like Gecko) Chrome/137.0.0.0 Safari/537.36","WebKit","Chrome","137.0.0.0","ChromeOS","14541.0.0","https://app.prolific.com/","en-GB,en;q=0.9","5d9a55cb01556d0013fa8369","683db6dfa200031b80f2a654","6865077b3f4aef8c7a87bb4a","5d9a55cb01556d0013fa8369","2025-07-02T10:33:54.405Z","","","","","","StressQ","","","","","","","","","","","","","","","","","","","","","","","","","","","","","","","","","","","","","","50",""
"2874","","<div style=""width:500px;"">
  <p>What best describes how you currently feel?</p>
  </div>","0","html-slider-response","74","907752","0.0-10.0-4.5","51","1","2025-07-02 10:18:49","80fe4187154257d5fb01684ea91b68b9","212.69.57.202","Mozilla/5.0 (X11; CrOS x86_64 14541.0.0) AppleWebKit/537.36 (KHTML, like Gecko) Chrome/137.0.0.0 Safari/537.36","WebKit","Chrome","137.0.0.0","ChromeOS","14541.0.0","https://app.prolific.com/","en-GB,en;q=0.9","5d9a55cb01556d0013fa8369","683db6dfa200031b80f2a654","6865077b3f4aef8c7a87bb4a","5d9a55cb01556d0013fa8369","2025-07-02T10:33:57.283Z","","","","","","MotivationQ","","","","","","","","","","","","","","","","","","","","","","","","","","","","","","","","","","","","","","50",""
"","","","","ctl-task-cpt","75","1140015","0.0-10.0-0.6","51","1","2025-07-02 10:18:49","80fe4187154257d5fb01684ea91b68b9","212.69.57.202","Mozilla/5.0 (X11; CrOS x86_64 14541.0.0) AppleWebKit/537.36 (KHTML, like Gecko) Chrome/137.0.0.0 Safari/537.36","WebKit","Chrome","137.0.0.0","ChromeOS","14541.0.0","https://app.prolific.com/","en-GB,en;q=0.9","5d9a55cb01556d0013fa8369","683db6dfa200031b80f2a654","6865077b3f4aef8c7a87bb4a","5d9a55cb01556d0013fa8369","2025-07-02T10:37:49.547Z","","","","","","","","","","","","","","","","win-only","0","g1:NW,g2:SE","0.4","7","0","909101.3","1682.3","6690.3","229198","1","4","8","6","2","8","5","9","4","0.06818181818181818","3397.7","3000","30","[""down"",""right""]","{""num_key_presses"":42,""num_perfect"":15,""num_errors"":3,""num_randdir"":23,""num_randdir_good_moves"":8,""num_whilered"":1,""num_whileblue"":0,""num_blue"":8,""num_good_moves"":23}","[411.5714133126395,414.07142761775424,0.6,411.5714133126395,414.07142761775424,100.8,411.5714133126395,414.07142761775424,213.7,411.5714133126395,414.07142761775424,323.8,411.5714133126395,414.07142761775424,434.1,806.5714133126395,411.57142761775424,548,812.8214133126395,412.82142761775424,660.9,1020.3214133126395,461.57142761775424,774,1100.3214133126396,482.82142761775424,887,1099.0714133126396,482.82142761775424,1002.1,690.3214133126395,360.32142761775424,1115.7,447.8214133126395,320.32142761775424,1231.6,370.3214133126395,360.32142761775424,1349.4,370.3214133126395,360.32142761775424,1460.4,370.3214133126395,360.32142761775424,1568.9,182.8214133126395,249.07142761775424,1681.4,172.8214133126395,240.32142761775424,1798.4,169.0714133126395,235.32142761775424,1911.1,104.0714133126395,146.57142761775424,2027.6,97.8214133126395,140.32142761775424,2146.5,106.5714133126395,145.32142761775424,2259.4,656.5714133126395,595.3214276177542,2373.6,670.3214133126395,639.0714276177542,2486.2,671.5714133126395,662.8214276177542,2601.2,874.0714133126395,821.5714276177542,2718.7,879.0714133126395,822.8214276177542,2833.7,879.0714133126395,822.8214276177542,2948.1,879.0714133126395,822.8214276177542,3064,832.8214133126395,794.0714276177542,3182.9,814.0714133126395,786.5714276177542,3304.1,810.3214133126395,782.8214276177542,3420.5,810.3214133126395,782.8214276177542,3534.7,810.3214133126395,782.8214276177542,3649.1,810.3214133126395,782.8214276177542,3762.1,927.8214133126395,784.0714276177542,3877.2,937.8214133126395,785.3214276177542,3994.2,937.8214133126395,784.0714276177542,4110.4,937.8214133126395,784.0714276177542,4223,937.8214133126395,784.0714276177542,4336.8,937.8214133126395,784.0714276177542,4451.8,937.8214133126395,784.0714276177542,4571.7,937.8214133126395,784.0714276177542,4687.9,937.8214133126395,784.0714276177542,4804.3,937.8214133126395,784.0714276177542,4920.8]","[1576,1576,1000,0,576,""oops"",""down"",""left"",""bad_move"",6899.6,5322.8,2737.3,1576.8,2585.5,""oops"",""down"",""left"",""bad_move"",12241.1,5340.9,2382.8,6900.2,2958.1,""smooth"",""down"",""down"",""good_move"",14884.5,2642.9,2155.6,12241.6,487.3,""oops"",""down"",""up"",""bad_move"",20309.5,5424.6,3295.6,14884.9,2129,""oops"",""down"",""up"",""bad_move"",25915,5605.1,2592.1,20309.9,3013,""smooth"",""down"",""down"",""good_move"",31131.6,5216.3,2018.2,28616.2,497.2,""smooth"",""down"",""down"",""good_move"",38480.2,7348.2,2656,35356.2,468,""smooth"",""down"",""down"",""good_move"",41820.8,3340.3,2910.4,38480.5,429.9,""oops"",""down"",""up"",""bad_move"",49087.5,7266.2,3189.6,41821.3,4076.6,""oops"",""right"",""up"",""bad_move"",49312,223.9,2902.1,49088.1,-2678.2,""error"",""-"",""-"",""no_move"",57340.6,8028.1,2407.6,50340.4,4592.6,""oops"",""right"",""right"",""good_move"",59854.7,2513.6,1861.4,57341.1,652.2,""smooth"",""right"",""right"",""good_move"",63256.9,3401.8,2762.8,59855.1,639,""oops"",""right"",""right"",""good_move"",66566.6,3308.5,2728.6,63258.1,579.9,""oops"",""right"",""left"",""bad_move"",82064.2,15497.2,2699,78891.3,473.9,""oops"",""down"",""right"",""good_move"",84940.1,2875.6,1854.8,82064.5,1020.8,""oops"",""down"",""up"",""bad_move"",94370.8,9430.2,2432.9,84940.6,6997.3,""smooth"",""down"",""down"",""good_move"",97392.7,3021.5,1917,94371.2,1104.5,""smooth"",""down"",""down"",""good_move"",99905.1,2511.8,1965.1,97393.4,546.6,""smooth"",""down"",""down"",""good_move"",102143.3,2237.8,1651.5,99905.5,586.3,""oops"",""down"",""up"",""bad_move"",111044.3,8900.7,2304.1,102143.6,6596.6,""smooth"",""down"",""down"",""good_move"",114473.7,3429,2863,111044.7,566,""smooth"",""down"",""down"",""good_move"",117076.7,2602.6,2115.8,114474.2,486.7,""oops"",""down"",""right"",""good_move"",119894.1,2817,2294.4,117077.1,522.6,""oops"",""down"",""left"",""bad_move"",120718.1,823.7,2399.1,119894.5,-1575.4,""error"",""-"",""-"",""no_move"",121125.2,406.7,2399.1,119894.5,-1168.4,""while_red"",""-"",""-"",""no_move"",122329.1,1610.6,3006.2,121760.6,-2437.6,""error"",""-"",""-"",""no_move"",128919.1,6589.6,2198.4,123371.7,3349,""oops"",""right"",""left"",""bad_move"",138149.2,9229.7,2388,128919.5,6841.7,""oops"",""right"",""right"",""good_move"",141412.4,3262.8,2751.2,138149.6,511.6,""smooth"",""right"",""right"",""good_move"",147602.8,6189.9,2212.1,144877.2,513.5,""oops"",""right"",""up"",""bad_move"",159409.5,11806.4,2775.1,147603.2,9031.3,""oops"",""right"",""up"",""bad_move"",171261,11851.1,2789.3,159409.9,9061.8,""smooth"",""right"",""right"",""good_move"",174435,3173.7,2505.8,171261.3,667.9,""oops"",""down"",""right"",""good_move"",185825,11389.5,2251.1,181236.2,2337.7,""oops"",""down"",""down"",""good_move"",189201.2,3375.9,2441.7,185825.3,934.2,""oops"",""down"",""left"",""bad_move"",199214.3,10012.7,2261.3,189201.6,7751.5,""oops"",""down"",""right"",""good_move"",202325.8,3110.9,2492.2,199214.9,618.7,""oops"",""down"",""up"",""bad_move"",215458,13131.8,2182.4,212688.4,587.2,""smooth"",""down"",""down"",""good_move"",218717.6,3259.3,2759.5,215458.3,499.8,""smooth"",""down"",""down"",""good_move"",221878.6,3160.7,2513.6,218717.9,647.1,""smooth"",""down"",""down"",""good_move""]","","",""
"4586","","<div style=""width:500px;"">
  <p>What determined the result of this run?</p>
  </div>","25","html-slider-response","76","1144610","0.0-10.0-1.6","51","1","2025-07-02 10:18:49","80fe4187154257d5fb01684ea91b68b9","212.69.57.202","Mozilla/5.0 (X11; CrOS x86_64 14541.0.0) AppleWebKit/537.36 (KHTML, like Gecko) Chrome/137.0.0.0 Safari/537.36","WebKit","Chrome","137.0.0.0","ChromeOS","14541.0.0","https://app.prolific.com/","en-GB,en;q=0.9","5d9a55cb01556d0013fa8369","683db6dfa200031b80f2a654","6865077b3f4aef8c7a87bb4a","5d9a55cb01556d0013fa8369","2025-07-02T10:37:54.141Z","","","","","","AttribQ","","","","","","","","","","","","","","","","","","","","","","","","","","","","","","","","","","","","","","50",""
"2965","","<div style=""width:500px;"">
  <p>How much control did you have over the ball?</p>
  </div>","26","html-slider-response","77","1147582","0.0-10.0-2.6","51","1","2025-07-02 10:18:49","80fe4187154257d5fb01684ea91b68b9","212.69.57.202","Mozilla/5.0 (X11; CrOS x86_64 14541.0.0) AppleWebKit/537.36 (KHTML, like Gecko) Chrome/137.0.0.0 Safari/537.36","WebKit","Chrome","137.0.0.0","ChromeOS","14541.0.0","https://app.prolific.com/","en-GB,en;q=0.9","5d9a55cb01556d0013fa8369","683db6dfa200031b80f2a654","6865077b3f4aef8c7a87bb4a","5d9a55cb01556d0013fa8369","2025-07-02T10:37:57.113Z","","","","","","ControlQ","","","","","","","","","","","","","","","","","","","","","","","","","","","","","","","","","","","","","","50",""
"4151","","<div style=""width:500px;"">
  <p>How would you describe your current emotional state?</p>
  </div>","58","html-slider-response","78","1151740","0.0-10.0-3.6","51","1","2025-07-02 10:18:49","80fe4187154257d5fb01684ea91b68b9","212.69.57.202","Mozilla/5.0 (X11; CrOS x86_64 14541.0.0) AppleWebKit/537.36 (KHTML, like Gecko) Chrome/137.0.0.0 Safari/537.36","WebKit","Chrome","137.0.0.0","ChromeOS","14541.0.0","https://app.prolific.com/","en-GB,en;q=0.9","5d9a55cb01556d0013fa8369","683db6dfa200031b80f2a654","6865077b3f4aef8c7a87bb4a","5d9a55cb01556d0013fa8369","2025-07-02T10:38:01.271Z","","","","","","StressQ","","","","","","","","","","","","","","","","","","","","","","","","","","","","","","","","","","","","","","50",""
"2791","","<div style=""width:500px;"">
  <p>What best describes how you currently feel?</p>
  </div>","2","html-slider-response","79","1154538","0.0-10.0-4.6","51","1","2025-07-02 10:18:49","80fe4187154257d5fb01684ea91b68b9","212.69.57.202","Mozilla/5.0 (X11; CrOS x86_64 14541.0.0) AppleWebKit/537.36 (KHTML, like Gecko) Chrome/137.0.0.0 Safari/537.36","WebKit","Chrome","137.0.0.0","ChromeOS","14541.0.0","https://app.prolific.com/","en-GB,en;q=0.9","5d9a55cb01556d0013fa8369","683db6dfa200031b80f2a654","6865077b3f4aef8c7a87bb4a","5d9a55cb01556d0013fa8369","2025-07-02T10:38:04.070Z","","","","","","MotivationQ","","","","","","","","","","","","","","","","","","","","","","","","","","","","","","","","","","","","","","50",""
"","","","","ctl-task-cpt","80","1256729","0.0-10.0-0.7","51","1","2025-07-02 10:18:49","80fe4187154257d5fb01684ea91b68b9","212.69.57.202","Mozilla/5.0 (X11; CrOS x86_64 14541.0.0) AppleWebKit/537.36 (KHTML, like Gecko) Chrome/137.0.0.0 Safari/537.36","WebKit","Chrome","137.0.0.0","ChromeOS","14541.0.0","https://app.prolific.com/","en-GB,en;q=0.9","5d9a55cb01556d0013fa8369","683db6dfa200031b80f2a654","6865077b3f4aef8c7a87bb4a","5d9a55cb01556d0013fa8369","2025-07-02T10:39:46.260Z","","","","","","","","","","","","","","","","win-only","1","g1:NE,g2:SW","0.3","8","0","1155891.1","1899.8","6925","99155.8","1","4","4","6","1","-1","-2","7","9","0.05303030303030303","2038.9","3000","-970","[""up"",""right""]","{""num_key_presses"":20,""num_perfect"":6,""num_errors"":1,""num_randdir"":13,""num_randdir_good_moves"":5,""num_whilered"":0,""num_whileblue"":1,""num_blue"":2,""num_good_moves"":10}","[416.5714133126395,407.82142761775424,0.7,416.5714133126395,407.82142761775424,153,416.5714133126395,407.82142761775424,276,416.5714133126395,407.82142761775424,401.5,416.5714133126395,407.82142761775424,525.5,416.5714133126395,407.82142761775424,652.4,416.5714133126395,407.82142761775424,777.7,416.5714133126395,407.82142761775424,904.2,416.5714133126395,407.82142761775424,1031.6,416.5714133126395,407.82142761775424,1159.5,416.5714133126395,407.82142761775424,1285.4,610.3214133126395,76.57142761775425,1411.3,739.0714133126395,-104.67857238224575,1537.9,737.8214133126395,-87.17857238224575,1663.1,741.5714133126395,56.57142761775425,1788.7,741.5714133126395,69.07142761775425,1916.5,740.3214133126395,72.82142761775425,2048,740.3214133126395,72.82142761775425,2177.1,772.8214133126395,64.07142761775425,2303,945.3214133126395,60.32142761775425,2432.1,947.8214133126395,61.57142761775425,2558.9,945.3214133126395,57.82142761775425,2686.6,945.3214133126395,57.82142761775425,2812.4,945.3214133126395,57.82142761775425,2937.2,945.3214133126395,57.82142761775425,3063.3,945.3214133126395,57.82142761775425,3192.3,945.3214133126395,57.82142761775425,3318.9,945.3214133126395,57.82142761775425,3445.5,945.3214133126395,57.82142761775425,3573.9,945.3214133126395,57.82142761775425,3699.2,945.3214133126395,57.82142761775425,3826.3,945.3214133126395,57.82142761775425,3952.8,945.3214133126395,57.82142761775425,4079.8,945.3214133126395,57.82142761775425,4207.2,945.3214133126395,57.82142761775425,4332.6,945.3214133126395,57.82142761775425,4458.8,945.3214133126395,57.82142761775425,4585.3,945.3214133126395,57.82142761775425,4710.6,945.3214133126395,57.82142761775425,4836.4,945.3214133126395,57.82142761775425,4960.5]","[1531.2,1531.2,1000,0,531.2,""smooth"",""up"",""up"",""good_move"",16546.6,15015.1,2698.3,13201.3,647,""smooth"",""up"",""up"",""good_move"",33468.3,16921.4,2197.9,16546.9,14723.5,""smooth"",""right"",""right"",""good_move"",36075.8,2606.9,1742.7,33468.9,864.2,""oops"",""right"",""left"",""bad_move"",41073.5,4997.3,2400.8,36076.2,2596.5,""oops"",""right"",""down"",""bad_move"",44650.5,3576.6,3078.8,41073.9,497.8,""oops"",""right"",""right"",""good_move"",47699,3048,2647.2,44651,400.8,""oops"",""right"",""up"",""good_move"",51826.2,4126.7,3698.1,47699.5,428.6,""oops"",""right"",""down"",""bad_move"",54794.2,2967.6,2602.8,51826.6,364.8,""oops"",""right"",""left"",""bad_move"",58261.3,3466.3,2486.6,54795.1,979.6,""oops"",""right"",""down"",""bad_move"",61394.3,3132.6,2776.4,58261.7,356.2,""oops"",""right"",""down"",""bad_move"",64657.6,3262.9,2649.6,61394.7,613.3,""oops"",""right"",""left"",""bad_move"",68140.4,3482.2,3082.3,64658.2,399.9,""smooth"",""left"",""left"",""bad_move"",70720.1,2579.2,2159.1,68140.9,420.1,""oops"",""right"",""up"",""good_move"",73465.4,2744.7,2212,70720.8,532.7,""oops"",""right"",""left"",""bad_move"",76685.2,3218.4,2702.9,73466.8,515.5,""oops"",""right"",""up"",""good_move"",80396.6,3711,2681,76685.6,1030,""smooth"",""right"",""right"",""good_move"",83449.6,3052.6,2620,80397,432.6,""oops"",""right"",""up"",""good_move"",87103.3,3653.1,3192,83450.2,461.1,""while_blue"",""right"",""left"",""bad_move"",89950.3,2846.5,2070.8,87103.8,775.7,""smooth"",""right"",""right"",""good_move""]","","",""
"4822","","<div style=""width:500px;"">
  <p>What determined the result of this run?</p>
  </div>","0","html-slider-response","81","1261554","0.0-10.0-1.7","51","1","2025-07-02 10:18:49","80fe4187154257d5fb01684ea91b68b9","212.69.57.202","Mozilla/5.0 (X11; CrOS x86_64 14541.0.0) AppleWebKit/537.36 (KHTML, like Gecko) Chrome/137.0.0.0 Safari/537.36","WebKit","Chrome","137.0.0.0","ChromeOS","14541.0.0","https://app.prolific.com/","en-GB,en;q=0.9","5d9a55cb01556d0013fa8369","683db6dfa200031b80f2a654","6865077b3f4aef8c7a87bb4a","5d9a55cb01556d0013fa8369","2025-07-02T10:39:51.085Z","","","","","","AttribQ","","","","","","","","","","","","","","","","","","","","","","","","","","","","","","","","","","","","","","50",""
"2718","","<div style=""width:500px;"">
  <p>How much control did you have over the ball?</p>
  </div>","0","html-slider-response","82","1264275","0.0-10.0-2.7","51","1","2025-07-02 10:18:49","80fe4187154257d5fb01684ea91b68b9","212.69.57.202","Mozilla/5.0 (X11; CrOS x86_64 14541.0.0) AppleWebKit/537.36 (KHTML, like Gecko) Chrome/137.0.0.0 Safari/537.36","WebKit","Chrome","137.0.0.0","ChromeOS","14541.0.0","https://app.prolific.com/","en-GB,en;q=0.9","5d9a55cb01556d0013fa8369","683db6dfa200031b80f2a654","6865077b3f4aef8c7a87bb4a","5d9a55cb01556d0013fa8369","2025-07-02T10:39:53.807Z","","","","","","ControlQ","","","","","","","","","","","","","","","","","","","","","","","","","","","","","","","","","","","","","","50",""
"11177","","<div style=""width:500px;"">
  <p>How would you describe your current emotional state?</p>
  </div>","56","html-slider-response","83","1275455","0.0-10.0-3.7","51","1","2025-07-02 10:18:49","80fe4187154257d5fb01684ea91b68b9","212.69.57.202","Mozilla/5.0 (X11; CrOS x86_64 14541.0.0) AppleWebKit/537.36 (KHTML, like Gecko) Chrome/137.0.0.0 Safari/537.36","WebKit","Chrome","137.0.0.0","ChromeOS","14541.0.0","https://app.prolific.com/","en-GB,en;q=0.9","5d9a55cb01556d0013fa8369","683db6dfa200031b80f2a654","6865077b3f4aef8c7a87bb4a","5d9a55cb01556d0013fa8369","2025-07-02T10:40:04.987Z","","","","","","StressQ","","","","","","","","","","","","","","","","","","","","","","","","","","","","","","","","","","","","","","50",""
"2210","","<div style=""width:500px;"">
  <p>What best describes how you currently feel?</p>
  </div>","0","html-slider-response","84","1277668","0.0-10.0-4.7","51","1","2025-07-02 10:18:49","80fe4187154257d5fb01684ea91b68b9","212.69.57.202","Mozilla/5.0 (X11; CrOS x86_64 14541.0.0) AppleWebKit/537.36 (KHTML, like Gecko) Chrome/137.0.0.0 Safari/537.36","WebKit","Chrome","137.0.0.0","ChromeOS","14541.0.0","https://app.prolific.com/","en-GB,en;q=0.9","5d9a55cb01556d0013fa8369","683db6dfa200031b80f2a654","6865077b3f4aef8c7a87bb4a","5d9a55cb01556d0013fa8369","2025-07-02T10:40:07.199Z","","","","","","MotivationQ","","","","","","","","","","","","","","","","","","","","","","","","","","","","","","","","","","","","","","50",""
