"rt","response_timestamp","stimulus","response","trial_type","trial_index","time_elapsed","internal_node_id","run_id","condition","recorded_at","source_code_version","ip","user_agent","device","browser","browser_version","platform","platform_version","referer","accept_language","PROLIFIC_PID","STUDY_ID","SESSION_ID","prolific_id","realtime","view_history","question_order","consent","success","question_id","eventType","responses","item_order","radio_event_ids","radio_event_times","key_event_times","mouse_event_times","straightlining","zigzagging","honeypot","which_type","canvas_config","goals_layout","control_level","trial_number","tutorial_trial_number","trial_start_time","phase1_start_time","phase2_start_time","phase3_start_time","goal_1_value","goal_1_distance","goal_2_value","goal_2_distance","goal_selected","outcome","outcome_total","participant_final_score","participant_initial_score","participant_final_score_prop","goal_choice_rt","allocated_time","allocated_time_remaining","goal_direction","counts","mouse_movements","key_presses","correct","slider_start","sub_question"
"11884","1751451551853","<p style='font-size:40px;line-height:1.25'><strong>Welcome to the experiment!</strong></p><p style='font-size:1.1em;line-height:1.25'>Thank you for your interest in our experiment! Before you begin, it is important that we obtain your informed consent to participate in the study.</p><p style='font-size:1.1em;line-height:1.25'>On the next screen will be an <strong>information sheet</strong> for you to read. To participate in the study we need you to read this information sheet and the following consent form carefully. If you agree with all the statements, please click the <strong>I agree</strong> button.</p><p style='font-size:1.1em;line-height:1.25'>Press <strong>Next</strong> to read the information sheet.</p>","0","custom-html-button-response","0","11889","0.0-0.0","68","1","2025-07-02 10:19:00","80fe4187154257d5fb01684ea91b68b9","94.60.138.208","Mozilla/5.0 (Windows NT 10.0; Win64; x64) AppleWebKit/537.36 (KHTML, like Gecko) Chrome/137.0.0.0 Safari/537.36","WebKit","Chrome","137.0.0.0","Windows","10.0","https://app.prolific.com/","pt-PT,pt;q=0.9,en-US;q=0.8,en;q=0.7","5da03c3607c83700140a3d8f","683db6dfa200031b80f2a654","6865078aaaaa1dced8a67608","5da03c3607c83700140a3d8f","2025-07-02T10:19:11.856Z","","","","","","","","","","","","","","","","","","","","","","","","","","","","","","","","","","","","","","","","","","","","",""
"44898","","","","instructions","1","56790","0.0-1.0","68","1","2025-07-02 10:19:00","80fe4187154257d5fb01684ea91b68b9","94.60.138.208","Mozilla/5.0 (Windows NT 10.0; Win64; x64) AppleWebKit/537.36 (KHTML, like Gecko) Chrome/137.0.0.0 Safari/537.36","WebKit","Chrome","137.0.0.0","Windows","10.0","https://app.prolific.com/","pt-PT,pt;q=0.9,en-US;q=0.8,en;q=0.7","5da03c3607c83700140a3d8f","683db6dfa200031b80f2a654","6865078aaaaa1dced8a67608","5da03c3607c83700140a3d8f","","[{""page_index"":0,""viewing_time"":18425},{""page_index"":1,""viewing_time"":26473}]","","","","","","","","","","","","","","","","","","","","","","","","","","","","","","","","","","","","","","","","","","","",""
"60733","","","{""Q0"":"""",""Q1"":"""",""Q2"":"""",""Q3"":"""",""Q4"":"""",""Q5"":"""",""Q6"":""I agree""}","survey-multi-choice","2","117525","0.0-2.0","68","1","2025-07-02 10:19:00","80fe4187154257d5fb01684ea91b68b9","94.60.138.208","Mozilla/5.0 (Windows NT 10.0; Win64; x64) AppleWebKit/537.36 (KHTML, like Gecko) Chrome/137.0.0.0 Safari/537.36","WebKit","Chrome","137.0.0.0","Windows","10.0","https://app.prolific.com/","pt-PT,pt;q=0.9,en-US;q=0.8,en;q=0.7","5da03c3607c83700140a3d8f","683db6dfa200031b80f2a654","6865078aaaaa1dced8a67608","5da03c3607c83700140a3d8f","","","[0,1,2,3,4,5,6]","true","","","","","","","","","","","","","","","","","","","","","","","","","","","","","","","","","","","","","","","","","",""
"18687","","","","fullscreen","3","137232","0.0-4.0","68","1","2025-07-02 10:19:00","80fe4187154257d5fb01684ea91b68b9","94.60.138.208","Mozilla/5.0 (Windows NT 10.0; Win64; x64) AppleWebKit/537.36 (KHTML, like Gecko) Chrome/137.0.0.0 Safari/537.36","WebKit","Chrome","137.0.0.0","Windows","10.0","https://app.prolific.com/","pt-PT,pt;q=0.9,en-US;q=0.8,en;q=0.7","5da03c3607c83700140a3d8f","683db6dfa200031b80f2a654","6865078aaaaa1dced8a67608","5da03c3607c83700140a3d8f","","","","","true","","","","","","","","","","","","","","","","","","","","","","","","","","","","","","","","","","","","","","","","",""
"5726","1751451682926"," <p style='font-size:1.1em;line-height:1.25'>Thank you for completing the consent form and closing all other tabs.</p><p style='font-size:1.1em;line-height:1.25'>We will now invite you to fill in some demographic information and questionnaires, before starting the game.<br>This will take about 5 minutes.<br></p><p style='font-size:1.1em;line-height:1.25'>Press the <strong>Next</strong> button to continue.</p>","0","custom-html-button-response","4","142960","0.0-5.0","68","1","2025-07-02 10:19:00","80fe4187154257d5fb01684ea91b68b9","94.60.138.208","Mozilla/5.0 (Windows NT 10.0; Win64; x64) AppleWebKit/537.36 (KHTML, like Gecko) Chrome/137.0.0.0 Safari/537.36","WebKit","Chrome","137.0.0.0","Windows","10.0","https://app.prolific.com/","pt-PT,pt;q=0.9,en-US;q=0.8,en;q=0.7","5da03c3607c83700140a3d8f","683db6dfa200031b80f2a654","6865078aaaaa1dced8a67608","5da03c3607c83700140a3d8f","2025-07-02T10:21:22.927Z","","","","","","","","","","","","","","","","","","","","","","","","","","","","","","","","","","","","","","","","","","","","",""
"2268","","","{""age"":""33""}","survey-text","5","145234","0.0-6.0-0.0","68","1","2025-07-02 10:19:00","80fe4187154257d5fb01684ea91b68b9","94.60.138.208","Mozilla/5.0 (Windows NT 10.0; Win64; x64) AppleWebKit/537.36 (KHTML, like Gecko) Chrome/137.0.0.0 Safari/537.36","WebKit","Chrome","137.0.0.0","Windows","10.0","https://app.prolific.com/","pt-PT,pt;q=0.9,en-US;q=0.8,en;q=0.7","5da03c3607c83700140a3d8f","683db6dfa200031b80f2a654","6865078aaaaa1dced8a67608","5da03c3607c83700140a3d8f","","","","","","0","demographics","","","","","","","","","","","","","","","","","","","","","","","","","","","","","","","","","","","","","","",""
"2754","","","{""gender_identity"":""female/woman""}","survey-multi-choice","6","147991","0.0-6.0-1.0","68","1","2025-07-02 10:19:00","80fe4187154257d5fb01684ea91b68b9","94.60.138.208","Mozilla/5.0 (Windows NT 10.0; Win64; x64) AppleWebKit/537.36 (KHTML, like Gecko) Chrome/137.0.0.0 Safari/537.36","WebKit","Chrome","137.0.0.0","Windows","10.0","https://app.prolific.com/","pt-PT,pt;q=0.9,en-US;q=0.8,en;q=0.7","5da03c3607c83700140a3d8f","683db6dfa200031b80f2a654","6865078aaaaa1dced8a67608","5da03c3607c83700140a3d8f","","","[0]","","","1","demographics","","","","","","","","","","","","","","","","","","","","","","","","","","","","","","","","","","","","","","",""
"2719","","","{""assigned_sex"":""female""}","survey-multi-choice","7","150713","0.0-6.0-2.0","68","1","2025-07-02 10:19:00","80fe4187154257d5fb01684ea91b68b9","94.60.138.208","Mozilla/5.0 (Windows NT 10.0; Win64; x64) AppleWebKit/537.36 (KHTML, like Gecko) Chrome/137.0.0.0 Safari/537.36","WebKit","Chrome","137.0.0.0","Windows","10.0","https://app.prolific.com/","pt-PT,pt;q=0.9,en-US;q=0.8,en;q=0.7","5da03c3607c83700140a3d8f","683db6dfa200031b80f2a654","6865078aaaaa1dced8a67608","5da03c3607c83700140a3d8f","","","[0]","","","2","demographics","","","","","","","","","","","","","","","","","","","","","","","","","","","","","","","","","","","","","","",""
"3363","","","{""menstrual_cycle"":""Yes""}","survey-multi-choice","8","154078","0.0-6.0-3.0","68","1","2025-07-02 10:19:00","80fe4187154257d5fb01684ea91b68b9","94.60.138.208","Mozilla/5.0 (Windows NT 10.0; Win64; x64) AppleWebKit/537.36 (KHTML, like Gecko) Chrome/137.0.0.0 Safari/537.36","WebKit","Chrome","137.0.0.0","Windows","10.0","https://app.prolific.com/","pt-PT,pt;q=0.9,en-US;q=0.8,en;q=0.7","5da03c3607c83700140a3d8f","683db6dfa200031b80f2a654","6865078aaaaa1dced8a67608","5da03c3607c83700140a3d8f","","","[0]","","","4","demographics","","","","","","","","","","","","","","","","","","","","","","","","","","","","","","","","","","","","","","",""
"3560","","","{""education"":""Master's Degree (e.g., MSc)""}","survey-multi-choice","9","157641","0.0-6.0-4.0","68","1","2025-07-02 10:19:00","80fe4187154257d5fb01684ea91b68b9","94.60.138.208","Mozilla/5.0 (Windows NT 10.0; Win64; x64) AppleWebKit/537.36 (KHTML, like Gecko) Chrome/137.0.0.0 Safari/537.36","WebKit","Chrome","137.0.0.0","Windows","10.0","https://app.prolific.com/","pt-PT,pt;q=0.9,en-US;q=0.8,en;q=0.7","5da03c3607c83700140a3d8f","683db6dfa200031b80f2a654","6865078aaaaa1dced8a67608","5da03c3607c83700140a3d8f","","","[0]","","","5","demographics","","","","","","","","","","","","","","","","","","","","","","","","","","","","","","","","","","","","","","",""
"10546","","","{""education"":""Others""}","survey-multi-choice","10","168189","0.0-6.0-5.0","68","1","2025-07-02 10:19:00","80fe4187154257d5fb01684ea91b68b9","94.60.138.208","Mozilla/5.0 (Windows NT 10.0; Win64; x64) AppleWebKit/537.36 (KHTML, like Gecko) Chrome/137.0.0.0 Safari/537.36","WebKit","Chrome","137.0.0.0","Windows","10.0","https://app.prolific.com/","pt-PT,pt;q=0.9,en-US;q=0.8,en;q=0.7","5da03c3607c83700140a3d8f","683db6dfa200031b80f2a654","6865078aaaaa1dced8a67608","5da03c3607c83700140a3d8f","2025-07-02T10:21:48.156Z","","[0]","","","6","demographics","","","","","","","","","","","","","","","","","","","","","","","","","","","","","","","","","","","","","","",""
"10466","","","{""mental_health_condition"":""No"",""mental_health_treatment"":""No"",""psychiatric_medication"":""No""}","survey-text","11","178657","0.0-7.0-0.0","68","1","2025-07-02 10:19:00","80fe4187154257d5fb01684ea91b68b9","94.60.138.208","Mozilla/5.0 (Windows NT 10.0; Win64; x64) AppleWebKit/537.36 (KHTML, like Gecko) Chrome/137.0.0.0 Safari/537.36","WebKit","Chrome","137.0.0.0","Windows","10.0","https://app.prolific.com/","pt-PT,pt;q=0.9,en-US;q=0.8,en;q=0.7","5da03c3607c83700140a3d8f","683db6dfa200031b80f2a654","6865078aaaaa1dced8a67608","5da03c3607c83700140a3d8f","2025-07-02T10:21:58.624Z","","","","","1","mental_health","","","","","","","","","","","","","","","","","","","","","","","","","","","","","","","","","","","","","","",""
"6293","","","{""depression_history"":[""Yes""]}","survey-multi-select","12","184954","0.0-7.0-1.0","68","1","2025-07-02 10:19:00","80fe4187154257d5fb01684ea91b68b9","94.60.138.208","Mozilla/5.0 (Windows NT 10.0; Win64; x64) AppleWebKit/537.36 (KHTML, like Gecko) Chrome/137.0.0.0 Safari/537.36","WebKit","Chrome","137.0.0.0","Windows","10.0","https://app.prolific.com/","pt-PT,pt;q=0.9,en-US;q=0.8,en;q=0.7","5da03c3607c83700140a3d8f","683db6dfa200031b80f2a654","6865078aaaaa1dced8a67608","5da03c3607c83700140a3d8f","","","[0]","","","","mental_health","","","","","","","","","","","","","","","","","","","","","","","","","","","","","","","","","","","","","","",""
"7342","","","{""depression_episodes"":""1-2"",""depression_recent"":""More than 1 year ago""}","survey-multi-choice","13","192297","0.0-7.0-2.0-0.0","68","1","2025-07-02 10:19:00","80fe4187154257d5fb01684ea91b68b9","94.60.138.208","Mozilla/5.0 (Windows NT 10.0; Win64; x64) AppleWebKit/537.36 (KHTML, like Gecko) Chrome/137.0.0.0 Safari/537.36","WebKit","Chrome","137.0.0.0","Windows","10.0","https://app.prolific.com/","pt-PT,pt;q=0.9,en-US;q=0.8,en;q=0.7","5da03c3607c83700140a3d8f","683db6dfa200031b80f2a654","6865078aaaaa1dced8a67608","5da03c3607c83700140a3d8f","2025-07-02T10:22:12.265Z","","[0,1]","","","3","mental_health","","","","","","","","","","","","","","","","","","","","","","","","","","","","","","","","","","","","","","",""
"62167.60000014305","","","","survey-template","14","254470","0.0-7.0-3.0","68","1","2025-07-02 10:19:00","80fe4187154257d5fb01684ea91b68b9","94.60.138.208","Mozilla/5.0 (Windows NT 10.0; Win64; x64) AppleWebKit/537.36 (KHTML, like Gecko) Chrome/137.0.0.0 Safari/537.36","WebKit","Chrome","137.0.0.0","Windows","10.0","https://app.prolific.com/","pt-PT,pt;q=0.9,en-US;q=0.8,en;q=0.7","5da03c3607c83700140a3d8f","683db6dfa200031b80f2a654","6865078aaaaa1dced8a67608","5da03c3607c83700140a3d8f","2025-07-02T10:23:14.438Z","","","","","","ius","{""Q01"":""4"",""Q02"":""4"",""Q03"":""3"",""Q04"":""4"",""Q05"":""3"",""Q06"":""1"",""Q07"":""1"",""Q08"":""2"",""Q09"":""2"",""Q10"":""2"",""Q11"":""2"",""Q12"":""3"",""Q13"":""4""}","[0,1,2,3,4,5,6,7,8,9,10,11,12]","[""Q01"",""Q02"",""Q03"",""Q04"",""Q05"",""Q06"",""Q08"",""Q09"",""Q10"",""Q11"",""Q12"",""Q13"",""Q07""]","[8646,11953.600000143051,14155.200000047684,17594.5,22804.400000095367,27495.700000047684,34299,38359.90000009537,40530.300000190735,44834.5,48842.90000009537,51762,58803.800000190735]","[]","[7558.800000190735,8646,11001.300000190735,11953.600000143051,14155.200000047684,17594.5,22804.400000095367,26508.700000047684,27495.700000047684,33382.700000047684,34299,37558.90000009537,38359.90000009537,40530.300000190735,44834.5,48842.90000009537,50961,51762,52847.90000009537,57353.800000190735,58803.800000190735,62161.5]","0.3076923076923077","0.5","0","","","","","","","","","","","","","","","","","","","","","","","","","","","","","",""
"4294","1751451798733","<p style='font-size:1.1em;line-height:1.25'>In the following, we will ask you a few questions relating to your experiences over the past month.<br></p><p style='font-size:1.1em;line-height:1.25'>Press the <strong>Next</strong> button to continue.</p>","0","custom-html-button-response","15","258767","0.0-7.0-4.0","68","1","2025-07-02 10:19:00","80fe4187154257d5fb01684ea91b68b9","94.60.138.208","Mozilla/5.0 (Windows NT 10.0; Win64; x64) AppleWebKit/537.36 (KHTML, like Gecko) Chrome/137.0.0.0 Safari/537.36","WebKit","Chrome","137.0.0.0","Windows","10.0","https://app.prolific.com/","pt-PT,pt;q=0.9,en-US;q=0.8,en;q=0.7","5da03c3607c83700140a3d8f","683db6dfa200031b80f2a654","6865078aaaaa1dced8a67608","5da03c3607c83700140a3d8f","2025-07-02T10:23:18.734Z","","","","","","","","","","","","","","","","","","","","","","","","","","","","","","","","","","","","","","","","","","","","",""
"55932.700000047684","","","","survey-template","16","314703","0.0-7.0-5.0","68","1","2025-07-02 10:19:00","80fe4187154257d5fb01684ea91b68b9","94.60.138.208","Mozilla/5.0 (Windows NT 10.0; Win64; x64) AppleWebKit/537.36 (KHTML, like Gecko) Chrome/137.0.0.0 Safari/537.36","WebKit","Chrome","137.0.0.0","Windows","10.0","https://app.prolific.com/","pt-PT,pt;q=0.9,en-US;q=0.8,en;q=0.7","5da03c3607c83700140a3d8f","683db6dfa200031b80f2a654","6865078aaaaa1dced8a67608","5da03c3607c83700140a3d8f","2025-07-02T10:24:14.670Z","","","","","","pss","{""Q01"":""2"",""Q02"":""2"",""Q03"":""2"",""Q04"":""1"",""Q05"":""2"",""Q06"":""2"",""Q07"":""1"",""Q08"":""1"",""Q09"":""1"",""Q10"":""2""}","[0,1,2,3,4,5,6,7,8,9]","[""Q01"",""Q02"",""Q02"",""Q03"",""Q04"",""Q05"",""Q06"",""Q07"",""Q08"",""Q09"",""Q10""]","[11343.600000143051,14594.900000095367,17121.60000014305,20931.800000190735,24313,28256.60000014305,33380.90000009537,37973,44696.40000009537,49272.300000190735,54710.300000190735]","[]","[0,11343.600000143051,14594.900000095367,17121.60000014305,20931.800000190735,24313,28256.60000014305,33380.90000009537,37202.5,37973,44696.40000009537,48000.200000047684,49272.300000190735,54710.300000190735,55926.800000190735]","0.6","0.4444444444444444","0","","","","","","","","","","","","","","","","","","","","","","","","","","","","","",""
"2982","1751451857653","<p style='font-size:1.1em;line-height:1.25'>Thank you for your answers! Now we will ask you a few more questions relating to your feelings in the last 24 hours.<br></p><p style='font-size:1.1em;line-height:1.25'>Press the <strong>Next</strong> button to continue.</p>","0","custom-html-button-response","17","317687","0.0-7.0-6.0","68","1","2025-07-02 10:19:00","80fe4187154257d5fb01684ea91b68b9","94.60.138.208","Mozilla/5.0 (Windows NT 10.0; Win64; x64) AppleWebKit/537.36 (KHTML, like Gecko) Chrome/137.0.0.0 Safari/537.36","WebKit","Chrome","137.0.0.0","Windows","10.0","https://app.prolific.com/","pt-PT,pt;q=0.9,en-US;q=0.8,en;q=0.7","5da03c3607c83700140a3d8f","683db6dfa200031b80f2a654","6865078aaaaa1dced8a67608","5da03c3607c83700140a3d8f","2025-07-02T10:24:17.654Z","","","","","","","","","","","","","","","","","","","","","","","","","","","","","","","","","","","","","","","","","","","","",""
"82849.5","","","","survey-template","18","400541","0.0-7.0-7.0","68","1","2025-07-02 10:19:00","80fe4187154257d5fb01684ea91b68b9","94.60.138.208","Mozilla/5.0 (Windows NT 10.0; Win64; x64) AppleWebKit/537.36 (KHTML, like Gecko) Chrome/137.0.0.0 Safari/537.36","WebKit","Chrome","137.0.0.0","Windows","10.0","https://app.prolific.com/","pt-PT,pt;q=0.9,en-US;q=0.8,en;q=0.7","5da03c3607c83700140a3d8f","683db6dfa200031b80f2a654","6865078aaaaa1dced8a67608","5da03c3607c83700140a3d8f","2025-07-02T10:25:40.508Z","","","","","","drsp","{""Q01"":""1"",""Q02"":""1"",""Q03"":""0"",""Q04"":""2"",""Q05"":""0"",""Q06"":""0"",""Q07"":""0"",""Q08"":""0"",""Q09"":""0"",""Q10"":""1"",""Q11"":""2"",""Q12"":""0"",""Q13"":""1"",""Q14"":""0"",""Q15"":""1"",""Q16"":""2"",""Q17"":""0"",""Q18"":""1"",""Q19"":""0"",""Q20"":""0"",""Q21"":""0""}","[0,1,2,3,4,5,6,7,8,9,10,11,12,13,14,15,16,17,18,19,20]","[""Q01"",""Q02"",""Q04"",""Q05"",""Q07"",""Q06"",""Q08"",""Q09"",""Q10"",""Q11"",""Q12"",""Q13"",""Q14"",""Q15"",""Q16"",""Q17"",""Q18"",""Q18"",""Q19"",""Q20"",""Q21"",""Q03""]","[6053,10713.200000047684,13686.700000047684,15591.299999952316,19461.099999904633,21134,22550,27041,36038.09999990463,39042.09999990463,40205.799999952316,41675.90000009537,46135.200000047684,49991,51977.90000009537,55281.700000047684,60023.799999952316,61178.200000047684,66385.09999990463,69852.40000009537,72555.79999995232,77745.79999995232]","[]","[0.09999990463256836,6053,8878.5,9961.099999904633,10713.200000047684,13223.299999952316,13686.700000047684,15591.299999952316,17696.200000047684,19461.099999904633,20278.5,21134,22550,27041,36038.09999990463,37223.299999952316,38203,39042.09999990463,40205.799999952316,41675.90000009537,46135.200000047684,49991,51977.90000009537,55281.700000047684,58473.5,60023.799999952316,61178.200000047684,66385.09999990463,69852.40000009537,71808.90000009537,72555.79999995232,73741.5,77745.79999995232,81638.70000004768,81842.20000004768,82843.79999995232]","0.5714285714285714","0.45","0","","","","","","","","","","","","","","","","","","","","","","","","","","","","","",""
"11162.400000095367","","","","survey-template","19","411705","0.0-7.0-8.0","68","1","2025-07-02 10:19:00","80fe4187154257d5fb01684ea91b68b9","94.60.138.208","Mozilla/5.0 (Windows NT 10.0; Win64; x64) AppleWebKit/537.36 (KHTML, like Gecko) Chrome/137.0.0.0 Safari/537.36","WebKit","Chrome","137.0.0.0","Windows","10.0","https://app.prolific.com/","pt-PT,pt;q=0.9,en-US;q=0.8,en;q=0.7","5da03c3607c83700140a3d8f","683db6dfa200031b80f2a654","6865078aaaaa1dced8a67608","5da03c3607c83700140a3d8f","2025-07-02T10:25:51.672Z","","","","","","stress","{""Q01"":""1"",""Q02"":""2"",""Q03"":""1""}","[0,1,2]","[""Q01"",""Q02"",""Q03""]","[2763.2999999523163,5314.099999904633,9558.200000047684]","[]","[2763.2999999523163,5314.099999904633,7587.700000047684,9558.200000047684,11160.299999952316]","0.6666666666666666","0","0","","","","","","","","","","","","","","","","","","","","","","","","","","","","","",""
"85038","","","","instructions","20","496744","0.0-8.0-0.0","68","1","2025-07-02 10:19:00","80fe4187154257d5fb01684ea91b68b9","94.60.138.208","Mozilla/5.0 (Windows NT 10.0; Win64; x64) AppleWebKit/537.36 (KHTML, like Gecko) Chrome/137.0.0.0 Safari/537.36","WebKit","Chrome","137.0.0.0","Windows","10.0","https://app.prolific.com/","pt-PT,pt;q=0.9,en-US;q=0.8,en;q=0.7","5da03c3607c83700140a3d8f","683db6dfa200031b80f2a654","6865078aaaaa1dced8a67608","5da03c3607c83700140a3d8f","","[{""page_index"":0,""viewing_time"":25600},{""page_index"":1,""viewing_time"":27677},{""page_index"":2,""viewing_time"":9526},{""page_index"":3,""viewing_time"":22234}]","","","","","","","","","","","","","","","","","","","","","","","","","","","","","","","","","","","","","","","","","","","",""
"","","","","ctl-task-cpt","21","524068","0.0-8.0-1.0","68","1","2025-07-02 10:19:00","80fe4187154257d5fb01684ea91b68b9","94.60.138.208","Mozilla/5.0 (Windows NT 10.0; Win64; x64) AppleWebKit/537.36 (KHTML, like Gecko) Chrome/137.0.0.0 Safari/537.36","WebKit","Chrome","137.0.0.0","Windows","10.0","https://app.prolific.com/","pt-PT,pt;q=0.9,en-US;q=0.8,en;q=0.7","5da03c3607c83700140a3d8f","683db6dfa200031b80f2a654","6865078aaaaa1dced8a67608","5da03c3607c83700140a3d8f","","","","","","","","","","","","","","","","","win-only","2","g1:SE,g2:NW","1","0","1","498132.2","2191.6","6196.4","24313.9","2","4","4","6","1","2","-1","0","0","0","2696.6","4000","2060","[""down"",""right""]","{""num_key_presses"":7,""num_perfect"":4,""num_errors"":3,""num_randdir"":0,""num_randdir_good_moves"":0,""num_whilered"":0,""num_whileblue"":0,""num_blue"":1,""num_good_moves"":4}","[292.22232142857143,295.12857142857143,0.2,292.22232142857143,295.12857142857143,104.2,292.22232142857143,295.12857142857143,204.4,292.22232142857143,295.12857142857143,309.7,292.22232142857143,295.12857142857143,409.9,321.22232142857143,290.12857142857143,514.1,645.2223214285714,190.12857142857143,614.7,711.2223214285714,186.12857142857143,719.6,711.2223214285714,186.12857142857143,819.8,711.2223214285714,186.12857142857143,919.9,711.2223214285714,186.12857142857143,1020.3,711.2223214285714,186.12857142857143,1124.2,711.2223214285714,186.12857142857143,1224.9,309.22232142857143,166.12857142857143,1330,317.22232142857143,272.12857142857143,1434,510.22232142857143,431.12857142857143,1540.2,511.22232142857143,431.12857142857143,1644.2,528.2223214285714,496.12857142857143,1744.7,557.2223214285714,593.1285714285714,1848.9,558.2223214285714,593.1285714285714,1949.3,558.2223214285714,593.1285714285714,2056.7,558.2223214285714,593.1285714285714,2159.5,558.2223214285714,593.1285714285714,2260.6,558.2223214285714,593.1285714285714,2365.6,557.2223214285714,574.1285714285714,2469.2,554.2223214285714,541.1285714285714,2569.9,554.2223214285714,541.1285714285714,2670.3,554.2223214285714,541.1285714285714,2774.1,554.2223214285714,541.1285714285714,2879.5,554.2223214285714,541.1285714285714,2984.5,554.2223214285714,541.1285714285714,3084.6,554.2223214285714,541.1285714285714,3189.9,554.2223214285714,541.1285714285714,3290,554.2223214285714,541.1285714285714,3394.2,554.2223214285714,541.1285714285714,3494.6,554.2223214285714,541.1285714285714,3594.7,554.2223214285714,541.1285714285714,3699.7,554.2223214285714,541.1285714285714,3799.7,554.2223214285714,541.1285714285714,3904]","[1517.8,1517.7,1000,0.1,517.7,""smooth"",""down"",""down"",""good_move"",2350.9,832.8,2479.2,1518.1,-1646.4,""error"",""-"",""-"",""no_move"",3811.7,1460.6,3441.2,3354.7,-2984.2,""error"",""-"",""-"",""no_move"",7625.4,3813.3,2165.5,4814.9,645,""smooth"",""down"",""down"",""good_move"",8002.6,377.1,3064.4,7625.6,-2687.3,""error"",""-"",""-"",""no_move"",11898.6,3895.7,2508.8,9005,384.8,""smooth"",""right"",""right"",""good_move"",18021.2,6122.1,2401.2,15200.3,419.7,""smooth"",""right"",""right"",""good_move""]","","",""
"15288","","","","instructions","22","539357","0.0-8.0-2.0","68","1","2025-07-02 10:19:00","80fe4187154257d5fb01684ea91b68b9","94.60.138.208","Mozilla/5.0 (Windows NT 10.0; Win64; x64) AppleWebKit/537.36 (KHTML, like Gecko) Chrome/137.0.0.0 Safari/537.36","WebKit","Chrome","137.0.0.0","Windows","10.0","https://app.prolific.com/","pt-PT,pt;q=0.9,en-US;q=0.8,en;q=0.7","5da03c3607c83700140a3d8f","683db6dfa200031b80f2a654","6865078aaaaa1dced8a67608","5da03c3607c83700140a3d8f","","[{""page_index"":0,""viewing_time"":15287}]","","","","","","","","","","","","","","","","","","","","","","","","","","","","","","","","","","","","","","","","","","","",""
"","","","","ctl-task-cpt","23","578841","0.0-8.0-3.0","68","1","2025-07-02 10:19:00","80fe4187154257d5fb01684ea91b68b9","94.60.138.208","Mozilla/5.0 (Windows NT 10.0; Win64; x64) AppleWebKit/537.36 (KHTML, like Gecko) Chrome/137.0.0.0 Safari/537.36","WebKit","Chrome","137.0.0.0","Windows","10.0","https://app.prolific.com/","pt-PT,pt;q=0.9,en-US;q=0.8,en;q=0.7","5da03c3607c83700140a3d8f","683db6dfa200031b80f2a654","6865078aaaaa1dced8a67608","5da03c3607c83700140a3d8f","","","","","","","","","","","","","","","","","win-only","2","g1:SE,g2:NW","0.35","0","3","540742.6","2559.6","6561","36477.3","2","4","8","6","1","-2","-3","0","0","0","1385.1","4000","-3005","[""down"",""right""]","{""num_key_presses"":8,""num_perfect"":2,""num_errors"":1,""num_randdir"":5,""num_randdir_good_moves"":3,""num_whilered"":0,""num_whileblue"":0,""num_blue"":2,""num_good_moves"":4}","[293.22232142857143,300.12857142857143,0.2,293.22232142857143,300.12857142857143,101.5,293.22232142857143,300.12857142857143,201.4,293.22232142857143,300.12857142857143,302.5,293.22232142857143,300.12857142857143,406.1,293.22232142857143,300.12857142857143,506.4,316.22232142857143,329.12857142857143,610.6,340.22232142857143,343.12857142857143,710.8,377.22232142857143,379.12857142857143,816.9,496.22232142857143,538.1285714285714,917.2,496.22232142857143,538.1285714285714,1021.4,496.22232142857143,538.1285714285714,1126.1,526.2223214285714,537.1285714285714,1226.4,538.2223214285714,535.1285714285714,1326.5,538.2223214285714,535.1285714285714,1427,538.2223214285714,535.1285714285714,1531.3,538.2223214285714,535.1285714285714,1631.6,538.2223214285714,535.1285714285714,1736.2,538.2223214285714,535.1285714285714,1840.5,538.2223214285714,535.1285714285714,1941,538.2223214285714,535.1285714285714,2046,538.2223214285714,535.1285714285714,2147.2,538.2223214285714,535.1285714285714,2251.7,588.2223214285714,486.12857142857143,2357.2,840.2223214285714,293.12857142857143,2461.7,861.2223214285714,284.12857142857143,2566.3,861.2223214285714,284.12857142857143,2671,861.2223214285714,284.12857142857143,2771.5,861.2223214285714,284.12857142857143,2877,861.2223214285714,284.12857142857143,2981.5,861.2223214285714,284.12857142857143,3081.5,861.2223214285714,284.12857142857143,3182,861.2223214285714,284.12857142857143,3286.5,861.2223214285714,284.12857142857143,3390.7,861.2223214285714,284.12857142857143,3491.2,861.2223214285714,284.12857142857143,3596.2,861.2223214285714,284.12857142857143,3700.9,861.2223214285714,284.12857142857143,3801.6,861.2223214285714,284.12857142857143,3906.1]","[4560.7,4560.7,2151.2,2005.9,403.6,""oops"",""right"",""down"",""good_move"",8567.3,4006.4,2457.8,4560.9,1548.7,""oops"",""down"",""right"",""good_move"",11748.7,3180.5,2728.4,8568.3,452.1,""oops"",""right"",""right"",""good_move"",14080.3,2331.3,1889,11749,442.3,""oops"",""down"",""up"",""bad_move"",17321.8,3241.1,2240.4,17010.8,-1929.4,""error"",""-"",""-"",""no_move"",21112.2,3789.9,2402.4,18325.3,384.5,""smooth"",""left"",""left"",""bad_move"",24379.2,3266.7,2788.8,21112.5,477.9,""smooth"",""down"",""down"",""good_move"",27018.3,2638.2,2338.7,24380.1,299.5,""oops"",""down"",""up"",""bad_move""]","","",""
"39672","","","","instructions","24","618514","0.0-8.0-4.0","68","1","2025-07-02 10:19:00","80fe4187154257d5fb01684ea91b68b9","94.60.138.208","Mozilla/5.0 (Windows NT 10.0; Win64; x64) AppleWebKit/537.36 (KHTML, like Gecko) Chrome/137.0.0.0 Safari/537.36","WebKit","Chrome","137.0.0.0","Windows","10.0","https://app.prolific.com/","pt-PT,pt;q=0.9,en-US;q=0.8,en;q=0.7","5da03c3607c83700140a3d8f","683db6dfa200031b80f2a654","6865078aaaaa1dced8a67608","5da03c3607c83700140a3d8f","","[{""page_index"":0,""viewing_time"":8494},{""page_index"":1,""viewing_time"":31178}]","","","","","","","","","","","","","","","","","","","","","","","","","","","","","","","","","","","","","","","","","","","",""
"7544","","","{""green_ball"":[""Ball sometimes shakes and moves in a random direction""]}","survey-multi-select","25","626060","0.0-8.0-5.0-0.0","68","1","2025-07-02 10:19:00","80fe4187154257d5fb01684ea91b68b9","94.60.138.208","Mozilla/5.0 (Windows NT 10.0; Win64; x64) AppleWebKit/537.36 (KHTML, like Gecko) Chrome/137.0.0.0 Safari/537.36","WebKit","Chrome","137.0.0.0","Windows","10.0","https://app.prolific.com/","pt-PT,pt;q=0.9,en-US;q=0.8,en;q=0.7","5da03c3607c83700140a3d8f","683db6dfa200031b80f2a654","6865078aaaaa1dced8a67608","5da03c3607c83700140a3d8f","","","[0]","","","","quiz","","","","","","","","","","","","","","","","","","","","","","","","","","","","","","","","","","","","","true","",""
"3425","","<p align='center'><b>CORRECT!</b> Indeed, the green ball may sometimes shake and move in a random direction.</p>","0","html-button-response","26","629486","0.0-8.0-5.0-1.0","68","1","2025-07-02 10:19:00","80fe4187154257d5fb01684ea91b68b9","94.60.138.208","Mozilla/5.0 (Windows NT 10.0; Win64; x64) AppleWebKit/537.36 (KHTML, like Gecko) Chrome/137.0.0.0 Safari/537.36","WebKit","Chrome","137.0.0.0","Windows","10.0","https://app.prolific.com/","pt-PT,pt;q=0.9,en-US;q=0.8,en;q=0.7","5da03c3607c83700140a3d8f","683db6dfa200031b80f2a654","6865078aaaaa1dced8a67608","5da03c3607c83700140a3d8f","","","","","","","","","","","","","","","","","","","","","","","","","","","","","","","","","","","","","","","","","","","","","",""
"7311","","","{""yellow_ball"":[""Ball doesn‘t move and I get -1 penalty point""]}","survey-multi-select","27","636800","0.0-8.0-6.0-0.0","68","1","2025-07-02 10:19:00","80fe4187154257d5fb01684ea91b68b9","94.60.138.208","Mozilla/5.0 (Windows NT 10.0; Win64; x64) AppleWebKit/537.36 (KHTML, like Gecko) Chrome/137.0.0.0 Safari/537.36","WebKit","Chrome","137.0.0.0","Windows","10.0","https://app.prolific.com/","pt-PT,pt;q=0.9,en-US;q=0.8,en;q=0.7","5da03c3607c83700140a3d8f","683db6dfa200031b80f2a654","6865078aaaaa1dced8a67608","5da03c3607c83700140a3d8f","","","[0]","","","","quiz","","","","","","","","","","","","","","","","","","","","","","","","","","","","","","","","","","","","","true","",""
"2040","","<p align='center'><b>CORRECT!</b> Indeed, the yellow ball never moves and you receive a penalty.</p>","0","html-button-response","28","638842","0.0-8.0-6.0-1.0","68","1","2025-07-02 10:19:00","80fe4187154257d5fb01684ea91b68b9","94.60.138.208","Mozilla/5.0 (Windows NT 10.0; Win64; x64) AppleWebKit/537.36 (KHTML, like Gecko) Chrome/137.0.0.0 Safari/537.36","WebKit","Chrome","137.0.0.0","Windows","10.0","https://app.prolific.com/","pt-PT,pt;q=0.9,en-US;q=0.8,en;q=0.7","5da03c3607c83700140a3d8f","683db6dfa200031b80f2a654","6865078aaaaa1dced8a67608","5da03c3607c83700140a3d8f","","","","","","","","","","","","","","","","","","","","","","","","","","","","","","","","","","","","","","","","","","","","","",""
"4683","","","{""blue_ball"":[""Ball doesn‘t move and I get -1 penalty point""]}","survey-multi-select","29","643526","0.0-8.0-7.0-0.0","68","1","2025-07-02 10:19:00","80fe4187154257d5fb01684ea91b68b9","94.60.138.208","Mozilla/5.0 (Windows NT 10.0; Win64; x64) AppleWebKit/537.36 (KHTML, like Gecko) Chrome/137.0.0.0 Safari/537.36","WebKit","Chrome","137.0.0.0","Windows","10.0","https://app.prolific.com/","pt-PT,pt;q=0.9,en-US;q=0.8,en;q=0.7","5da03c3607c83700140a3d8f","683db6dfa200031b80f2a654","6865078aaaaa1dced8a67608","5da03c3607c83700140a3d8f","","","[0]","","","","quiz","","","","","","","","","","","","","","","","","","","","","","","","","","","","","","","","","","","","","false","",""
"3279","","<p align='center'><b>INCORRECT.</b> The blue ball always shakes and moves randomly.</p>","0","html-button-response","30","646807","0.0-8.0-7.0-1.0","68","1","2025-07-02 10:19:00","80fe4187154257d5fb01684ea91b68b9","94.60.138.208","Mozilla/5.0 (Windows NT 10.0; Win64; x64) AppleWebKit/537.36 (KHTML, like Gecko) Chrome/137.0.0.0 Safari/537.36","WebKit","Chrome","137.0.0.0","Windows","10.0","https://app.prolific.com/","pt-PT,pt;q=0.9,en-US;q=0.8,en;q=0.7","5da03c3607c83700140a3d8f","683db6dfa200031b80f2a654","6865078aaaaa1dced8a67608","5da03c3607c83700140a3d8f","","","","","","","","","","","","","","","","","","","","","","","","","","","","","","","","","","","","","","","","","","","","","",""
"6029","","","{""blue_ball"":[""Ball always shakes and moves in a random direction""]}","survey-multi-select","31","652838","0.0-8.0-7.1-0.1","68","1","2025-07-02 10:19:00","80fe4187154257d5fb01684ea91b68b9","94.60.138.208","Mozilla/5.0 (Windows NT 10.0; Win64; x64) AppleWebKit/537.36 (KHTML, like Gecko) Chrome/137.0.0.0 Safari/537.36","WebKit","Chrome","137.0.0.0","Windows","10.0","https://app.prolific.com/","pt-PT,pt;q=0.9,en-US;q=0.8,en;q=0.7","5da03c3607c83700140a3d8f","683db6dfa200031b80f2a654","6865078aaaaa1dced8a67608","5da03c3607c83700140a3d8f","","","[0]","","","","quiz","","","","","","","","","","","","","","","","","","","","","","","","","","","","","","","","","","","","","true","",""
"4552","","<p align='center'><b>CORRECT!</b> Indeed, the blue ball always shakes and moves in a random direction. Also there is a penalty of -1 point.</p>","0","html-button-response","32","657392","0.0-8.0-7.1-1.1","68","1","2025-07-02 10:19:00","80fe4187154257d5fb01684ea91b68b9","94.60.138.208","Mozilla/5.0 (Windows NT 10.0; Win64; x64) AppleWebKit/537.36 (KHTML, like Gecko) Chrome/137.0.0.0 Safari/537.36","WebKit","Chrome","137.0.0.0","Windows","10.0","https://app.prolific.com/","pt-PT,pt;q=0.9,en-US;q=0.8,en;q=0.7","5da03c3607c83700140a3d8f","683db6dfa200031b80f2a654","6865078aaaaa1dced8a67608","5da03c3607c83700140a3d8f","","","","","","","","","","","","","","","","","","","","","","","","","","","","","","","","","","","","","","","","","","","","","",""
"5150","","","{""bonus"":[""When I reach 50% of points""]}","survey-multi-select","33","662543","0.0-8.0-8.0-0.0","68","1","2025-07-02 10:19:00","80fe4187154257d5fb01684ea91b68b9","94.60.138.208","Mozilla/5.0 (Windows NT 10.0; Win64; x64) AppleWebKit/537.36 (KHTML, like Gecko) Chrome/137.0.0.0 Safari/537.36","WebKit","Chrome","137.0.0.0","Windows","10.0","https://app.prolific.com/","pt-PT,pt;q=0.9,en-US;q=0.8,en;q=0.7","5da03c3607c83700140a3d8f","683db6dfa200031b80f2a654","6865078aaaaa1dced8a67608","5da03c3607c83700140a3d8f","","","[0]","","","","quiz","","","","","","","","","","","","","","","","","","","","","","","","","","","","","","","","","","","","","true","",""
"1802","","<p align='center'><b>CORRECT!</b> Indeed, you receive 2 pounds extra when you reach 50% of points.</p>","0","html-button-response","34","664347","0.0-8.0-8.0-1.0","68","1","2025-07-02 10:19:00","80fe4187154257d5fb01684ea91b68b9","94.60.138.208","Mozilla/5.0 (Windows NT 10.0; Win64; x64) AppleWebKit/537.36 (KHTML, like Gecko) Chrome/137.0.0.0 Safari/537.36","WebKit","Chrome","137.0.0.0","Windows","10.0","https://app.prolific.com/","pt-PT,pt;q=0.9,en-US;q=0.8,en;q=0.7","5da03c3607c83700140a3d8f","683db6dfa200031b80f2a654","6865078aaaaa1dced8a67608","5da03c3607c83700140a3d8f","","","","","","","","","","","","","","","","","","","","","","","","","","","","","","","","","","","","","","","","","","","","","",""
"5173","","","","instructions","35","669521","0.0-8.0-9.0","68","1","2025-07-02 10:19:00","80fe4187154257d5fb01684ea91b68b9","94.60.138.208","Mozilla/5.0 (Windows NT 10.0; Win64; x64) AppleWebKit/537.36 (KHTML, like Gecko) Chrome/137.0.0.0 Safari/537.36","WebKit","Chrome","137.0.0.0","Windows","10.0","https://app.prolific.com/","pt-PT,pt;q=0.9,en-US;q=0.8,en;q=0.7","5da03c3607c83700140a3d8f","683db6dfa200031b80f2a654","6865078aaaaa1dced8a67608","5da03c3607c83700140a3d8f","","[{""page_index"":0,""viewing_time"":5173}]","","","","","","","","","","","","","","","","","","","","","","","","","","","","","","","","","","","","","","","","","","","",""
"12436","","<p>Before you start with this game please answer the following three questions yourself. </p>
  <p>Through this game, we measure several aspects of your cognitive performance, such as reaction times, multi-tasking capabilities </p>
  <p>and the ability to assess the situation you are in.</p>
  <p></p>
  <p><b>How good do you usually are in such tasks?</b></p>","33","html-slider-response","36","681958","0.0-9.0-0.0","68","1","2025-07-02 10:19:00","80fe4187154257d5fb01684ea91b68b9","94.60.138.208","Mozilla/5.0 (Windows NT 10.0; Win64; x64) AppleWebKit/537.36 (KHTML, like Gecko) Chrome/137.0.0.0 Safari/537.36","WebKit","Chrome","137.0.0.0","Windows","10.0","https://app.prolific.com/","pt-PT,pt;q=0.9,en-US;q=0.8,en;q=0.7","5da03c3607c83700140a3d8f","683db6dfa200031b80f2a654","6865078aaaaa1dced8a67608","5da03c3607c83700140a3d8f","2025-07-02T10:30:21.926Z","","","","","","PreSkillQ","","","","","","","","","","","","","","","","","","","","","","","","","","","","","","","","","","","","","","50",""
"3643","","<div style=""width:500px;"">
  <p>How well do you think you will perform in this task compared to other participants?</p>
  </div>","37","html-slider-response","37","685603","0.0-9.0-1.0","68","1","2025-07-02 10:19:00","80fe4187154257d5fb01684ea91b68b9","94.60.138.208","Mozilla/5.0 (Windows NT 10.0; Win64; x64) AppleWebKit/537.36 (KHTML, like Gecko) Chrome/137.0.0.0 Safari/537.36","WebKit","Chrome","137.0.0.0","Windows","10.0","https://app.prolific.com/","pt-PT,pt;q=0.9,en-US;q=0.8,en;q=0.7","5da03c3607c83700140a3d8f","683db6dfa200031b80f2a654","6865078aaaaa1dced8a67608","5da03c3607c83700140a3d8f","2025-07-02T10:30:25.570Z","","","","","","PrePerfQ","","","","","","","","","","","","","","","","","","","","","","","","","","","","","","","","","","","","","","50",""
"5880","","<div style=""width:500px;"">
  <p>What best describes how you currently feel?</p>
  </div>","38","html-slider-response","38","691484","0.0-9.0-2.0","68","1","2025-07-02 10:19:00","80fe4187154257d5fb01684ea91b68b9","94.60.138.208","Mozilla/5.0 (Windows NT 10.0; Win64; x64) AppleWebKit/537.36 (KHTML, like Gecko) Chrome/137.0.0.0 Safari/537.36","WebKit","Chrome","137.0.0.0","Windows","10.0","https://app.prolific.com/","pt-PT,pt;q=0.9,en-US;q=0.8,en;q=0.7","5da03c3607c83700140a3d8f","683db6dfa200031b80f2a654","6865078aaaaa1dced8a67608","5da03c3607c83700140a3d8f","2025-07-02T10:30:31.451Z","","","","","","PreMotivationQ","","","","","","","","","","","","","","","","","","","","","","","","","","","","","","","","","","","","","","50",""
"","","","","ctl-task-cpt","39","712390","0.0-10.0-0.0","68","1","2025-07-02 10:19:00","80fe4187154257d5fb01684ea91b68b9","94.60.138.208","Mozilla/5.0 (Windows NT 10.0; Win64; x64) AppleWebKit/537.36 (KHTML, like Gecko) Chrome/137.0.0.0 Safari/537.36","WebKit","Chrome","137.0.0.0","Windows","10.0","https://app.prolific.com/","pt-PT,pt;q=0.9,en-US;q=0.8,en;q=0.7","5da03c3607c83700140a3d8f","683db6dfa200031b80f2a654","6865078aaaaa1dced8a67608","5da03c3607c83700140a3d8f","2025-07-02T10:30:52.357Z","","","","","","","","","","","","","","","","win-only","1","g1:NE,g2:SW","1","1","0","692870.6","2813","7816.7","17887","1","4","4","6","1","1","1","1","0","0.007575757575757576","1151.7","3000","1490","[""up"",""right""]","{""num_key_presses"":4,""num_perfect"":4,""num_errors"":0,""num_randdir"":0,""num_randdir_good_moves"":0,""num_whilered"":0,""num_whileblue"":0,""num_blue"":0,""num_good_moves"":4}","[293.22232142857143,293.12857142857143,0.2,293.22232142857143,293.12857142857143,102.8,293.22232142857143,293.12857142857143,207.8,293.22232142857143,293.12857142857143,307.8,293.22232142857143,293.12857142857143,412.8,293.22232142857143,293.12857142857143,517.3,361.22232142857143,253.12857142857143,618.5,503.22232142857143,129.12857142857143,724.2,511.22232142857143,122.12857142857143,828.7,581.2223214285714,30.128571428571426,933.2,591.2223214285714,18.128571428571426,1037.4,591.2223214285714,18.128571428571426,1142.7,591.2223214285714,18.128571428571426,1247.3,591.2223214285714,18.128571428571426,1348.9,591.2223214285714,18.128571428571426,1452.6,591.2223214285714,18.128571428571426,1559.5,591.2223214285714,18.128571428571426,1662.9,591.2223214285714,18.128571428571426,1763.2,591.2223214285714,18.128571428571426,1868.7,591.2223214285714,18.128571428571426,1968.7,591.2223214285714,18.128571428571426,2072.4,591.2223214285714,18.128571428571426,2172.7,591.2223214285714,18.128571428571426,2274,591.2223214285714,18.128571428571426,2378.7,591.2223214285714,18.128571428571426,2479.4,591.2223214285714,18.128571428571426,2582.4,591.2223214285714,18.128571428571426,2682.8,591.2223214285714,18.128571428571426,2788.3,591.2223214285714,18.128571428571426,2893.2,591.2223214285714,18.128571428571426,2997.4,591.2223214285714,18.128571428571426,3098.6,591.2223214285714,18.128571428571426,3198.7,591.2223214285714,18.128571428571426,3302.7,591.2223214285714,18.128571428571426,3403.2,591.2223214285714,18.128571428571426,3508.8,591.2223214285714,18.128571428571426,3609,591.2223214285714,18.128571428571426,3712.9,591.2223214285714,18.128571428571426,3818.8,591.2223214285714,18.128571428571426,3922.3,591.2223214285714,18.128571428571426,4024.5,591.2223214285714,18.128571428571426,4128,591.2223214285714,18.128571428571426,4228,591.2223214285714,18.128571428571426,4332.4,591.2223214285714,18.128571428571426,4432.4,591.2223214285714,18.128571428571426,4532.4,591.2223214285714,18.128571428571426,4633.2,591.2223214285714,18.128571428571426,4737.7,591.2223214285714,18.128571428571426,4839.1,591.2223214285714,18.128571428571426,4942.4]","[1356.3,1356.3,1000,0,356.3,""smooth"",""up"",""up"",""good_move"",3881.1,2524.3,2118.5,1356.9,405.7,""smooth"",""up"",""up"",""good_move"",6646.2,2764.9,2392.7,3881.3,372.2,""smooth"",""right"",""right"",""good_move"",9977.8,3331.3,2932.6,6646.5,398.7,""smooth"",""right"",""right"",""good_move""]","","",""
"4379","","<div style=""width:500px;"">
  <p>What determined the result of this run?</p>
  </div>","100","html-slider-response","40","716771","0.0-10.0-1.0","68","1","2025-07-02 10:19:00","80fe4187154257d5fb01684ea91b68b9","94.60.138.208","Mozilla/5.0 (Windows NT 10.0; Win64; x64) AppleWebKit/537.36 (KHTML, like Gecko) Chrome/137.0.0.0 Safari/537.36","WebKit","Chrome","137.0.0.0","Windows","10.0","https://app.prolific.com/","pt-PT,pt;q=0.9,en-US;q=0.8,en;q=0.7","5da03c3607c83700140a3d8f","683db6dfa200031b80f2a654","6865078aaaaa1dced8a67608","5da03c3607c83700140a3d8f","2025-07-02T10:30:56.738Z","","","","","","AttribQ","","","","","","","","","","","","","","","","","","","","","","","","","","","","","","","","","","","","","","50",""
"3375","","<div style=""width:500px;"">
  <p>How much control did you have over the ball?</p>
  </div>","100","html-slider-response","41","720148","0.0-10.0-2.0","68","1","2025-07-02 10:19:00","80fe4187154257d5fb01684ea91b68b9","94.60.138.208","Mozilla/5.0 (Windows NT 10.0; Win64; x64) AppleWebKit/537.36 (KHTML, like Gecko) Chrome/137.0.0.0 Safari/537.36","WebKit","Chrome","137.0.0.0","Windows","10.0","https://app.prolific.com/","pt-PT,pt;q=0.9,en-US;q=0.8,en;q=0.7","5da03c3607c83700140a3d8f","683db6dfa200031b80f2a654","6865078aaaaa1dced8a67608","5da03c3607c83700140a3d8f","2025-07-02T10:31:00.115Z","","","","","","ControlQ","","","","","","","","","","","","","","","","","","","","","","","","","","","","","","","","","","","","","","50",""
"5170","","<div style=""width:500px;"">
  <p>How would you describe your current emotional state?</p>
  </div>","57","html-slider-response","42","725319","0.0-10.0-3.0","68","1","2025-07-02 10:19:00","80fe4187154257d5fb01684ea91b68b9","94.60.138.208","Mozilla/5.0 (Windows NT 10.0; Win64; x64) AppleWebKit/537.36 (KHTML, like Gecko) Chrome/137.0.0.0 Safari/537.36","WebKit","Chrome","137.0.0.0","Windows","10.0","https://app.prolific.com/","pt-PT,pt;q=0.9,en-US;q=0.8,en;q=0.7","5da03c3607c83700140a3d8f","683db6dfa200031b80f2a654","6865078aaaaa1dced8a67608","5da03c3607c83700140a3d8f","2025-07-02T10:31:05.286Z","","","","","","StressQ","","","","","","","","","","","","","","","","","","","","","","","","","","","","","","","","","","","","","","50",""
"4218","","<div style=""width:500px;"">
  <p>What best describes how you currently feel?</p>
  </div>","81","html-slider-response","43","729538","0.0-10.0-4.0","68","1","2025-07-02 10:19:00","80fe4187154257d5fb01684ea91b68b9","94.60.138.208","Mozilla/5.0 (Windows NT 10.0; Win64; x64) AppleWebKit/537.36 (KHTML, like Gecko) Chrome/137.0.0.0 Safari/537.36","WebKit","Chrome","137.0.0.0","Windows","10.0","https://app.prolific.com/","pt-PT,pt;q=0.9,en-US;q=0.8,en;q=0.7","5da03c3607c83700140a3d8f","683db6dfa200031b80f2a654","6865078aaaaa1dced8a67608","5da03c3607c83700140a3d8f","2025-07-02T10:31:09.506Z","","","","","","MotivationQ","","","","","","","","","","","","","","","","","","","","","","","","","","","","","","","","","","","","","","50",""
"","","","","ctl-task-cpt","44","756727","0.0-10.0-0.1","68","1","2025-07-02 10:19:00","80fe4187154257d5fb01684ea91b68b9","94.60.138.208","Mozilla/5.0 (Windows NT 10.0; Win64; x64) AppleWebKit/537.36 (KHTML, like Gecko) Chrome/137.0.0.0 Safari/537.36","WebKit","Chrome","137.0.0.0","Windows","10.0","https://app.prolific.com/","pt-PT,pt;q=0.9,en-US;q=0.8,en;q=0.7","5da03c3607c83700140a3d8f","683db6dfa200031b80f2a654","6865078aaaaa1dced8a67608","5da03c3607c83700140a3d8f","2025-07-02T10:31:36.694Z","","","","","","","","","","","","","","","","win-only","1","g1:NE,g2:SW","0.9","2","0","730924.5","2378.5","7380.7","24170.5","1","4","8","6","2","8","7","8","1","0.06060606060606061","1982.4","3000","1300","[""down"",""left""]","{""num_key_presses"":6,""num_perfect"":5,""num_errors"":1,""num_randdir"":0,""num_randdir_good_moves"":0,""num_whilered"":0,""num_whileblue"":1,""num_blue"":1,""num_good_moves"":6}","[299.22232142857143,295.12857142857143,0.1,299.22232142857143,295.12857142857143,102.9,299.22232142857143,295.12857142857143,206.8,299.22232142857143,295.12857142857143,307.6,299.22232142857143,295.12857142857143,413.9,299.22232142857143,295.12857142857143,517.5,299.22232142857143,295.12857142857143,617.8,299.22232142857143,295.12857142857143,722.5,299.22232142857143,295.12857142857143,823,299.22232142857143,295.12857142857143,927.7,299.22232142857143,295.12857142857143,1033.2,-51.777678571428574,549.1285714285714,1137.4,-63.777678571428574,569.1285714285714,1244,-63.777678571428574,569.1285714285714,1344,-63.777678571428574,569.1285714285714,1447,-54.777678571428574,567.1285714285714,1548.2,41.222321428571426,537.1285714285714,1652.8,53.222321428571426,532.1285714285714,1756.8,53.222321428571426,532.1285714285714,1857.7,53.222321428571426,532.1285714285714,1962.6,53.222321428571426,532.1285714285714,2062.8,53.222321428571426,532.1285714285714,2163.7,53.222321428571426,532.1285714285714,2264.1,53.222321428571426,532.1285714285714,2367.7,53.222321428571426,532.1285714285714,2467.7,53.222321428571426,532.1285714285714,2573.4,53.222321428571426,532.1285714285714,2679,53.222321428571426,532.1285714285714,2781.9,53.222321428571426,532.1285714285714,2882.5,53.222321428571426,532.1285714285714,2983.2,53.222321428571426,532.1285714285714,3087.8,53.222321428571426,532.1285714285714,3191.8,53.222321428571426,532.1285714285714,3292.1,53.222321428571426,532.1285714285714,3393,53.222321428571426,532.1285714285714,3497.7,53.222321428571426,532.1285714285714,3602.4,53.222321428571426,532.1285714285714,3702.5,53.222321428571426,532.1285714285714,3807.3,53.222321428571426,532.1285714285714,3912.3,53.222321428571426,532.1285714285714,4012.8,53.222321428571426,532.1285714285714,4117.5,53.222321428571426,532.1285714285714,4217.6,53.222321428571426,532.1285714285714,4322.4,53.222321428571426,532.1285714285714,4427.7,53.222321428571426,532.1285714285714,4528.2,53.222321428571426,532.1285714285714,4633,53.222321428571426,532.1285714285714,4737.7,53.222321428571426,532.1285714285714,4837.8,53.222321428571426,532.1285714285714,4942.8]","[1356.7,1356.7,1000,0,356.7,""smooth"",""down"",""down"",""good_move"",4866.4,3509.4,3126.5,1357.1,382.8,""smooth"",""left"",""left"",""good_move"",7768.7,2901.7,2552.4,4867,349.3,""smooth"",""left"",""left"",""good_move"",10461.9,2693.1,2395.7,7768.9,297.3,""smooth"",""down"",""down"",""good_move"",13370.3,2907.7,2567.9,10462.6,339.8,""smooth"",""down"",""down"",""good_move"",16699.4,3328.9,2989.5,13370.5,339.4,""while_blue"",""left"",""left"",""good_move""]","","",""
"5749","","<div style=""width:500px;"">
  <p>What determined the result of this run?</p>
  </div>","100","html-slider-response","45","762477","0.0-10.0-1.1","68","1","2025-07-02 10:19:00","80fe4187154257d5fb01684ea91b68b9","94.60.138.208","Mozilla/5.0 (Windows NT 10.0; Win64; x64) AppleWebKit/537.36 (KHTML, like Gecko) Chrome/137.0.0.0 Safari/537.36","WebKit","Chrome","137.0.0.0","Windows","10.0","https://app.prolific.com/","pt-PT,pt;q=0.9,en-US;q=0.8,en;q=0.7","5da03c3607c83700140a3d8f","683db6dfa200031b80f2a654","6865078aaaaa1dced8a67608","5da03c3607c83700140a3d8f","2025-07-02T10:31:42.444Z","","","","","","AttribQ","","","","","","","","","","","","","","","","","","","","","","","","","","","","","","","","","","","","","","50",""
"4091","","<div style=""width:500px;"">
  <p>How much control did you have over the ball?</p>
  </div>","94","html-slider-response","46","766570","0.0-10.0-2.1","68","1","2025-07-02 10:19:00","80fe4187154257d5fb01684ea91b68b9","94.60.138.208","Mozilla/5.0 (Windows NT 10.0; Win64; x64) AppleWebKit/537.36 (KHTML, like Gecko) Chrome/137.0.0.0 Safari/537.36","WebKit","Chrome","137.0.0.0","Windows","10.0","https://app.prolific.com/","pt-PT,pt;q=0.9,en-US;q=0.8,en;q=0.7","5da03c3607c83700140a3d8f","683db6dfa200031b80f2a654","6865078aaaaa1dced8a67608","5da03c3607c83700140a3d8f","2025-07-02T10:31:46.537Z","","","","","","ControlQ","","","","","","","","","","","","","","","","","","","","","","","","","","","","","","","","","","","","","","50",""
"3222","","<div style=""width:500px;"">
  <p>How would you describe your current emotional state?</p>
  </div>","64","html-slider-response","47","769793","0.0-10.0-3.1","68","1","2025-07-02 10:19:00","80fe4187154257d5fb01684ea91b68b9","94.60.138.208","Mozilla/5.0 (Windows NT 10.0; Win64; x64) AppleWebKit/537.36 (KHTML, like Gecko) Chrome/137.0.0.0 Safari/537.36","WebKit","Chrome","137.0.0.0","Windows","10.0","https://app.prolific.com/","pt-PT,pt;q=0.9,en-US;q=0.8,en;q=0.7","5da03c3607c83700140a3d8f","683db6dfa200031b80f2a654","6865078aaaaa1dced8a67608","5da03c3607c83700140a3d8f","2025-07-02T10:31:49.760Z","","","","","","StressQ","","","","","","","","","","","","","","","","","","","","","","","","","","","","","","","","","","","","","","50",""
"3955","","<div style=""width:500px;"">
  <p>What best describes how you currently feel?</p>
  </div>","79","html-slider-response","48","773749","0.0-10.0-4.1","68","1","2025-07-02 10:19:00","80fe4187154257d5fb01684ea91b68b9","94.60.138.208","Mozilla/5.0 (Windows NT 10.0; Win64; x64) AppleWebKit/537.36 (KHTML, like Gecko) Chrome/137.0.0.0 Safari/537.36","WebKit","Chrome","137.0.0.0","Windows","10.0","https://app.prolific.com/","pt-PT,pt;q=0.9,en-US;q=0.8,en;q=0.7","5da03c3607c83700140a3d8f","683db6dfa200031b80f2a654","6865078aaaaa1dced8a67608","5da03c3607c83700140a3d8f","2025-07-02T10:31:53.716Z","","","","","","MotivationQ","","","","","","","","","","","","","","","","","","","","","","","","","","","","","","","","","","","","","","50",""
"","","","","ctl-task-cpt","49","813220","0.0-10.0-0.2","68","1","2025-07-02 10:19:00","80fe4187154257d5fb01684ea91b68b9","94.60.138.208","Mozilla/5.0 (Windows NT 10.0; Win64; x64) AppleWebKit/537.36 (KHTML, like Gecko) Chrome/137.0.0.0 Safari/537.36","WebKit","Chrome","137.0.0.0","Windows","10.0","https://app.prolific.com/","pt-PT,pt;q=0.9,en-US;q=0.8,en;q=0.7","5da03c3607c83700140a3d8f","683db6dfa200031b80f2a654","6865078aaaaa1dced8a67608","5da03c3607c83700140a3d8f","2025-07-02T10:32:33.187Z","","","","","","","","","","","","","","","","win-only","2","g1:SE,g2:NW","0.8","3","0","775135.2","2236.3","7241.9","36450.5","1","4","8","6","2","-8","-10","0","8","0","2265.9","3000","-3015","[""left"",""up""]","{""num_key_presses"":9,""num_perfect"":6,""num_errors"":2,""num_randdir"":1,""num_randdir_good_moves"":0,""num_whilered"":0,""num_whileblue"":2,""num_blue"":3,""num_good_moves"":6}","[296.22232142857143,296.12857142857143,0.1,296.22232142857143,296.12857142857143,104.4,296.22232142857143,296.12857142857143,209,296.22232142857143,296.12857142857143,310,296.22232142857143,296.12857142857143,415.2,296.22232142857143,296.12857142857143,519.4,296.22232142857143,296.12857142857143,620.8,296.22232142857143,296.12857142857143,724.1,296.22232142857143,296.12857142857143,825.2,296.22232142857143,296.12857142857143,925.3,142.22232142857143,211.12857142857143,1025.6,62.222321428571426,101.12857142857143,1131.9,53.222321428571426,82.12857142857143,1235.3,53.222321428571426,81.12857142857143,1339.4,53.222321428571426,81.12857142857143,1444.7,53.222321428571426,81.12857142857143,1545.5,53.222321428571426,81.12857142857143,1645.6,53.222321428571426,81.12857142857143,1746.9,53.222321428571426,81.12857142857143,1849.9,53.222321428571426,81.12857142857143,1954.5,53.222321428571426,81.12857142857143,2054.7,53.222321428571426,81.12857142857143,2154.8,53.222321428571426,81.12857142857143,2260.6,53.222321428571426,81.12857142857143,2364.7,53.222321428571426,81.12857142857143,2464.9,53.222321428571426,81.12857142857143,2569.3,53.222321428571426,81.12857142857143,2669.6,53.222321428571426,81.12857142857143,2775.7,53.222321428571426,81.12857142857143,2875.7,53.222321428571426,81.12857142857143,2977.2,53.222321428571426,81.12857142857143,3079.7,53.222321428571426,81.12857142857143,3184.8,53.222321428571426,81.12857142857143,3289.7,53.222321428571426,81.12857142857143,3395.7,53.222321428571426,81.12857142857143,3499.1,53.222321428571426,81.12857142857143,3600,53.222321428571426,81.12857142857143,3704.6,53.222321428571426,81.12857142857143,3804.7,53.222321428571426,81.12857142857143,3909.2,53.222321428571426,81.12857142857143,4009.8,53.222321428571426,81.12857142857143,4115.1,53.222321428571426,81.12857142857143,4219.1,53.222321428571426,81.12857142857143,4319.4,53.222321428571426,81.12857142857143,4424.4,53.222321428571426,81.12857142857143,4525.4,53.222321428571426,81.12857142857143,4629.4,53.222321428571426,81.12857142857143,4734.1,53.222321428571426,81.12857142857143,4835,53.222321428571426,81.12857142857143,4940.8]","[1488.3,1488.3,1000,0,488.3,""smooth"",""up"",""up"",""good_move"",4669.1,3180.3,2461.9,1488.8,718.4,""smooth"",""left"",""left"",""good_move"",7503.1,2833.6,2357.2,4669.5,476.4,""oops"",""left"",""right"",""bad_move"",10273.6,2770.2,2659.8,7503.5,110.3,""smooth"",""left"",""left"",""good_move"",13713.1,3439.1,3071.3,10274.1,367.7,""smooth"",""up"",""up"",""good_move"",19734.6,6021.1,2194.3,17251.9,288.4,""smooth"",""up"",""up"",""good_move"",22758.8,3024,2688.4,19734.8,335.6,""smooth"",""left"",""left"",""good_move"",25025.7,2266.2,1884.3,22759.5,381.9,""while_blue"",""left"",""down"",""bad_move"",26823.5,1797.4,1297.7,25026.1,499.7,""while_blue"",""up"",""down"",""bad_move""]","","",""
"4978","","<div style=""width:500px;"">
  <p>What determined the result of this run?</p>
  </div>","84","html-slider-response","50","818200","0.0-10.0-1.2","68","1","2025-07-02 10:19:00","80fe4187154257d5fb01684ea91b68b9","94.60.138.208","Mozilla/5.0 (Windows NT 10.0; Win64; x64) AppleWebKit/537.36 (KHTML, like Gecko) Chrome/137.0.0.0 Safari/537.36","WebKit","Chrome","137.0.0.0","Windows","10.0","https://app.prolific.com/","pt-PT,pt;q=0.9,en-US;q=0.8,en;q=0.7","5da03c3607c83700140a3d8f","683db6dfa200031b80f2a654","6865078aaaaa1dced8a67608","5da03c3607c83700140a3d8f","2025-07-02T10:32:38.168Z","","","","","","AttribQ","","","","","","","","","","","","","","","","","","","","","","","","","","","","","","","","","","","","","","50",""
"3646","","<div style=""width:500px;"">
  <p>How much control did you have over the ball?</p>
  </div>","75","html-slider-response","51","821847","0.0-10.0-2.2","68","1","2025-07-02 10:19:00","80fe4187154257d5fb01684ea91b68b9","94.60.138.208","Mozilla/5.0 (Windows NT 10.0; Win64; x64) AppleWebKit/537.36 (KHTML, like Gecko) Chrome/137.0.0.0 Safari/537.36","WebKit","Chrome","137.0.0.0","Windows","10.0","https://app.prolific.com/","pt-PT,pt;q=0.9,en-US;q=0.8,en;q=0.7","5da03c3607c83700140a3d8f","683db6dfa200031b80f2a654","6865078aaaaa1dced8a67608","5da03c3607c83700140a3d8f","2025-07-02T10:32:41.815Z","","","","","","ControlQ","","","","","","","","","","","","","","","","","","","","","","","","","","","","","","","","","","","","","","50",""
"6088","","<div style=""width:500px;"">
  <p>How would you describe your current emotional state?</p>
  </div>","94","html-slider-response","52","827936","0.0-10.0-3.2","68","1","2025-07-02 10:19:00","80fe4187154257d5fb01684ea91b68b9","94.60.138.208","Mozilla/5.0 (Windows NT 10.0; Win64; x64) AppleWebKit/537.36 (KHTML, like Gecko) Chrome/137.0.0.0 Safari/537.36","WebKit","Chrome","137.0.0.0","Windows","10.0","https://app.prolific.com/","pt-PT,pt;q=0.9,en-US;q=0.8,en;q=0.7","5da03c3607c83700140a3d8f","683db6dfa200031b80f2a654","6865078aaaaa1dced8a67608","5da03c3607c83700140a3d8f","2025-07-02T10:32:47.903Z","","","","","","StressQ","","","","","","","","","","","","","","","","","","","","","","","","","","","","","","","","","","","","","","50",""
"3168","","<div style=""width:500px;"">
  <p>What best describes how you currently feel?</p>
  </div>","72","html-slider-response","53","831105","0.0-10.0-4.2","68","1","2025-07-02 10:19:00","80fe4187154257d5fb01684ea91b68b9","94.60.138.208","Mozilla/5.0 (Windows NT 10.0; Win64; x64) AppleWebKit/537.36 (KHTML, like Gecko) Chrome/137.0.0.0 Safari/537.36","WebKit","Chrome","137.0.0.0","Windows","10.0","https://app.prolific.com/","pt-PT,pt;q=0.9,en-US;q=0.8,en;q=0.7","5da03c3607c83700140a3d8f","683db6dfa200031b80f2a654","6865078aaaaa1dced8a67608","5da03c3607c83700140a3d8f","2025-07-02T10:32:51.072Z","","","","","","MotivationQ","","","","","","","","","","","","","","","","","","","","","","","","","","","","","","","","","","","","","","50",""
"","","","","ctl-task-cpt","54","878581","0.0-10.0-0.3","68","1","2025-07-02 10:19:00","80fe4187154257d5fb01684ea91b68b9","94.60.138.208","Mozilla/5.0 (Windows NT 10.0; Win64; x64) AppleWebKit/537.36 (KHTML, like Gecko) Chrome/137.0.0.0 Safari/537.36","WebKit","Chrome","137.0.0.0","Windows","10.0","https://app.prolific.com/","pt-PT,pt;q=0.9,en-US;q=0.8,en;q=0.7","5da03c3607c83700140a3d8f","683db6dfa200031b80f2a654","6865078aaaaa1dced8a67608","5da03c3607c83700140a3d8f","2025-07-02T10:33:38.548Z","","","","","","","","","","","","","","","","win-only","1","g1:NE,g2:SW","0.7","4","0","832492.3","1466.1","6474.1","44455.9","1","4","4","6","2","-4","-5","0","0","0","1711.8","3000","-3010","[""down"",""left""]","{""num_key_presses"":10,""num_perfect"":6,""num_errors"":1,""num_randdir"":3,""num_randdir_good_moves"":1,""num_whilered"":0,""num_whileblue"":0,""num_blue"":2,""num_good_moves"":7}","[297.22232142857143,295.12857142857143,0.2,297.22232142857143,295.12857142857143,105.9,297.22232142857143,295.12857142857143,210.5,297.22232142857143,295.12857142857143,311.5,297.22232142857143,295.12857142857143,412.8,297.22232142857143,295.12857142857143,512.8,297.22232142857143,295.12857142857143,613.6,303.22232142857143,287.12857142857143,715.7,381.22232142857143,212.12857142857143,820.5,143.22232142857143,418.12857142857143,926.3,8.222321428571426,585.1285714285714,1027.8,8.222321428571426,585.1285714285714,1130.5,8.222321428571426,585.1285714285714,1231,8.222321428571426,585.1285714285714,1336.5,25.222321428571426,572.1285714285714,1440,31.222321428571426,565.1285714285714,1540.7,32.222321428571426,564.1285714285714,1645.5,32.222321428571426,564.1285714285714,1749.1,32.222321428571426,564.1285714285714,1849.8,32.222321428571426,564.1285714285714,1954.4,32.222321428571426,564.1285714285714,2055,32.222321428571426,564.1285714285714,2161.3,32.222321428571426,564.1285714285714,2264.1,32.222321428571426,564.1285714285714,2364.9,32.222321428571426,564.1285714285714,2469.2,32.222321428571426,564.1285714285714,2569.2,32.222321428571426,564.1285714285714,2675.8,32.222321428571426,564.1285714285714,2776.5,32.222321428571426,564.1285714285714,2879.7,32.222321428571426,564.1285714285714,2984.6,32.222321428571426,564.1285714285714,3085.1,32.222321428571426,564.1285714285714,3191.7,32.222321428571426,564.1285714285714,3294.9,32.222321428571426,564.1285714285714,3399.4,32.222321428571426,564.1285714285714,3499.6,32.222321428571426,564.1285714285714,3599.9,32.222321428571426,564.1285714285714,3707.7,32.222321428571426,564.1285714285714,3810,32.222321428571426,564.1285714285714,3915.2,32.222321428571426,564.1285714285714,4019.3,32.222321428571426,564.1285714285714,4120.3,32.222321428571426,564.1285714285714,4226.3,32.222321428571426,564.1285714285714,4329.2,32.222321428571426,564.1285714285714,4431.6,32.222321428571426,564.1285714285714,4535.4,32.222321428571426,564.1285714285714,4641.1,32.222321428571426,564.1285714285714,4741.4,32.222321428571426,564.1285714285714,4844.8,32.222321428571426,564.1285714285714,4945]","[517.3,517.3,1000,0,-482.7,""error"",""-"",""-"",""no_move"",8566.9,8049.4,2586.5,5532.7,447.7,""smooth"",""left"",""left"",""good_move"",10913.3,2345.5,1886.8,8567.8,458.7,""smooth"",""left"",""left"",""good_move"",17468.5,6554.6,3192,13926.5,350,""smooth"",""left"",""left"",""good_move"",20596,3127.3,2818.4,17468.7,308.9,""oops"",""down"",""down"",""good_move"",23976.9,3380.6,3072.2,20596.3,308.4,""smooth"",""down"",""down"",""good_move"",27116.3,3139.2,2836.9,23977.1,302.3,""oops"",""down"",""up"",""bad_move"",29825.3,2708.5,2371.7,27116.8,336.8,""oops"",""down"",""up"",""bad_move"",33018.9,3192.9,3148.6,29826,44.3,""smooth"",""down"",""down"",""good_move"",35606.5,2587.3,2254.8,33019.2,332.5,""smooth"",""down"",""down"",""good_move""]","","",""
"5546","","<div style=""width:500px;"">
  <p>What determined the result of this run?</p>
  </div>","31","html-slider-response","55","884128","0.0-10.0-1.3","68","1","2025-07-02 10:19:00","80fe4187154257d5fb01684ea91b68b9","94.60.138.208","Mozilla/5.0 (Windows NT 10.0; Win64; x64) AppleWebKit/537.36 (KHTML, like Gecko) Chrome/137.0.0.0 Safari/537.36","WebKit","Chrome","137.0.0.0","Windows","10.0","https://app.prolific.com/","pt-PT,pt;q=0.9,en-US;q=0.8,en;q=0.7","5da03c3607c83700140a3d8f","683db6dfa200031b80f2a654","6865078aaaaa1dced8a67608","5da03c3607c83700140a3d8f","2025-07-02T10:33:44.095Z","","","","","","AttribQ","","","","","","","","","","","","","","","","","","","","","","","","","","","","","","","","","","","","","","50",""
"3941","","<div style=""width:500px;"">
  <p>How much control did you have over the ball?</p>
  </div>","34","html-slider-response","56","888070","0.0-10.0-2.3","68","1","2025-07-02 10:19:00","80fe4187154257d5fb01684ea91b68b9","94.60.138.208","Mozilla/5.0 (Windows NT 10.0; Win64; x64) AppleWebKit/537.36 (KHTML, like Gecko) Chrome/137.0.0.0 Safari/537.36","WebKit","Chrome","137.0.0.0","Windows","10.0","https://app.prolific.com/","pt-PT,pt;q=0.9,en-US;q=0.8,en;q=0.7","5da03c3607c83700140a3d8f","683db6dfa200031b80f2a654","6865078aaaaa1dced8a67608","5da03c3607c83700140a3d8f","2025-07-02T10:33:48.038Z","","","","","","ControlQ","","","","","","","","","","","","","","","","","","","","","","","","","","","","","","","","","","","","","","50",""
"3596","","<div style=""width:500px;"">
  <p>How would you describe your current emotional state?</p>
  </div>","87","html-slider-response","57","891668","0.0-10.0-3.3","68","1","2025-07-02 10:19:00","80fe4187154257d5fb01684ea91b68b9","94.60.138.208","Mozilla/5.0 (Windows NT 10.0; Win64; x64) AppleWebKit/537.36 (KHTML, like Gecko) Chrome/137.0.0.0 Safari/537.36","WebKit","Chrome","137.0.0.0","Windows","10.0","https://app.prolific.com/","pt-PT,pt;q=0.9,en-US;q=0.8,en;q=0.7","5da03c3607c83700140a3d8f","683db6dfa200031b80f2a654","6865078aaaaa1dced8a67608","5da03c3607c83700140a3d8f","2025-07-02T10:33:51.635Z","","","","","","StressQ","","","","","","","","","","","","","","","","","","","","","","","","","","","","","","","","","","","","","","50",""
"3629","","<div style=""width:500px;"">
  <p>What best describes how you currently feel?</p>
  </div>","75","html-slider-response","58","895298","0.0-10.0-4.3","68","1","2025-07-02 10:19:00","80fe4187154257d5fb01684ea91b68b9","94.60.138.208","Mozilla/5.0 (Windows NT 10.0; Win64; x64) AppleWebKit/537.36 (KHTML, like Gecko) Chrome/137.0.0.0 Safari/537.36","WebKit","Chrome","137.0.0.0","Windows","10.0","https://app.prolific.com/","pt-PT,pt;q=0.9,en-US;q=0.8,en;q=0.7","5da03c3607c83700140a3d8f","683db6dfa200031b80f2a654","6865078aaaaa1dced8a67608","5da03c3607c83700140a3d8f","2025-07-02T10:33:55.265Z","","","","","","MotivationQ","","","","","","","","","","","","","","","","","","","","","","","","","","","","","","","","","","","","","","50",""
"","","","","ctl-task-cpt","59","928763","0.0-10.0-0.4","68","1","2025-07-02 10:19:00","80fe4187154257d5fb01684ea91b68b9","94.60.138.208","Mozilla/5.0 (Windows NT 10.0; Win64; x64) AppleWebKit/537.36 (KHTML, like Gecko) Chrome/137.0.0.0 Safari/537.36","WebKit","Chrome","137.0.0.0","Windows","10.0","https://app.prolific.com/","pt-PT,pt;q=0.9,en-US;q=0.8,en;q=0.7","5da03c3607c83700140a3d8f","683db6dfa200031b80f2a654","6865078aaaaa1dced8a67608","5da03c3607c83700140a3d8f","2025-07-02T10:34:28.730Z","","","","","","","","","","","","","","","","win-only","3","g1:SW,g2:NE","0.6","5","0","896683.6","1654.8","6657.4","30446.8","1","4","8","6","1","1","1","1","0","0.007575757575757576","2077.2","3000","1435","[""down"",""left""]","{""num_key_presses"":4,""num_perfect"":3,""num_errors"":0,""num_randdir"":1,""num_randdir_good_moves"":1,""num_whilered"":0,""num_whileblue"":0,""num_blue"":4,""num_good_moves"":4}","[293.22232142857143,299.12857142857143,0.2,293.22232142857143,299.12857142857143,102.3,293.22232142857143,299.12857142857143,209.2,293.22232142857143,299.12857142857143,311.2,293.22232142857143,299.12857142857143,411.3,293.22232142857143,299.12857142857143,511.3,308.22232142857143,284.12857142857143,611.8,360.22232142857143,240.12857142857143,712.3,105.22232142857143,404.12857142857143,815.8,-34.777678571428574,571.1285714285714,916.2,-34.777678571428574,572.1285714285714,1023.2,-34.777678571428574,572.1285714285714,1126.6,-6.777678571428574,571.1285714285714,1232.3,16.222321428571426,565.1285714285714,1336.7,16.222321428571426,565.1285714285714,1441.8,18.222321428571426,564.1285714285714,1546.3,18.222321428571426,564.1285714285714,1646.4,18.222321428571426,564.1285714285714,1751,18.222321428571426,564.1285714285714,1852.6,18.222321428571426,564.1285714285714,1957.8,18.222321428571426,564.1285714285714,2060.5,18.222321428571426,564.1285714285714,2160.7,18.222321428571426,564.1285714285714,2261.8,18.222321428571426,564.1285714285714,2365.3,18.222321428571426,564.1285714285714,2466,18.222321428571426,564.1285714285714,2572.7,-120.77767857142857,553.1285714285714,2676.3,-172.77767857142857,542.1285714285714,2781.8,-172.77767857142857,542.1285714285714,2885.7,-172.77767857142857,542.1285714285714,2988.5,-172.77767857142857,542.1285714285714,3092.2,-172.77767857142857,542.1285714285714,3195.7,-172.77767857142857,542.1285714285714,3300.8,-172.77767857142857,542.1285714285714,3406.1,-172.77767857142857,542.1285714285714,3509.1,-172.77767857142857,542.1285714285714,3611.3,-172.77767857142857,542.1285714285714,3717.3,-172.77767857142857,542.1285714285714,3823,-172.77767857142857,542.1285714285714,3925.9,-172.77767857142857,542.1285714285714,4026.3,-172.77767857142857,542.1285714285714,4131.3,-172.77767857142857,542.1285714285714,4238,-172.77767857142857,542.1285714285714,4339.5,-172.77767857142857,542.1285714285714,4440.5,-172.77767857142857,542.1285714285714,4541.4,-172.77767857142857,542.1285714285714,4645.6,-172.77767857142857,542.1285714285714,4747.4,-172.77767857142857,542.1285714285714,4851.9,-172.77767857142857,542.1285714285714,4956]","[1391.7,1391.7,1000,0,391.7,""smooth"",""down"",""down"",""good_move"",3708.8,2316.6,1949.6,1392.2,367,""oops"",""down"",""down"",""good_move"",6291.2,2582.2,2202,3709,380.2,""smooth"",""left"",""left"",""good_move"",23705.8,17413.9,2994.9,20260.3,450.7,""smooth"",""left"",""left"",""good_move""]","","",""
"3744","","<div style=""width:500px;"">
  <p>What determined the result of this run?</p>
  </div>","100","html-slider-response","60","932507","0.0-10.0-1.4","68","1","2025-07-02 10:19:00","80fe4187154257d5fb01684ea91b68b9","94.60.138.208","Mozilla/5.0 (Windows NT 10.0; Win64; x64) AppleWebKit/537.36 (KHTML, like Gecko) Chrome/137.0.0.0 Safari/537.36","WebKit","Chrome","137.0.0.0","Windows","10.0","https://app.prolific.com/","pt-PT,pt;q=0.9,en-US;q=0.8,en;q=0.7","5da03c3607c83700140a3d8f","683db6dfa200031b80f2a654","6865078aaaaa1dced8a67608","5da03c3607c83700140a3d8f","2025-07-02T10:34:32.475Z","","","","","","AttribQ","","","","","","","","","","","","","","","","","","","","","","","","","","","","","","","","","","","","","","50",""
"3550","","<div style=""width:500px;"">
  <p>How much control did you have over the ball?</p>
  </div>","100","html-slider-response","61","936059","0.0-10.0-2.4","68","1","2025-07-02 10:19:00","80fe4187154257d5fb01684ea91b68b9","94.60.138.208","Mozilla/5.0 (Windows NT 10.0; Win64; x64) AppleWebKit/537.36 (KHTML, like Gecko) Chrome/137.0.0.0 Safari/537.36","WebKit","Chrome","137.0.0.0","Windows","10.0","https://app.prolific.com/","pt-PT,pt;q=0.9,en-US;q=0.8,en;q=0.7","5da03c3607c83700140a3d8f","683db6dfa200031b80f2a654","6865078aaaaa1dced8a67608","5da03c3607c83700140a3d8f","2025-07-02T10:34:36.026Z","","","","","","ControlQ","","","","","","","","","","","","","","","","","","","","","","","","","","","","","","","","","","","","","","50",""
"3259","","<div style=""width:500px;"">
  <p>How would you describe your current emotional state?</p>
  </div>","70","html-slider-response","62","939319","0.0-10.0-3.4","68","1","2025-07-02 10:19:00","80fe4187154257d5fb01684ea91b68b9","94.60.138.208","Mozilla/5.0 (Windows NT 10.0; Win64; x64) AppleWebKit/537.36 (KHTML, like Gecko) Chrome/137.0.0.0 Safari/537.36","WebKit","Chrome","137.0.0.0","Windows","10.0","https://app.prolific.com/","pt-PT,pt;q=0.9,en-US;q=0.8,en;q=0.7","5da03c3607c83700140a3d8f","683db6dfa200031b80f2a654","6865078aaaaa1dced8a67608","5da03c3607c83700140a3d8f","2025-07-02T10:34:39.286Z","","","","","","StressQ","","","","","","","","","","","","","","","","","","","","","","","","","","","","","","","","","","","","","","50",""
"2707","","<div style=""width:500px;"">
  <p>What best describes how you currently feel?</p>
  </div>","82","html-slider-response","63","942027","0.0-10.0-4.4","68","1","2025-07-02 10:19:00","80fe4187154257d5fb01684ea91b68b9","94.60.138.208","Mozilla/5.0 (Windows NT 10.0; Win64; x64) AppleWebKit/537.36 (KHTML, like Gecko) Chrome/137.0.0.0 Safari/537.36","WebKit","Chrome","137.0.0.0","Windows","10.0","https://app.prolific.com/","pt-PT,pt;q=0.9,en-US;q=0.8,en;q=0.7","5da03c3607c83700140a3d8f","683db6dfa200031b80f2a654","6865078aaaaa1dced8a67608","5da03c3607c83700140a3d8f","2025-07-02T10:34:41.994Z","","","","","","MotivationQ","","","","","","","","","","","","","","","","","","","","","","","","","","","","","","","","","","","","","","50",""
"","","","","ctl-task-cpt","64","993151","0.0-10.0-0.5","68","1","2025-07-02 10:19:00","80fe4187154257d5fb01684ea91b68b9","94.60.138.208","Mozilla/5.0 (Windows NT 10.0; Win64; x64) AppleWebKit/537.36 (KHTML, like Gecko) Chrome/137.0.0.0 Safari/537.36","WebKit","Chrome","137.0.0.0","Windows","10.0","https://app.prolific.com/","pt-PT,pt;q=0.9,en-US;q=0.8,en;q=0.7","5da03c3607c83700140a3d8f","683db6dfa200031b80f2a654","6865078aaaaa1dced8a67608","5da03c3607c83700140a3d8f","2025-07-02T10:35:33.118Z","","","","","","","","","","","","","","","","win-only","2","g1:SE,g2:NW","0.5","6","0","943414","2423.4","7427.4","48100.3","1","4","4","6","1","-1","-2","0","1","0","1858.4","3000","-2995","[""down"",""right""]","{""num_key_presses"":8,""num_perfect"":3,""num_errors"":1,""num_randdir"":4,""num_randdir_good_moves"":2,""num_whilered"":0,""num_whileblue"":1,""num_blue"":6,""num_good_moves"":5}","[294.22232142857143,300.12857142857143,0.2,294.22232142857143,300.12857142857143,101.8,294.22232142857143,300.12857142857143,205.6,294.22232142857143,300.12857142857143,306.3,294.22232142857143,300.12857142857143,407.2,294.22232142857143,300.12857142857143,512.7,294.22232142857143,300.12857142857143,612.7,294.22232142857143,300.12857142857143,713.4,511.22232142857143,412.12857142857143,817.9,518.2223214285714,415.12857142857143,920.2,518.2223214285714,415.12857142857143,1022.6,518.2223214285714,423.12857142857143,1123.2,525.2223214285714,517.1285714285714,1223.9,542.2223214285714,535.1285714285714,1328.9,551.2223214285714,542.1285714285714,1433.9,551.2223214285714,542.1285714285714,1538.4,551.2223214285714,542.1285714285714,1643.8,551.2223214285714,542.1285714285714,1747.6,551.2223214285714,542.1285714285714,1852.7,551.2223214285714,542.1285714285714,1957,551.2223214285714,542.1285714285714,2057,551.2223214285714,542.1285714285714,2158.7,551.2223214285714,542.1285714285714,2261.7,551.2223214285714,542.1285714285714,2364.7,551.2223214285714,542.1285714285714,2470.5,551.2223214285714,542.1285714285714,2571.8,551.2223214285714,542.1285714285714,2673.2,551.2223214285714,542.1285714285714,2777,551.2223214285714,542.1285714285714,2877.5,551.2223214285714,542.1285714285714,2982.1,551.2223214285714,542.1285714285714,3085.1,551.2223214285714,542.1285714285714,3187.2,551.2223214285714,542.1285714285714,3287.8,551.2223214285714,542.1285714285714,3388.1,551.2223214285714,542.1285714285714,3488.4,551.2223214285714,542.1285714285714,3593.2,551.2223214285714,542.1285714285714,3700.7,551.2223214285714,542.1285714285714,3803.8,551.2223214285714,542.1285714285714,3907.3,551.2223214285714,542.1285714285714,4012.2,551.2223214285714,542.1285714285714,4119.8,551.2223214285714,542.1285714285714,4222,551.2223214285714,542.1285714285714,4322.5,551.2223214285714,542.1285714285714,4427.5,551.2223214285714,542.1285714285714,4527.7,551.2223214285714,542.1285714285714,4635,551.2223214285714,542.1285714285714,4735.3,551.2223214285714,542.1285714285714,4839,551.2223214285714,542.1285714285714,4942.9]","[1462,1462.1,1000,0,462.1,""smooth"",""right"",""right"",""good_move"",5162.5,3700.1,3341.9,1462.4,358.2,""oops"",""right"",""down"",""good_move"",7319.9,2156.9,1558.3,5163,598.6,""smooth"",""right"",""right"",""good_move"",13335.2,6014.9,2081.6,10908.6,345,""oops"",""down"",""up"",""bad_move"",16622.6,3287.1,2961.7,13335.5,325.4,""smooth"",""down"",""down"",""good_move"",19900.1,3277.2,2975.3,16622.9,301.9,""while_blue"",""down"",""up"",""bad_move"",35672.3,15772.1,2363,32905,404.4,""oops"",""down"",""left"",""bad_move"",38077.2,2403.9,2035.1,35673.3,368.8,""oops"",""down"",""right"",""good_move""]","","",""
"4178","","<div style=""width:500px;"">
  <p>What determined the result of this run?</p>
  </div>","21","html-slider-response","65","997330","0.0-10.0-1.5","68","1","2025-07-02 10:19:00","80fe4187154257d5fb01684ea91b68b9","94.60.138.208","Mozilla/5.0 (Windows NT 10.0; Win64; x64) AppleWebKit/537.36 (KHTML, like Gecko) Chrome/137.0.0.0 Safari/537.36","WebKit","Chrome","137.0.0.0","Windows","10.0","https://app.prolific.com/","pt-PT,pt;q=0.9,en-US;q=0.8,en;q=0.7","5da03c3607c83700140a3d8f","683db6dfa200031b80f2a654","6865078aaaaa1dced8a67608","5da03c3607c83700140a3d8f","2025-07-02T10:35:37.297Z","","","","","","AttribQ","","","","","","","","","","","","","","","","","","","","","","","","","","","","","","","","","","","","","","50",""
"3280","","<div style=""width:500px;"">
  <p>How much control did you have over the ball?</p>
  </div>","25","html-slider-response","66","1000612","0.0-10.0-2.5","68","1","2025-07-02 10:19:00","80fe4187154257d5fb01684ea91b68b9","94.60.138.208","Mozilla/5.0 (Windows NT 10.0; Win64; x64) AppleWebKit/537.36 (KHTML, like Gecko) Chrome/137.0.0.0 Safari/537.36","WebKit","Chrome","137.0.0.0","Windows","10.0","https://app.prolific.com/","pt-PT,pt;q=0.9,en-US;q=0.8,en;q=0.7","5da03c3607c83700140a3d8f","683db6dfa200031b80f2a654","6865078aaaaa1dced8a67608","5da03c3607c83700140a3d8f","2025-07-02T10:35:40.579Z","","","","","","ControlQ","","","","","","","","","","","","","","","","","","","","","","","","","","","","","","","","","","","","","","50",""
"2740","","<div style=""width:500px;"">
  <p>How would you describe your current emotional state?</p>
  </div>","100","html-slider-response","67","1003353","0.0-10.0-3.5","68","1","2025-07-02 10:19:00","80fe4187154257d5fb01684ea91b68b9","94.60.138.208","Mozilla/5.0 (Windows NT 10.0; Win64; x64) AppleWebKit/537.36 (KHTML, like Gecko) Chrome/137.0.0.0 Safari/537.36","WebKit","Chrome","137.0.0.0","Windows","10.0","https://app.prolific.com/","pt-PT,pt;q=0.9,en-US;q=0.8,en;q=0.7","5da03c3607c83700140a3d8f","683db6dfa200031b80f2a654","6865078aaaaa1dced8a67608","5da03c3607c83700140a3d8f","2025-07-02T10:35:43.320Z","","","","","","StressQ","","","","","","","","","","","","","","","","","","","","","","","","","","","","","","","","","","","","","","50",""
"3104","","<div style=""width:500px;"">
  <p>What best describes how you currently feel?</p>
  </div>","78","html-slider-response","68","1006459","0.0-10.0-4.5","68","1","2025-07-02 10:19:00","80fe4187154257d5fb01684ea91b68b9","94.60.138.208","Mozilla/5.0 (Windows NT 10.0; Win64; x64) AppleWebKit/537.36 (KHTML, like Gecko) Chrome/137.0.0.0 Safari/537.36","WebKit","Chrome","137.0.0.0","Windows","10.0","https://app.prolific.com/","pt-PT,pt;q=0.9,en-US;q=0.8,en;q=0.7","5da03c3607c83700140a3d8f","683db6dfa200031b80f2a654","6865078aaaaa1dced8a67608","5da03c3607c83700140a3d8f","2025-07-02T10:35:46.426Z","","","","","","MotivationQ","","","","","","","","","","","","","","","","","","","","","","","","","","","","","","","","","","","","","","50",""
"","","","","ctl-task-cpt","69","1053154","0.0-10.0-0.6","68","1","2025-07-02 10:19:00","80fe4187154257d5fb01684ea91b68b9","94.60.138.208","Mozilla/5.0 (Windows NT 10.0; Win64; x64) AppleWebKit/537.36 (KHTML, like Gecko) Chrome/137.0.0.0 Safari/537.36","WebKit","Chrome","137.0.0.0","Windows","10.0","https://app.prolific.com/","pt-PT,pt;q=0.9,en-US;q=0.8,en;q=0.7","5da03c3607c83700140a3d8f","683db6dfa200031b80f2a654","6865078aaaaa1dced8a67608","5da03c3607c83700140a3d8f","2025-07-02T10:36:33.121Z","","","","","","","","","","","","","","","","win-only","3","g1:SW,g2:NE","0.4","7","0","1007844.6","1727.8","6740.4","43666.8","1","4","4","6","1","-1","-1","0","0","0","1516.1","3000","-2415","[""down"",""left""]","{""num_key_presses"":10,""num_perfect"":4,""num_errors"":0,""num_randdir"":6,""num_randdir_good_moves"":1,""num_whilered"":0,""num_whileblue"":0,""num_blue"":2,""num_good_moves"":5}","[294.22232142857143,299.12857142857143,0.2,294.22232142857143,299.12857142857143,100,294.22232142857143,299.12857142857143,202,294.22232142857143,299.12857142857143,302.2,294.22232142857143,299.12857142857143,402.6,294.22232142857143,299.12857142857143,507.4,294.22232142857143,299.12857142857143,607.6,224.22232142857143,337.12857142857143,707.7,126.22232142857143,419.12857142857143,817.3,131.22232142857143,426.12857142857143,923,117.22232142857143,485.12857142857143,1030.4,74.22232142857143,527.1285714285714,1132.8,73.22232142857143,528.1285714285714,1234.2,73.22232142857143,528.1285714285714,1337.4,73.22232142857143,528.1285714285714,1437.4,73.22232142857143,528.1285714285714,1551,73.22232142857143,528.1285714285714,1652.4,73.22232142857143,528.1285714285714,1752.8,73.22232142857143,528.1285714285714,1852.9,73.22232142857143,528.1285714285714,1966.7,73.22232142857143,528.1285714285714,2068,73.22232142857143,528.1285714285714,2172.4,73.22232142857143,528.1285714285714,2272.7,73.22232142857143,528.1285714285714,2383.9,73.22232142857143,528.1285714285714,2487.8,73.22232142857143,528.1285714285714,2587.9,73.22232142857143,528.1285714285714,2687.9,73.22232142857143,528.1285714285714,2798.8,73.22232142857143,528.1285714285714,2902.3,73.22232142857143,528.1285714285714,3002.9,73.22232142857143,528.1285714285714,3102.9,73.22232142857143,528.1285714285714,3203,73.22232142857143,528.1285714285714,3314.4,73.22232142857143,528.1285714285714,3417.3,73.22232142857143,528.1285714285714,3517.4,73.22232142857143,528.1285714285714,3618.2,73.22232142857143,528.1285714285714,3730.9,73.22232142857143,528.1285714285714,3831.6,73.22232142857143,528.1285714285714,3932.3,73.22232142857143,528.1285714285714,4033.2,73.22232142857143,528.1285714285714,4137.4,73.22232142857143,528.1285714285714,4237.5,73.22232142857143,528.1285714285714,4346.8,73.22232142857143,528.1285714285714,4448,73.22232142857143,528.1285714285714,4552.8,73.22232142857143,528.1285714285714,4652.8,73.22232142857143,528.1285714285714,4752.9,73.22232142857143,528.1285714285714,4853.1,73.22232142857143,528.1285714285714,4960.7]","[1374.3,1374.3,1000,0,374.3,""smooth"",""down"",""down"",""good_move"",3933.1,2558.5,2193.3,1374.6,365.2,""smooth"",""down"",""down"",""good_move"",6157.8,2224.4,1809.7,3933.4,414.7,""oops"",""left"",""right"",""bad_move"",12768.9,6610.6,2569.6,9772.9,426.4,""oops"",""left"",""right"",""bad_move"",15489.2,2720.2,2280.5,12769,439.7,""smooth"",""left"",""left"",""good_move"",20979.7,5489,2321.6,18292,366.1,""oops"",""left"",""right"",""bad_move"",23792,2811.7,2430.4,20980.3,381.3,""oops"",""left"",""right"",""bad_move"",26755,2962.6,2607.5,23792.4,355.1,""smooth"",""left"",""left"",""good_move"",30097.5,3342.2,2976.1,26755.3,366.1,""oops"",""left"",""up"",""bad_move"",33828.1,3730.2,3377.2,30097.9,353,""oops"",""left"",""down"",""good_move""]","","",""
"4128","","<div style=""width:500px;"">
  <p>What determined the result of this run?</p>
  </div>","0","html-slider-response","70","1057284","0.0-10.0-1.6","68","1","2025-07-02 10:19:00","80fe4187154257d5fb01684ea91b68b9","94.60.138.208","Mozilla/5.0 (Windows NT 10.0; Win64; x64) AppleWebKit/537.36 (KHTML, like Gecko) Chrome/137.0.0.0 Safari/537.36","WebKit","Chrome","137.0.0.0","Windows","10.0","https://app.prolific.com/","pt-PT,pt;q=0.9,en-US;q=0.8,en;q=0.7","5da03c3607c83700140a3d8f","683db6dfa200031b80f2a654","6865078aaaaa1dced8a67608","5da03c3607c83700140a3d8f","2025-07-02T10:36:37.251Z","","","","","","AttribQ","","","","","","","","","","","","","","","","","","","","","","","","","","","","","","","","","","","","","","50",""
"2865","","<div style=""width:500px;"">
  <p>How much control did you have over the ball?</p>
  </div>","15","html-slider-response","71","1060149","0.0-10.0-2.6","68","1","2025-07-02 10:19:00","80fe4187154257d5fb01684ea91b68b9","94.60.138.208","Mozilla/5.0 (Windows NT 10.0; Win64; x64) AppleWebKit/537.36 (KHTML, like Gecko) Chrome/137.0.0.0 Safari/537.36","WebKit","Chrome","137.0.0.0","Windows","10.0","https://app.prolific.com/","pt-PT,pt;q=0.9,en-US;q=0.8,en;q=0.7","5da03c3607c83700140a3d8f","683db6dfa200031b80f2a654","6865078aaaaa1dced8a67608","5da03c3607c83700140a3d8f","2025-07-02T10:36:40.117Z","","","","","","ControlQ","","","","","","","","","","","","","","","","","","","","","","","","","","","","","","","","","","","","","","50",""
"2936","","<div style=""width:500px;"">
  <p>How would you describe your current emotional state?</p>
  </div>","100","html-slider-response","72","1063086","0.0-10.0-3.6","68","1","2025-07-02 10:19:00","80fe4187154257d5fb01684ea91b68b9","94.60.138.208","Mozilla/5.0 (Windows NT 10.0; Win64; x64) AppleWebKit/537.36 (KHTML, like Gecko) Chrome/137.0.0.0 Safari/537.36","WebKit","Chrome","137.0.0.0","Windows","10.0","https://app.prolific.com/","pt-PT,pt;q=0.9,en-US;q=0.8,en;q=0.7","5da03c3607c83700140a3d8f","683db6dfa200031b80f2a654","6865078aaaaa1dced8a67608","5da03c3607c83700140a3d8f","2025-07-02T10:36:43.053Z","","","","","","StressQ","","","","","","","","","","","","","","","","","","","","","","","","","","","","","","","","","","","","","","50",""
"2486","","<div style=""width:500px;"">
  <p>What best describes how you currently feel?</p>
  </div>","81","html-slider-response","73","1065574","0.0-10.0-4.6","68","1","2025-07-02 10:19:00","80fe4187154257d5fb01684ea91b68b9","94.60.138.208","Mozilla/5.0 (Windows NT 10.0; Win64; x64) AppleWebKit/537.36 (KHTML, like Gecko) Chrome/137.0.0.0 Safari/537.36","WebKit","Chrome","137.0.0.0","Windows","10.0","https://app.prolific.com/","pt-PT,pt;q=0.9,en-US;q=0.8,en;q=0.7","5da03c3607c83700140a3d8f","683db6dfa200031b80f2a654","6865078aaaaa1dced8a67608","5da03c3607c83700140a3d8f","2025-07-02T10:36:45.541Z","","","","","","MotivationQ","","","","","","","","","","","","","","","","","","","","","","","","","","","","","","","","","","","","","","50",""
"","","","","ctl-task-cpt","74","1106194","0.0-10.0-0.7","68","1","2025-07-02 10:19:00","80fe4187154257d5fb01684ea91b68b9","94.60.138.208","Mozilla/5.0 (Windows NT 10.0; Win64; x64) AppleWebKit/537.36 (KHTML, like Gecko) Chrome/137.0.0.0 Safari/537.36","WebKit","Chrome","137.0.0.0","Windows","10.0","https://app.prolific.com/","pt-PT,pt;q=0.9,en-US;q=0.8,en;q=0.7","5da03c3607c83700140a3d8f","683db6dfa200031b80f2a654","6865078aaaaa1dced8a67608","5da03c3607c83700140a3d8f","2025-07-02T10:37:26.161Z","","","","","","","","","","","","","","","","win-only","0","g1:NW,g2:SE","0.3","8","0","1066959.1","1287.8","6291.3","37589.6","1","4","8","6","2","-8","-8","0","0","0","1577.5","3000","-2340","[""down"",""right""]","{""num_key_presses"":10,""num_perfect"":3,""num_errors"":0,""num_randdir"":7,""num_randdir_good_moves"":3,""num_whilered"":0,""num_whileblue"":0,""num_blue"":1,""num_good_moves"":6}","[292.22232142857143,297.12857142857143,0.2,292.22232142857143,297.12857142857143,104.5,292.22232142857143,297.12857142857143,208.7,292.22232142857143,297.12857142857143,311,292.22232142857143,297.12857142857143,413.3,292.22232142857143,297.12857142857143,513.6,292.22232142857143,297.12857142857143,613.7,211.22232142857143,239.12857142857143,713.8,142.22232142857143,160.12857142857143,819.1,377.22232142857143,355.12857142857143,920.8,615.2223214285714,549.1285714285714,1026.4,621.2223214285714,553.1285714285714,1126.7,621.2223214285714,553.1285714285714,1226.8,621.2223214285714,553.1285714285714,1327.7,543.2223214285714,556.1285714285714,1429.1,542.2223214285714,556.1285714285714,1542.2,542.2223214285714,556.1285714285714,1642.5,542.2223214285714,556.1285714285714,1748.5,542.2223214285714,556.1285714285714,1854.7,542.2223214285714,556.1285714285714,1957.8,542.2223214285714,556.1285714285714,2058.2,542.2223214285714,556.1285714285714,2163.2,542.2223214285714,556.1285714285714,2264.1,542.2223214285714,556.1285714285714,2374.6,542.2223214285714,556.1285714285714,2475.5,542.2223214285714,556.1285714285714,2578.1,542.2223214285714,556.1285714285714,2678.4,542.2223214285714,556.1285714285714,2778.6,542.2223214285714,556.1285714285714,2884.8,542.2223214285714,556.1285714285714,2984.8,542.2223214285714,556.1285714285714,3088,542.2223214285714,556.1285714285714,3193.4,542.2223214285714,556.1285714285714,3293.9,542.2223214285714,556.1285714285714,3406.7,542.2223214285714,556.1285714285714,3507.5,542.2223214285714,556.1285714285714,3608.1,542.2223214285714,556.1285714285714,3722.5,542.2223214285714,556.1285714285714,3823.3,542.2223214285714,556.1285714285714,3927.9,542.2223214285714,556.1285714285714,4028.6,542.2223214285714,556.1285714285714,4138.7,542.2223214285714,556.1285714285714,4242.9,542.2223214285714,556.1285714285714,4343.5,542.2223214285714,556.1285714285714,4443.9,542.2223214285714,556.1285714285714,4555.8,542.2223214285714,556.1285714285714,4657.4,542.2223214285714,556.1285714285714,4757.7,542.2223214285714,556.1285714285714,4857.8,542.2223214285714,556.1285714285714,4958.2]","[1581,1581,1000,0,581,""smooth"",""right"",""right"",""good_move"",6875,5293.7,1798,4625.3,451.8,""oops"",""right"",""left"",""bad_move"",10155.9,3280.5,2866.9,6875.4,413.6,""smooth"",""down"",""down"",""good_move"",13250.9,3094.8,2716.2,10156.2,378.7,""oops"",""right"",""right"",""good_move"",16047,2795.7,2432.8,13251.3,362.9,""oops"",""down"",""left"",""bad_move"",18782.1,2734.7,2363.5,16047.4,371.2,""oops"",""right"",""left"",""bad_move"",21125.5,2343.2,1995.1,18782.3,348.2,""oops"",""down"",""left"",""bad_move"",23273.8,2148.1,1829,21125.7,319.1,""oops"",""down"",""right"",""good_move"",26371,3096.8,2781.6,23274.2,315.2,""smooth"",""down"",""down"",""good_move"",28716.6,2345.4,2184.1,26371.2,161.3,""oops"",""down"",""down"",""good_move""]","","",""
"3071","","<div style=""width:500px;"">
  <p>What determined the result of this run?</p>
  </div>","11","html-slider-response","75","1109266","0.0-10.0-1.7","68","1","2025-07-02 10:19:00","80fe4187154257d5fb01684ea91b68b9","94.60.138.208","Mozilla/5.0 (Windows NT 10.0; Win64; x64) AppleWebKit/537.36 (KHTML, like Gecko) Chrome/137.0.0.0 Safari/537.36","WebKit","Chrome","137.0.0.0","Windows","10.0","https://app.prolific.com/","pt-PT,pt;q=0.9,en-US;q=0.8,en;q=0.7","5da03c3607c83700140a3d8f","683db6dfa200031b80f2a654","6865078aaaaa1dced8a67608","5da03c3607c83700140a3d8f","2025-07-02T10:37:29.233Z","","","","","","AttribQ","","","","","","","","","","","","","","","","","","","","","","","","","","","","","","","","","","","","","","50",""
"2678","","<div style=""width:500px;"">
  <p>How much control did you have over the ball?</p>
  </div>","12","html-slider-response","76","1111945","0.0-10.0-2.7","68","1","2025-07-02 10:19:00","80fe4187154257d5fb01684ea91b68b9","94.60.138.208","Mozilla/5.0 (Windows NT 10.0; Win64; x64) AppleWebKit/537.36 (KHTML, like Gecko) Chrome/137.0.0.0 Safari/537.36","WebKit","Chrome","137.0.0.0","Windows","10.0","https://app.prolific.com/","pt-PT,pt;q=0.9,en-US;q=0.8,en;q=0.7","5da03c3607c83700140a3d8f","683db6dfa200031b80f2a654","6865078aaaaa1dced8a67608","5da03c3607c83700140a3d8f","2025-07-02T10:37:31.912Z","","","","","","ControlQ","","","","","","","","","","","","","","","","","","","","","","","","","","","","","","","","","","","","","","50",""
"3650","","<div style=""width:500px;"">
  <p>How would you describe your current emotional state?</p>
  </div>","100","html-slider-response","77","1115597","0.0-10.0-3.7","68","1","2025-07-02 10:19:00","80fe4187154257d5fb01684ea91b68b9","94.60.138.208","Mozilla/5.0 (Windows NT 10.0; Win64; x64) AppleWebKit/537.36 (KHTML, like Gecko) Chrome/137.0.0.0 Safari/537.36","WebKit","Chrome","137.0.0.0","Windows","10.0","https://app.prolific.com/","pt-PT,pt;q=0.9,en-US;q=0.8,en;q=0.7","5da03c3607c83700140a3d8f","683db6dfa200031b80f2a654","6865078aaaaa1dced8a67608","5da03c3607c83700140a3d8f","2025-07-02T10:37:35.564Z","","","","","","StressQ","","","","","","","","","","","","","","","","","","","","","","","","","","","","","","","","","","","","","","50",""
"2839","","<div style=""width:500px;"">
  <p>What best describes how you currently feel?</p>
  </div>","72","html-slider-response","78","1118436","0.0-10.0-4.7","68","1","2025-07-02 10:19:00","80fe4187154257d5fb01684ea91b68b9","94.60.138.208","Mozilla/5.0 (Windows NT 10.0; Win64; x64) AppleWebKit/537.36 (KHTML, like Gecko) Chrome/137.0.0.0 Safari/537.36","WebKit","Chrome","137.0.0.0","Windows","10.0","https://app.prolific.com/","pt-PT,pt;q=0.9,en-US;q=0.8,en;q=0.7","5da03c3607c83700140a3d8f","683db6dfa200031b80f2a654","6865078aaaaa1dced8a67608","5da03c3607c83700140a3d8f","2025-07-02T10:37:38.403Z","","","","","","MotivationQ","","","","","","","","","","","","","","","","","","","","","","","","","","","","","","","","","","","","","","50",""
"","","","","ctl-task-cpt","79","1156434","0.0-10.0-0.8","68","1","2025-07-02 10:19:00","80fe4187154257d5fb01684ea91b68b9","94.60.138.208","Mozilla/5.0 (Windows NT 10.0; Win64; x64) AppleWebKit/537.36 (KHTML, like Gecko) Chrome/137.0.0.0 Safari/537.36","WebKit","Chrome","137.0.0.0","Windows","10.0","https://app.prolific.com/","pt-PT,pt;q=0.9,en-US;q=0.8,en;q=0.7","5da03c3607c83700140a3d8f","683db6dfa200031b80f2a654","6865078aaaaa1dced8a67608","5da03c3607c83700140a3d8f","2025-07-02T10:38:16.401Z","","","","","","","","","","","","","","","","win-only","3","g1:SW,g2:NE","0.4","9","0","1119822.3","1677.5","6685.7","34977.1","1","4","8","6","1","-1","-2","0","0","0","1147.9","3000","-2955","[""down"",""left""]","{""num_key_presses"":9,""num_perfect"":4,""num_errors"":1,""num_randdir"":4,""num_randdir_good_moves"":2,""num_whilered"":0,""num_whileblue"":1,""num_blue"":1,""num_good_moves"":5}","[295.22232142857143,301.12857142857143,0.1,295.22232142857143,301.12857142857143,105.1,295.22232142857143,301.12857142857143,211.6,295.22232142857143,301.12857142857143,314.9,295.22232142857143,301.12857142857143,418.1,295.22232142857143,301.12857142857143,518.1,146.22232142857143,473.12857142857143,620.8,124.22232142857143,514.1285714285714,726.2,124.22232142857143,514.1285714285714,828.4,106.22232142857143,518.1285714285714,929,62.222321428571426,528.1285714285714,1029.5,62.222321428571426,528.1285714285714,1133.1,62.222321428571426,528.1285714285714,1236.3,62.222321428571426,528.1285714285714,1341.4,62.222321428571426,528.1285714285714,1443.1,62.222321428571426,528.1285714285714,1543.8,62.222321428571426,528.1285714285714,1647.8,62.222321428571426,528.1285714285714,1748.2,62.222321428571426,528.1285714285714,1848.7,62.222321428571426,528.1285714285714,1954,62.222321428571426,528.1285714285714,2055.3,62.222321428571426,528.1285714285714,2158.5,62.222321428571426,528.1285714285714,2262.9,62.222321428571426,528.1285714285714,2363.4,62.222321428571426,528.1285714285714,2464.6,62.222321428571426,528.1285714285714,2568.3,62.222321428571426,528.1285714285714,2668.3,62.222321428571426,528.1285714285714,2768.7,62.222321428571426,528.1285714285714,2873.3,62.222321428571426,528.1285714285714,2973.3,62.222321428571426,528.1285714285714,3074.3,62.222321428571426,528.1285714285714,3178.7,62.222321428571426,528.1285714285714,3279.5,62.222321428571426,528.1285714285714,3385,62.222321428571426,528.1285714285714,3489,62.222321428571426,528.1285714285714,3593.5,62.222321428571426,528.1285714285714,3698.6,62.222321428571426,528.1285714285714,3800.3,62.222321428571426,528.1285714285714,3904.7,62.222321428571426,528.1285714285714,4008.2,62.222321428571426,528.1285714285714,4108.2,62.222321428571426,528.1285714285714,4213.3,62.222321428571426,528.1285714285714,4320,62.222321428571426,528.1285714285714,4420.3,62.222321428571426,528.1285714285714,4523.2,62.222321428571426,528.1285714285714,4623.5,62.222321428571426,528.1285714285714,4723.7,62.222321428571426,528.1285714285714,4823.9,62.222321428571426,528.1285714285714,4930]","[1415.1,1415.1,1000,0,415.1,""smooth"",""left"",""left"",""good_move"",4043.2,2627.8,2192.2,1415.4,435.6,""oops"",""left"",""right"",""bad_move"",6588.6,2545.2,2149.7,4043.4,395.5,""oops"",""down"",""up"",""bad_move"",9520.3,2931.1,2467.8,6589.3,463.3,""oops"",""up"",""down"",""good_move"",13179.2,3658.3,3336.4,9521,321.8,""smooth"",""right"",""right"",""bad_move"",16925.5,3745.7,3412.4,13179.8,333.3,""oops"",""down"",""down"",""good_move"",20111.6,3185.8,2887.3,16925.8,298.5,""smooth"",""down"",""down"",""good_move"",23116.4,3004.5,2783,20111.9,221.5,""while_blue"",""left"",""up"",""bad_move"",26010.8,2893.6,2470.8,23117.3,422.7,""smooth"",""left"",""left"",""good_move""]","","",""
"5169","","<div style=""width:500px;"">
  <p>What determined the result of this run?</p>
  </div>","32","html-slider-response","80","1161605","0.0-10.0-1.8","68","1","2025-07-02 10:19:00","80fe4187154257d5fb01684ea91b68b9","94.60.138.208","Mozilla/5.0 (Windows NT 10.0; Win64; x64) AppleWebKit/537.36 (KHTML, like Gecko) Chrome/137.0.0.0 Safari/537.36","WebKit","Chrome","137.0.0.0","Windows","10.0","https://app.prolific.com/","pt-PT,pt;q=0.9,en-US;q=0.8,en;q=0.7","5da03c3607c83700140a3d8f","683db6dfa200031b80f2a654","6865078aaaaa1dced8a67608","5da03c3607c83700140a3d8f","2025-07-02T10:38:21.572Z","","","","","","AttribQ","","","","","","","","","","","","","","","","","","","","","","","","","","","","","","","","","","","","","","50",""
"2496","","<div style=""width:500px;"">
  <p>How much control did you have over the ball?</p>
  </div>","32","html-slider-response","81","1164103","0.0-10.0-2.8","68","1","2025-07-02 10:19:00","80fe4187154257d5fb01684ea91b68b9","94.60.138.208","Mozilla/5.0 (Windows NT 10.0; Win64; x64) AppleWebKit/537.36 (KHTML, like Gecko) Chrome/137.0.0.0 Safari/537.36","WebKit","Chrome","137.0.0.0","Windows","10.0","https://app.prolific.com/","pt-PT,pt;q=0.9,en-US;q=0.8,en;q=0.7","5da03c3607c83700140a3d8f","683db6dfa200031b80f2a654","6865078aaaaa1dced8a67608","5da03c3607c83700140a3d8f","2025-07-02T10:38:24.070Z","","","","","","ControlQ","","","","","","","","","","","","","","","","","","","","","","","","","","","","","","","","","","","","","","50",""
"1971","","<div style=""width:500px;"">
  <p>How would you describe your current emotional state?</p>
  </div>","90","html-slider-response","82","1166075","0.0-10.0-3.8","68","1","2025-07-02 10:19:00","80fe4187154257d5fb01684ea91b68b9","94.60.138.208","Mozilla/5.0 (Windows NT 10.0; Win64; x64) AppleWebKit/537.36 (KHTML, like Gecko) Chrome/137.0.0.0 Safari/537.36","WebKit","Chrome","137.0.0.0","Windows","10.0","https://app.prolific.com/","pt-PT,pt;q=0.9,en-US;q=0.8,en;q=0.7","5da03c3607c83700140a3d8f","683db6dfa200031b80f2a654","6865078aaaaa1dced8a67608","5da03c3607c83700140a3d8f","2025-07-02T10:38:26.042Z","","","","","","StressQ","","","","","","","","","","","","","","","","","","","","","","","","","","","","","","","","","","","","","","50",""
"2930","","<div style=""width:500px;"">
  <p>What best describes how you currently feel?</p>
  </div>","69","html-slider-response","83","1169006","0.0-10.0-4.8","68","1","2025-07-02 10:19:00","80fe4187154257d5fb01684ea91b68b9","94.60.138.208","Mozilla/5.0 (Windows NT 10.0; Win64; x64) AppleWebKit/537.36 (KHTML, like Gecko) Chrome/137.0.0.0 Safari/537.36","WebKit","Chrome","137.0.0.0","Windows","10.0","https://app.prolific.com/","pt-PT,pt;q=0.9,en-US;q=0.8,en;q=0.7","5da03c3607c83700140a3d8f","683db6dfa200031b80f2a654","6865078aaaaa1dced8a67608","5da03c3607c83700140a3d8f","2025-07-02T10:38:28.973Z","","","","","","MotivationQ","","","","","","","","","","","","","","","","","","","","","","","","","","","","","","","","","","","","","","50",""
