"rt","response_timestamp","stimulus","response","trial_type","trial_index","time_elapsed","internal_node_id","run_id","condition","recorded_at","source_code_version","ip","user_agent","device","browser","browser_version","platform","platform_version","referer","accept_language","PROLIFIC_PID","STUDY_ID","SESSION_ID","prolific_id","realtime","view_history","question_order","consent","success","question_id","eventType","responses","item_order","radio_event_ids","radio_event_times","key_event_times","mouse_event_times","straightlining","zigzagging","honeypot","which_type","canvas_config","goals_layout","control_level","trial_number","tutorial_trial_number","trial_start_time","phase1_start_time","phase2_start_time","phase3_start_time","goal_1_value","goal_1_distance","goal_2_value","goal_2_distance","goal_selected","outcome","outcome_total","participant_final_score","participant_initial_score","participant_final_score_prop","goal_choice_rt","allocated_time","allocated_time_remaining","goal_direction","counts","mouse_movements","key_presses","correct","slider_start"
"5759","1751451511919","<p style='font-size:40px;line-height:1.25'><strong>Welcome to the experiment!</strong></p><p style='font-size:1.1em;line-height:1.25'>Thank you for your interest in our experiment! Before you begin, it is important that we obtain your informed consent to participate in the study.</p><p style='font-size:1.1em;line-height:1.25'>On the next screen will be an <strong>information sheet</strong> for you to read. To participate in the study we need you to read this information sheet and the following consent form carefully. If you agree with all the statements, please click the <strong>I agree</strong> button.</p><p style='font-size:1.1em;line-height:1.25'>Press <strong>Next</strong> to read the information sheet.</p>","0","custom-html-button-response","0","5766","0.0-0.0","16","1","2025-07-02 10:18:25","80fe4187154257d5fb01684ea91b68b9","185.236.98.146","Mozilla/5.0 (Windows NT 10.0; Win64; x64; rv:138.0) Gecko/20100101 Firefox/138.0","","Firefox","138.0","Windows","10.0","https://app.prolific.com/","pl,en-US;q=0.7,en;q=0.3","5e8126a0d32cbc817a4df7b6","683db6dfa200031b80f2a654","6865075878481eb34bcfc915","5e8126a0d32cbc817a4df7b6","2025-07-02T10:18:31.919Z","","","","","","","","","","","","","","","","","","","","","","","","","","","","","","","","","","","","","","","","","","","",""
"15798","","","","instructions","1","21566","0.0-1.0","16","1","2025-07-02 10:18:25","80fe4187154257d5fb01684ea91b68b9","185.236.98.146","Mozilla/5.0 (Windows NT 10.0; Win64; x64; rv:138.0) Gecko/20100101 Firefox/138.0","","Firefox","138.0","Windows","10.0","https://app.prolific.com/","pl,en-US;q=0.7,en;q=0.3","5e8126a0d32cbc817a4df7b6","683db6dfa200031b80f2a654","6865075878481eb34bcfc915","5e8126a0d32cbc817a4df7b6","","[{""page_index"":0,""viewing_time"":11757},{""page_index"":1,""viewing_time"":4041}]","","","","","","","","","","","","","","","","","","","","","","","","","","","","","","","","","","","","","","","","","","",""
"4868","","","{""Q0"":"""",""Q1"":"""",""Q2"":"""",""Q3"":"""",""Q4"":"""",""Q5"":"""",""Q6"":""I agree""}","survey-multi-choice","2","26440","0.0-2.0","16","1","2025-07-02 10:18:25","80fe4187154257d5fb01684ea91b68b9","185.236.98.146","Mozilla/5.0 (Windows NT 10.0; Win64; x64; rv:138.0) Gecko/20100101 Firefox/138.0","","Firefox","138.0","Windows","10.0","https://app.prolific.com/","pl,en-US;q=0.7,en;q=0.3","5e8126a0d32cbc817a4df7b6","683db6dfa200031b80f2a654","6865075878481eb34bcfc915","5e8126a0d32cbc817a4df7b6","","","[0,1,2,3,4,5,6]","true","","","","","","","","","","","","","","","","","","","","","","","","","","","","","","","","","","","","","","","","",""
"14595","","","","fullscreen","3","42099","0.0-4.0","16","1","2025-07-02 10:18:25","80fe4187154257d5fb01684ea91b68b9","185.236.98.146","Mozilla/5.0 (Windows NT 10.0; Win64; x64; rv:138.0) Gecko/20100101 Firefox/138.0","","Firefox","138.0","Windows","10.0","https://app.prolific.com/","pl,en-US;q=0.7,en;q=0.3","5e8126a0d32cbc817a4df7b6","683db6dfa200031b80f2a654","6865075878481eb34bcfc915","5e8126a0d32cbc817a4df7b6","","","","","true","","","","","","","","","","","","","","","","","","","","","","","","","","","","","","","","","","","","","","","",""
"5601","1751451553855"," <p style='font-size:1.1em;line-height:1.25'>Thank you for completing the consent form and closing all other tabs.</p><p style='font-size:1.1em;line-height:1.25'>We will now invite you to fill in some demographic information and questionnaires, before starting the game.<br>This will take about 5 minutes.<br></p><p style='font-size:1.1em;line-height:1.25'>Press the <strong>Next</strong> button to continue.</p>","0","custom-html-button-response","4","47702","0.0-5.0","16","1","2025-07-02 10:18:25","80fe4187154257d5fb01684ea91b68b9","185.236.98.146","Mozilla/5.0 (Windows NT 10.0; Win64; x64; rv:138.0) Gecko/20100101 Firefox/138.0","","Firefox","138.0","Windows","10.0","https://app.prolific.com/","pl,en-US;q=0.7,en;q=0.3","5e8126a0d32cbc817a4df7b6","683db6dfa200031b80f2a654","6865075878481eb34bcfc915","5e8126a0d32cbc817a4df7b6","2025-07-02T10:19:13.855Z","","","","","","","","","","","","","","","","","","","","","","","","","","","","","","","","","","","","","","","","","","","",""
"3532","","","{""age"":""26""}","survey-text","5","51278","0.0-6.0-0.0","16","1","2025-07-02 10:18:25","80fe4187154257d5fb01684ea91b68b9","185.236.98.146","Mozilla/5.0 (Windows NT 10.0; Win64; x64; rv:138.0) Gecko/20100101 Firefox/138.0","","Firefox","138.0","Windows","10.0","https://app.prolific.com/","pl,en-US;q=0.7,en;q=0.3","5e8126a0d32cbc817a4df7b6","683db6dfa200031b80f2a654","6865075878481eb34bcfc915","5e8126a0d32cbc817a4df7b6","","","","","","0","demographics","","","","","","","","","","","","","","","","","","","","","","","","","","","","","","","","","","","","","",""
"3517","","","{""gender_identity"":""male/man""}","survey-multi-choice","6","54798","0.0-6.0-1.0","16","1","2025-07-02 10:18:25","80fe4187154257d5fb01684ea91b68b9","185.236.98.146","Mozilla/5.0 (Windows NT 10.0; Win64; x64; rv:138.0) Gecko/20100101 Firefox/138.0","","Firefox","138.0","Windows","10.0","https://app.prolific.com/","pl,en-US;q=0.7,en;q=0.3","5e8126a0d32cbc817a4df7b6","683db6dfa200031b80f2a654","6865075878481eb34bcfc915","5e8126a0d32cbc817a4df7b6","","","[0]","","","1","demographics","","","","","","","","","","","","","","","","","","","","","","","","","","","","","","","","","","","","","",""
"2750","","","{""assigned_sex"":""male""}","survey-multi-choice","7","57550","0.0-6.0-2.0","16","1","2025-07-02 10:18:25","80fe4187154257d5fb01684ea91b68b9","185.236.98.146","Mozilla/5.0 (Windows NT 10.0; Win64; x64; rv:138.0) Gecko/20100101 Firefox/138.0","","Firefox","138.0","Windows","10.0","https://app.prolific.com/","pl,en-US;q=0.7,en;q=0.3","5e8126a0d32cbc817a4df7b6","683db6dfa200031b80f2a654","6865075878481eb34bcfc915","5e8126a0d32cbc817a4df7b6","","","[0]","","","2","demographics","","","","","","","","","","","","","","","","","","","","","","","","","","","","","","","","","","","","","",""
"2991","","","{""menstrual_cycle"":""No""}","survey-multi-choice","8","60543","0.0-6.0-3.0","16","1","2025-07-02 10:18:25","80fe4187154257d5fb01684ea91b68b9","185.236.98.146","Mozilla/5.0 (Windows NT 10.0; Win64; x64; rv:138.0) Gecko/20100101 Firefox/138.0","","Firefox","138.0","Windows","10.0","https://app.prolific.com/","pl,en-US;q=0.7,en;q=0.3","5e8126a0d32cbc817a4df7b6","683db6dfa200031b80f2a654","6865075878481eb34bcfc915","5e8126a0d32cbc817a4df7b6","","","[0]","","","4","demographics","","","","","","","","","","","","","","","","","","","","","","","","","","","","","","","","","","","","","",""
"3365","","","{""education"":""Bachelor's Degree (e.g., BA)""}","survey-multi-choice","9","63909","0.0-6.0-4.0","16","1","2025-07-02 10:18:25","80fe4187154257d5fb01684ea91b68b9","185.236.98.146","Mozilla/5.0 (Windows NT 10.0; Win64; x64; rv:138.0) Gecko/20100101 Firefox/138.0","","Firefox","138.0","Windows","10.0","https://app.prolific.com/","pl,en-US;q=0.7,en;q=0.3","5e8126a0d32cbc817a4df7b6","683db6dfa200031b80f2a654","6865075878481eb34bcfc915","5e8126a0d32cbc817a4df7b6","","","[0]","","","5","demographics","","","","","","","","","","","","","","","","","","","","","","","","","","","","","","","","","","","","","",""
"6878","","","{""education"":""Master's Degree (e.g., MSc)""}","survey-multi-choice","10","70790","0.0-6.0-5.0","16","1","2025-07-02 10:18:25","80fe4187154257d5fb01684ea91b68b9","185.236.98.146","Mozilla/5.0 (Windows NT 10.0; Win64; x64; rv:138.0) Gecko/20100101 Firefox/138.0","","Firefox","138.0","Windows","10.0","https://app.prolific.com/","pl,en-US;q=0.7,en;q=0.3","5e8126a0d32cbc817a4df7b6","683db6dfa200031b80f2a654","6865075878481eb34bcfc915","5e8126a0d32cbc817a4df7b6","2025-07-02T10:19:36.943Z","","[0]","","","6","demographics","","","","","","","","","","","","","","","","","","","","","","","","","","","","","","","","","","","","","",""
"67850","","","{""mental_health_condition"":""ADHD"",""mental_health_treatment"":""meds"",""psychiatric_medication"":""medikinet, 10 mg, half a pill/twice a day""}","survey-text","11","138654","0.0-7.0-0.0","16","1","2025-07-02 10:18:25","80fe4187154257d5fb01684ea91b68b9","185.236.98.146","Mozilla/5.0 (Windows NT 10.0; Win64; x64; rv:138.0) Gecko/20100101 Firefox/138.0","","Firefox","138.0","Windows","10.0","https://app.prolific.com/","pl,en-US;q=0.7,en;q=0.3","5e8126a0d32cbc817a4df7b6","683db6dfa200031b80f2a654","6865075878481eb34bcfc915","5e8126a0d32cbc817a4df7b6","2025-07-02T10:20:44.807Z","","","","","1","mental_health","","","","","","","","","","","","","","","","","","","","","","","","","","","","","","","","","","","","","",""
"9245","","","{""depression_history"":[""Yes""]}","survey-multi-select","12","147910","0.0-7.0-1.0","16","1","2025-07-02 10:18:25","80fe4187154257d5fb01684ea91b68b9","185.236.98.146","Mozilla/5.0 (Windows NT 10.0; Win64; x64; rv:138.0) Gecko/20100101 Firefox/138.0","","Firefox","138.0","Windows","10.0","https://app.prolific.com/","pl,en-US;q=0.7,en;q=0.3","5e8126a0d32cbc817a4df7b6","683db6dfa200031b80f2a654","6865075878481eb34bcfc915","5e8126a0d32cbc817a4df7b6","","","[0]","","","","mental_health","","","","","","","","","","","","","","","","","","","","","","","","","","","","","","","","","","","","","",""
"11301","","","{""depression_episodes"":""3-5"",""depression_recent"":""Within the past year""}","survey-multi-choice","13","159213","0.0-7.0-2.0-0.0","16","1","2025-07-02 10:18:25","80fe4187154257d5fb01684ea91b68b9","185.236.98.146","Mozilla/5.0 (Windows NT 10.0; Win64; x64; rv:138.0) Gecko/20100101 Firefox/138.0","","Firefox","138.0","Windows","10.0","https://app.prolific.com/","pl,en-US;q=0.7,en;q=0.3","5e8126a0d32cbc817a4df7b6","683db6dfa200031b80f2a654","6865075878481eb34bcfc915","5e8126a0d32cbc817a4df7b6","2025-07-02T10:21:05.367Z","","[0,1]","","","3","mental_health","","","","","","","","","","","","","","","","","","","","","","","","","","","","","","","","","","","","","",""
"53678","","","","survey-template","14","212897","0.0-7.0-3.0","16","1","2025-07-02 10:18:25","80fe4187154257d5fb01684ea91b68b9","185.236.98.146","Mozilla/5.0 (Windows NT 10.0; Win64; x64; rv:138.0) Gecko/20100101 Firefox/138.0","","Firefox","138.0","Windows","10.0","https://app.prolific.com/","pl,en-US;q=0.7,en;q=0.3","5e8126a0d32cbc817a4df7b6","683db6dfa200031b80f2a654","6865075878481eb34bcfc915","5e8126a0d32cbc817a4df7b6","2025-07-02T10:21:59.050Z","","","","","","ius","{""Q01"":""3"",""Q02"":""3"",""Q03"":""4"",""Q04"":""1"",""Q05"":""1"",""Q06"":""1"",""Q07"":""3"",""Q08"":""0"",""Q09"":""2"",""Q10"":""1"",""Q11"":""2"",""Q12"":""3"",""Q13"":""1""}","[0,1,2,3,4,5,6,7,8,9,10,11,12]","[""Q01"",""Q03"",""Q02"",""Q05"",""Q06"",""Q07"",""Q08"",""Q09"",""Q09"",""Q10"",""Q11"",""Q12"",""Q13"",""Q04""]","[5469,11492,12901,20774,24797,28006,30534,33710,35181,38020,41221,44205,47612,50636]","[]","[5469,8789,11492,12901,16285,20774,23565,24797,28006,30534,33710,35181,38020,41221,44205,47612,48821,50636,53677]","0.38461538461538464","0.3333333333333333","0","","","","","","","","","","","","","","","","","","","","","","","","","","","","",""
"2434","1751451721486","<p style='font-size:1.1em;line-height:1.25'>In the following, we will ask you a few questions relating to your experiences over the past month.<br></p><p style='font-size:1.1em;line-height:1.25'>Press the <strong>Next</strong> button to continue.</p>","0","custom-html-button-response","15","215334","0.0-7.0-4.0","16","1","2025-07-02 10:18:25","80fe4187154257d5fb01684ea91b68b9","185.236.98.146","Mozilla/5.0 (Windows NT 10.0; Win64; x64; rv:138.0) Gecko/20100101 Firefox/138.0","","Firefox","138.0","Windows","10.0","https://app.prolific.com/","pl,en-US;q=0.7,en;q=0.3","5e8126a0d32cbc817a4df7b6","683db6dfa200031b80f2a654","6865075878481eb34bcfc915","5e8126a0d32cbc817a4df7b6","2025-07-02T10:22:01.487Z","","","","","","","","","","","","","","","","","","","","","","","","","","","","","","","","","","","","","","","","","","","",""
"45854","","","","survey-template","16","261191","0.0-7.0-5.0","16","1","2025-07-02 10:18:25","80fe4187154257d5fb01684ea91b68b9","185.236.98.146","Mozilla/5.0 (Windows NT 10.0; Win64; x64; rv:138.0) Gecko/20100101 Firefox/138.0","","Firefox","138.0","Windows","10.0","https://app.prolific.com/","pl,en-US;q=0.7,en;q=0.3","5e8126a0d32cbc817a4df7b6","683db6dfa200031b80f2a654","6865075878481eb34bcfc915","5e8126a0d32cbc817a4df7b6","2025-07-02T10:22:47.344Z","","","","","","pss","{""Q01"":""1"",""Q02"":""2"",""Q03"":""3"",""Q04"":""2"",""Q05"":""2"",""Q06"":""3"",""Q07"":""1"",""Q08"":""3"",""Q09"":""3"",""Q10"":""2""}","[0,1,2,3,4,5,6,7,8,9]","[""Q01"",""Q02"",""Q03"",""Q02"",""Q04"",""Q05"",""Q06"",""Q07"",""Q08"",""Q09"",""Q10""]","[4509,10622,12797,14253,21918,25965,29597,33766,36870,40830,45117]","[]","[0,4509,10622,12797,14253,21918,25965,29597,33766,36870,40830,45117,45853]","0.4","0.5555555555555556","0","","","","","","","","","","","","","","","","","","","","","","","","","","","","",""
"2852","1751451770198","<p style='font-size:1.1em;line-height:1.25'>Thank you for your answers! Now we will ask you a few more questions relating to your feelings in the last 24 hours.<br></p><p style='font-size:1.1em;line-height:1.25'>Press the <strong>Next</strong> button to continue.</p>","0","custom-html-button-response","17","264046","0.0-7.0-6.0","16","1","2025-07-02 10:18:25","80fe4187154257d5fb01684ea91b68b9","185.236.98.146","Mozilla/5.0 (Windows NT 10.0; Win64; x64; rv:138.0) Gecko/20100101 Firefox/138.0","","Firefox","138.0","Windows","10.0","https://app.prolific.com/","pl,en-US;q=0.7,en;q=0.3","5e8126a0d32cbc817a4df7b6","683db6dfa200031b80f2a654","6865075878481eb34bcfc915","5e8126a0d32cbc817a4df7b6","2025-07-02T10:22:50.199Z","","","","","","","","","","","","","","","","","","","","","","","","","","","","","","","","","","","","","","","","","","","",""
"68134","","","","survey-template","18","332185","0.0-7.0-7.0","16","1","2025-07-02 10:18:25","80fe4187154257d5fb01684ea91b68b9","185.236.98.146","Mozilla/5.0 (Windows NT 10.0; Win64; x64; rv:138.0) Gecko/20100101 Firefox/138.0","","Firefox","138.0","Windows","10.0","https://app.prolific.com/","pl,en-US;q=0.7,en;q=0.3","5e8126a0d32cbc817a4df7b6","683db6dfa200031b80f2a654","6865075878481eb34bcfc915","5e8126a0d32cbc817a4df7b6","2025-07-02T10:23:58.338Z","","","","","","drsp","{""Q01"":""1"",""Q02"":""2"",""Q03"":""2"",""Q04"":""3"",""Q05"":""4"",""Q06"":""3"",""Q07"":""3"",""Q08"":""1"",""Q09"":""2"",""Q10"":""3"",""Q11"":""4"",""Q12"":""2"",""Q13"":""3"",""Q14"":""4"",""Q15"":""4"",""Q16"":""4"",""Q17"":""3"",""Q18"":""2"",""Q19"":""1"",""Q20"":""2"",""Q21"":""2""}","[0,1,2,3,4,5,6,7,8,9,10,11,12,13,14,15,16,17,18,19,20]","[""Q01"",""Q02"",""Q03"",""Q04"",""Q05"",""Q06"",""Q07"",""Q08"",""Q09"",""Q10"",""Q11"",""Q12"",""Q13"",""Q14"",""Q15"",""Q16"",""Q17"",""Q17"",""Q18"",""Q18"",""Q19"",""Q20"",""Q21""]","[4942,7565,8309,9964,13396,20468,21724,23604,26260,27957,31780,33452,35781,40708,44476,45012,47285,48076,51796,55580,61356,63956,67324]","[]","[0,4942,6052,7565,8309,9964,13396,20468,21724,23604,26260,27957,31780,33452,35781,40708,43301,44476,45012,47285,48076,51796,55580,61356,63956,66963,67324,68132]","0.3333333333333333","0.65","0","","","","","","","","","","","","","","","","","","","","","","","","","","","","",""
"10200","","","","survey-template","19","342389","0.0-7.0-8.0","16","1","2025-07-02 10:18:25","80fe4187154257d5fb01684ea91b68b9","185.236.98.146","Mozilla/5.0 (Windows NT 10.0; Win64; x64; rv:138.0) Gecko/20100101 Firefox/138.0","","Firefox","138.0","Windows","10.0","https://app.prolific.com/","pl,en-US;q=0.7,en;q=0.3","5e8126a0d32cbc817a4df7b6","683db6dfa200031b80f2a654","6865075878481eb34bcfc915","5e8126a0d32cbc817a4df7b6","2025-07-02T10:24:08.542Z","","","","","","stress","{""Q01"":""3"",""Q02"":""3"",""Q03"":""3""}","[0,1,2]","[""Q01"",""Q02"",""Q03"",""Q03""]","[3153,5281,7639,9560]","[]","[3153,5281,7639,9560,10200]","0.6666666666666666","1","0","","","","","","","","","","","","","","","","","","","","","","","","","","","","",""
"38421","","","","instructions","20","380811","0.0-8.0-0.0","16","1","2025-07-02 10:18:25","80fe4187154257d5fb01684ea91b68b9","185.236.98.146","Mozilla/5.0 (Windows NT 10.0; Win64; x64; rv:138.0) Gecko/20100101 Firefox/138.0","","Firefox","138.0","Windows","10.0","https://app.prolific.com/","pl,en-US;q=0.7,en;q=0.3","5e8126a0d32cbc817a4df7b6","683db6dfa200031b80f2a654","6865075878481eb34bcfc915","5e8126a0d32cbc817a4df7b6","","[{""page_index"":0,""viewing_time"":13413},{""page_index"":1,""viewing_time"":12041},{""page_index"":2,""viewing_time"":3607},{""page_index"":3,""viewing_time"":9360}]","","","","","","","","","","","","","","","","","","","","","","","","","","","","","","","","","","","","","","","","","","",""
"","","","","ctl-task-cpt","21","401285","0.0-8.0-1.0","16","1","2025-07-02 10:18:25","80fe4187154257d5fb01684ea91b68b9","185.236.98.146","Mozilla/5.0 (Windows NT 10.0; Win64; x64; rv:138.0) Gecko/20100101 Firefox/138.0","","Firefox","138.0","Windows","10.0","https://app.prolific.com/","pl,en-US;q=0.7,en;q=0.3","5e8126a0d32cbc817a4df7b6","683db6dfa200031b80f2a654","6865075878481eb34bcfc915","5e8126a0d32cbc817a4df7b6","","","","","","","","","","","","","","","","","win-only","0","g1:NW,g2:SE","1","0","1","382151","2501","6502","17467","2","4","4","6","1","2","2","2","0","0.015151515151515152","1698","4000","3445","[""left"",""up""]","{""num_key_presses"":4,""num_perfect"":4,""num_errors"":0,""num_randdir"":0,""num_randdir_good_moves"":0,""num_whilered"":0,""num_whileblue"":0,""num_blue"":0,""num_good_moves"":4}","[465.8571428571429,463.90713827950617,0,465.8571428571429,463.90713827950617,106,465.8571428571429,463.90713827950617,213,465.8571428571429,463.90713827950617,325,465.8571428571429,463.90713827950617,428,465.8571428571429,463.90713827950617,528,465.8571428571429,463.90713827950617,630,465.8571428571429,463.90713827950617,736,465.8571428571429,463.90713827950617,837,465.8571428571429,463.90713827950617,938,461.3571428571429,460.90713827950617,1045,264.8571428571429,340.90713827950617,1145,134.35714285714286,211.90713827950614,1254,107.35714285714286,163.90713827950614,1366,98.35714285714286,126.40713827950614,1466,86.35714285714286,105.40713827950614,1566,86.35714285714286,105.40713827950614,1667,86.35714285714286,105.40713827950614,1782,117.85714285714286,109.90713827950614,1894,303.8571428571429,220.90713827950614,2013,384.8571428571429,301.90713827950617,2114,384.8571428571429,301.90713827950617,2215,384.8571428571429,301.90713827950617,2320,384.8571428571429,301.90713827950617,2420,384.8571428571429,301.90713827950617,2521,384.8571428571429,301.90713827950617,2621,384.8571428571429,301.90713827950617,2732,384.8571428571429,301.90713827950617,2832,384.8571428571429,301.90713827950617,2933,384.8571428571429,301.90713827950617,3045,384.8571428571429,301.90713827950617,3151,384.8571428571429,301.90713827950617,3261,384.8571428571429,301.90713827950617,3373,384.8571428571429,301.90713827950617,3473,384.8571428571429,301.90713827950617,3577,384.8571428571429,301.90713827950617,3688,384.8571428571429,301.90713827950617,3789,384.8571428571429,301.90713827950617,3900]","[1355,1355,1000,0,355,""smooth"",""left"",""left"",""good_move"",4189,2834,2430.9,1355,403.1,""smooth"",""left"",""left"",""good_move"",7458,3269,2866.2,4189,402.8,""smooth"",""up"",""up"",""good_move"",10685,3227,2869.8,7458,357.2,""smooth"",""up"",""up"",""good_move""]","",""
"11779","","","","instructions","22","413065","0.0-8.0-2.0","16","1","2025-07-02 10:18:25","80fe4187154257d5fb01684ea91b68b9","185.236.98.146","Mozilla/5.0 (Windows NT 10.0; Win64; x64; rv:138.0) Gecko/20100101 Firefox/138.0","","Firefox","138.0","Windows","10.0","https://app.prolific.com/","pl,en-US;q=0.7,en;q=0.3","5e8126a0d32cbc817a4df7b6","683db6dfa200031b80f2a654","6865075878481eb34bcfc915","5e8126a0d32cbc817a4df7b6","","[{""page_index"":0,""viewing_time"":11779}]","","","","","","","","","","","","","","","","","","","","","","","","","","","","","","","","","","","","","","","","","","",""
"","","","","ctl-task-cpt","23","450337","0.0-8.0-3.0","16","1","2025-07-02 10:18:25","80fe4187154257d5fb01684ea91b68b9","185.236.98.146","Mozilla/5.0 (Windows NT 10.0; Win64; x64; rv:138.0) Gecko/20100101 Firefox/138.0","","Firefox","138.0","Windows","10.0","https://app.prolific.com/","pl,en-US;q=0.7,en;q=0.3","5e8126a0d32cbc817a4df7b6","683db6dfa200031b80f2a654","6865075878481eb34bcfc915","5e8126a0d32cbc817a4df7b6","","","","","","","","","","","","","","","","","win-only","0","g1:NW,g2:SE","0.35","0","3","414406","1294","5302","34266","2","4","8","6","2","8","8","8","0","0.06060606060606061","968","4000","2895","[""down"",""right""]","{""num_key_presses"":8,""num_perfect"":4,""num_errors"":0,""num_randdir"":4,""num_randdir_good_moves"":3,""num_whilered"":0,""num_whileblue"":0,""num_blue"":2,""num_good_moves"":7}","[464.3571428571429,448.90713827950617,0,464.3571428571429,448.90713827950617,109,464.3571428571429,448.90713827950617,216,464.3571428571429,462.40713827950617,324,497.3571428571429,520.9071382795062,432,599.3571428571429,610.9071382795062,541,723.8571428571429,756.4071382795062,648,755.3571428571429,802.9071382795062,759,809.3571428571429,829.9071382795062,869,825.8571428571429,820.9071382795062,976,825.8571428571429,820.9071382795062,1086,830.3571428571429,814.9071382795062,1193,857.3571428571429,732.4071382795062,1301,855.8571428571429,721.9071382795062,1407,855.8571428571429,721.9071382795062,1518,855.8571428571429,721.9071382795062,1628,855.8571428571429,721.9071382795062,1736,855.8571428571429,721.9071382795062,1842,855.8571428571429,721.9071382795062,1949,855.8571428571429,721.9071382795062,2060,855.8571428571429,721.9071382795062,2170,855.8571428571429,721.9071382795062,2279,855.8571428571429,721.9071382795062,2391,855.8571428571429,721.9071382795062,2504,855.8571428571429,721.9071382795062,2610,855.8571428571429,721.9071382795062,2718,863.3571428571429,562.9071382795062,2825,819.8571428571429,481.90713827950617,2939,812.3571428571429,481.90713827950617,3046,810.8571428571429,481.90713827950617,3152,810.8571428571429,481.90713827950617,3261,810.8571428571429,481.90713827950617,3371,810.8571428571429,481.90713827950617,3478,810.8571428571429,481.90713827950617,3591,810.8571428571429,481.90713827950617,3701,810.8571428571429,481.90713827950617,3808,810.8571428571429,481.90713827950617,3913]","[1404,1404,1000,0,404,""smooth"",""right"",""right"",""good_move"",4389,2985,2593,1404,392,""smooth"",""down"",""down"",""good_move"",7491,3102,2659,4389,443,""smooth"",""right"",""right"",""good_move"",10296,2805,2437.4,7491,367.6,""oops"",""down"",""left"",""bad_move"",16564,6268,2264.7,13928,371.3,""smooth"",""down"",""down"",""good_move"",22583,6019,2217.7,20005,360.3,""oops"",""right"",""right"",""good_move"",25936,3353,2956.2,22583,396.8,""oops"",""right"",""right"",""good_move"",28730,2794,2417.3,25936,376.7,""oops"",""down"",""down"",""good_move""]","",""
"20414","","","","instructions","24","470750","0.0-8.0-4.0","16","1","2025-07-02 10:18:25","80fe4187154257d5fb01684ea91b68b9","185.236.98.146","Mozilla/5.0 (Windows NT 10.0; Win64; x64; rv:138.0) Gecko/20100101 Firefox/138.0","","Firefox","138.0","Windows","10.0","https://app.prolific.com/","pl,en-US;q=0.7,en;q=0.3","5e8126a0d32cbc817a4df7b6","683db6dfa200031b80f2a654","6865075878481eb34bcfc915","5e8126a0d32cbc817a4df7b6","","[{""page_index"":0,""viewing_time"":10294},{""page_index"":1,""viewing_time"":10120}]","","","","","","","","","","","","","","","","","","","","","","","","","","","","","","","","","","","","","","","","","","",""
"15814","","","{""green_ball"":[""Ball sometimes shakes and moves in a random direction""]}","survey-multi-select","25","486566","0.0-8.0-5.0-0.0","16","1","2025-07-02 10:18:25","80fe4187154257d5fb01684ea91b68b9","185.236.98.146","Mozilla/5.0 (Windows NT 10.0; Win64; x64; rv:138.0) Gecko/20100101 Firefox/138.0","","Firefox","138.0","Windows","10.0","https://app.prolific.com/","pl,en-US;q=0.7,en;q=0.3","5e8126a0d32cbc817a4df7b6","683db6dfa200031b80f2a654","6865075878481eb34bcfc915","5e8126a0d32cbc817a4df7b6","","","[0]","","","","quiz","","","","","","","","","","","","","","","","","","","","","","","","","","","","","","","","","","","","","true",""
"1661","","<p align='center'><b>CORRECT!</b> Indeed, the green ball may sometimes shake and move in a random direction.</p>","0","html-button-response","26","488230","0.0-8.0-5.0-1.0","16","1","2025-07-02 10:18:25","80fe4187154257d5fb01684ea91b68b9","185.236.98.146","Mozilla/5.0 (Windows NT 10.0; Win64; x64; rv:138.0) Gecko/20100101 Firefox/138.0","","Firefox","138.0","Windows","10.0","https://app.prolific.com/","pl,en-US;q=0.7,en;q=0.3","5e8126a0d32cbc817a4df7b6","683db6dfa200031b80f2a654","6865075878481eb34bcfc915","5e8126a0d32cbc817a4df7b6","","","","","","","","","","","","","","","","","","","","","","","","","","","","","","","","","","","","","","","","","","","","",""
"6572","","","{""yellow_ball"":[""Ball doesn‘t move and I get -1 penalty point""]}","survey-multi-select","27","494805","0.0-8.0-6.0-0.0","16","1","2025-07-02 10:18:25","80fe4187154257d5fb01684ea91b68b9","185.236.98.146","Mozilla/5.0 (Windows NT 10.0; Win64; x64; rv:138.0) Gecko/20100101 Firefox/138.0","","Firefox","138.0","Windows","10.0","https://app.prolific.com/","pl,en-US;q=0.7,en;q=0.3","5e8126a0d32cbc817a4df7b6","683db6dfa200031b80f2a654","6865075878481eb34bcfc915","5e8126a0d32cbc817a4df7b6","","","[0]","","","","quiz","","","","","","","","","","","","","","","","","","","","","","","","","","","","","","","","","","","","","true",""
"1047","","<p align='center'><b>CORRECT!</b> Indeed, the yellow ball never moves and you receive a penalty.</p>","0","html-button-response","28","495853","0.0-8.0-6.0-1.0","16","1","2025-07-02 10:18:25","80fe4187154257d5fb01684ea91b68b9","185.236.98.146","Mozilla/5.0 (Windows NT 10.0; Win64; x64; rv:138.0) Gecko/20100101 Firefox/138.0","","Firefox","138.0","Windows","10.0","https://app.prolific.com/","pl,en-US;q=0.7,en;q=0.3","5e8126a0d32cbc817a4df7b6","683db6dfa200031b80f2a654","6865075878481eb34bcfc915","5e8126a0d32cbc817a4df7b6","","","","","","","","","","","","","","","","","","","","","","","","","","","","","","","","","","","","","","","","","","","","",""
"6125","","","{""blue_ball"":[""Ball always shakes and moves in a random direction""]}","survey-multi-select","29","501982","0.0-8.0-7.0-0.0","16","1","2025-07-02 10:18:25","80fe4187154257d5fb01684ea91b68b9","185.236.98.146","Mozilla/5.0 (Windows NT 10.0; Win64; x64; rv:138.0) Gecko/20100101 Firefox/138.0","","Firefox","138.0","Windows","10.0","https://app.prolific.com/","pl,en-US;q=0.7,en;q=0.3","5e8126a0d32cbc817a4df7b6","683db6dfa200031b80f2a654","6865075878481eb34bcfc915","5e8126a0d32cbc817a4df7b6","","","[0]","","","","quiz","","","","","","","","","","","","","","","","","","","","","","","","","","","","","","","","","","","","","true",""
"2246","","<p align='center'><b>CORRECT!</b> Indeed, the blue ball always shakes and moves in a random direction. Also there is a penalty of -1 point.</p>","0","html-button-response","30","504228","0.0-8.0-7.0-1.0","16","1","2025-07-02 10:18:25","80fe4187154257d5fb01684ea91b68b9","185.236.98.146","Mozilla/5.0 (Windows NT 10.0; Win64; x64; rv:138.0) Gecko/20100101 Firefox/138.0","","Firefox","138.0","Windows","10.0","https://app.prolific.com/","pl,en-US;q=0.7,en;q=0.3","5e8126a0d32cbc817a4df7b6","683db6dfa200031b80f2a654","6865075878481eb34bcfc915","5e8126a0d32cbc817a4df7b6","","","","","","","","","","","","","","","","","","","","","","","","","","","","","","","","","","","","","","","","","","","","",""
"4110","","","{""bonus"":[""When I reach 50% of points""]}","survey-multi-select","31","508341","0.0-8.0-8.0-0.0","16","1","2025-07-02 10:18:25","80fe4187154257d5fb01684ea91b68b9","185.236.98.146","Mozilla/5.0 (Windows NT 10.0; Win64; x64; rv:138.0) Gecko/20100101 Firefox/138.0","","Firefox","138.0","Windows","10.0","https://app.prolific.com/","pl,en-US;q=0.7,en;q=0.3","5e8126a0d32cbc817a4df7b6","683db6dfa200031b80f2a654","6865075878481eb34bcfc915","5e8126a0d32cbc817a4df7b6","","","[0]","","","","quiz","","","","","","","","","","","","","","","","","","","","","","","","","","","","","","","","","","","","","true",""
"1070","","<p align='center'><b>CORRECT!</b> Indeed, you receive 2 pounds extra when you reach 50% of points.</p>","0","html-button-response","32","509412","0.0-8.0-8.0-1.0","16","1","2025-07-02 10:18:25","80fe4187154257d5fb01684ea91b68b9","185.236.98.146","Mozilla/5.0 (Windows NT 10.0; Win64; x64; rv:138.0) Gecko/20100101 Firefox/138.0","","Firefox","138.0","Windows","10.0","https://app.prolific.com/","pl,en-US;q=0.7,en;q=0.3","5e8126a0d32cbc817a4df7b6","683db6dfa200031b80f2a654","6865075878481eb34bcfc915","5e8126a0d32cbc817a4df7b6","","","","","","","","","","","","","","","","","","","","","","","","","","","","","","","","","","","","","","","","","","","","",""
"1567","","","","instructions","33","510979","0.0-8.0-9.0","16","1","2025-07-02 10:18:25","80fe4187154257d5fb01684ea91b68b9","185.236.98.146","Mozilla/5.0 (Windows NT 10.0; Win64; x64; rv:138.0) Gecko/20100101 Firefox/138.0","","Firefox","138.0","Windows","10.0","https://app.prolific.com/","pl,en-US;q=0.7,en;q=0.3","5e8126a0d32cbc817a4df7b6","683db6dfa200031b80f2a654","6865075878481eb34bcfc915","5e8126a0d32cbc817a4df7b6","","[{""page_index"":0,""viewing_time"":1566}]","","","","","","","","","","","","","","","","","","","","","","","","","","","","","","","","","","","","","","","","","","",""
"11622","","<p>Before you start with this game please answer the following three questions yourself. </p>
  <p>Through this game, we measure several aspects of your cognitive performance, such as reaction times, multi-tasking capabilities </p>
  <p>and the ability to assess the situation you are in.</p>
  <p></p>
  <p><b>How good do you usually are in such tasks?</b></p>","79","html-slider-response","34","522604","0.0-9.0-0.0","16","1","2025-07-02 10:18:25","80fe4187154257d5fb01684ea91b68b9","185.236.98.146","Mozilla/5.0 (Windows NT 10.0; Win64; x64; rv:138.0) Gecko/20100101 Firefox/138.0","","Firefox","138.0","Windows","10.0","https://app.prolific.com/","pl,en-US;q=0.7,en;q=0.3","5e8126a0d32cbc817a4df7b6","683db6dfa200031b80f2a654","6865075878481eb34bcfc915","5e8126a0d32cbc817a4df7b6","2025-07-02T10:27:08.757Z","","","","","","PreSkillQ","","","","","","","","","","","","","","","","","","","","","","","","","","","","","","","","","","","","","","50"
"5750","","<div style=""width:500px;"">
  <p>How well do you think you will perform in this task compared to other participants?</p>
  </div>","93","html-slider-response","35","528355","0.0-9.0-1.0","16","1","2025-07-02 10:18:25","80fe4187154257d5fb01684ea91b68b9","185.236.98.146","Mozilla/5.0 (Windows NT 10.0; Win64; x64; rv:138.0) Gecko/20100101 Firefox/138.0","","Firefox","138.0","Windows","10.0","https://app.prolific.com/","pl,en-US;q=0.7,en;q=0.3","5e8126a0d32cbc817a4df7b6","683db6dfa200031b80f2a654","6865075878481eb34bcfc915","5e8126a0d32cbc817a4df7b6","2025-07-02T10:27:14.508Z","","","","","","PrePerfQ","","","","","","","","","","","","","","","","","","","","","","","","","","","","","","","","","","","","","","50"
"4726","","<div style=""width:500px;"">
  <p>What best describes how you currently feel?</p>
  </div>","37","html-slider-response","36","533083","0.0-9.0-2.0","16","1","2025-07-02 10:18:25","80fe4187154257d5fb01684ea91b68b9","185.236.98.146","Mozilla/5.0 (Windows NT 10.0; Win64; x64; rv:138.0) Gecko/20100101 Firefox/138.0","","Firefox","138.0","Windows","10.0","https://app.prolific.com/","pl,en-US;q=0.7,en;q=0.3","5e8126a0d32cbc817a4df7b6","683db6dfa200031b80f2a654","6865075878481eb34bcfc915","5e8126a0d32cbc817a4df7b6","2025-07-02T10:27:19.237Z","","","","","","PreMotivationQ","","","","","","","","","","","","","","","","","","","","","","","","","","","","","","","","","","","","","","50"
"","","","","ctl-task-cpt","37","562039","0.0-10.0-0.0","16","1","2025-07-02 10:18:25","80fe4187154257d5fb01684ea91b68b9","185.236.98.146","Mozilla/5.0 (Windows NT 10.0; Win64; x64; rv:138.0) Gecko/20100101 Firefox/138.0","","Firefox","138.0","Windows","10.0","https://app.prolific.com/","pl,en-US;q=0.7,en;q=0.3","5e8126a0d32cbc817a4df7b6","683db6dfa200031b80f2a654","6865075878481eb34bcfc915","5e8126a0d32cbc817a4df7b6","2025-07-02T10:27:48.192Z","","","","","","","","","","","","","","","","win-only","2","g1:SE,g2:NW","1","1","0","534430","1143","6155","25947","1","4","4","6","2","4","4","4","0","0.030303030303030304","1168","3000","2150","[""left"",""up""]","{""num_key_presses"":6,""num_perfect"":6,""num_errors"":0,""num_randdir"":0,""num_randdir_good_moves"":0,""num_whilered"":0,""num_whileblue"":0,""num_blue"":1,""num_good_moves"":6}","[467.3571428571429,450.40713827950617,0,468.8571428571429,450.40713827950617,115,470.3571428571429,442.90713827950617,221,446.3571428571429,436.90713827950617,334,455.3571428571429,442.90713827950617,447,429.8571428571429,430.90713827950617,563,227.35714285714286,286.90713827950617,677,167.35714285714286,196.90713827950614,777,150.85714285714286,168.40713827950614,877,146.35714285714286,156.40713827950614,986,104.35714285714286,99.40713827950614,1101,104.35714285714286,94.90713827950614,1207,102.85714285714286,93.40713827950614,1326,197.35714285714286,223.90713827950614,1426,362.3571428571429,391.90713827950617,1526,365.3571428571429,393.40713827950617,1628,359.3571428571429,391.90713827950617,1739,359.3571428571429,391.90713827950617,1847,359.3571428571429,391.90713827950617,1955,359.3571428571429,391.90713827950617,2065,359.3571428571429,391.90713827950617,2173,359.3571428571429,391.90713827950617,2281,359.3571428571429,391.90713827950617,2389,359.3571428571429,391.90713827950617,2499,359.3571428571429,391.90713827950617,2606,359.3571428571429,391.90713827950617,2718,359.3571428571429,391.90713827950617,2825,359.3571428571429,391.90713827950617,2925,359.3571428571429,391.90713827950617,3031,359.3571428571429,391.90713827950617,3136,359.3571428571429,391.90713827950617,3248,359.3571428571429,391.90713827950617,3361,359.3571428571429,391.90713827950617,3469,359.3571428571429,391.90713827950617,3581,359.3571428571429,391.90713827950617,3682,359.3571428571429,391.90713827950617,3788,359.3571428571429,391.90713827950617,3893,359.3571428571429,391.90713827950617,4000,359.3571428571429,391.90713827950617,4114,359.3571428571429,391.90713827950617,4214,359.3571428571429,391.90713827950617,4318,359.3571428571429,391.90713827950617,4424,359.3571428571429,391.90713827950617,4532,359.3571428571429,391.90713827950617,4642,359.3571428571429,391.90713827950617,4744,359.3571428571429,391.90713827950617,4846,359.3571428571429,391.90713827950617,4959]","[1379,1379,1000,0,379,""smooth"",""up"",""up"",""good_move"",5011,3632,3187.9,1379,444.1,""smooth"",""up"",""up"",""good_move"",7979,2968,2455.7,5011,512.3,""smooth"",""up"",""up"",""good_move"",10948,2969,2637.1,7979,331.9,""smooth"",""left"",""left"",""good_move"",16723,5775,1817.6,14590,315.4,""smooth"",""left"",""left"",""good_move"",19533,2810,2344.3,16723,465.7,""smooth"",""left"",""left"",""good_move""]","",""
"3105","","<div style=""width:500px;"">
  <p>What determined the result of this run?</p>
  </div>","100","html-slider-response","38","565146","0.0-10.0-1.0","16","1","2025-07-02 10:18:25","80fe4187154257d5fb01684ea91b68b9","185.236.98.146","Mozilla/5.0 (Windows NT 10.0; Win64; x64; rv:138.0) Gecko/20100101 Firefox/138.0","","Firefox","138.0","Windows","10.0","https://app.prolific.com/","pl,en-US;q=0.7,en;q=0.3","5e8126a0d32cbc817a4df7b6","683db6dfa200031b80f2a654","6865075878481eb34bcfc915","5e8126a0d32cbc817a4df7b6","2025-07-02T10:27:51.299Z","","","","","","AttribQ","","","","","","","","","","","","","","","","","","","","","","","","","","","","","","","","","","","","","","50"
"3410","","<div style=""width:500px;"">
  <p>How much control did you have over the ball?</p>
  </div>","100","html-slider-response","39","568555","0.0-10.0-2.0","16","1","2025-07-02 10:18:25","80fe4187154257d5fb01684ea91b68b9","185.236.98.146","Mozilla/5.0 (Windows NT 10.0; Win64; x64; rv:138.0) Gecko/20100101 Firefox/138.0","","Firefox","138.0","Windows","10.0","https://app.prolific.com/","pl,en-US;q=0.7,en;q=0.3","5e8126a0d32cbc817a4df7b6","683db6dfa200031b80f2a654","6865075878481eb34bcfc915","5e8126a0d32cbc817a4df7b6","2025-07-02T10:27:54.708Z","","","","","","ControlQ","","","","","","","","","","","","","","","","","","","","","","","","","","","","","","","","","","","","","","50"
"4421","","<div style=""width:500px;"">
  <p>How would you describe your current emotional state?</p>
  </div>","0","html-slider-response","40","572977","0.0-10.0-3.0","16","1","2025-07-02 10:18:25","80fe4187154257d5fb01684ea91b68b9","185.236.98.146","Mozilla/5.0 (Windows NT 10.0; Win64; x64; rv:138.0) Gecko/20100101 Firefox/138.0","","Firefox","138.0","Windows","10.0","https://app.prolific.com/","pl,en-US;q=0.7,en;q=0.3","5e8126a0d32cbc817a4df7b6","683db6dfa200031b80f2a654","6865075878481eb34bcfc915","5e8126a0d32cbc817a4df7b6","2025-07-02T10:27:59.130Z","","","","","","StressQ","","","","","","","","","","","","","","","","","","","","","","","","","","","","","","","","","","","","","","50"
"5070","","<div style=""width:500px;"">
  <p>What best describes how you currently feel?</p>
  </div>","76","html-slider-response","41","578049","0.0-10.0-4.0","16","1","2025-07-02 10:18:25","80fe4187154257d5fb01684ea91b68b9","185.236.98.146","Mozilla/5.0 (Windows NT 10.0; Win64; x64; rv:138.0) Gecko/20100101 Firefox/138.0","","Firefox","138.0","Windows","10.0","https://app.prolific.com/","pl,en-US;q=0.7,en;q=0.3","5e8126a0d32cbc817a4df7b6","683db6dfa200031b80f2a654","6865075878481eb34bcfc915","5e8126a0d32cbc817a4df7b6","2025-07-02T10:28:04.202Z","","","","","","MotivationQ","","","","","","","","","","","","","","","","","","","","","","","","","","","","","","","","","","","","","","50"
"","","","","ctl-task-cpt","42","610483","0.0-10.0-0.1","16","1","2025-07-02 10:18:25","80fe4187154257d5fb01684ea91b68b9","185.236.98.146","Mozilla/5.0 (Windows NT 10.0; Win64; x64; rv:138.0) Gecko/20100101 Firefox/138.0","","Firefox","138.0","Windows","10.0","https://app.prolific.com/","pl,en-US;q=0.7,en;q=0.3","5e8126a0d32cbc817a4df7b6","683db6dfa200031b80f2a654","6865075878481eb34bcfc915","5e8126a0d32cbc817a4df7b6","2025-07-02T10:28:36.636Z","","","","","","","","","","","","","","","","win-only","3","g1:SW,g2:NE","0.9","2","0","579398","1022","6023","29432","1","4","8","6","2","8","8","12","4","0.09090909090909091","848","3000","2150","[""up"",""right""]","{""num_key_presses"":6,""num_perfect"":6,""num_errors"":0,""num_randdir"":0,""num_randdir_good_moves"":0,""num_whilered"":0,""num_whileblue"":0,""num_blue"":2,""num_good_moves"":6}","[461.3571428571429,459.40713827950617,0,464.3571428571429,459.40713827950617,100,462.8571428571429,448.90713827950617,207,462.8571428571429,448.90713827950617,322,474.8571428571429,454.90713827950617,422,491.3571428571429,388.90713827950617,523,734.3571428571429,163.90713827950614,633,786.8571428571429,100.90713827950614,733,831.8571428571429,63.40713827950614,833,836.3571428571429,63.40713827950614,939,818.3571428571429,85.90713827950614,1039,783.8571428571429,337.90713827950617,1139,776.3571428571429,384.40713827950617,1252,774.8571428571429,384.40713827950617,1355,774.8571428571429,384.40713827950617,1466,774.8571428571429,384.40713827950617,1567,774.8571428571429,384.40713827950617,1668,774.8571428571429,384.40713827950617,1772,774.8571428571429,384.40713827950617,1878,774.8571428571429,384.40713827950617,1987,774.8571428571429,384.40713827950617,2092,774.8571428571429,384.40713827950617,2203,774.8571428571429,384.40713827950617,2306,774.8571428571429,384.40713827950617,2408,774.8571428571429,384.40713827950617,2517,774.8571428571429,384.40713827950617,2622,774.8571428571429,384.40713827950617,2733,774.8571428571429,384.40713827950617,2835,774.8571428571429,384.40713827950617,2935,774.8571428571429,384.40713827950617,3038,774.8571428571429,384.40713827950617,3149,774.8571428571429,384.40713827950617,3252,774.8571428571429,384.40713827950617,3355,774.8571428571429,384.40713827950617,3459,774.8571428571429,384.40713827950617,3559,774.8571428571429,384.40713827950617,3659,774.8571428571429,384.40713827950617,3772,774.8571428571429,384.40713827950617,3878,774.8571428571429,384.40713827950617,3983,774.8571428571429,384.40713827950617,4099,774.8571428571429,384.40713827950617,4213,774.8571428571429,384.40713827950617,4324,774.8571428571429,384.40713827950617,4426,774.8571428571429,384.40713827950617,4526,774.8571428571429,384.40713827950617,4636,774.8571428571429,384.40713827950617,4741,774.8571428571429,384.40713827950617,4842,774.8571428571429,384.40713827950617,4949]","[1396,1396,1000,0,396,""smooth"",""right"",""right"",""good_move"",3900,2504,2085.9,1396,418.1,""smooth"",""right"",""right"",""good_move"",13910,10010,2283.1,11247,379.9,""smooth"",""right"",""right"",""good_move"",17146,3236,2838.1,13910,397.9,""smooth"",""up"",""up"",""good_move"",19942,2795,2410.7,17147,384.3,""smooth"",""up"",""up"",""good_move"",23152,3210,2830,19942,380,""smooth"",""up"",""up"",""good_move""]","",""
"3236","","<div style=""width:500px;"">
  <p>What determined the result of this run?</p>
  </div>","100","html-slider-response","43","613720","0.0-10.0-1.1","16","1","2025-07-02 10:18:25","80fe4187154257d5fb01684ea91b68b9","185.236.98.146","Mozilla/5.0 (Windows NT 10.0; Win64; x64; rv:138.0) Gecko/20100101 Firefox/138.0","","Firefox","138.0","Windows","10.0","https://app.prolific.com/","pl,en-US;q=0.7,en;q=0.3","5e8126a0d32cbc817a4df7b6","683db6dfa200031b80f2a654","6865075878481eb34bcfc915","5e8126a0d32cbc817a4df7b6","2025-07-02T10:28:39.873Z","","","","","","AttribQ","","","","","","","","","","","","","","","","","","","","","","","","","","","","","","","","","","","","","","50"
"2997","","<div style=""width:500px;"">
  <p>How much control did you have over the ball?</p>
  </div>","100","html-slider-response","44","616719","0.0-10.0-2.1","16","1","2025-07-02 10:18:25","80fe4187154257d5fb01684ea91b68b9","185.236.98.146","Mozilla/5.0 (Windows NT 10.0; Win64; x64; rv:138.0) Gecko/20100101 Firefox/138.0","","Firefox","138.0","Windows","10.0","https://app.prolific.com/","pl,en-US;q=0.7,en;q=0.3","5e8126a0d32cbc817a4df7b6","683db6dfa200031b80f2a654","6865075878481eb34bcfc915","5e8126a0d32cbc817a4df7b6","2025-07-02T10:28:42.872Z","","","","","","ControlQ","","","","","","","","","","","","","","","","","","","","","","","","","","","","","","","","","","","","","","50"
"2615","","<div style=""width:500px;"">
  <p>How would you describe your current emotional state?</p>
  </div>","0","html-slider-response","45","619335","0.0-10.0-3.1","16","1","2025-07-02 10:18:25","80fe4187154257d5fb01684ea91b68b9","185.236.98.146","Mozilla/5.0 (Windows NT 10.0; Win64; x64; rv:138.0) Gecko/20100101 Firefox/138.0","","Firefox","138.0","Windows","10.0","https://app.prolific.com/","pl,en-US;q=0.7,en;q=0.3","5e8126a0d32cbc817a4df7b6","683db6dfa200031b80f2a654","6865075878481eb34bcfc915","5e8126a0d32cbc817a4df7b6","2025-07-02T10:28:45.488Z","","","","","","StressQ","","","","","","","","","","","","","","","","","","","","","","","","","","","","","","","","","","","","","","50"
"3605","","<div style=""width:500px;"">
  <p>What best describes how you currently feel?</p>
  </div>","84","html-slider-response","46","622943","0.0-10.0-4.1","16","1","2025-07-02 10:18:25","80fe4187154257d5fb01684ea91b68b9","185.236.98.146","Mozilla/5.0 (Windows NT 10.0; Win64; x64; rv:138.0) Gecko/20100101 Firefox/138.0","","Firefox","138.0","Windows","10.0","https://app.prolific.com/","pl,en-US;q=0.7,en;q=0.3","5e8126a0d32cbc817a4df7b6","683db6dfa200031b80f2a654","6865075878481eb34bcfc915","5e8126a0d32cbc817a4df7b6","2025-07-02T10:28:49.096Z","","","","","","MotivationQ","","","","","","","","","","","","","","","","","","","","","","","","","","","","","","","","","","","","","","50"
"","","","","ctl-task-cpt","47","665987","0.0-10.0-0.2","16","1","2025-07-02 10:18:25","80fe4187154257d5fb01684ea91b68b9","185.236.98.146","Mozilla/5.0 (Windows NT 10.0; Win64; x64; rv:138.0) Gecko/20100101 Firefox/138.0","","Firefox","138.0","Windows","10.0","https://app.prolific.com/","pl,en-US;q=0.7,en;q=0.3","5e8126a0d32cbc817a4df7b6","683db6dfa200031b80f2a654","6865075878481eb34bcfc915","5e8126a0d32cbc817a4df7b6","2025-07-02T10:29:32.140Z","","","","","","","","","","","","","","","","win-only","1","g1:NE,g2:SW","0.8","3","0","624293","953","5956","40042","1","4","8","6","2","8","8","20","12","0.15151515151515152","847","3000","1195","[""down"",""left""]","{""num_key_presses"":10,""num_perfect"":8,""num_errors"":0,""num_randdir"":2,""num_randdir_good_moves"":0,""num_whilered"":0,""num_whileblue"":0,""num_blue"":2,""num_good_moves"":8}","[465.8571428571429,460.90713827950617,0,465.8571428571429,460.90713827950617,105,465.8571428571429,460.90713827950617,208,465.8571428571429,460.90713827950617,309,590.3571428571429,364.90713827950617,419,488.3571428571429,427.90713827950617,524,152.35714285714286,748.9071382795062,631,122.35714285714286,790.9071382795062,731,90.85714285714286,816.4071382795062,831,90.85714285714286,816.4071382795062,937,74.35714285714286,808.9071382795062,1037,72.85714285714286,808.9071382795062,1138,72.85714285714286,808.9071382795062,1245,72.85714285714286,808.9071382795062,1345,72.85714285714286,808.9071382795062,1453,72.85714285714286,808.9071382795062,1553,72.85714285714286,808.9071382795062,1660,72.85714285714286,808.9071382795062,1766,72.85714285714286,808.9071382795062,1875,72.85714285714286,808.9071382795062,1983,72.85714285714286,808.9071382795062,2088,72.85714285714286,808.9071382795062,2189,72.85714285714286,808.9071382795062,2293,72.85714285714286,808.9071382795062,2401,72.85714285714286,808.9071382795062,2509,72.85714285714286,808.9071382795062,2617,72.85714285714286,808.9071382795062,2725,72.85714285714286,808.9071382795062,2833,72.85714285714286,808.9071382795062,2933,72.85714285714286,808.9071382795062,3041,72.85714285714286,808.9071382795062,3141,72.85714285714286,808.9071382795062,3247,72.85714285714286,808.9071382795062,3347,72.85714285714286,808.9071382795062,3455,72.85714285714286,808.9071382795062,3562,72.85714285714286,808.9071382795062,3663,72.85714285714286,808.9071382795062,3771,72.85714285714286,808.9071382795062,3879,72.85714285714286,808.9071382795062,3984,72.85714285714286,808.9071382795062,4087,72.85714285714286,808.9071382795062,4197,72.85714285714286,808.9071382795062,4300,72.85714285714286,808.9071382795062,4400,72.85714285714286,808.9071382795062,4507,72.85714285714286,808.9071382795062,4615,72.85714285714286,808.9071382795062,4719,72.85714285714286,808.9071382795062,4827,72.85714285714286,808.9071382795062,4935]","[1388,1388,1000,0,388,""smooth"",""down"",""down"",""good_move"",7960,6572,2478.9,5113,368.1,""oops"",""down"",""up"",""bad_move"",14284,6324,2293.8,11565,425.2,""oops"",""down"",""right"",""bad_move"",17390,3106,2630.6,14284,475.4,""smooth"",""down"",""down"",""good_move"",19563,2173,1707.5,17390,465.5,""smooth"",""down"",""down"",""good_move"",22434,2871,2263.4,19563,607.6,""smooth"",""down"",""down"",""good_move"",25375,2941,2556.6,22434,384.4,""smooth"",""left"",""left"",""good_move"",28205,2830,2280.9,25375,549.1,""smooth"",""left"",""left"",""good_move"",31096,2891,2184.8,28205,706.2,""smooth"",""left"",""left"",""good_move"",33910,2814,2392.1,31096,421.9,""smooth"",""left"",""left"",""good_move""]","",""
"4091","","<div style=""width:500px;"">
  <p>What determined the result of this run?</p>
  </div>","100","html-slider-response","48","670079","0.0-10.0-1.2","16","1","2025-07-02 10:18:25","80fe4187154257d5fb01684ea91b68b9","185.236.98.146","Mozilla/5.0 (Windows NT 10.0; Win64; x64; rv:138.0) Gecko/20100101 Firefox/138.0","","Firefox","138.0","Windows","10.0","https://app.prolific.com/","pl,en-US;q=0.7,en;q=0.3","5e8126a0d32cbc817a4df7b6","683db6dfa200031b80f2a654","6865075878481eb34bcfc915","5e8126a0d32cbc817a4df7b6","2025-07-02T10:29:36.232Z","","","","","","AttribQ","","","","","","","","","","","","","","","","","","","","","","","","","","","","","","","","","","","","","","50"
"13999","","<div style=""width:500px;"">
  <p>How much control did you have over the ball?</p>
  </div>","71","html-slider-response","49","684080","0.0-10.0-2.2","16","1","2025-07-02 10:18:25","80fe4187154257d5fb01684ea91b68b9","185.236.98.146","Mozilla/5.0 (Windows NT 10.0; Win64; x64; rv:138.0) Gecko/20100101 Firefox/138.0","","Firefox","138.0","Windows","10.0","https://app.prolific.com/","pl,en-US;q=0.7,en;q=0.3","5e8126a0d32cbc817a4df7b6","683db6dfa200031b80f2a654","6865075878481eb34bcfc915","5e8126a0d32cbc817a4df7b6","2025-07-02T10:29:50.233Z","","","","","","ControlQ","","","","","","","","","","","","","","","","","","","","","","","","","","","","","","","","","","","","","","50"
"3981","","<div style=""width:500px;"">
  <p>How would you describe your current emotional state?</p>
  </div>","9","html-slider-response","50","688063","0.0-10.0-3.2","16","1","2025-07-02 10:18:25","80fe4187154257d5fb01684ea91b68b9","185.236.98.146","Mozilla/5.0 (Windows NT 10.0; Win64; x64; rv:138.0) Gecko/20100101 Firefox/138.0","","Firefox","138.0","Windows","10.0","https://app.prolific.com/","pl,en-US;q=0.7,en;q=0.3","5e8126a0d32cbc817a4df7b6","683db6dfa200031b80f2a654","6865075878481eb34bcfc915","5e8126a0d32cbc817a4df7b6","2025-07-02T10:29:54.216Z","","","","","","StressQ","","","","","","","","","","","","","","","","","","","","","","","","","","","","","","","","","","","","","","50"
"21295","","<div style=""width:500px;"">
  <p>What best describes how you currently feel?</p>
  </div>","79","html-slider-response","51","709358","0.0-10.0-4.2","16","1","2025-07-02 10:18:25","80fe4187154257d5fb01684ea91b68b9","185.236.98.146","Mozilla/5.0 (Windows NT 10.0; Win64; x64; rv:138.0) Gecko/20100101 Firefox/138.0","","Firefox","138.0","Windows","10.0","https://app.prolific.com/","pl,en-US;q=0.7,en;q=0.3","5e8126a0d32cbc817a4df7b6","683db6dfa200031b80f2a654","6865075878481eb34bcfc915","5e8126a0d32cbc817a4df7b6","2025-07-02T10:30:15.511Z","","","","","","MotivationQ","","","","","","","","","","","","","","","","","","","","","","","","","","","","","","","","","","","","","","50"
"","","","","ctl-task-cpt","52","760750","0.0-10.0-0.3","16","1","2025-07-02 10:18:25","80fe4187154257d5fb01684ea91b68b9","185.236.98.146","Mozilla/5.0 (Windows NT 10.0; Win64; x64; rv:138.0) Gecko/20100101 Firefox/138.0","","Firefox","138.0","Windows","10.0","https://app.prolific.com/","pl,en-US;q=0.7,en;q=0.3","5e8126a0d32cbc817a4df7b6","683db6dfa200031b80f2a654","6865075878481eb34bcfc915","5e8126a0d32cbc817a4df7b6","2025-07-02T10:31:06.903Z","","","","","","","","","","","","","","","","win-only","0","g1:NW,g2:SE","0.7","4","0","710710","5638","10646","48386","1","4","4","6","2","4","4","24","20","0.18181818181818182","1073","3000","1665","[""down"",""right""]","{""num_key_presses"":8,""num_perfect"":5,""num_errors"":0,""num_randdir"":3,""num_randdir_good_moves"":2,""num_whilered"":0,""num_whileblue"":0,""num_blue"":5,""num_good_moves"":7}","[470.3571428571429,462.40713827950617,0,473.3571428571429,463.90713827950617,100,482.3571428571429,460.90713827950617,208,459.8571428571429,460.90713827950617,308,446.3571428571429,463.90713827950617,409,440.3571428571429,436.90713827950617,509,453.8571428571429,436.90713827950617,609,668.3571428571429,601.9071382795062,710,800.3571428571429,763.9071382795062,819,825.8571428571429,792.4071382795062,929,828.8571428571429,802.9071382795062,1029,828.8571428571429,802.9071382795062,1130,828.8571428571429,801.4071382795062,1230,836.3571428571429,796.9071382795062,1330,836.3571428571429,796.9071382795062,1430,836.3571428571429,796.9071382795062,1536,836.3571428571429,796.9071382795062,1636,836.3571428571429,796.9071382795062,1736,836.3571428571429,796.9071382795062,1837,836.3571428571429,796.9071382795062,1937,836.3571428571429,796.9071382795062,2037,836.3571428571429,796.9071382795062,2146,836.3571428571429,796.9071382795062,2256,836.3571428571429,796.9071382795062,2366,836.3571428571429,796.9071382795062,2466,836.3571428571429,796.9071382795062,2576,836.3571428571429,796.9071382795062,2686,836.3571428571429,796.9071382795062,2786,836.3571428571429,796.9071382795062,2886,836.3571428571429,796.9071382795062,2986,836.3571428571429,796.9071382795062,3087,836.3571428571429,796.9071382795062,3196,836.3571428571429,796.9071382795062,3296,836.3571428571429,796.9071382795062,3396,836.3571428571429,796.9071382795062,3496,836.3571428571429,796.9071382795062,3596,836.3571428571429,796.9071382795062,3697,836.3571428571429,796.9071382795062,3807,836.3571428571429,796.9071382795062,3907,836.3571428571429,796.9071382795062,4017,836.3571428571429,796.9071382795062,4127,836.3571428571429,796.9071382795062,4227,836.3571428571429,796.9071382795062,4330,836.3571428571429,796.9071382795062,4437,836.3571428571429,796.9071382795062,4537,836.3571428571429,796.9071382795062,4638,836.3571428571429,796.9071382795062,4746,836.3571428571429,796.9071382795062,4850,836.3571428571429,796.9071382795062,4960]","[1403,1403,1000,0,403,""oops"",""right"",""right"",""good_move"",10389,8986,2108.3,7951,329.7,""oops"",""right"",""left"",""bad_move"",12767,2378,1828.6,10389,549.4,""oops"",""down"",""right"",""good_move"",18914,6146,2689.9,15854,370.1,""smooth"",""down"",""down"",""good_move"",21490,2576,2085.5,18914,490.5,""smooth"",""down"",""down"",""good_move"",27263,5773,1868.1,24985,409.9,""smooth"",""down"",""down"",""good_move"",33865,6602,2311.6,31192,361.4,""smooth"",""right"",""right"",""good_move"",37496,3631,3049.5,33865,581.5,""smooth"",""right"",""right"",""good_move""]","",""
"2831","","<div style=""width:500px;"">
  <p>What determined the result of this run?</p>
  </div>","90","html-slider-response","53","763581","0.0-10.0-1.3","16","1","2025-07-02 10:18:25","80fe4187154257d5fb01684ea91b68b9","185.236.98.146","Mozilla/5.0 (Windows NT 10.0; Win64; x64; rv:138.0) Gecko/20100101 Firefox/138.0","","Firefox","138.0","Windows","10.0","https://app.prolific.com/","pl,en-US;q=0.7,en;q=0.3","5e8126a0d32cbc817a4df7b6","683db6dfa200031b80f2a654","6865075878481eb34bcfc915","5e8126a0d32cbc817a4df7b6","2025-07-02T10:31:09.734Z","","","","","","AttribQ","","","","","","","","","","","","","","","","","","","","","","","","","","","","","","","","","","","","","","50"
"3984","","<div style=""width:500px;"">
  <p>How much control did you have over the ball?</p>
  </div>","79","html-slider-response","54","767566","0.0-10.0-2.3","16","1","2025-07-02 10:18:25","80fe4187154257d5fb01684ea91b68b9","185.236.98.146","Mozilla/5.0 (Windows NT 10.0; Win64; x64; rv:138.0) Gecko/20100101 Firefox/138.0","","Firefox","138.0","Windows","10.0","https://app.prolific.com/","pl,en-US;q=0.7,en;q=0.3","5e8126a0d32cbc817a4df7b6","683db6dfa200031b80f2a654","6865075878481eb34bcfc915","5e8126a0d32cbc817a4df7b6","2025-07-02T10:31:13.719Z","","","","","","ControlQ","","","","","","","","","","","","","","","","","","","","","","","","","","","","","","","","","","","","","","50"
"7558","","<div style=""width:500px;"">
  <p>How would you describe your current emotional state?</p>
  </div>","7","html-slider-response","55","775126","0.0-10.0-3.3","16","1","2025-07-02 10:18:25","80fe4187154257d5fb01684ea91b68b9","185.236.98.146","Mozilla/5.0 (Windows NT 10.0; Win64; x64; rv:138.0) Gecko/20100101 Firefox/138.0","","Firefox","138.0","Windows","10.0","https://app.prolific.com/","pl,en-US;q=0.7,en;q=0.3","5e8126a0d32cbc817a4df7b6","683db6dfa200031b80f2a654","6865075878481eb34bcfc915","5e8126a0d32cbc817a4df7b6","2025-07-02T10:31:21.279Z","","","","","","StressQ","","","","","","","","","","","","","","","","","","","","","","","","","","","","","","","","","","","","","","50"
"3631","","<div style=""width:500px;"">
  <p>What best describes how you currently feel?</p>
  </div>","85","html-slider-response","56","778758","0.0-10.0-4.3","16","1","2025-07-02 10:18:25","80fe4187154257d5fb01684ea91b68b9","185.236.98.146","Mozilla/5.0 (Windows NT 10.0; Win64; x64; rv:138.0) Gecko/20100101 Firefox/138.0","","Firefox","138.0","Windows","10.0","https://app.prolific.com/","pl,en-US;q=0.7,en;q=0.3","5e8126a0d32cbc817a4df7b6","683db6dfa200031b80f2a654","6865075878481eb34bcfc915","5e8126a0d32cbc817a4df7b6","2025-07-02T10:31:24.911Z","","","","","","MotivationQ","","","","","","","","","","","","","","","","","","","","","","","","","","","","","","","","","","","","","","50"
"","","","","ctl-task-cpt","57","864506","0.0-10.0-0.4","16","1","2025-07-02 10:18:25","80fe4187154257d5fb01684ea91b68b9","185.236.98.146","Mozilla/5.0 (Windows NT 10.0; Win64; x64; rv:138.0) Gecko/20100101 Firefox/138.0","","Firefox","138.0","Windows","10.0","https://app.prolific.com/","pl,en-US;q=0.7,en;q=0.3","5e8126a0d32cbc817a4df7b6","683db6dfa200031b80f2a654","6865075878481eb34bcfc915","5e8126a0d32cbc817a4df7b6","2025-07-02T10:32:50.659Z","","","","","","","","","","","","","","","","win-only","2","g1:SE,g2:NW","0.6","5","0","780111","1558","6560","82744","1","4","8","6","2","8","8","32","24","0.24242424242424243","1887","3000","1320","[""left"",""up""]","{""num_key_presses"":14,""num_perfect"":9,""num_errors"":0,""num_randdir"":5,""num_randdir_good_moves"":1,""num_whilered"":0,""num_whileblue"":0,""num_blue"":10,""num_good_moves"":10}","[468.8571428571429,457.90713827950617,0,468.8571428571429,457.90713827950617,106,468.8571428571429,457.90713827950617,216,468.8571428571429,457.90713827950617,317,468.8571428571429,457.90713827950617,429,468.8571428571429,457.90713827950617,542,468.8571428571429,457.90713827950617,656,468.8571428571429,457.90713827950617,757,468.8571428571429,457.90713827950617,861,468.8571428571429,457.90713827950617,969,468.8571428571429,457.90713827950617,1078,464.3571428571429,454.90713827950617,1184,191.35714285714286,292.90713827950617,1294,317.3571428571429,277.90713827950617,1402,290.3571428571429,115.90713827950614,1510,228.85714285714286,73.90713827950614,1618,129.85714285714286,90.40713827950614,1727,119.35714285714286,94.90713827950614,1833,119.35714285714286,94.90713827950614,1936,119.35714285714286,94.90713827950614,2040,119.35714285714286,94.90713827950614,2152,119.35714285714286,94.90713827950614,2263,119.35714285714286,94.90713827950614,2377,119.35714285714286,94.90713827950614,2477,119.35714285714286,94.90713827950614,2585,119.35714285714286,94.90713827950614,2685,119.35714285714286,94.90713827950614,2799,119.35714285714286,94.90713827950614,2906,119.35714285714286,94.90713827950614,3018,119.35714285714286,94.90713827950614,3119,119.35714285714286,94.90713827950614,3233,119.35714285714286,94.90713827950614,3339,119.35714285714286,94.90713827950614,3443,119.35714285714286,94.90713827950614,3544,119.35714285714286,94.90713827950614,3657,119.35714285714286,94.90713827950614,3764,119.35714285714286,94.90713827950614,3870,119.35714285714286,94.90713827950614,3978,119.35714285714286,94.90713827950614,4079,119.35714285714286,94.90713827950614,4187,119.35714285714286,94.90713827950614,4296,119.35714285714286,94.90713827950614,4402,119.35714285714286,94.90713827950614,4508,119.35714285714286,94.90713827950614,4610,119.35714285714286,94.90713827950614,4714,119.35714285714286,94.90713827950614,4819,119.35714285714286,94.90713827950614,4919]","[4757,4757,2342.9,2023,391.1,""smooth"",""left"",""left"",""good_move"",11400,6643,2377,8620,403,""smooth"",""up"",""up"",""good_move"",14535,3135,2715.8,11400,419.2,""smooth"",""up"",""up"",""good_move"",20794,6259,2222.4,18173,398.6,""smooth"",""up"",""up"",""good_move"",27216,6422,2439.5,24416,360.5,""oops"",""left"",""right"",""bad_move"",33334,6118,2287,30703,344,""smooth"",""left"",""left"",""good_move"",40352,7018,2594.7,37367,390.3,""smooth"",""left"",""left"",""good_move"",43453,3101,2505.4,40352,595.6,""oops"",""left"",""right"",""bad_move"",46346,2893,2501.3,43453,391.7,""oops"",""left"",""left"",""good_move"",49573,3227,2125.4,46346,1101.6,""oops"",""left"",""right"",""bad_move"",52171,2598,2247.2,49573,350.8,""oops"",""left"",""right"",""bad_move"",55233,3062,2677.6,52171,384.4,""smooth"",""left"",""left"",""good_move"",69792,14559,2767.8,66670,354.2,""smooth"",""left"",""left"",""good_move"",75913,6120,2008.2,73501,403.8,""smooth"",""left"",""left"",""good_move""]","",""
"5169","","<div style=""width:500px;"">
  <p>What determined the result of this run?</p>
  </div>","100","html-slider-response","58","869677","0.0-10.0-1.4","16","1","2025-07-02 10:18:25","80fe4187154257d5fb01684ea91b68b9","185.236.98.146","Mozilla/5.0 (Windows NT 10.0; Win64; x64; rv:138.0) Gecko/20100101 Firefox/138.0","","Firefox","138.0","Windows","10.0","https://app.prolific.com/","pl,en-US;q=0.7,en;q=0.3","5e8126a0d32cbc817a4df7b6","683db6dfa200031b80f2a654","6865075878481eb34bcfc915","5e8126a0d32cbc817a4df7b6","2025-07-02T10:32:55.830Z","","","","","","AttribQ","","","","","","","","","","","","","","","","","","","","","","","","","","","","","","","","","","","","","","50"
"9278","","<div style=""width:500px;"">
  <p>How much control did you have over the ball?</p>
  </div>","62","html-slider-response","59","878957","0.0-10.0-2.4","16","1","2025-07-02 10:18:25","80fe4187154257d5fb01684ea91b68b9","185.236.98.146","Mozilla/5.0 (Windows NT 10.0; Win64; x64; rv:138.0) Gecko/20100101 Firefox/138.0","","Firefox","138.0","Windows","10.0","https://app.prolific.com/","pl,en-US;q=0.7,en;q=0.3","5e8126a0d32cbc817a4df7b6","683db6dfa200031b80f2a654","6865075878481eb34bcfc915","5e8126a0d32cbc817a4df7b6","2025-07-02T10:33:05.110Z","","","","","","ControlQ","","","","","","","","","","","","","","","","","","","","","","","","","","","","","","","","","","","","","","50"
"16568","","<div style=""width:500px;"">
  <p>How would you describe your current emotional state?</p>
  </div>","25","html-slider-response","60","895526","0.0-10.0-3.4","16","1","2025-07-02 10:18:25","80fe4187154257d5fb01684ea91b68b9","185.236.98.146","Mozilla/5.0 (Windows NT 10.0; Win64; x64; rv:138.0) Gecko/20100101 Firefox/138.0","","Firefox","138.0","Windows","10.0","https://app.prolific.com/","pl,en-US;q=0.7,en;q=0.3","5e8126a0d32cbc817a4df7b6","683db6dfa200031b80f2a654","6865075878481eb34bcfc915","5e8126a0d32cbc817a4df7b6","2025-07-02T10:33:21.679Z","","","","","","StressQ","","","","","","","","","","","","","","","","","","","","","","","","","","","","","","","","","","","","","","50"
"2341","","<div style=""width:500px;"">
  <p>What best describes how you currently feel?</p>
  </div>","81","html-slider-response","61","897870","0.0-10.0-4.4","16","1","2025-07-02 10:18:25","80fe4187154257d5fb01684ea91b68b9","185.236.98.146","Mozilla/5.0 (Windows NT 10.0; Win64; x64; rv:138.0) Gecko/20100101 Firefox/138.0","","Firefox","138.0","Windows","10.0","https://app.prolific.com/","pl,en-US;q=0.7,en;q=0.3","5e8126a0d32cbc817a4df7b6","683db6dfa200031b80f2a654","6865075878481eb34bcfc915","5e8126a0d32cbc817a4df7b6","2025-07-02T10:33:24.023Z","","","","","","MotivationQ","","","","","","","","","","","","","","","","","","","","","","","","","","","","","","","","","","","","","","50"
"","","","","ctl-task-cpt","62","928507","0.0-10.0-0.5","16","1","2025-07-02 10:18:25","80fe4187154257d5fb01684ea91b68b9","185.236.98.146","Mozilla/5.0 (Windows NT 10.0; Win64; x64; rv:138.0) Gecko/20100101 Firefox/138.0","","Firefox","138.0","Windows","10.0","https://app.prolific.com/","pl,en-US;q=0.7,en;q=0.3","5e8126a0d32cbc817a4df7b6","683db6dfa200031b80f2a654","6865075878481eb34bcfc915","5e8126a0d32cbc817a4df7b6","2025-07-02T10:33:54.661Z","","","","","","","","","","","","","","","","win-only","0","g1:NW,g2:SE","0.5","6","0","899224","957","5958","27630","1","4","4","6","1","1","1","33","32","0.25","2808","3000","2390","[""left"",""up""]","{""num_key_presses"":4,""num_perfect"":4,""num_errors"":0,""num_randdir"":0,""num_randdir_good_moves"":0,""num_whilered"":0,""num_whileblue"":0,""num_blue"":3,""num_good_moves"":4}","[456.8571428571429,465.40713827950617,0,456.8571428571429,465.40713827950617,103,456.8571428571429,465.40713827950617,210,428.3571428571429,468.40713827950617,320,450.8571428571429,523.9071382795062,430,452.3571428571429,523.9071382795062,534,443.3571428571429,519.4071382795062,643,525.8571428571429,603.4071382795062,755,662.3571428571429,712.9071382795062,875,633.8571428571429,694.9071382795062,985,233.35714285714286,334.90713827950617,1085,155.35714285714286,223.90713827950614,1194,137.35714285714286,159.40713827950614,1305,123.85714285714286,144.40713827950614,1414,119.35714285714286,139.90713827950614,1514,119.35714285714286,127.90713827950614,1624,119.35714285714286,127.90713827950614,1734,119.35714285714286,127.90713827950614,1843,176.35714285714286,172.90713827950614,1954,644.3571428571429,580.9071382795062,2061,683.3571428571429,648.4071382795062,2163,711.8571428571429,703.9071382795062,2266,741.8571428571429,736.9071382795062,2366,711.8571428571429,714.4071382795062,2476,72.85714285714286,157.90713827950614,2586,75.85714285714286,106.90713827950614,2696,78.85714285714286,84.40713827950614,2807,78.85714285714286,84.40713827950614,2911,78.85714285714286,84.40713827950614,3028,78.85714285714286,84.40713827950614,3128,78.85714285714286,84.40713827950614,3230,78.85714285714286,84.40713827950614,3335,78.85714285714286,84.40713827950614,3435,78.85714285714286,84.40713827950614,3535,78.85714285714286,84.40713827950614,3644,78.85714285714286,84.40713827950614,3750,78.85714285714286,84.40713827950614,3858,78.85714285714286,84.40713827950614,3967,78.85714285714286,84.40713827950614,4074,78.85714285714286,84.40713827950614,4182,78.85714285714286,84.40713827950614,4290,78.85714285714286,84.40713827950614,4399,78.85714285714286,84.40713827950614,4506,78.85714285714286,84.40713827950614,4614,78.85714285714286,84.40713827950614,4722,78.85714285714286,84.40713827950614,4831,78.85714285714286,84.40713827950614,4938]","[1623,1623,1000,0,623,""smooth"",""up"",""up"",""good_move"",8184,6561,2303.3,5440,440.7,""smooth"",""up"",""up"",""good_move"",15077,6892,2707.2,11877,492.8,""smooth"",""left"",""left"",""good_move"",21396,6319,2236.9,18782,377.1,""smooth"",""left"",""left"",""good_move""]","",""
"3160","","<div style=""width:500px;"">
  <p>What determined the result of this run?</p>
  </div>","100","html-slider-response","63","931670","0.0-10.0-1.5","16","1","2025-07-02 10:18:25","80fe4187154257d5fb01684ea91b68b9","185.236.98.146","Mozilla/5.0 (Windows NT 10.0; Win64; x64; rv:138.0) Gecko/20100101 Firefox/138.0","","Firefox","138.0","Windows","10.0","https://app.prolific.com/","pl,en-US;q=0.7,en;q=0.3","5e8126a0d32cbc817a4df7b6","683db6dfa200031b80f2a654","6865075878481eb34bcfc915","5e8126a0d32cbc817a4df7b6","2025-07-02T10:33:57.823Z","","","","","","AttribQ","","","","","","","","","","","","","","","","","","","","","","","","","","","","","","","","","","","","","","50"
"1654","","<div style=""width:500px;"">
  <p>How much control did you have over the ball?</p>
  </div>","100","html-slider-response","64","933324","0.0-10.0-2.5","16","1","2025-07-02 10:18:25","80fe4187154257d5fb01684ea91b68b9","185.236.98.146","Mozilla/5.0 (Windows NT 10.0; Win64; x64; rv:138.0) Gecko/20100101 Firefox/138.0","","Firefox","138.0","Windows","10.0","https://app.prolific.com/","pl,en-US;q=0.7,en;q=0.3","5e8126a0d32cbc817a4df7b6","683db6dfa200031b80f2a654","6865075878481eb34bcfc915","5e8126a0d32cbc817a4df7b6","2025-07-02T10:33:59.478Z","","","","","","ControlQ","","","","","","","","","","","","","","","","","","","","","","","","","","","","","","","","","","","","","","50"
"3447","","<div style=""width:500px;"">
  <p>How would you describe your current emotional state?</p>
  </div>","13","html-slider-response","65","936772","0.0-10.0-3.5","16","1","2025-07-02 10:18:25","80fe4187154257d5fb01684ea91b68b9","185.236.98.146","Mozilla/5.0 (Windows NT 10.0; Win64; x64; rv:138.0) Gecko/20100101 Firefox/138.0","","Firefox","138.0","Windows","10.0","https://app.prolific.com/","pl,en-US;q=0.7,en;q=0.3","5e8126a0d32cbc817a4df7b6","683db6dfa200031b80f2a654","6865075878481eb34bcfc915","5e8126a0d32cbc817a4df7b6","2025-07-02T10:34:02.925Z","","","","","","StressQ","","","","","","","","","","","","","","","","","","","","","","","","","","","","","","","","","","","","","","50"
"2344","","<div style=""width:500px;"">
  <p>What best describes how you currently feel?</p>
  </div>","81","html-slider-response","66","939118","0.0-10.0-4.5","16","1","2025-07-02 10:18:25","80fe4187154257d5fb01684ea91b68b9","185.236.98.146","Mozilla/5.0 (Windows NT 10.0; Win64; x64; rv:138.0) Gecko/20100101 Firefox/138.0","","Firefox","138.0","Windows","10.0","https://app.prolific.com/","pl,en-US;q=0.7,en;q=0.3","5e8126a0d32cbc817a4df7b6","683db6dfa200031b80f2a654","6865075878481eb34bcfc915","5e8126a0d32cbc817a4df7b6","2025-07-02T10:34:05.271Z","","","","","","MotivationQ","","","","","","","","","","","","","","","","","","","","","","","","","","","","","","","","","","","","","","50"
"","","","","ctl-task-cpt","67","980824","0.0-10.0-0.6","16","1","2025-07-02 10:18:25","80fe4187154257d5fb01684ea91b68b9","185.236.98.146","Mozilla/5.0 (Windows NT 10.0; Win64; x64; rv:138.0) Gecko/20100101 Firefox/138.0","","Firefox","138.0","Windows","10.0","https://app.prolific.com/","pl,en-US;q=0.7,en;q=0.3","5e8126a0d32cbc817a4df7b6","683db6dfa200031b80f2a654","6865075878481eb34bcfc915","5e8126a0d32cbc817a4df7b6","2025-07-02T10:34:46.977Z","","","","","","","","","","","","","","","","win-only","3","g1:SW,g2:NE","0.4","7","0","940472","1143","6152","38700","1","4","8","6","2","8","8","41","33","0.3106060606060606","1062","3000","2050","[""up"",""right""]","{""num_key_presses"":6,""num_perfect"":4,""num_errors"":0,""num_randdir"":2,""num_randdir_good_moves"":2,""num_whilered"":0,""num_whileblue"":0,""num_blue"":4,""num_good_moves"":6}","[464.3571428571429,460.90713827950617,0,465.8571428571429,460.90713827950617,100,465.8571428571429,460.90713827950617,204,458.3571428571429,454.90713827950617,316,416.3571428571429,507.40713827950617,421,392.3571428571429,568.9071382795062,535,593.3571428571429,388.90713827950617,636,786.8571428571429,196.90713827950614,743,825.8571428571429,147.40713827950614,847,842.3571428571429,109.90713827950614,952,842.3571428571429,100.90713827950614,1058,842.3571428571429,100.90713827950614,1159,842.3571428571429,100.90713827950614,1259,842.3571428571429,100.90713827950614,1359,842.3571428571429,100.90713827950614,1472,842.3571428571429,100.90713827950614,1584,842.3571428571429,100.90713827950614,1689,842.3571428571429,100.90713827950614,1793,842.3571428571429,100.90713827950614,1893,842.3571428571429,100.90713827950614,1997,842.3571428571429,100.90713827950614,2101,842.3571428571429,100.90713827950614,2202,842.3571428571429,100.90713827950614,2305,842.3571428571429,100.90713827950614,2413,842.3571428571429,100.90713827950614,2518,842.3571428571429,100.90713827950614,2621,842.3571428571429,100.90713827950614,2725,842.3571428571429,100.90713827950614,2825,842.3571428571429,100.90713827950614,2929,842.3571428571429,100.90713827950614,3042,842.3571428571429,100.90713827950614,3145,842.3571428571429,100.90713827950614,3254,842.3571428571429,100.90713827950614,3359,842.3571428571429,100.90713827950614,3466,842.3571428571429,100.90713827950614,3569,842.3571428571429,100.90713827950614,3671,842.3571428571429,100.90713827950614,3779,842.3571428571429,100.90713827950614,3885,842.3571428571429,100.90713827950614,3999,842.3571428571429,100.90713827950614,4103,842.3571428571429,100.90713827950614,4212,842.3571428571429,100.90713827950614,4318,842.3571428571429,100.90713827950614,4426,842.3571428571429,100.90713827950614,4530,842.3571428571429,100.90713827950614,4636,842.3571428571429,100.90713827950614,4743,842.3571428571429,100.90713827950614,4858,842.3571428571429,100.90713827950614,4960]","[1463,1463,1000,0,463,""smooth"",""right"",""right"",""good_move"",7524,6061,2520.2,4649,354.8,""smooth"",""right"",""right"",""good_move"",10815,3291,2858.3,7524,432.7,""smooth"",""up"",""up"",""good_move"",17646,6831,2325.4,14919,401.6,""smooth"",""up"",""up"",""good_move"",23986,6340,2428.5,21077,480.5,""oops"",""up"",""right"",""good_move"",32275,8289,3722.1,28039,513.9,""oops"",""up"",""up"",""good_move""]","",""
"7435","","<div style=""width:500px;"">
  <p>What determined the result of this run?</p>
  </div>","37","html-slider-response","68","988260","0.0-10.0-1.6","16","1","2025-07-02 10:18:25","80fe4187154257d5fb01684ea91b68b9","185.236.98.146","Mozilla/5.0 (Windows NT 10.0; Win64; x64; rv:138.0) Gecko/20100101 Firefox/138.0","","Firefox","138.0","Windows","10.0","https://app.prolific.com/","pl,en-US;q=0.7,en;q=0.3","5e8126a0d32cbc817a4df7b6","683db6dfa200031b80f2a654","6865075878481eb34bcfc915","5e8126a0d32cbc817a4df7b6","2025-07-02T10:34:54.413Z","","","","","","AttribQ","","","","","","","","","","","","","","","","","","","","","","","","","","","","","","","","","","","","","","50"
"3143","","<div style=""width:500px;"">
  <p>How much control did you have over the ball?</p>
  </div>","82","html-slider-response","69","991405","0.0-10.0-2.6","16","1","2025-07-02 10:18:25","80fe4187154257d5fb01684ea91b68b9","185.236.98.146","Mozilla/5.0 (Windows NT 10.0; Win64; x64; rv:138.0) Gecko/20100101 Firefox/138.0","","Firefox","138.0","Windows","10.0","https://app.prolific.com/","pl,en-US;q=0.7,en;q=0.3","5e8126a0d32cbc817a4df7b6","683db6dfa200031b80f2a654","6865075878481eb34bcfc915","5e8126a0d32cbc817a4df7b6","2025-07-02T10:34:57.558Z","","","","","","ControlQ","","","","","","","","","","","","","","","","","","","","","","","","","","","","","","","","","","","","","","50"
"2902","","<div style=""width:500px;"">
  <p>How would you describe your current emotional state?</p>
  </div>","17","html-slider-response","70","994310","0.0-10.0-3.6","16","1","2025-07-02 10:18:25","80fe4187154257d5fb01684ea91b68b9","185.236.98.146","Mozilla/5.0 (Windows NT 10.0; Win64; x64; rv:138.0) Gecko/20100101 Firefox/138.0","","Firefox","138.0","Windows","10.0","https://app.prolific.com/","pl,en-US;q=0.7,en;q=0.3","5e8126a0d32cbc817a4df7b6","683db6dfa200031b80f2a654","6865075878481eb34bcfc915","5e8126a0d32cbc817a4df7b6","2025-07-02T10:35:00.463Z","","","","","","StressQ","","","","","","","","","","","","","","","","","","","","","","","","","","","","","","","","","","","","","","50"
"2756","","<div style=""width:500px;"">
  <p>What best describes how you currently feel?</p>
  </div>","84","html-slider-response","71","997068","0.0-10.0-4.6","16","1","2025-07-02 10:18:25","80fe4187154257d5fb01684ea91b68b9","185.236.98.146","Mozilla/5.0 (Windows NT 10.0; Win64; x64; rv:138.0) Gecko/20100101 Firefox/138.0","","Firefox","138.0","Windows","10.0","https://app.prolific.com/","pl,en-US;q=0.7,en;q=0.3","5e8126a0d32cbc817a4df7b6","683db6dfa200031b80f2a654","6865075878481eb34bcfc915","5e8126a0d32cbc817a4df7b6","2025-07-02T10:35:03.221Z","","","","","","MotivationQ","","","","","","","","","","","","","","","","","","","","","","","","","","","","","","","","","","","","","","50"
"","","","","ctl-task-cpt","72","1027512","0.0-10.0-0.7","16","1","2025-07-02 10:18:25","80fe4187154257d5fb01684ea91b68b9","185.236.98.146","Mozilla/5.0 (Windows NT 10.0; Win64; x64; rv:138.0) Gecko/20100101 Firefox/138.0","","Firefox","138.0","Windows","10.0","https://app.prolific.com/","pl,en-US;q=0.7,en;q=0.3","5e8126a0d32cbc817a4df7b6","683db6dfa200031b80f2a654","6865075878481eb34bcfc915","5e8126a0d32cbc817a4df7b6","2025-07-02T10:35:33.665Z","","","","","","","","","","","","","","","","win-only","3","g1:SW,g2:NE","0.3","8","0","998423","1391","6394","27438","1","4","4","6","1","1","1","42","41","0.3181818181818182","2015","3000","2155","[""down"",""left""]","{""num_key_presses"":6,""num_perfect"":3,""num_errors"":0,""num_randdir"":3,""num_randdir_good_moves"":2,""num_whilered"":0,""num_whileblue"":0,""num_blue"":1,""num_good_moves"":5}","[464.3571428571429,457.90713827950617,0,467.3571428571429,460.90713827950617,117,467.3571428571429,462.40713827950617,222,467.3571428571429,462.40713827950617,326,455.3571428571429,463.90713827950617,440,480.8571428571429,474.40713827950617,541,485.3571428571429,475.90713827950617,647,440.3571428571429,514.9071382795062,751,299.3571428571429,682.9071382795062,865,237.85714285714286,795.4071382795062,973,212.35714285714286,814.9071382795062,1075,177.85714285714286,829.9071382795062,1179,137.35714285714286,838.9071382795062,1292,134.35714285714286,838.9071382795062,1404,134.35714285714286,838.9071382795062,1512,132.85714285714286,837.4071382795062,1620,132.85714285714286,837.4071382795062,1724,132.85714285714286,837.4071382795062,1835,132.85714285714286,837.4071382795062,1941,132.85714285714286,837.4071382795062,2048,132.85714285714286,837.4071382795062,2153,107.35714285714286,826.9071382795062,2256,102.85714285714286,823.9071382795062,2356,102.85714285714286,823.9071382795062,2460,102.85714285714286,823.9071382795062,2560,102.85714285714286,823.9071382795062,2660,102.85714285714286,823.9071382795062,2775,102.85714285714286,823.9071382795062,2882,102.85714285714286,823.9071382795062,2991,102.85714285714286,823.9071382795062,3101,102.85714285714286,823.9071382795062,3217,102.85714285714286,823.9071382795062,3329,102.85714285714286,823.9071382795062,3439,102.85714285714286,823.9071382795062,3539,102.85714285714286,823.9071382795062,3652,102.85714285714286,823.9071382795062,3760,102.85714285714286,823.9071382795062,3867,102.85714285714286,823.9071382795062,3967,102.85714285714286,823.9071382795062,4074,102.85714285714286,823.9071382795062,4182,102.85714285714286,823.9071382795062,4290,102.85714285714286,823.9071382795062,4392,102.85714285714286,823.9071382795062,4508,102.85714285714286,823.9071382795062,4615,102.85714285714286,823.9071382795062,4717,102.85714285714286,823.9071382795062,4818,102.85714285714286,823.9071382795062,4920]","[1533,1533,1000,0,533,""smooth"",""down"",""down"",""good_move"",4128,2595,2117.8,1533,477.2,""oops"",""down"",""up"",""bad_move"",7116,2988,2507.6,4128,480.4,""smooth"",""down"",""down"",""good_move"",14330,7214,3059.3,10898,372.7,""oops"",""left"",""down"",""good_move"",17545,3214,2808.5,14331,405.5,""smooth"",""left"",""left"",""good_move"",20769,3223,2816.6,17546,406.4,""oops"",""left"",""left"",""good_move""]","",""
"2835","","<div style=""width:500px;"">
  <p>What determined the result of this run?</p>
  </div>","37","html-slider-response","73","1030349","0.0-10.0-1.7","16","1","2025-07-02 10:18:25","80fe4187154257d5fb01684ea91b68b9","185.236.98.146","Mozilla/5.0 (Windows NT 10.0; Win64; x64; rv:138.0) Gecko/20100101 Firefox/138.0","","Firefox","138.0","Windows","10.0","https://app.prolific.com/","pl,en-US;q=0.7,en;q=0.3","5e8126a0d32cbc817a4df7b6","683db6dfa200031b80f2a654","6865075878481eb34bcfc915","5e8126a0d32cbc817a4df7b6","2025-07-02T10:35:36.502Z","","","","","","AttribQ","","","","","","","","","","","","","","","","","","","","","","","","","","","","","","","","","","","","","","50"
"2838","","<div style=""width:500px;"">
  <p>How much control did you have over the ball?</p>
  </div>","82","html-slider-response","74","1033189","0.0-10.0-2.7","16","1","2025-07-02 10:18:25","80fe4187154257d5fb01684ea91b68b9","185.236.98.146","Mozilla/5.0 (Windows NT 10.0; Win64; x64; rv:138.0) Gecko/20100101 Firefox/138.0","","Firefox","138.0","Windows","10.0","https://app.prolific.com/","pl,en-US;q=0.7,en;q=0.3","5e8126a0d32cbc817a4df7b6","683db6dfa200031b80f2a654","6865075878481eb34bcfc915","5e8126a0d32cbc817a4df7b6","2025-07-02T10:35:39.342Z","","","","","","ControlQ","","","","","","","","","","","","","","","","","","","","","","","","","","","","","","","","","","","","","","50"
"5204","","<div style=""width:500px;"">
  <p>How would you describe your current emotional state?</p>
  </div>","10","html-slider-response","75","1038395","0.0-10.0-3.7","16","1","2025-07-02 10:18:25","80fe4187154257d5fb01684ea91b68b9","185.236.98.146","Mozilla/5.0 (Windows NT 10.0; Win64; x64; rv:138.0) Gecko/20100101 Firefox/138.0","","Firefox","138.0","Windows","10.0","https://app.prolific.com/","pl,en-US;q=0.7,en;q=0.3","5e8126a0d32cbc817a4df7b6","683db6dfa200031b80f2a654","6865075878481eb34bcfc915","5e8126a0d32cbc817a4df7b6","2025-07-02T10:35:44.548Z","","","","","","StressQ","","","","","","","","","","","","","","","","","","","","","","","","","","","","","","","","","","","","","","50"
"13943","","<div style=""width:500px;"">
  <p>What best describes how you currently feel?</p>
  </div>","84","html-slider-response","76","1052340","0.0-10.0-4.7","16","1","2025-07-02 10:18:25","80fe4187154257d5fb01684ea91b68b9","185.236.98.146","Mozilla/5.0 (Windows NT 10.0; Win64; x64; rv:138.0) Gecko/20100101 Firefox/138.0","","Firefox","138.0","Windows","10.0","https://app.prolific.com/","pl,en-US;q=0.7,en;q=0.3","5e8126a0d32cbc817a4df7b6","683db6dfa200031b80f2a654","6865075878481eb34bcfc915","5e8126a0d32cbc817a4df7b6","2025-07-02T10:35:58.493Z","","","","","","MotivationQ","","","","","","","","","","","","","","","","","","","","","","","","","","","","","","","","","","","","","","50"
"","","","","ctl-task-cpt","77","1157662","0.0-10.0-0.8","16","1","2025-07-02 10:18:25","80fe4187154257d5fb01684ea91b68b9","185.236.98.146","Mozilla/5.0 (Windows NT 10.0; Win64; x64; rv:138.0) Gecko/20100101 Firefox/138.0","","Firefox","138.0","Windows","10.0","https://app.prolific.com/","pl,en-US;q=0.7,en;q=0.3","5e8126a0d32cbc817a4df7b6","683db6dfa200031b80f2a654","6865075878481eb34bcfc915","5e8126a0d32cbc817a4df7b6","2025-07-02T10:37:43.816Z","","","","","","","","","","","","","","","","win-only","1","g1:NE,g2:SW","0.4","9","0","1053696","1471","6475","102307","1","4","4","6","2","4","4","46","42","0.3484848484848485","2031","3000","435","[""down"",""left""]","{""num_key_presses"":18,""num_perfect"":8,""num_errors"":0,""num_randdir"":10,""num_randdir_good_moves"":4,""num_whilered"":0,""num_whileblue"":0,""num_blue"":12,""num_good_moves"":12}","[467.3571428571429,460.90713827950617,0,470.3571428571429,462.40713827950617,116,476.3571428571429,465.40713827950617,226,479.3571428571429,466.90713827950617,326,479.3571428571429,466.90713827950617,440,479.3571428571429,466.90713827950617,543,479.3571428571429,466.90713827950617,645,479.3571428571429,466.90713827950617,751,479.3571428571429,466.90713827950617,855,479.3571428571429,466.90713827950617,958,479.3571428571429,466.90713827950617,1058,479.3571428571429,466.90713827950617,1164,533.3571428571429,490.90713827950617,1267,542.3571428571429,511.90713827950617,1367,572.3571428571429,445.90713827950617,1474,533.3571428571429,429.40713827950617,1579,320.3571428571429,619.9071382795062,1681,147.85714285714286,739.9071382795062,1781,113.35714285714286,763.9071382795062,1881,74.35714285714286,840.4071382795062,1985,74.35714285714286,841.9071382795062,2090,74.35714285714286,841.9071382795062,2204,74.35714285714286,841.9071382795062,2305,74.35714285714286,841.9071382795062,2405,74.35714285714286,841.9071382795062,2514,74.35714285714286,841.9071382795062,2615,74.35714285714286,841.9071382795062,2719,74.35714285714286,841.9071382795062,2834,74.35714285714286,841.9071382795062,2942,74.35714285714286,841.9071382795062,3045,74.35714285714286,841.9071382795062,3146,74.35714285714286,841.9071382795062,3255,74.35714285714286,841.9071382795062,3367,74.35714285714286,841.9071382795062,3470,74.35714285714286,841.9071382795062,3573,74.35714285714286,841.9071382795062,3680,74.35714285714286,841.9071382795062,3784,74.35714285714286,841.9071382795062,3894,74.35714285714286,841.9071382795062,4000,74.35714285714286,841.9071382795062,4107,74.35714285714286,841.9071382795062,4214,74.35714285714286,841.9071382795062,4326,74.35714285714286,841.9071382795062,4434,74.35714285714286,841.9071382795062,4537,74.35714285714286,841.9071382795062,4650,74.35714285714286,841.9071382795062,4752,74.35714285714286,841.9071382795062,4866,74.35714285714286,841.9071382795062,4969]","[8307,8307,2705.6,5167,434.4,""oops"",""down"",""right"",""bad_move"",13670,5363,2221.5,11076,372.5,""oops"",""down"",""up"",""bad_move"",21161,7491,2783.1,17985,392.9,""smooth"",""down"",""down"",""good_move"",24596,3435,2932.9,21161,502.1,""smooth"",""down"",""down"",""good_move"",26809,2213,1821.3,24596,391.7,""smooth"",""down"",""down"",""good_move"",29745,2936,2543.4,26809,392.6,""smooth"",""down"",""down"",""good_move"",36078,6333,1886.6,33719,472.4,""oops"",""left"",""left"",""good_move"",39177,3099,1903.7,36078,1195.3,""oops"",""left"",""up"",""bad_move"",42201,3024,2355.1,39177,668.9,""oops"",""left"",""down"",""good_move"",44915,2714,2291.4,42201,422.6,""oops"",""left"",""left"",""good_move"",58950,14035,2812.6,55737,400.4,""oops"",""left"",""up"",""bad_move"",61851,2900,2421.7,58951,478.3,""oops"",""left"",""right"",""bad_move"",72797,10946,2785.8,69591,420.2,""oops"",""left"",""up"",""bad_move"",83246,10449,2605.7,80219,421.3,""oops"",""left"",""down"",""good_move"",86166,2920,2518.1,83246,401.9,""smooth"",""left"",""left"",""good_move"",89270,3104,2653.1,86166,450.9,""smooth"",""left"",""left"",""good_move"",92470,3200,2742.8,89270,457.2,""smooth"",""left"",""left"",""good_move"",95549,3079,2645.9,92470,433.1,""smooth"",""down"",""down"",""good_move""]","",""
"5889","","<div style=""width:500px;"">
  <p>What determined the result of this run?</p>
  </div>","25","html-slider-response","78","1163555","0.0-10.0-1.8","16","1","2025-07-02 10:18:25","80fe4187154257d5fb01684ea91b68b9","185.236.98.146","Mozilla/5.0 (Windows NT 10.0; Win64; x64; rv:138.0) Gecko/20100101 Firefox/138.0","","Firefox","138.0","Windows","10.0","https://app.prolific.com/","pl,en-US;q=0.7,en;q=0.3","5e8126a0d32cbc817a4df7b6","683db6dfa200031b80f2a654","6865075878481eb34bcfc915","5e8126a0d32cbc817a4df7b6","2025-07-02T10:37:49.708Z","","","","","","AttribQ","","","","","","","","","","","","","","","","","","","","","","","","","","","","","","","","","","","","","","50"
"3431","","<div style=""width:500px;"">
  <p>How much control did you have over the ball?</p>
  </div>","21","html-slider-response","79","1166988","0.0-10.0-2.8","16","1","2025-07-02 10:18:25","80fe4187154257d5fb01684ea91b68b9","185.236.98.146","Mozilla/5.0 (Windows NT 10.0; Win64; x64; rv:138.0) Gecko/20100101 Firefox/138.0","","Firefox","138.0","Windows","10.0","https://app.prolific.com/","pl,en-US;q=0.7,en;q=0.3","5e8126a0d32cbc817a4df7b6","683db6dfa200031b80f2a654","6865075878481eb34bcfc915","5e8126a0d32cbc817a4df7b6","2025-07-02T10:37:53.141Z","","","","","","ControlQ","","","","","","","","","","","","","","","","","","","","","","","","","","","","","","","","","","","","","","50"
"2982","","<div style=""width:500px;"">
  <p>How would you describe your current emotional state?</p>
  </div>","27","html-slider-response","80","1169971","0.0-10.0-3.8","16","1","2025-07-02 10:18:25","80fe4187154257d5fb01684ea91b68b9","185.236.98.146","Mozilla/5.0 (Windows NT 10.0; Win64; x64; rv:138.0) Gecko/20100101 Firefox/138.0","","Firefox","138.0","Windows","10.0","https://app.prolific.com/","pl,en-US;q=0.7,en;q=0.3","5e8126a0d32cbc817a4df7b6","683db6dfa200031b80f2a654","6865075878481eb34bcfc915","5e8126a0d32cbc817a4df7b6","2025-07-02T10:37:56.124Z","","","","","","StressQ","","","","","","","","","","","","","","","","","","","","","","","","","","","","","","","","","","","","","","50"
"2392","","<div style=""width:500px;"">
  <p>What best describes how you currently feel?</p>
  </div>","73","html-slider-response","81","1172364","0.0-10.0-4.8","16","1","2025-07-02 10:18:25","80fe4187154257d5fb01684ea91b68b9","185.236.98.146","Mozilla/5.0 (Windows NT 10.0; Win64; x64; rv:138.0) Gecko/20100101 Firefox/138.0","","Firefox","138.0","Windows","10.0","https://app.prolific.com/","pl,en-US;q=0.7,en;q=0.3","5e8126a0d32cbc817a4df7b6","683db6dfa200031b80f2a654","6865075878481eb34bcfc915","5e8126a0d32cbc817a4df7b6","2025-07-02T10:37:58.517Z","","","","","","MotivationQ","","","","","","","","","","","","","","","","","","","","","","","","","","","","","","","","","","","","","","50"
"","","","","ctl-task-cpt","82","1207917","0.0-10.0-0.9","16","1","2025-07-02 10:18:25","80fe4187154257d5fb01684ea91b68b9","185.236.98.146","Mozilla/5.0 (Windows NT 10.0; Win64; x64; rv:138.0) Gecko/20100101 Firefox/138.0","","Firefox","138.0","Windows","10.0","https://app.prolific.com/","pl,en-US;q=0.7,en;q=0.3","5e8126a0d32cbc817a4df7b6","683db6dfa200031b80f2a654","6865075878481eb34bcfc915","5e8126a0d32cbc817a4df7b6","2025-07-02T10:38:34.070Z","","","","","","","","","","","","","","","","win-only","2","g1:SE,g2:NW","0.5","10","0","1173721","1204","6207","32549","1","4","8","6","2","8","8","54","46","0.4090909090909091","1810","3000","2150","[""left"",""up""]","{""num_key_presses"":6,""num_perfect"":4,""num_errors"":0,""num_randdir"":2,""num_randdir_good_moves"":2,""num_whilered"":0,""num_whileblue"":0,""num_blue"":3,""num_good_moves"":6}","[455.3571428571429,457.90713827950617,0,455.3571428571429,457.90713827950617,105,452.3571428571429,466.90713827950617,213,452.3571428571429,466.90713827950617,320,470.3571428571429,496.90713827950617,427,447.8571428571429,475.90713827950617,536,393.8571428571429,394.90713827950617,643,233.35714285714286,322.90713827950617,751,146.35714285714286,213.40713827950614,859,128.35714285714286,193.90713827950614,966,125.35714285714286,157.90713827950614,1074,120.85714285714286,142.90713827950614,1182,116.35714285714286,115.90713827950614,1293,116.35714285714286,112.90713827950614,1398,116.35714285714286,109.90713827950614,1507,116.35714285714286,109.90713827950614,1614,116.35714285714286,109.90713827950614,1723,117.85714285714286,109.90713827950614,1832,119.35714285714286,109.90713827950614,1942,119.35714285714286,109.90713827950614,2049,119.35714285714286,109.90713827950614,2158,119.35714285714286,109.90713827950614,2266,119.35714285714286,109.90713827950614,2375,119.35714285714286,109.90713827950614,2484,119.35714285714286,109.90713827950614,2593,119.35714285714286,109.90713827950614,2701,119.35714285714286,109.90713827950614,2811,119.35714285714286,109.90713827950614,2919,119.35714285714286,109.90713827950614,3027,119.35714285714286,109.90713827950614,3134,119.35714285714286,109.90713827950614,3245,119.35714285714286,109.90713827950614,3353,119.35714285714286,109.90713827950614,3460,119.35714285714286,109.90713827950614,3567,119.35714285714286,109.90713827950614,3675,119.35714285714286,109.90713827950614,3783,119.35714285714286,109.90713827950614,3891,119.35714285714286,109.90713827950614,3998,119.35714285714286,109.90713827950614,4108,119.35714285714286,109.90713827950614,4216,119.35714285714286,109.90713827950614,4326,119.35714285714286,109.90713827950614,4432,119.35714285714286,109.90713827950614,4541,119.35714285714286,109.90713827950614,4647,119.35714285714286,109.90713827950614,4755,119.35714285714286,109.90713827950614,4863,119.35714285714286,109.90713827950614,4973]","[4145,4145,1727.7,2011,406.3,""smooth"",""up"",""up"",""good_move"",7054,2909,1965.6,4145,943.4,""oops"",""up"",""up"",""good_move"",9826,2772,2175,7054,597,""smooth"",""up"",""up"",""good_move"",12832,3006,2424,9826,582,""smooth"",""left"",""left"",""good_move"",19422,6590,2601.6,16451,369.4,""smooth"",""left"",""left"",""good_move"",26067,6645,2036.2,23599,431.8,""oops"",""left"",""left"",""good_move""]","",""
"4478","","<div style=""width:500px;"">
  <p>What determined the result of this run?</p>
  </div>","100","html-slider-response","83","1212396","0.0-10.0-1.9","16","1","2025-07-02 10:18:25","80fe4187154257d5fb01684ea91b68b9","185.236.98.146","Mozilla/5.0 (Windows NT 10.0; Win64; x64; rv:138.0) Gecko/20100101 Firefox/138.0","","Firefox","138.0","Windows","10.0","https://app.prolific.com/","pl,en-US;q=0.7,en;q=0.3","5e8126a0d32cbc817a4df7b6","683db6dfa200031b80f2a654","6865075878481eb34bcfc915","5e8126a0d32cbc817a4df7b6","2025-07-02T10:38:38.549Z","","","","","","AttribQ","","","","","","","","","","","","","","","","","","","","","","","","","","","","","","","","","","","","","","50"
"4310","","<div style=""width:500px;"">
  <p>How much control did you have over the ball?</p>
  </div>","95","html-slider-response","84","1216707","0.0-10.0-2.9","16","1","2025-07-02 10:18:25","80fe4187154257d5fb01684ea91b68b9","185.236.98.146","Mozilla/5.0 (Windows NT 10.0; Win64; x64; rv:138.0) Gecko/20100101 Firefox/138.0","","Firefox","138.0","Windows","10.0","https://app.prolific.com/","pl,en-US;q=0.7,en;q=0.3","5e8126a0d32cbc817a4df7b6","683db6dfa200031b80f2a654","6865075878481eb34bcfc915","5e8126a0d32cbc817a4df7b6","2025-07-02T10:38:42.860Z","","","","","","ControlQ","","","","","","","","","","","","","","","","","","","","","","","","","","","","","","","","","","","","","","50"
"3071","","<div style=""width:500px;"">
  <p>How would you describe your current emotional state?</p>
  </div>","13","html-slider-response","85","1219780","0.0-10.0-3.9","16","1","2025-07-02 10:18:25","80fe4187154257d5fb01684ea91b68b9","185.236.98.146","Mozilla/5.0 (Windows NT 10.0; Win64; x64; rv:138.0) Gecko/20100101 Firefox/138.0","","Firefox","138.0","Windows","10.0","https://app.prolific.com/","pl,en-US;q=0.7,en;q=0.3","5e8126a0d32cbc817a4df7b6","683db6dfa200031b80f2a654","6865075878481eb34bcfc915","5e8126a0d32cbc817a4df7b6","2025-07-02T10:38:45.933Z","","","","","","StressQ","","","","","","","","","","","","","","","","","","","","","","","","","","","","","","","","","","","","","","50"
"3886","","<div style=""width:500px;"">
  <p>What best describes how you currently feel?</p>
  </div>","93","html-slider-response","86","1223667","0.0-10.0-4.9","16","1","2025-07-02 10:18:25","80fe4187154257d5fb01684ea91b68b9","185.236.98.146","Mozilla/5.0 (Windows NT 10.0; Win64; x64; rv:138.0) Gecko/20100101 Firefox/138.0","","Firefox","138.0","Windows","10.0","https://app.prolific.com/","pl,en-US;q=0.7,en;q=0.3","5e8126a0d32cbc817a4df7b6","683db6dfa200031b80f2a654","6865075878481eb34bcfc915","5e8126a0d32cbc817a4df7b6","2025-07-02T10:38:49.820Z","","","","","","MotivationQ","","","","","","","","","","","","","","","","","","","","","","","","","","","","","","","","","","","","","","50"
"","","","","ctl-task-cpt","87","1265390","0.0-10.0-0.10","16","1","2025-07-02 10:18:25","80fe4187154257d5fb01684ea91b68b9","185.236.98.146","Mozilla/5.0 (Windows NT 10.0; Win64; x64; rv:138.0) Gecko/20100101 Firefox/138.0","","Firefox","138.0","Windows","10.0","https://app.prolific.com/","pl,en-US;q=0.7,en;q=0.3","5e8126a0d32cbc817a4df7b6","683db6dfa200031b80f2a654","6865075878481eb34bcfc915","5e8126a0d32cbc817a4df7b6","2025-07-02T10:39:31.543Z","","","","","","","","","","","","","","","","win-only","3","g1:SW,g2:NE","0.6","11","0","1225024","2102","7109","38718","1","4","8","6","2","8","7","61","54","0.4621212121212121","2063","3000","1975","[""up"",""right""]","{""num_key_presses"":7,""num_perfect"":6,""num_errors"":1,""num_randdir"":0,""num_randdir_good_moves"":0,""num_whilered"":0,""num_whileblue"":0,""num_blue"":3,""num_good_moves"":6}","[459.8571428571429,463.90713827950617,0,459.8571428571429,463.90713827950617,111,459.8571428571429,463.90713827950617,219,459.8571428571429,463.90713827950617,327,459.8571428571429,463.90713827950617,436,464.3571428571429,459.40713827950617,543,464.3571428571429,459.40713827950617,652,459.8571428571429,451.90713827950617,761,458.3571428571429,453.40713827950617,869,459.8571428571429,448.90713827950617,979,462.8571428571429,415.90713827950617,1087,461.3571428571429,406.90713827950617,1195,458.3571428571429,400.90713827950617,1305,615.8571428571429,324.40713827950617,1414,845.3571428571429,135.40713827950614,1523,846.8571428571429,88.90713827950614,1630,842.3571428571429,61.90713827950614,1738,845.3571428571429,79.90713827950614,1847,849.8571428571429,82.90713827950614,1957,855.8571428571429,87.40713827950614,2065,858.8571428571429,88.90713827950614,2174,860.3571428571429,91.90713827950614,2282,860.3571428571429,94.90713827950614,2391,860.3571428571429,94.90713827950614,2498,860.3571428571429,94.90713827950614,2607,860.3571428571429,94.90713827950614,2713,860.3571428571429,94.90713827950614,2824,860.3571428571429,94.90713827950614,2930,860.3571428571429,94.90713827950614,3040,860.3571428571429,94.90713827950614,3150,860.3571428571429,94.90713827950614,3259,860.3571428571429,94.90713827950614,3366,860.3571428571429,94.90713827950614,3475,860.3571428571429,94.90713827950614,3582,860.3571428571429,94.90713827950614,3691,860.3571428571429,94.90713827950614,3800,860.3571428571429,94.90713827950614,3908,860.3571428571429,94.90713827950614,4017,860.3571428571429,94.90713827950614,4125,860.3571428571429,94.90713827950614,4231,860.3571428571429,94.90713827950614,4342,860.3571428571429,94.90713827950614,4450,860.3571428571429,94.90713827950614,4561,860.3571428571429,94.90713827950614,4669,860.3571428571429,94.90713827950614,4776,860.3571428571429,94.90713827950614,4883,860.3571428571429,94.90713827950614,4992]","[430,430,1000,0,-570,""error"",""-"",""-"",""no_move"",4406,3976,2501.5,1439,465.5,""smooth"",""right"",""right"",""good_move"",11178,6772,3054.4,7702,421.6,""smooth"",""right"",""right"",""good_move"",18215,7036,2678.5,15145,391.5,""smooth"",""right"",""right"",""good_move"",21501,3286,2823,18215,463,""smooth"",""up"",""up"",""good_move"",28358,6857,2451.4,25420,486.6,""smooth"",""up"",""up"",""good_move"",31360,3002,2551.5,28358,450.5,""smooth"",""up"",""up"",""good_move""]","",""
"2530","","<div style=""width:500px;"">
  <p>What determined the result of this run?</p>
  </div>","100","html-slider-response","88","1267921","0.0-10.0-1.10","16","1","2025-07-02 10:18:25","80fe4187154257d5fb01684ea91b68b9","185.236.98.146","Mozilla/5.0 (Windows NT 10.0; Win64; x64; rv:138.0) Gecko/20100101 Firefox/138.0","","Firefox","138.0","Windows","10.0","https://app.prolific.com/","pl,en-US;q=0.7,en;q=0.3","5e8126a0d32cbc817a4df7b6","683db6dfa200031b80f2a654","6865075878481eb34bcfc915","5e8126a0d32cbc817a4df7b6","2025-07-02T10:39:34.074Z","","","","","","AttribQ","","","","","","","","","","","","","","","","","","","","","","","","","","","","","","","","","","","","","","50"
"4951","","<div style=""width:500px;"">
  <p>How much control did you have over the ball?</p>
  </div>","100","html-slider-response","89","1272874","0.0-10.0-2.10","16","1","2025-07-02 10:18:25","80fe4187154257d5fb01684ea91b68b9","185.236.98.146","Mozilla/5.0 (Windows NT 10.0; Win64; x64; rv:138.0) Gecko/20100101 Firefox/138.0","","Firefox","138.0","Windows","10.0","https://app.prolific.com/","pl,en-US;q=0.7,en;q=0.3","5e8126a0d32cbc817a4df7b6","683db6dfa200031b80f2a654","6865075878481eb34bcfc915","5e8126a0d32cbc817a4df7b6","2025-07-02T10:39:39.027Z","","","","","","ControlQ","","","","","","","","","","","","","","","","","","","","","","","","","","","","","","","","","","","","","","50"
