"rt","response_timestamp","stimulus","response","trial_type","trial_index","time_elapsed","internal_node_id","run_id","condition","recorded_at","source_code_version","ip","user_agent","device","browser","browser_version","platform","platform_version","referer","accept_language","PROLIFIC_PID","STUDY_ID","SESSION_ID","prolific_id","realtime","view_history","question_order","consent","success","question_id","eventType","responses","item_order","radio_event_ids","radio_event_times","key_event_times","mouse_event_times","straightlining","zigzagging","honeypot","which_type","canvas_config","goals_layout","control_level","trial_number","tutorial_trial_number","trial_start_time","phase1_start_time","phase2_start_time","phase3_start_time","goal_1_value","goal_1_distance","goal_2_value","goal_2_distance","goal_selected","outcome","outcome_total","participant_final_score","participant_initial_score","participant_final_score_prop","goal_choice_rt","allocated_time","allocated_time_remaining","goal_direction","counts","mouse_movements","key_presses","correct","slider_start"
"157049","1751451683237","<p style='font-size:40px;line-height:1.25'><strong>Welcome to the experiment!</strong></p><p style='font-size:1.1em;line-height:1.25'>Thank you for your interest in our experiment! Before you begin, it is important that we obtain your informed consent to participate in the study.</p><p style='font-size:1.1em;line-height:1.25'>On the next screen will be an <strong>information sheet</strong> for you to read. To participate in the study we need you to read this information sheet and the following consent form carefully. If you agree with all the statements, please click the <strong>I agree</strong> button.</p><p style='font-size:1.1em;line-height:1.25'>Press <strong>Next</strong> to read the information sheet.</p>","0","custom-html-button-response","0","157050","0.0-0.0","43","1","2025-07-02 10:18:43","80fe4187154257d5fb01684ea91b68b9","77.89.84.51","Mozilla/5.0 (Windows NT 10.0; Win64; x64) AppleWebKit/537.36 (KHTML, like Gecko) Chrome/137.0.0.0 Safari/537.36","WebKit","Chrome","137.0.0.0","Windows","10.0","https://app.prolific.com/","pl-PL,pl;q=0.9,en-US;q=0.8,en;q=0.7","5e8a5a892f6f027054a83d88","683db6dfa200031b80f2a654","68650765ee1ca017054505d8","5e8a5a892f6f027054a83d88","2025-07-02T10:21:23.237Z","","","","","","","","","","","","","","","","","","","","","","","","","","","","","","","","","","","","","","","","","","","",""
"20825","","","","instructions","1","177876","0.0-1.0","43","1","2025-07-02 10:18:43","80fe4187154257d5fb01684ea91b68b9","77.89.84.51","Mozilla/5.0 (Windows NT 10.0; Win64; x64) AppleWebKit/537.36 (KHTML, like Gecko) Chrome/137.0.0.0 Safari/537.36","WebKit","Chrome","137.0.0.0","Windows","10.0","https://app.prolific.com/","pl-PL,pl;q=0.9,en-US;q=0.8,en;q=0.7","5e8a5a892f6f027054a83d88","683db6dfa200031b80f2a654","68650765ee1ca017054505d8","5e8a5a892f6f027054a83d88","","[{""page_index"":0,""viewing_time"":10642},{""page_index"":1,""viewing_time"":10183}]","","","","","","","","","","","","","","","","","","","","","","","","","","","","","","","","","","","","","","","","","","",""
"5882","","","{""Q0"":"""",""Q1"":"""",""Q2"":"""",""Q3"":"""",""Q4"":"""",""Q5"":"""",""Q6"":""I agree""}","survey-multi-choice","2","183760","0.0-2.0","43","1","2025-07-02 10:18:43","80fe4187154257d5fb01684ea91b68b9","77.89.84.51","Mozilla/5.0 (Windows NT 10.0; Win64; x64) AppleWebKit/537.36 (KHTML, like Gecko) Chrome/137.0.0.0 Safari/537.36","WebKit","Chrome","137.0.0.0","Windows","10.0","https://app.prolific.com/","pl-PL,pl;q=0.9,en-US;q=0.8,en;q=0.7","5e8a5a892f6f027054a83d88","683db6dfa200031b80f2a654","68650765ee1ca017054505d8","5e8a5a892f6f027054a83d88","","","[0,1,2,3,4,5,6]","true","","","","","","","","","","","","","","","","","","","","","","","","","","","","","","","","","","","","","","","","",""
"24955","","","","fullscreen","3","209717","0.0-4.0","43","1","2025-07-02 10:18:43","80fe4187154257d5fb01684ea91b68b9","77.89.84.51","Mozilla/5.0 (Windows NT 10.0; Win64; x64) AppleWebKit/537.36 (KHTML, like Gecko) Chrome/137.0.0.0 Safari/537.36","WebKit","Chrome","137.0.0.0","Windows","10.0","https://app.prolific.com/","pl-PL,pl;q=0.9,en-US;q=0.8,en;q=0.7","5e8a5a892f6f027054a83d88","683db6dfa200031b80f2a654","68650765ee1ca017054505d8","5e8a5a892f6f027054a83d88","","","","","true","","","","","","","","","","","","","","","","","","","","","","","","","","","","","","","","","","","","","","","",""
"3381","1751451739286"," <p style='font-size:1.1em;line-height:1.25'>Thank you for completing the consent form and closing all other tabs.</p><p style='font-size:1.1em;line-height:1.25'>We will now invite you to fill in some demographic information and questionnaires, before starting the game.<br>This will take about 5 minutes.<br></p><p style='font-size:1.1em;line-height:1.25'>Press the <strong>Next</strong> button to continue.</p>","0","custom-html-button-response","4","213099","0.0-5.0","43","1","2025-07-02 10:18:43","80fe4187154257d5fb01684ea91b68b9","77.89.84.51","Mozilla/5.0 (Windows NT 10.0; Win64; x64) AppleWebKit/537.36 (KHTML, like Gecko) Chrome/137.0.0.0 Safari/537.36","WebKit","Chrome","137.0.0.0","Windows","10.0","https://app.prolific.com/","pl-PL,pl;q=0.9,en-US;q=0.8,en;q=0.7","5e8a5a892f6f027054a83d88","683db6dfa200031b80f2a654","68650765ee1ca017054505d8","5e8a5a892f6f027054a83d88","2025-07-02T10:22:19.286Z","","","","","","","","","","","","","","","","","","","","","","","","","","","","","","","","","","","","","","","","","","","",""
"3029","","","{""age"":""28""}","survey-text","5","216129","0.0-6.0-0.0","43","1","2025-07-02 10:18:43","80fe4187154257d5fb01684ea91b68b9","77.89.84.51","Mozilla/5.0 (Windows NT 10.0; Win64; x64) AppleWebKit/537.36 (KHTML, like Gecko) Chrome/137.0.0.0 Safari/537.36","WebKit","Chrome","137.0.0.0","Windows","10.0","https://app.prolific.com/","pl-PL,pl;q=0.9,en-US;q=0.8,en;q=0.7","5e8a5a892f6f027054a83d88","683db6dfa200031b80f2a654","68650765ee1ca017054505d8","5e8a5a892f6f027054a83d88","","","","","","0","demographics","","","","","","","","","","","","","","","","","","","","","","","","","","","","","","","","","","","","","",""
"3547","","","{""gender_identity"":""male/man""}","survey-multi-choice","6","219676","0.0-6.0-1.0","43","1","2025-07-02 10:18:43","80fe4187154257d5fb01684ea91b68b9","77.89.84.51","Mozilla/5.0 (Windows NT 10.0; Win64; x64) AppleWebKit/537.36 (KHTML, like Gecko) Chrome/137.0.0.0 Safari/537.36","WebKit","Chrome","137.0.0.0","Windows","10.0","https://app.prolific.com/","pl-PL,pl;q=0.9,en-US;q=0.8,en;q=0.7","5e8a5a892f6f027054a83d88","683db6dfa200031b80f2a654","68650765ee1ca017054505d8","5e8a5a892f6f027054a83d88","","","[0]","","","1","demographics","","","","","","","","","","","","","","","","","","","","","","","","","","","","","","","","","","","","","",""
"2744","","","{""assigned_sex"":""male""}","survey-multi-choice","7","222421","0.0-6.0-2.0","43","1","2025-07-02 10:18:43","80fe4187154257d5fb01684ea91b68b9","77.89.84.51","Mozilla/5.0 (Windows NT 10.0; Win64; x64) AppleWebKit/537.36 (KHTML, like Gecko) Chrome/137.0.0.0 Safari/537.36","WebKit","Chrome","137.0.0.0","Windows","10.0","https://app.prolific.com/","pl-PL,pl;q=0.9,en-US;q=0.8,en;q=0.7","5e8a5a892f6f027054a83d88","683db6dfa200031b80f2a654","68650765ee1ca017054505d8","5e8a5a892f6f027054a83d88","","","[0]","","","2","demographics","","","","","","","","","","","","","","","","","","","","","","","","","","","","","","","","","","","","","",""
"5562","","","{""menstrual_cycle"":""No""}","survey-multi-choice","8","227984","0.0-6.0-3.0","43","1","2025-07-02 10:18:43","80fe4187154257d5fb01684ea91b68b9","77.89.84.51","Mozilla/5.0 (Windows NT 10.0; Win64; x64) AppleWebKit/537.36 (KHTML, like Gecko) Chrome/137.0.0.0 Safari/537.36","WebKit","Chrome","137.0.0.0","Windows","10.0","https://app.prolific.com/","pl-PL,pl;q=0.9,en-US;q=0.8,en;q=0.7","5e8a5a892f6f027054a83d88","683db6dfa200031b80f2a654","68650765ee1ca017054505d8","5e8a5a892f6f027054a83d88","","","[0]","","","4","demographics","","","","","","","","","","","","","","","","","","","","","","","","","","","","","","","","","","","","","",""
"6865","","","{""education"":""Bachelor's Degree (e.g., BA)""}","survey-multi-choice","9","234850","0.0-6.0-4.0","43","1","2025-07-02 10:18:43","80fe4187154257d5fb01684ea91b68b9","77.89.84.51","Mozilla/5.0 (Windows NT 10.0; Win64; x64) AppleWebKit/537.36 (KHTML, like Gecko) Chrome/137.0.0.0 Safari/537.36","WebKit","Chrome","137.0.0.0","Windows","10.0","https://app.prolific.com/","pl-PL,pl;q=0.9,en-US;q=0.8,en;q=0.7","5e8a5a892f6f027054a83d88","683db6dfa200031b80f2a654","68650765ee1ca017054505d8","5e8a5a892f6f027054a83d88","","","[0]","","","5","demographics","","","","","","","","","","","","","","","","","","","","","","","","","","","","","","","","","","","","","",""
"17174","","","{""education"":""Vocational Qualifications (e.g. City & Guilds)""}","survey-multi-choice","10","252026","0.0-6.0-5.0","43","1","2025-07-02 10:18:43","80fe4187154257d5fb01684ea91b68b9","77.89.84.51","Mozilla/5.0 (Windows NT 10.0; Win64; x64) AppleWebKit/537.36 (KHTML, like Gecko) Chrome/137.0.0.0 Safari/537.36","WebKit","Chrome","137.0.0.0","Windows","10.0","https://app.prolific.com/","pl-PL,pl;q=0.9,en-US;q=0.8,en;q=0.7","5e8a5a892f6f027054a83d88","683db6dfa200031b80f2a654","68650765ee1ca017054505d8","5e8a5a892f6f027054a83d88","2025-07-02T10:22:58.213Z","","[0]","","","6","demographics","","","","","","","","","","","","","","","","","","","","","","","","","","","","","","","","","","","","","",""
"14460","","","{""mental_health_condition"":""No"",""mental_health_treatment"":""No"",""psychiatric_medication"":""No""}","survey-text","11","266486","0.0-7.0-0.0","43","1","2025-07-02 10:18:43","80fe4187154257d5fb01684ea91b68b9","77.89.84.51","Mozilla/5.0 (Windows NT 10.0; Win64; x64) AppleWebKit/537.36 (KHTML, like Gecko) Chrome/137.0.0.0 Safari/537.36","WebKit","Chrome","137.0.0.0","Windows","10.0","https://app.prolific.com/","pl-PL,pl;q=0.9,en-US;q=0.8,en;q=0.7","5e8a5a892f6f027054a83d88","683db6dfa200031b80f2a654","68650765ee1ca017054505d8","5e8a5a892f6f027054a83d88","2025-07-02T10:23:12.673Z","","","","","1","mental_health","","","","","","","","","","","","","","","","","","","","","","","","","","","","","","","","","","","","","",""
"12533","","","{""depression_history"":[""No""]}","survey-multi-select","12","279021","0.0-7.0-1.0","43","1","2025-07-02 10:18:43","80fe4187154257d5fb01684ea91b68b9","77.89.84.51","Mozilla/5.0 (Windows NT 10.0; Win64; x64) AppleWebKit/537.36 (KHTML, like Gecko) Chrome/137.0.0.0 Safari/537.36","WebKit","Chrome","137.0.0.0","Windows","10.0","https://app.prolific.com/","pl-PL,pl;q=0.9,en-US;q=0.8,en;q=0.7","5e8a5a892f6f027054a83d88","683db6dfa200031b80f2a654","68650765ee1ca017054505d8","5e8a5a892f6f027054a83d88","","","[0]","","","","mental_health","","","","","","","","","","","","","","","","","","","","","","","","","","","","","","","","","","","","","",""
"42127.29999998212","","","","survey-template","13","321150","0.0-7.0-3.0","43","1","2025-07-02 10:18:43","80fe4187154257d5fb01684ea91b68b9","77.89.84.51","Mozilla/5.0 (Windows NT 10.0; Win64; x64) AppleWebKit/537.36 (KHTML, like Gecko) Chrome/137.0.0.0 Safari/537.36","WebKit","Chrome","137.0.0.0","Windows","10.0","https://app.prolific.com/","pl-PL,pl;q=0.9,en-US;q=0.8,en;q=0.7","5e8a5a892f6f027054a83d88","683db6dfa200031b80f2a654","68650765ee1ca017054505d8","5e8a5a892f6f027054a83d88","2025-07-02T10:24:07.337Z","","","","","","ius","{""Q01"":""2"",""Q02"":""2"",""Q03"":""0"",""Q04"":""3"",""Q05"":""1"",""Q06"":""0"",""Q07"":""0"",""Q08"":""0"",""Q09"":""2"",""Q10"":""1"",""Q11"":""0"",""Q12"":""2"",""Q13"":""0""}","[0,1,2,3,4,5,6,7,8,9,10,11,12]","[""Q01"",""Q02"",""Q03"",""Q04"",""Q05"",""Q06"",""Q07"",""Q08"",""Q09"",""Q10"",""Q11"",""Q12"",""Q13""]","[4437.199999988079,7411.0999999940395,9953.09999999404,12760.199999988079,15746,19415.19999998808,22512.19999998808,24490.19999998808,28098,30609.19999998808,33849.19999998808,35927.09999999404,41163.29999998212]","[]","[4437.199999988079,6958.0999999940395,7411.0999999940395,9542.199999988079,9953.09999999404,12018.90000000596,12431.199999988079,12760.199999988079,15293.199999988079,15746,19415.19999998808,21948.09999999404,22512.19999998808,24161.19999998808,24490.19999998808,28098,30105.09999999404,30609.19999998808,33849.19999998808,35927.09999999404,41163.29999998212,42126.29999998212]","0.46153846153846156","0.25","0","","","","","","","","","","","","","","","","","","","","","","","","","","","","",""
"2977","1751451850314","<p style='font-size:1.1em;line-height:1.25'>In the following, we will ask you a few questions relating to your experiences over the past month.<br></p><p style='font-size:1.1em;line-height:1.25'>Press the <strong>Next</strong> button to continue.</p>","0","custom-html-button-response","14","324127","0.0-7.0-4.0","43","1","2025-07-02 10:18:43","80fe4187154257d5fb01684ea91b68b9","77.89.84.51","Mozilla/5.0 (Windows NT 10.0; Win64; x64) AppleWebKit/537.36 (KHTML, like Gecko) Chrome/137.0.0.0 Safari/537.36","WebKit","Chrome","137.0.0.0","Windows","10.0","https://app.prolific.com/","pl-PL,pl;q=0.9,en-US;q=0.8,en;q=0.7","5e8a5a892f6f027054a83d88","683db6dfa200031b80f2a654","68650765ee1ca017054505d8","5e8a5a892f6f027054a83d88","2025-07-02T10:24:10.314Z","","","","","","","","","","","","","","","","","","","","","","","","","","","","","","","","","","","","","","","","","","","",""
"58880.60000002384","","","","survey-template","15","383009","0.0-7.0-5.0","43","1","2025-07-02 10:18:43","80fe4187154257d5fb01684ea91b68b9","77.89.84.51","Mozilla/5.0 (Windows NT 10.0; Win64; x64) AppleWebKit/537.36 (KHTML, like Gecko) Chrome/137.0.0.0 Safari/537.36","WebKit","Chrome","137.0.0.0","Windows","10.0","https://app.prolific.com/","pl-PL,pl;q=0.9,en-US;q=0.8,en;q=0.7","5e8a5a892f6f027054a83d88","683db6dfa200031b80f2a654","68650765ee1ca017054505d8","5e8a5a892f6f027054a83d88","2025-07-02T10:25:09.196Z","","","","","","pss","{""Q01"":""1"",""Q02"":""0"",""Q03"":""2"",""Q04"":""1"",""Q05"":""2"",""Q06"":""0"",""Q07"":""1"",""Q08"":""1"",""Q09"":""0"",""Q10"":""0""}","[0,1,2,3,4,5,6,7,8,9]","[""Q01"",""Q02"",""Q03"",""Q04"",""Q05"",""Q06"",""Q06"",""Q07"",""Q08"",""Q09"",""Q10""]","[4721.100000023842,8509.90000000596,13975.90000000596,19676.90000000596,25103,30877,33110,37038.90000000596,47201.90000000596,51981,58065]","[]","[0.10000002384185791,4721.100000023842,8068.9000000059605,8509.90000000596,12318,13975.90000000596,19676.90000000596,25103,30877,32493,33110,36663.90000000596,37038.90000000596,46675.90000000596,47201.90000000596,51981,57754,58065,58338.5,58879.90000000596]","0.4","0.3333333333333333","0","","","","","","","","","","","","","","","","","","","","","","","","","","","","",""
"2633","1751451911829","<p style='font-size:1.1em;line-height:1.25'>Thank you for your answers! Now we will ask you a few more questions relating to your feelings in the last 24 hours.<br></p><p style='font-size:1.1em;line-height:1.25'>Press the <strong>Next</strong> button to continue.</p>","0","custom-html-button-response","16","385642","0.0-7.0-6.0","43","1","2025-07-02 10:18:43","80fe4187154257d5fb01684ea91b68b9","77.89.84.51","Mozilla/5.0 (Windows NT 10.0; Win64; x64) AppleWebKit/537.36 (KHTML, like Gecko) Chrome/137.0.0.0 Safari/537.36","WebKit","Chrome","137.0.0.0","Windows","10.0","https://app.prolific.com/","pl-PL,pl;q=0.9,en-US;q=0.8,en;q=0.7","5e8a5a892f6f027054a83d88","683db6dfa200031b80f2a654","68650765ee1ca017054505d8","5e8a5a892f6f027054a83d88","2025-07-02T10:25:11.829Z","","","","","","","","","","","","","","","","","","","","","","","","","","","","","","","","","","","","","","","","","","","",""
"62822.5","","","","survey-template","17","448467","0.0-7.0-7.0","43","1","2025-07-02 10:18:43","80fe4187154257d5fb01684ea91b68b9","77.89.84.51","Mozilla/5.0 (Windows NT 10.0; Win64; x64) AppleWebKit/537.36 (KHTML, like Gecko) Chrome/137.0.0.0 Safari/537.36","WebKit","Chrome","137.0.0.0","Windows","10.0","https://app.prolific.com/","pl-PL,pl;q=0.9,en-US;q=0.8,en;q=0.7","5e8a5a892f6f027054a83d88","683db6dfa200031b80f2a654","68650765ee1ca017054505d8","5e8a5a892f6f027054a83d88","2025-07-02T10:26:14.654Z","","","","","","drsp","{""Q01"":""0"",""Q02"":""0"",""Q03"":""0"",""Q04"":""0"",""Q05"":""0"",""Q06"":""0"",""Q07"":""0"",""Q08"":""0"",""Q09"":""0"",""Q10"":""1"",""Q11"":""1"",""Q12"":""0"",""Q13"":""0"",""Q14"":""0"",""Q15"":""0"",""Q16"":""0"",""Q17"":""0"",""Q18"":""0"",""Q19"":""1"",""Q20"":""0"",""Q21"":""0""}","[0,1,2,3,4,5,6,7,8,9,10,11,12,13,14,15,16,17,18,19,20]","[""Q01"",""Q02"",""Q03"",""Q04"",""Q05"",""Q06"",""Q07"",""Q08"",""Q09"",""Q10"",""Q11"",""Q11"",""Q12"",""Q13"",""Q14"",""Q14"",""Q15"",""Q16"",""Q17"",""Q18"",""Q19"",""Q20"",""Q21""]","[3929.5,4965.5,6785.5,7371.4000000059605,9686.40000000596,10206.59999999404,11270.59999999404,12946.59999999404,14609.5,17668.59999999404,19945.5,21592.59999999404,23171.59999999404,24859.5,33377.59999999404,35579.5,37494.59999999404,38467.59999999404,39668.5,44132.59999999404,53670.5,56501.5,61930.59999999404]","[]","[0,3929.5,4965.5,6079.5999999940395,6546.4000000059605,6785.5,7116.4000000059605,7371.4000000059605,8231.59999999404,8665.40000000596,9428.40000000596,9686.40000000596,10206.59999999404,11270.59999999404,12553.700000017881,12946.59999999404,14609.5,17668.59999999404,19945.5,21592.59999999404,23171.59999999404,24377.30000001192,24859.5,32312.70000001788,33377.59999999404,35579.5,37494.59999999404,38467.59999999404,39397.70000001788,39668.5,44132.59999999404,53670.5,56501.5,61930.59999999404,62820.70000001788]","0.8571428571428571","0.2","0","","","","","","","","","","","","","","","","","","","","","","","","","","","","",""
"17292.09999999404","","","","survey-template","18","465760","0.0-7.0-8.0","43","1","2025-07-02 10:18:43","80fe4187154257d5fb01684ea91b68b9","77.89.84.51","Mozilla/5.0 (Windows NT 10.0; Win64; x64) AppleWebKit/537.36 (KHTML, like Gecko) Chrome/137.0.0.0 Safari/537.36","WebKit","Chrome","137.0.0.0","Windows","10.0","https://app.prolific.com/","pl-PL,pl;q=0.9,en-US;q=0.8,en;q=0.7","5e8a5a892f6f027054a83d88","683db6dfa200031b80f2a654","68650765ee1ca017054505d8","5e8a5a892f6f027054a83d88","2025-07-02T10:26:31.947Z","","","","","","stress","{""Q01"":""0"",""Q02"":""2"",""Q03"":""0""}","[0,1,2]","[""Q01"",""Q02"",""Q03"",""Q02"",""Q02""]","[2690,7963.699999988079,12391.699999988079,15934.799999982119,16176.699999988079]","[]","[2690,7963.699999988079,12101.799999982119,12391.699999988079,12747.5,15934.799999982119,16176.699999988079,16712.79999998212,17291.69999998808]","0.6666666666666666","0","0","","","","","","","","","","","","","","","","","","","","","","","","","","","","",""
"79092","","","","instructions","19","544852","0.0-8.0-0.0","43","1","2025-07-02 10:18:43","80fe4187154257d5fb01684ea91b68b9","77.89.84.51","Mozilla/5.0 (Windows NT 10.0; Win64; x64) AppleWebKit/537.36 (KHTML, like Gecko) Chrome/137.0.0.0 Safari/537.36","WebKit","Chrome","137.0.0.0","Windows","10.0","https://app.prolific.com/","pl-PL,pl;q=0.9,en-US;q=0.8,en;q=0.7","5e8a5a892f6f027054a83d88","683db6dfa200031b80f2a654","68650765ee1ca017054505d8","5e8a5a892f6f027054a83d88","","[{""page_index"":0,""viewing_time"":26298},{""page_index"":1,""viewing_time"":24700},{""page_index"":2,""viewing_time"":7364},{""page_index"":3,""viewing_time"":20730}]","","","","","","","","","","","","","","","","","","","","","","","","","","","","","","","","","","","","","","","","","","",""
"","","","","ctl-task-cpt","20","572129","0.0-8.0-1.0","43","1","2025-07-02 10:18:43","80fe4187154257d5fb01684ea91b68b9","77.89.84.51","Mozilla/5.0 (Windows NT 10.0; Win64; x64) AppleWebKit/537.36 (KHTML, like Gecko) Chrome/137.0.0.0 Safari/537.36","WebKit","Chrome","137.0.0.0","Windows","10.0","https://app.prolific.com/","pl-PL,pl;q=0.9,en-US;q=0.8,en;q=0.7","5e8a5a892f6f027054a83d88","683db6dfa200031b80f2a654","68650765ee1ca017054505d8","5e8a5a892f6f027054a83d88","","","","","","","","","","","","","","","","","win-only","0","g1:NW,g2:SE","1","0","1","546004","2422.2","6426.3","24272.2","2","4","4","6","2","4","3","3","0","0.022727272727272728","1691","4000","2025","[""down"",""right""]","{""num_key_presses"":7,""num_perfect"":6,""num_errors"":1,""num_randdir"":0,""num_randdir_good_moves"":0,""num_whilered"":0,""num_whileblue"":0,""num_blue"":0,""num_good_moves"":6}","[561.4285714285714,566.3348214285714,0,561.4285714285714,566.3348214285714,103.5,561.4285714285714,566.3348214285714,204.1,561.4285714285714,566.3348214285714,304.4,561.4285714285714,566.3348214285714,407.9,561.4285714285714,566.3348214285714,508.2,561.4285714285714,566.3348214285714,613.1,561.4285714285714,566.3348214285714,714.6,561.4285714285714,566.3348214285714,819,561.4285714285714,566.3348214285714,923.2,561.4285714285714,566.3348214285714,1029.1,561.4285714285714,566.3348214285714,1129.3,589.4285714285714,603.3348214285714,1233.1,835.4285714285714,926.3348214285714,1333.8,966.4285714285714,1047.3348214285713,1439.3,981.4285714285714,1060.3348214285713,1544.3,1023.4285714285714,1032.3348214285713,1648.7,1024.4285714285713,1031.3348214285713,1753.5,1024.4285714285713,1031.3348214285713,1853.6,1211.4285714285713,1115.3348214285713,1958.2,1403.4285714285713,1153.3348214285713,2058.4,1400.4285714285713,1143.3348214285713,2159,1400.4285714285713,1142.3348214285713,2264,1399.4285714285713,1137.3348214285713,2369.2,1399.4285714285713,1137.3348214285713,2473.4,1420.4285714285713,1104.3348214285713,2578.4,1420.4285714285713,1104.3348214285713,2683.5,1420.4285714285713,1104.3348214285713,2788.9,1420.4285714285713,1104.3348214285713,2893.6,1420.4285714285713,1104.3348214285713,2998.6,1420.4285714285713,1104.3348214285713,3098.8,1420.4285714285713,1104.3348214285713,3198.9,1420.4285714285713,1104.3348214285713,3303.7,1420.4285714285713,1104.3348214285713,3408.9,1387.4285714285713,1095.3348214285713,3509.9,1387.4285714285713,1095.3348214285713,3613.7,1387.4285714285713,1095.3348214285713,3718,1387.4285714285713,1095.3348214285713,3818.5,1387.4285714285713,1095.3348214285713,3919]","[1321.4,1321.4,1000,0,321.4,""smooth"",""down"",""down"",""good_move"",1591.4,269.8,2741.3,1321.6,-2471.5,""error"",""-"",""-"",""no_move"",6422.3,4830.8,3343,2595.1,484.2,""smooth"",""right"",""right"",""good_move"",9213.5,2790.9,2489.1,6422.6,301.8,""smooth"",""down"",""down"",""good_move"",12024.3,2810.8,2545,9213.5,265.8,""smooth"",""right"",""right"",""good_move"",15056.3,3031.9,2751.8,12024.4,280.1,""smooth"",""right"",""right"",""good_move"",17757.3,2701,2343.6,15056.3,357.4,""smooth"",""down"",""down"",""good_move""]","",""
"13131","","","","instructions","21","585261","0.0-8.0-2.0","43","1","2025-07-02 10:18:43","80fe4187154257d5fb01684ea91b68b9","77.89.84.51","Mozilla/5.0 (Windows NT 10.0; Win64; x64) AppleWebKit/537.36 (KHTML, like Gecko) Chrome/137.0.0.0 Safari/537.36","WebKit","Chrome","137.0.0.0","Windows","10.0","https://app.prolific.com/","pl-PL,pl;q=0.9,en-US;q=0.8,en;q=0.7","5e8a5a892f6f027054a83d88","683db6dfa200031b80f2a654","68650765ee1ca017054505d8","5e8a5a892f6f027054a83d88","","[{""page_index"":0,""viewing_time"":13131}]","","","","","","","","","","","","","","","","","","","","","","","","","","","","","","","","","","","","","","","","","","",""
"","","","","ctl-task-cpt","22","616557","0.0-8.0-3.0","43","1","2025-07-02 10:18:43","80fe4187154257d5fb01684ea91b68b9","77.89.84.51","Mozilla/5.0 (Windows NT 10.0; Win64; x64) AppleWebKit/537.36 (KHTML, like Gecko) Chrome/137.0.0.0 Safari/537.36","WebKit","Chrome","137.0.0.0","Windows","10.0","https://app.prolific.com/","pl-PL,pl;q=0.9,en-US;q=0.8,en;q=0.7","5e8a5a892f6f027054a83d88","683db6dfa200031b80f2a654","68650765ee1ca017054505d8","5e8a5a892f6f027054a83d88","","","","","","","","","","","","","","","","","win-only","0","g1:NW,g2:SE","0.35","0","3","586411.6","1011.5","5016.5","28281.2","2","4","8","6","2","8","7","7","0","0.05303030303030303","1323","4000","2090","[""down"",""right""]","{""num_key_presses"":6,""num_perfect"":3,""num_errors"":1,""num_randdir"":2,""num_randdir_good_moves"":2,""num_whilered"":0,""num_whileblue"":1,""num_blue"":3,""num_good_moves"":6}","[555.4285714285714,568.3348214285714,0,555.4285714285714,568.3348214285714,105.2,555.4285714285714,568.3348214285714,209.5,555.4285714285714,568.3348214285714,314.2,555.4285714285714,568.3348214285714,414.5,555.4285714285714,568.3348214285714,519,555.4285714285714,568.3348214285714,620,555.4285714285714,568.3348214285714,724.2,602.4285714285714,690.3348214285714,825.4,804.4285714285714,898.3348214285714,930.4,938.4285714285714,1049.3348214285713,1034.6,976.4285714285714,1095.3348214285713,1135.4,1019.4285714285714,1068.3348214285713,1239.5,1052.4285714285713,1034.3348214285713,1343.9,1052.4285714285713,1034.3348214285713,1445,1033.4285714285713,1168.3348214285713,1549.6,1045.4285714285713,1278.3348214285713,1650,1050.4285714285713,1273.3348214285713,1754.4,1052.4285714285713,1272.3348214285713,1854.9,1052.4285714285713,1272.3348214285713,1959,1052.4285714285713,1272.3348214285713,2059.3,1052.4285714285713,1272.3348214285713,2160.5,1052.4285714285713,1272.3348214285713,2264.4,1052.4285714285713,1272.3348214285713,2368.7,1052.4285714285713,1272.3348214285713,2470,1052.4285714285713,1272.3348214285713,2574.8,1052.4285714285713,1272.3348214285713,2679.7,1052.4285714285713,1272.3348214285713,2784.7,1052.4285714285713,1272.3348214285713,2890.1,1052.4285714285713,1272.3348214285713,2994.8,1052.4285714285713,1272.3348214285713,3099.8,1052.4285714285713,1272.3348214285713,3204.9,1052.4285714285713,1272.3348214285713,3308.7,1052.4285714285713,1272.3348214285713,3409.5,1052.4285714285713,1272.3348214285713,3514.7,1052.4285714285713,1272.3348214285713,3615,1052.4285714285713,1272.3348214285713,3719.5,1052.4285714285713,1272.3348214285713,3819.8,1052.4285714285713,1272.3348214285713,3919.9]","[1339.4,1339.4,1004.5,0,334.9,""while_blue"",""down"",""right"",""good_move"",11413.5,10074,2931.3,8040.4,441.8,""oops"",""down"",""right"",""good_move"",14002.4,2588.8,2166,11413.6,422.8,""smooth"",""down"",""down"",""good_move"",17390.5,3387.9,3028.9,14002.6,359,""smooth"",""down"",""down"",""good_move"",20269.4,2878.8,2501.5,17390.6,377.3,""smooth"",""down"",""down"",""good_move"",23177.7,2908.2,2568,20269.5,340.2,""oops"",""right"",""right"",""good_move""]","",""
"26728","","","","instructions","23","643285","0.0-8.0-4.0","43","1","2025-07-02 10:18:43","80fe4187154257d5fb01684ea91b68b9","77.89.84.51","Mozilla/5.0 (Windows NT 10.0; Win64; x64) AppleWebKit/537.36 (KHTML, like Gecko) Chrome/137.0.0.0 Safari/537.36","WebKit","Chrome","137.0.0.0","Windows","10.0","https://app.prolific.com/","pl-PL,pl;q=0.9,en-US;q=0.8,en;q=0.7","5e8a5a892f6f027054a83d88","683db6dfa200031b80f2a654","68650765ee1ca017054505d8","5e8a5a892f6f027054a83d88","","[{""page_index"":0,""viewing_time"":8023},{""page_index"":1,""viewing_time"":18704}]","","","","","","","","","","","","","","","","","","","","","","","","","","","","","","","","","","","","","","","","","","",""
"9146","","","{""green_ball"":[""Ball sometimes shakes and moves in a random direction""]}","survey-multi-select","24","652433","0.0-8.0-5.0-0.0","43","1","2025-07-02 10:18:43","80fe4187154257d5fb01684ea91b68b9","77.89.84.51","Mozilla/5.0 (Windows NT 10.0; Win64; x64) AppleWebKit/537.36 (KHTML, like Gecko) Chrome/137.0.0.0 Safari/537.36","WebKit","Chrome","137.0.0.0","Windows","10.0","https://app.prolific.com/","pl-PL,pl;q=0.9,en-US;q=0.8,en;q=0.7","5e8a5a892f6f027054a83d88","683db6dfa200031b80f2a654","68650765ee1ca017054505d8","5e8a5a892f6f027054a83d88","","","[0]","","","","quiz","","","","","","","","","","","","","","","","","","","","","","","","","","","","","","","","","","","","","true",""
"2950","","<p align='center'><b>CORRECT!</b> Indeed, the green ball may sometimes shake and move in a random direction.</p>","0","html-button-response","25","655384","0.0-8.0-5.0-1.0","43","1","2025-07-02 10:18:43","80fe4187154257d5fb01684ea91b68b9","77.89.84.51","Mozilla/5.0 (Windows NT 10.0; Win64; x64) AppleWebKit/537.36 (KHTML, like Gecko) Chrome/137.0.0.0 Safari/537.36","WebKit","Chrome","137.0.0.0","Windows","10.0","https://app.prolific.com/","pl-PL,pl;q=0.9,en-US;q=0.8,en;q=0.7","5e8a5a892f6f027054a83d88","683db6dfa200031b80f2a654","68650765ee1ca017054505d8","5e8a5a892f6f027054a83d88","","","","","","","","","","","","","","","","","","","","","","","","","","","","","","","","","","","","","","","","","","","","",""
"4779","","","{""yellow_ball"":[""Ball doesn‘t move and I get -1 penalty point""]}","survey-multi-select","26","660164","0.0-8.0-6.0-0.0","43","1","2025-07-02 10:18:43","80fe4187154257d5fb01684ea91b68b9","77.89.84.51","Mozilla/5.0 (Windows NT 10.0; Win64; x64) AppleWebKit/537.36 (KHTML, like Gecko) Chrome/137.0.0.0 Safari/537.36","WebKit","Chrome","137.0.0.0","Windows","10.0","https://app.prolific.com/","pl-PL,pl;q=0.9,en-US;q=0.8,en;q=0.7","5e8a5a892f6f027054a83d88","683db6dfa200031b80f2a654","68650765ee1ca017054505d8","5e8a5a892f6f027054a83d88","","","[0]","","","","quiz","","","","","","","","","","","","","","","","","","","","","","","","","","","","","","","","","","","","","true",""
"792","","<p align='center'><b>CORRECT!</b> Indeed, the yellow ball never moves and you receive a penalty.</p>","0","html-button-response","27","660956","0.0-8.0-6.0-1.0","43","1","2025-07-02 10:18:43","80fe4187154257d5fb01684ea91b68b9","77.89.84.51","Mozilla/5.0 (Windows NT 10.0; Win64; x64) AppleWebKit/537.36 (KHTML, like Gecko) Chrome/137.0.0.0 Safari/537.36","WebKit","Chrome","137.0.0.0","Windows","10.0","https://app.prolific.com/","pl-PL,pl;q=0.9,en-US;q=0.8,en;q=0.7","5e8a5a892f6f027054a83d88","683db6dfa200031b80f2a654","68650765ee1ca017054505d8","5e8a5a892f6f027054a83d88","","","","","","","","","","","","","","","","","","","","","","","","","","","","","","","","","","","","","","","","","","","","",""
"6778","","","{""blue_ball"":[""Ball always shakes and moves in a random direction""]}","survey-multi-select","28","667735","0.0-8.0-7.0-0.0","43","1","2025-07-02 10:18:43","80fe4187154257d5fb01684ea91b68b9","77.89.84.51","Mozilla/5.0 (Windows NT 10.0; Win64; x64) AppleWebKit/537.36 (KHTML, like Gecko) Chrome/137.0.0.0 Safari/537.36","WebKit","Chrome","137.0.0.0","Windows","10.0","https://app.prolific.com/","pl-PL,pl;q=0.9,en-US;q=0.8,en;q=0.7","5e8a5a892f6f027054a83d88","683db6dfa200031b80f2a654","68650765ee1ca017054505d8","5e8a5a892f6f027054a83d88","","","[0]","","","","quiz","","","","","","","","","","","","","","","","","","","","","","","","","","","","","","","","","","","","","true",""
"1131","","<p align='center'><b>CORRECT!</b> Indeed, the blue ball always shakes and moves in a random direction. Also there is a penalty of -1 point.</p>","0","html-button-response","29","668867","0.0-8.0-7.0-1.0","43","1","2025-07-02 10:18:43","80fe4187154257d5fb01684ea91b68b9","77.89.84.51","Mozilla/5.0 (Windows NT 10.0; Win64; x64) AppleWebKit/537.36 (KHTML, like Gecko) Chrome/137.0.0.0 Safari/537.36","WebKit","Chrome","137.0.0.0","Windows","10.0","https://app.prolific.com/","pl-PL,pl;q=0.9,en-US;q=0.8,en;q=0.7","5e8a5a892f6f027054a83d88","683db6dfa200031b80f2a654","68650765ee1ca017054505d8","5e8a5a892f6f027054a83d88","","","","","","","","","","","","","","","","","","","","","","","","","","","","","","","","","","","","","","","","","","","","",""
"2174","","","{""bonus"":[""When I reach 50% of points""]}","survey-multi-select","30","671043","0.0-8.0-8.0-0.0","43","1","2025-07-02 10:18:43","80fe4187154257d5fb01684ea91b68b9","77.89.84.51","Mozilla/5.0 (Windows NT 10.0; Win64; x64) AppleWebKit/537.36 (KHTML, like Gecko) Chrome/137.0.0.0 Safari/537.36","WebKit","Chrome","137.0.0.0","Windows","10.0","https://app.prolific.com/","pl-PL,pl;q=0.9,en-US;q=0.8,en;q=0.7","5e8a5a892f6f027054a83d88","683db6dfa200031b80f2a654","68650765ee1ca017054505d8","5e8a5a892f6f027054a83d88","","","[0]","","","","quiz","","","","","","","","","","","","","","","","","","","","","","","","","","","","","","","","","","","","","true",""
"961","","<p align='center'><b>CORRECT!</b> Indeed, you receive 2 pounds extra when you reach 50% of points.</p>","0","html-button-response","31","672004","0.0-8.0-8.0-1.0","43","1","2025-07-02 10:18:43","80fe4187154257d5fb01684ea91b68b9","77.89.84.51","Mozilla/5.0 (Windows NT 10.0; Win64; x64) AppleWebKit/537.36 (KHTML, like Gecko) Chrome/137.0.0.0 Safari/537.36","WebKit","Chrome","137.0.0.0","Windows","10.0","https://app.prolific.com/","pl-PL,pl;q=0.9,en-US;q=0.8,en;q=0.7","5e8a5a892f6f027054a83d88","683db6dfa200031b80f2a654","68650765ee1ca017054505d8","5e8a5a892f6f027054a83d88","","","","","","","","","","","","","","","","","","","","","","","","","","","","","","","","","","","","","","","","","","","","",""
"1279","","","","instructions","32","673283","0.0-8.0-9.0","43","1","2025-07-02 10:18:43","80fe4187154257d5fb01684ea91b68b9","77.89.84.51","Mozilla/5.0 (Windows NT 10.0; Win64; x64) AppleWebKit/537.36 (KHTML, like Gecko) Chrome/137.0.0.0 Safari/537.36","WebKit","Chrome","137.0.0.0","Windows","10.0","https://app.prolific.com/","pl-PL,pl;q=0.9,en-US;q=0.8,en;q=0.7","5e8a5a892f6f027054a83d88","683db6dfa200031b80f2a654","68650765ee1ca017054505d8","5e8a5a892f6f027054a83d88","","[{""page_index"":0,""viewing_time"":1279}]","","","","","","","","","","","","","","","","","","","","","","","","","","","","","","","","","","","","","","","","","","",""
"11133","","<p>Before you start with this game please answer the following three questions yourself. </p>
  <p>Through this game, we measure several aspects of your cognitive performance, such as reaction times, multi-tasking capabilities </p>
  <p>and the ability to assess the situation you are in.</p>
  <p></p>
  <p><b>How good do you usually are in such tasks?</b></p>","83","html-slider-response","33","684417","0.0-9.0-0.0","43","1","2025-07-02 10:18:43","80fe4187154257d5fb01684ea91b68b9","77.89.84.51","Mozilla/5.0 (Windows NT 10.0; Win64; x64) AppleWebKit/537.36 (KHTML, like Gecko) Chrome/137.0.0.0 Safari/537.36","WebKit","Chrome","137.0.0.0","Windows","10.0","https://app.prolific.com/","pl-PL,pl;q=0.9,en-US;q=0.8,en;q=0.7","5e8a5a892f6f027054a83d88","683db6dfa200031b80f2a654","68650765ee1ca017054505d8","5e8a5a892f6f027054a83d88","2025-07-02T10:30:10.605Z","","","","","","PreSkillQ","","","","","","","","","","","","","","","","","","","","","","","","","","","","","","","","","","","","","","50"
"4260","","<div style=""width:500px;"">
  <p>How well do you think you will perform in this task compared to other participants?</p>
  </div>","70","html-slider-response","34","688678","0.0-9.0-1.0","43","1","2025-07-02 10:18:43","80fe4187154257d5fb01684ea91b68b9","77.89.84.51","Mozilla/5.0 (Windows NT 10.0; Win64; x64) AppleWebKit/537.36 (KHTML, like Gecko) Chrome/137.0.0.0 Safari/537.36","WebKit","Chrome","137.0.0.0","Windows","10.0","https://app.prolific.com/","pl-PL,pl;q=0.9,en-US;q=0.8,en;q=0.7","5e8a5a892f6f027054a83d88","683db6dfa200031b80f2a654","68650765ee1ca017054505d8","5e8a5a892f6f027054a83d88","2025-07-02T10:30:14.865Z","","","","","","PrePerfQ","","","","","","","","","","","","","","","","","","","","","","","","","","","","","","","","","","","","","","50"
"3739","","<div style=""width:500px;"">
  <p>What best describes how you currently feel?</p>
  </div>","50","html-slider-response","35","692419","0.0-9.0-2.0","43","1","2025-07-02 10:18:43","80fe4187154257d5fb01684ea91b68b9","77.89.84.51","Mozilla/5.0 (Windows NT 10.0; Win64; x64) AppleWebKit/537.36 (KHTML, like Gecko) Chrome/137.0.0.0 Safari/537.36","WebKit","Chrome","137.0.0.0","Windows","10.0","https://app.prolific.com/","pl-PL,pl;q=0.9,en-US;q=0.8,en;q=0.7","5e8a5a892f6f027054a83d88","683db6dfa200031b80f2a654","68650765ee1ca017054505d8","5e8a5a892f6f027054a83d88","2025-07-02T10:30:18.606Z","","","","","","PreMotivationQ","","","","","","","","","","","","","","","","","","","","","","","","","","","","","","","","","","","","","","50"
"","","","","ctl-task-cpt","36","723507","0.0-10.0-0.0","43","1","2025-07-02 10:18:43","80fe4187154257d5fb01684ea91b68b9","77.89.84.51","Mozilla/5.0 (Windows NT 10.0; Win64; x64) AppleWebKit/537.36 (KHTML, like Gecko) Chrome/137.0.0.0 Safari/537.36","WebKit","Chrome","137.0.0.0","Windows","10.0","https://app.prolific.com/","pl-PL,pl;q=0.9,en-US;q=0.8,en;q=0.7","5e8a5a892f6f027054a83d88","683db6dfa200031b80f2a654","68650765ee1ca017054505d8","5e8a5a892f6f027054a83d88","2025-07-02T10:30:49.694Z","","","","","","","","","","","","","","","","win-only","1","g1:NE,g2:SW","1","1","0","693570.4","1159.7","6160.3","28071.1","1","4","4","6","2","4","3","3","0","0.022727272727272728","1322.5","3000","300","[""down"",""left""]","{""num_key_presses"":8,""num_perfect"":7,""num_errors"":1,""num_randdir"":0,""num_randdir_good_moves"":0,""num_whilered"":0,""num_whileblue"":1,""num_blue"":1,""num_good_moves"":7}","[549.4285714285714,559.3348214285714,0.1,549.4285714285714,559.3348214285714,101.7,549.4285714285714,559.3348214285714,205.4,549.4285714285714,559.3348214285714,305.8,549.4285714285714,559.3348214285714,406.5,549.4285714285714,559.3348214285714,510.4,549.4285714285714,559.3348214285714,612.3,549.4285714285714,559.3348214285714,716.3,549.4285714285714,559.3348214285714,821.2,506.42857142857144,608.3348214285714,926,322.42857142857144,776.3348214285714,1027.1,171.42857142857144,933.3348214285714,1130.7,79.42857142857143,1015.3348214285714,1236.5,74.42857142857143,1016.3348214285714,1336.7,74.42857142857143,1016.3348214285714,1440.9,70.42857142857143,1067.3348214285713,1545.6,47.42857142857143,1206.3348214285713,1645.9,41.42857142857143,1219.3348214285713,1747.1,41.42857142857143,1219.3348214285713,1851.1,41.42857142857143,1219.3348214285713,1955.5,41.42857142857143,1219.3348214285713,2056.6,41.42857142857143,1219.3348214285713,2160.5,41.42857142857143,1219.3348214285713,2261.8,41.42857142857143,1219.3348214285713,2367.1,41.42857142857143,1219.3348214285713,2470.7,41.42857142857143,1219.3348214285713,2571,41.42857142857143,1219.3348214285713,2676.9,41.42857142857143,1219.3348214285713,2782.2,41.42857142857143,1219.3348214285713,2885.4,41.42857142857143,1219.3348214285713,2985.4,41.42857142857143,1219.3348214285713,3086.7,41.42857142857143,1219.3348214285713,3190.9,41.42857142857143,1219.3348214285713,3295.4,41.42857142857143,1219.3348214285713,3396.6,41.42857142857143,1219.3348214285713,3501.6,41.42857142857143,1219.3348214285713,3602.1,41.42857142857143,1219.3348214285713,3706.2,41.42857142857143,1219.3348214285713,3806.3,41.42857142857143,1219.3348214285713,3911.1,41.42857142857143,1219.3348214285713,4015.6,41.42857142857143,1219.3348214285713,4115.6,41.42857142857143,1219.3348214285713,4215.8,41.42857142857143,1219.3348214285713,4320.4,41.42857142857143,1219.3348214285713,4420.4,41.42857142857143,1219.3348214285713,4520.4,41.42857142857143,1219.3348214285713,4622.2,41.42857142857143,1219.3348214285713,4725.7,41.42857142857143,1219.3348214285713,4827,41.42857142857143,1219.3348214285713,4931.8]","[1326.1,1326.1,1000,0,326.1,""smooth"",""down"",""down"",""good_move"",4544,3217.7,2924.8,1326.3,292.9,""smooth"",""down"",""down"",""good_move"",6832.1,2288,1917.7,4544.1,370.3,""smooth"",""down"",""down"",""good_move"",9740,2907.7,2632.6,6832.3,275.1,""while_blue"",""left"",""up"",""bad_move"",11999.1,2259,1907.9,9740.2,351.1,""smooth"",""left"",""left"",""good_move"",15067.2,3067.9,2670,11999.3,397.9,""smooth"",""left"",""left"",""good_move"",18825.1,3757.8,3245.2,15067.3,512.6,""smooth"",""down"",""down"",""good_move"",21823,2997.8,2507.6,18825.2,490.2,""smooth"",""left"",""left"",""good_move""]","",""
"2280","","<div style=""width:500px;"">
  <p>What determined the result of this run?</p>
  </div>","100","html-slider-response","37","725787","0.0-10.0-1.0","43","1","2025-07-02 10:18:43","80fe4187154257d5fb01684ea91b68b9","77.89.84.51","Mozilla/5.0 (Windows NT 10.0; Win64; x64) AppleWebKit/537.36 (KHTML, like Gecko) Chrome/137.0.0.0 Safari/537.36","WebKit","Chrome","137.0.0.0","Windows","10.0","https://app.prolific.com/","pl-PL,pl;q=0.9,en-US;q=0.8,en;q=0.7","5e8a5a892f6f027054a83d88","683db6dfa200031b80f2a654","68650765ee1ca017054505d8","5e8a5a892f6f027054a83d88","2025-07-02T10:30:51.974Z","","","","","","AttribQ","","","","","","","","","","","","","","","","","","","","","","","","","","","","","","","","","","","","","","50"
"2105","","<div style=""width:500px;"">
  <p>How much control did you have over the ball?</p>
  </div>","100","html-slider-response","38","727892","0.0-10.0-2.0","43","1","2025-07-02 10:18:43","80fe4187154257d5fb01684ea91b68b9","77.89.84.51","Mozilla/5.0 (Windows NT 10.0; Win64; x64) AppleWebKit/537.36 (KHTML, like Gecko) Chrome/137.0.0.0 Safari/537.36","WebKit","Chrome","137.0.0.0","Windows","10.0","https://app.prolific.com/","pl-PL,pl;q=0.9,en-US;q=0.8,en;q=0.7","5e8a5a892f6f027054a83d88","683db6dfa200031b80f2a654","68650765ee1ca017054505d8","5e8a5a892f6f027054a83d88","2025-07-02T10:30:54.079Z","","","","","","ControlQ","","","","","","","","","","","","","","","","","","","","","","","","","","","","","","","","","","","","","","50"
"4727","","<div style=""width:500px;"">
  <p>How would you describe your current emotional state?</p>
  </div>","16","html-slider-response","39","732619","0.0-10.0-3.0","43","1","2025-07-02 10:18:43","80fe4187154257d5fb01684ea91b68b9","77.89.84.51","Mozilla/5.0 (Windows NT 10.0; Win64; x64) AppleWebKit/537.36 (KHTML, like Gecko) Chrome/137.0.0.0 Safari/537.36","WebKit","Chrome","137.0.0.0","Windows","10.0","https://app.prolific.com/","pl-PL,pl;q=0.9,en-US;q=0.8,en;q=0.7","5e8a5a892f6f027054a83d88","683db6dfa200031b80f2a654","68650765ee1ca017054505d8","5e8a5a892f6f027054a83d88","2025-07-02T10:30:58.807Z","","","","","","StressQ","","","","","","","","","","","","","","","","","","","","","","","","","","","","","","","","","","","","","","50"
"3248","","<div style=""width:500px;"">
  <p>What best describes how you currently feel?</p>
  </div>","50","html-slider-response","40","735868","0.0-10.0-4.0","43","1","2025-07-02 10:18:43","80fe4187154257d5fb01684ea91b68b9","77.89.84.51","Mozilla/5.0 (Windows NT 10.0; Win64; x64) AppleWebKit/537.36 (KHTML, like Gecko) Chrome/137.0.0.0 Safari/537.36","WebKit","Chrome","137.0.0.0","Windows","10.0","https://app.prolific.com/","pl-PL,pl;q=0.9,en-US;q=0.8,en;q=0.7","5e8a5a892f6f027054a83d88","683db6dfa200031b80f2a654","68650765ee1ca017054505d8","5e8a5a892f6f027054a83d88","2025-07-02T10:31:02.055Z","","","","","","MotivationQ","","","","","","","","","","","","","","","","","","","","","","","","","","","","","","","","","","","","","","50"
"","","","","ctl-task-cpt","41","774063","0.0-10.0-0.1","43","1","2025-07-02 10:18:43","80fe4187154257d5fb01684ea91b68b9","77.89.84.51","Mozilla/5.0 (Windows NT 10.0; Win64; x64) AppleWebKit/537.36 (KHTML, like Gecko) Chrome/137.0.0.0 Safari/537.36","WebKit","Chrome","137.0.0.0","Windows","10.0","https://app.prolific.com/","pl-PL,pl;q=0.9,en-US;q=0.8,en;q=0.7","5e8a5a892f6f027054a83d88","683db6dfa200031b80f2a654","68650765ee1ca017054505d8","5e8a5a892f6f027054a83d88","2025-07-02T10:31:40.250Z","","","","","","","","","","","","","","","","win-only","2","g1:SE,g2:NW","0.9","2","0","737020","859.7","5860.2","35176.3","1","4","8","6","2","-8","-11","0","3","0","1119.7","3000","-3015","[""left"",""up""]","{""num_key_presses"":12,""num_perfect"":7,""num_errors"":3,""num_randdir"":1,""num_randdir_good_moves"":0,""num_whilered"":1,""num_whileblue"":1,""num_blue"":1,""num_good_moves"":7}","[557.4285714285714,556.3348214285714,0.1,557.4285714285714,556.3348214285714,102.3,557.4285714285714,556.3348214285714,205.6,557.4285714285714,556.3348214285714,305.8,557.4285714285714,556.3348214285714,406,557.4285714285714,556.3348214285714,511.2,557.4285714285714,556.3348214285714,611.5,379.42857142857144,473.33482142857144,715.4,168.42857142857144,315.33482142857144,815.8,136.42857142857144,222.33482142857144,920.6,98.42857142857143,158.33482142857144,1021,88.42857142857143,132.33482142857144,1122,88.42857142857143,131.33482142857144,1226,74.42857142857143,291.33482142857144,1331.3,53.42857142857143,454.33482142857144,1436,49.42857142857143,464.33482142857144,1536,49.42857142857143,464.33482142857144,1640.5,49.42857142857143,464.33482142857144,1745.8,49.42857142857143,464.33482142857144,1846.9,49.42857142857143,464.33482142857144,1952.1,49.42857142857143,464.33482142857144,2055.5,49.42857142857143,464.33482142857144,2155.6,49.42857142857143,464.33482142857144,2255.6,49.42857142857143,464.33482142857144,2355.6,49.42857142857143,464.33482142857144,2456,49.42857142857143,464.33482142857144,2561.3,49.42857142857143,464.33482142857144,2661.3,49.42857142857143,464.33482142857144,2765.3,49.42857142857143,464.33482142857144,2865.7,49.42857142857143,464.33482142857144,2970.5,49.42857142857143,464.33482142857144,3071.4,49.42857142857143,464.33482142857144,3175.5,49.42857142857143,464.33482142857144,3276,49.42857142857143,464.33482142857144,3380.6,49.42857142857143,464.33482142857144,3485.4,49.42857142857143,464.33482142857144,3585.9,49.42857142857143,464.33482142857144,3690.7,49.42857142857143,464.33482142857144,3792.2,49.42857142857143,464.33482142857144,3895.8,49.42857142857143,464.33482142857144,4000.8,49.42857142857143,464.33482142857144,4101.4,49.42857142857143,464.33482142857144,4205.6,49.42857142857143,464.33482142857144,4311.4,49.42857142857143,464.33482142857144,4416.4,49.42857142857143,464.33482142857144,4522,49.42857142857143,464.33482142857144,4626.6,49.42857142857143,464.33482142857144,4732.1,49.42857142857143,464.33482142857144,4835.7,49.42857142857143,464.33482142857144,4935.7]","[1330.6,1330.6,1000,0,330.6,""smooth"",""up"",""up"",""good_move"",3279.4,1948.6,1640.6,1330.8,308,""while_blue"",""up"",""right"",""bad_move"",6427.5,3147.8,2753.6,3279.7,394.2,""smooth"",""up"",""up"",""good_move"",9215.5,2788,2419.3,6427.5,368.7,""smooth"",""left"",""left"",""good_move"",12054.6,2838.9,2429.5,9215.7,409.4,""oops"",""left"",""down"",""bad_move"",15262.5,3207.7,2873.6,12054.8,334.1,""smooth"",""left"",""left"",""good_move"",17910.6,2648,2053.3,15262.6,594.7,""smooth"",""up"",""up"",""good_move"",20039.5,2128.8,1857.4,17910.7,271.4,""smooth"",""left"",""left"",""good_move"",22527.6,2488,2210.9,20039.6,277.1,""smooth"",""up"",""up"",""good_move"",24676.6,2149,2888.9,22527.6,-739.9,""error"",""-"",""-"",""no_move"",25166.5,489.8,2888.9,22527.6,-250,""while_red"",""-"",""-"",""no_move"",25905.8,1229.1,2760.1,25680.4,-2534.7,""error"",""-"",""-"",""no_move""]","",""
"6041","","<div style=""width:500px;"">
  <p>What determined the result of this run?</p>
  </div>","58","html-slider-response","42","780104","0.0-10.0-1.1","43","1","2025-07-02 10:18:43","80fe4187154257d5fb01684ea91b68b9","77.89.84.51","Mozilla/5.0 (Windows NT 10.0; Win64; x64) AppleWebKit/537.36 (KHTML, like Gecko) Chrome/137.0.0.0 Safari/537.36","WebKit","Chrome","137.0.0.0","Windows","10.0","https://app.prolific.com/","pl-PL,pl;q=0.9,en-US;q=0.8,en;q=0.7","5e8a5a892f6f027054a83d88","683db6dfa200031b80f2a654","68650765ee1ca017054505d8","5e8a5a892f6f027054a83d88","2025-07-02T10:31:46.291Z","","","","","","AttribQ","","","","","","","","","","","","","","","","","","","","","","","","","","","","","","","","","","","","","","50"
"2721","","<div style=""width:500px;"">
  <p>How much control did you have over the ball?</p>
  </div>","60","html-slider-response","43","782826","0.0-10.0-2.1","43","1","2025-07-02 10:18:43","80fe4187154257d5fb01684ea91b68b9","77.89.84.51","Mozilla/5.0 (Windows NT 10.0; Win64; x64) AppleWebKit/537.36 (KHTML, like Gecko) Chrome/137.0.0.0 Safari/537.36","WebKit","Chrome","137.0.0.0","Windows","10.0","https://app.prolific.com/","pl-PL,pl;q=0.9,en-US;q=0.8,en;q=0.7","5e8a5a892f6f027054a83d88","683db6dfa200031b80f2a654","68650765ee1ca017054505d8","5e8a5a892f6f027054a83d88","2025-07-02T10:31:49.013Z","","","","","","ControlQ","","","","","","","","","","","","","","","","","","","","","","","","","","","","","","","","","","","","","","50"
"3137","","<div style=""width:500px;"">
  <p>How would you describe your current emotional state?</p>
  </div>","50","html-slider-response","44","785964","0.0-10.0-3.1","43","1","2025-07-02 10:18:43","80fe4187154257d5fb01684ea91b68b9","77.89.84.51","Mozilla/5.0 (Windows NT 10.0; Win64; x64) AppleWebKit/537.36 (KHTML, like Gecko) Chrome/137.0.0.0 Safari/537.36","WebKit","Chrome","137.0.0.0","Windows","10.0","https://app.prolific.com/","pl-PL,pl;q=0.9,en-US;q=0.8,en;q=0.7","5e8a5a892f6f027054a83d88","683db6dfa200031b80f2a654","68650765ee1ca017054505d8","5e8a5a892f6f027054a83d88","2025-07-02T10:31:52.151Z","","","","","","StressQ","","","","","","","","","","","","","","","","","","","","","","","","","","","","","","","","","","","","","","50"
"3923","","<div style=""width:500px;"">
  <p>What best describes how you currently feel?</p>
  </div>","51","html-slider-response","45","789888","0.0-10.0-4.1","43","1","2025-07-02 10:18:43","80fe4187154257d5fb01684ea91b68b9","77.89.84.51","Mozilla/5.0 (Windows NT 10.0; Win64; x64) AppleWebKit/537.36 (KHTML, like Gecko) Chrome/137.0.0.0 Safari/537.36","WebKit","Chrome","137.0.0.0","Windows","10.0","https://app.prolific.com/","pl-PL,pl;q=0.9,en-US;q=0.8,en;q=0.7","5e8a5a892f6f027054a83d88","683db6dfa200031b80f2a654","68650765ee1ca017054505d8","5e8a5a892f6f027054a83d88","2025-07-02T10:31:56.075Z","","","","","","MotivationQ","","","","","","","","","","","","","","","","","","","","","","","","","","","","","","","","","","","","","","50"
"","","","","ctl-task-cpt","46","826673","0.0-10.0-0.2","43","1","2025-07-02 10:18:43","80fe4187154257d5fb01684ea91b68b9","77.89.84.51","Mozilla/5.0 (Windows NT 10.0; Win64; x64) AppleWebKit/537.36 (KHTML, like Gecko) Chrome/137.0.0.0 Safari/537.36","WebKit","Chrome","137.0.0.0","Windows","10.0","https://app.prolific.com/","pl-PL,pl;q=0.9,en-US;q=0.8,en;q=0.7","5e8a5a892f6f027054a83d88","683db6dfa200031b80f2a654","68650765ee1ca017054505d8","5e8a5a892f6f027054a83d88","2025-07-02T10:32:32.860Z","","","","","","","","","","","","","","","","win-only","2","g1:SE,g2:NW","0.8","3","0","791039.4","971.7","5976","33766.7","1","4","4","6","2","4","4","4","0","0.030303030303030304","1020.1","3000","305","[""left"",""up""]","{""num_key_presses"":8,""num_perfect"":6,""num_errors"":0,""num_randdir"":2,""num_randdir_good_moves"":1,""num_whilered"":0,""num_whileblue"":0,""num_blue"":2,""num_good_moves"":7}","[556.4285714285714,559.3348214285714,0.1,556.4285714285714,559.3348214285714,104.4,556.4285714285714,559.3348214285714,209.8,556.4285714285714,559.3348214285714,314.2,556.4285714285714,559.3348214285714,414.9,556.4285714285714,559.3348214285714,519,526.4285714285714,544.3348214285714,624.3,271.42857142857144,346.33482142857144,729.1,120.42857142857143,174.33482142857144,834.1,95.42857142857143,145.33482142857144,934.1,92.42857142857143,139.33482142857144,1034.1,92.42857142857143,139.33482142857144,1134.6,91.42857142857143,158.33482142857144,1234.7,81.42857142857143,209.33482142857144,1338.7,83.42857142857143,208.33482142857144,1439.1,83.42857142857143,208.33482142857144,1539.1,83.42857142857143,208.33482142857144,1639.6,83.42857142857143,208.33482142857144,1739.7,83.42857142857143,208.33482142857144,1843.9,83.42857142857143,208.33482142857144,1949.2,83.42857142857143,208.33482142857144,2049.2,83.42857142857143,208.33482142857144,2154.5,83.42857142857143,208.33482142857144,2259,83.42857142857143,208.33482142857144,2359,83.42857142857143,208.33482142857144,2464.3,83.42857142857143,208.33482142857144,2568.9,83.42857142857143,208.33482142857144,2668.9,83.42857142857143,208.33482142857144,2769,83.42857142857143,208.33482142857144,2869.2,83.42857142857143,208.33482142857144,2973.8,83.42857142857143,208.33482142857144,3079.8,83.42857142857143,208.33482142857144,3184.3,83.42857142857143,208.33482142857144,3289.5,83.42857142857143,208.33482142857144,3389.8,83.42857142857143,208.33482142857144,3494.9,83.42857142857143,208.33482142857144,3598.7,83.42857142857143,208.33482142857144,3699.2,83.42857142857143,208.33482142857144,3804.8,83.42857142857143,208.33482142857144,3909.1,83.42857142857143,208.33482142857144,4009.2,83.42857142857143,208.33482142857144,4115,83.42857142857143,208.33482142857144,4219.7,83.42857142857143,208.33482142857144,4319.8,83.42857142857143,208.33482142857144,4424.5,83.42857142857143,208.33482142857144,4528.5,83.42857142857143,208.33482142857144,4633.5,83.42857142857143,208.33482142857144,4733.8,83.42857142857143,208.33482142857144,4834.3,83.42857142857143,208.33482142857144,4939.1]","[1331.3,1331.3,1000,0,331.3,""smooth"",""up"",""up"",""good_move"",7438.2,6106.7,1925,5090,423.2,""smooth"",""up"",""up"",""good_move"",10316.4,2878.1,2576.2,7438.3,301.9,""smooth"",""left"",""left"",""good_move"",13254.3,2937.9,2613.8,10316.5,324.1,""oops"",""left"",""left"",""good_move"",19627.2,6372.7,2551.6,16789.7,285.9,""smooth"",""up"",""up"",""good_move"",22288.5,2661.1,2287.2,19627.4,373.9,""oops"",""left"",""down"",""bad_move"",25399.6,3110.9,2759.1,22288.7,351.8,""smooth"",""up"",""up"",""good_move"",27700.2,2300.5,1957.9,25399.7,342.6,""smooth"",""left"",""left"",""good_move""]","",""
"3894","","<div style=""width:500px;"">
  <p>What determined the result of this run?</p>
  </div>","79","html-slider-response","47","830568","0.0-10.0-1.2","43","1","2025-07-02 10:18:43","80fe4187154257d5fb01684ea91b68b9","77.89.84.51","Mozilla/5.0 (Windows NT 10.0; Win64; x64) AppleWebKit/537.36 (KHTML, like Gecko) Chrome/137.0.0.0 Safari/537.36","WebKit","Chrome","137.0.0.0","Windows","10.0","https://app.prolific.com/","pl-PL,pl;q=0.9,en-US;q=0.8,en;q=0.7","5e8a5a892f6f027054a83d88","683db6dfa200031b80f2a654","68650765ee1ca017054505d8","5e8a5a892f6f027054a83d88","2025-07-02T10:32:36.755Z","","","","","","AttribQ","","","","","","","","","","","","","","","","","","","","","","","","","","","","","","","","","","","","","","50"
"1520","","<div style=""width:500px;"">
  <p>How much control did you have over the ball?</p>
  </div>","85","html-slider-response","48","832088","0.0-10.0-2.2","43","1","2025-07-02 10:18:43","80fe4187154257d5fb01684ea91b68b9","77.89.84.51","Mozilla/5.0 (Windows NT 10.0; Win64; x64) AppleWebKit/537.36 (KHTML, like Gecko) Chrome/137.0.0.0 Safari/537.36","WebKit","Chrome","137.0.0.0","Windows","10.0","https://app.prolific.com/","pl-PL,pl;q=0.9,en-US;q=0.8,en;q=0.7","5e8a5a892f6f027054a83d88","683db6dfa200031b80f2a654","68650765ee1ca017054505d8","5e8a5a892f6f027054a83d88","2025-07-02T10:32:38.275Z","","","","","","ControlQ","","","","","","","","","","","","","","","","","","","","","","","","","","","","","","","","","","","","","","50"
"2887","","<div style=""width:500px;"">
  <p>How would you describe your current emotional state?</p>
  </div>","34","html-slider-response","49","834975","0.0-10.0-3.2","43","1","2025-07-02 10:18:43","80fe4187154257d5fb01684ea91b68b9","77.89.84.51","Mozilla/5.0 (Windows NT 10.0; Win64; x64) AppleWebKit/537.36 (KHTML, like Gecko) Chrome/137.0.0.0 Safari/537.36","WebKit","Chrome","137.0.0.0","Windows","10.0","https://app.prolific.com/","pl-PL,pl;q=0.9,en-US;q=0.8,en;q=0.7","5e8a5a892f6f027054a83d88","683db6dfa200031b80f2a654","68650765ee1ca017054505d8","5e8a5a892f6f027054a83d88","2025-07-02T10:32:41.163Z","","","","","","StressQ","","","","","","","","","","","","","","","","","","","","","","","","","","","","","","","","","","","","","","50"
"2006","","<div style=""width:500px;"">
  <p>What best describes how you currently feel?</p>
  </div>","47","html-slider-response","50","836982","0.0-10.0-4.2","43","1","2025-07-02 10:18:43","80fe4187154257d5fb01684ea91b68b9","77.89.84.51","Mozilla/5.0 (Windows NT 10.0; Win64; x64) AppleWebKit/537.36 (KHTML, like Gecko) Chrome/137.0.0.0 Safari/537.36","WebKit","Chrome","137.0.0.0","Windows","10.0","https://app.prolific.com/","pl-PL,pl;q=0.9,en-US;q=0.8,en;q=0.7","5e8a5a892f6f027054a83d88","683db6dfa200031b80f2a654","68650765ee1ca017054505d8","5e8a5a892f6f027054a83d88","2025-07-02T10:32:43.169Z","","","","","","MotivationQ","","","","","","","","","","","","","","","","","","","","","","","","","","","","","","","","","","","","","","50"
"","","","","ctl-task-cpt","51","866681","0.0-10.0-0.3","43","1","2025-07-02 10:18:43","80fe4187154257d5fb01684ea91b68b9","77.89.84.51","Mozilla/5.0 (Windows NT 10.0; Win64; x64) AppleWebKit/537.36 (KHTML, like Gecko) Chrome/137.0.0.0 Safari/537.36","WebKit","Chrome","137.0.0.0","Windows","10.0","https://app.prolific.com/","pl-PL,pl;q=0.9,en-US;q=0.8,en;q=0.7","5e8a5a892f6f027054a83d88","683db6dfa200031b80f2a654","68650765ee1ca017054505d8","5e8a5a892f6f027054a83d88","2025-07-02T10:33:12.869Z","","","","","","","","","","","","","","","","win-only","3","g1:SW,g2:NE","0.7","4","0","838134","2771.5","7775.7","26681.1","1","4","8","6","2","8","8","12","4","0.09090909090909091","721.3","3000","1000","[""up"",""right""]","{""num_key_presses"":6,""num_perfect"":5,""num_errors"":0,""num_randdir"":1,""num_randdir_good_moves"":1,""num_whilered"":0,""num_whileblue"":0,""num_blue"":1,""num_good_moves"":6}","[558.4285714285714,547.3348214285714,0.1,558.4285714285714,547.3348214285714,104.4,558.4285714285714,547.3348214285714,209.7,558.4285714285714,547.3348214285714,309.9,627.4285714285714,462.33482142857144,414.8,888.4285714285714,209.33482142857144,520.3,972.4285714285714,78.33482142857143,624.3,985.4285714285714,57.33482142857143,729.1,985.4285714285714,57.33482142857143,829.7,970.4285714285714,128.33482142857144,929.9,911.4285714285714,514.3348214285714,1034.2,900.4285714285714,666.3348214285714,1134.9,881.4285714285714,746.3348214285714,1239.5,880.4285714285714,751.3348214285714,1344.6,960.4285714285714,771.3348214285714,1444.8,960.4285714285714,771.3348214285714,1544.8,960.4285714285714,770.3348214285714,1644.8,960.4285714285714,770.3348214285714,1749.2,960.4285714285714,770.3348214285714,1849.8,960.4285714285714,770.3348214285714,1950.4,960.4285714285714,770.3348214285714,2054.6,960.4285714285714,770.3348214285714,2154.7,960.4285714285714,770.3348214285714,2259.7,960.4285714285714,770.3348214285714,2360,960.4285714285714,770.3348214285714,2464.7,960.4285714285714,770.3348214285714,2569.4,960.4285714285714,770.3348214285714,2670.8,960.4285714285714,770.3348214285714,2774.1,960.4285714285714,770.3348214285714,2874.8,960.4285714285714,770.3348214285714,2980,960.4285714285714,770.3348214285714,3084.3,960.4285714285714,770.3348214285714,3188.9,960.4285714285714,770.3348214285714,3289.7,960.4285714285714,770.3348214285714,3394.1,960.4285714285714,770.3348214285714,3494.9,960.4285714285714,770.3348214285714,3599.9,960.4285714285714,770.3348214285714,3704,960.4285714285714,770.3348214285714,3804.6,960.4285714285714,770.3348214285714,3909.9,960.4285714285714,770.3348214285714,4010.3,960.4285714285714,770.3348214285714,4114.8,960.4285714285714,770.3348214285714,4219.6,960.4285714285714,770.3348214285714,4319.6,960.4285714285714,770.3348214285714,4424,960.4285714285714,770.3348214285714,4524.3,960.4285714285714,770.3348214285714,4624.5,960.4285714285714,770.3348214285714,4728.9,960.4285714285714,770.3348214285714,4830.1,960.4285714285714,770.3348214285714,4934]","[1364.2,1364.2,1000,0,364.2,""smooth"",""up"",""up"",""good_move"",7936.1,6571.6,2286,5330.7,319.4,""smooth"",""up"",""up"",""good_move"",10708,2771.8,2493.1,7936.2,278.7,""smooth"",""up"",""up"",""good_move"",13599.2,2891.1,2552.2,10708.1,338.9,""smooth"",""right"",""right"",""good_move"",16349.2,2749.7,2393.5,13599.5,356.2,""oops"",""right"",""right"",""good_move"",18820.2,2470.9,2093,16349.3,377.9,""smooth"",""right"",""right"",""good_move""]","",""
"1568","","<div style=""width:500px;"">
  <p>What determined the result of this run?</p>
  </div>","100","html-slider-response","52","868250","0.0-10.0-1.3","43","1","2025-07-02 10:18:43","80fe4187154257d5fb01684ea91b68b9","77.89.84.51","Mozilla/5.0 (Windows NT 10.0; Win64; x64) AppleWebKit/537.36 (KHTML, like Gecko) Chrome/137.0.0.0 Safari/537.36","WebKit","Chrome","137.0.0.0","Windows","10.0","https://app.prolific.com/","pl-PL,pl;q=0.9,en-US;q=0.8,en;q=0.7","5e8a5a892f6f027054a83d88","683db6dfa200031b80f2a654","68650765ee1ca017054505d8","5e8a5a892f6f027054a83d88","2025-07-02T10:33:14.437Z","","","","","","AttribQ","","","","","","","","","","","","","","","","","","","","","","","","","","","","","","","","","","","","","","50"
"2341","","<div style=""width:500px;"">
  <p>How much control did you have over the ball?</p>
  </div>","100","html-slider-response","53","870592","0.0-10.0-2.3","43","1","2025-07-02 10:18:43","80fe4187154257d5fb01684ea91b68b9","77.89.84.51","Mozilla/5.0 (Windows NT 10.0; Win64; x64) AppleWebKit/537.36 (KHTML, like Gecko) Chrome/137.0.0.0 Safari/537.36","WebKit","Chrome","137.0.0.0","Windows","10.0","https://app.prolific.com/","pl-PL,pl;q=0.9,en-US;q=0.8,en;q=0.7","5e8a5a892f6f027054a83d88","683db6dfa200031b80f2a654","68650765ee1ca017054505d8","5e8a5a892f6f027054a83d88","2025-07-02T10:33:16.779Z","","","","","","ControlQ","","","","","","","","","","","","","","","","","","","","","","","","","","","","","","","","","","","","","","50"
"2289","","<div style=""width:500px;"">
  <p>How would you describe your current emotional state?</p>
  </div>","28","html-slider-response","54","872882","0.0-10.0-3.3","43","1","2025-07-02 10:18:43","80fe4187154257d5fb01684ea91b68b9","77.89.84.51","Mozilla/5.0 (Windows NT 10.0; Win64; x64) AppleWebKit/537.36 (KHTML, like Gecko) Chrome/137.0.0.0 Safari/537.36","WebKit","Chrome","137.0.0.0","Windows","10.0","https://app.prolific.com/","pl-PL,pl;q=0.9,en-US;q=0.8,en;q=0.7","5e8a5a892f6f027054a83d88","683db6dfa200031b80f2a654","68650765ee1ca017054505d8","5e8a5a892f6f027054a83d88","2025-07-02T10:33:19.069Z","","","","","","StressQ","","","","","","","","","","","","","","","","","","","","","","","","","","","","","","","","","","","","","","50"
"1078","","<div style=""width:500px;"">
  <p>What best describes how you currently feel?</p>
  </div>","50","html-slider-response","55","873960","0.0-10.0-4.3","43","1","2025-07-02 10:18:43","80fe4187154257d5fb01684ea91b68b9","77.89.84.51","Mozilla/5.0 (Windows NT 10.0; Win64; x64) AppleWebKit/537.36 (KHTML, like Gecko) Chrome/137.0.0.0 Safari/537.36","WebKit","Chrome","137.0.0.0","Windows","10.0","https://app.prolific.com/","pl-PL,pl;q=0.9,en-US;q=0.8,en;q=0.7","5e8a5a892f6f027054a83d88","683db6dfa200031b80f2a654","68650765ee1ca017054505d8","5e8a5a892f6f027054a83d88","2025-07-02T10:33:20.147Z","","","","","","MotivationQ","","","","","","","","","","","","","","","","","","","","","","","","","","","","","","","","","","","","","","50"
"","","","","ctl-task-cpt","56","904570","0.0-10.0-0.4","43","1","2025-07-02 10:18:43","80fe4187154257d5fb01684ea91b68b9","77.89.84.51","Mozilla/5.0 (Windows NT 10.0; Win64; x64) AppleWebKit/537.36 (KHTML, like Gecko) Chrome/137.0.0.0 Safari/537.36","WebKit","Chrome","137.0.0.0","Windows","10.0","https://app.prolific.com/","pl-PL,pl;q=0.9,en-US;q=0.8,en;q=0.7","5e8a5a892f6f027054a83d88","683db6dfa200031b80f2a654","68650765ee1ca017054505d8","5e8a5a892f6f027054a83d88","2025-07-02T10:33:50.757Z","","","","","","","","","","","","","","","","win-only","0","g1:NW,g2:SE","0.6","5","0","875112","535.7","5540.4","27591.1","1","4","8","6","2","8","7","19","12","0.14393939393939395","734.5","3000","600","[""down"",""right""]","{""num_key_presses"":8,""num_perfect"":5,""num_errors"":1,""num_randdir"":2,""num_randdir_good_moves"":1,""num_whilered"":0,""num_whileblue"":1,""num_blue"":1,""num_good_moves"":7}","[564.4285714285714,562.3348214285714,0.1,564.4285714285714,562.3348214285714,100.1,564.4285714285714,562.3348214285714,204.4,564.4285714285714,562.3348214285714,305.2,564.4285714285714,562.3348214285714,409.9,673.4285714285714,746.3348214285714,515.8,936.4285714285714,1016.3348214285714,621.1,946.4285714285714,1013.3348214285714,725.2,946.4285714285714,1013.3348214285714,829.4,862.4285714285714,1261.3348214285713,930.7,968.4285714285714,1278.3348214285713,1035.5,1009.4285714285714,1226.3348214285713,1140,1013.4285714285714,1224.3348214285713,1240,1013.4285714285714,1224.3348214285713,1340.9,1013.4285714285714,1224.3348214285713,1445,1013.4285714285714,1224.3348214285713,1550.6,1013.4285714285714,1224.3348214285713,1656.3,1013.4285714285714,1224.3348214285713,1760,1013.4285714285714,1224.3348214285713,1860.2,1013.4285714285714,1224.3348214285713,1965.7,1013.4285714285714,1224.3348214285713,2070.3,1013.4285714285714,1224.3348214285713,2174.9,1013.4285714285714,1224.3348214285713,2274.9,1013.4285714285714,1224.3348214285713,2374.9,1013.4285714285714,1224.3348214285713,2481.2,1013.4285714285714,1224.3348214285713,2585.1,1013.4285714285714,1224.3348214285713,2690.2,1013.4285714285714,1224.3348214285713,2796,1013.4285714285714,1224.3348214285713,2900.9,1013.4285714285714,1224.3348214285713,3005.4,1013.4285714285714,1224.3348214285713,3109.4,1013.4285714285714,1224.3348214285713,3210.7,1013.4285714285714,1224.3348214285713,3315.6,1013.4285714285714,1224.3348214285713,3420.9,1013.4285714285714,1224.3348214285713,3521.2,1013.4285714285714,1224.3348214285713,3624.8,1013.4285714285714,1224.3348214285713,3729.8,1013.4285714285714,1224.3348214285713,3829.8,1013.4285714285714,1224.3348214285713,3929.9,1013.4285714285714,1224.3348214285713,4030,1013.4285714285714,1224.3348214285713,4130.4,1013.4285714285714,1224.3348214285713,4235.2,1013.4285714285714,1224.3348214285713,4335.7,1013.4285714285714,1224.3348214285713,4439.8,1013.4285714285714,1224.3348214285713,4540.4,1013.4285714285714,1224.3348214285713,4645.2,1013.4285714285714,1224.3348214285713,4746.1,1013.4285714285714,1224.3348214285713,4849.6,1013.4285714285714,1224.3348214285713,4950.7]","[1304.5,1304.5,1000.8,0,303.7,""while_blue"",""down"",""right"",""good_move"",4525.4,3220.7,2856.5,1304.7,364.2,""oops"",""down"",""up"",""bad_move"",7807.3,3281.8,2925.6,4525.5,356.2,""smooth"",""down"",""down"",""good_move"",11248.2,3440.7,3103.9,7807.5,336.8,""smooth"",""down"",""down"",""good_move"",14379.6,3131.3,2816.7,11248.3,314.6,""oops"",""down"",""down"",""good_move"",17010.3,2630.6,2289.6,14379.7,341,""smooth"",""down"",""down"",""good_move"",19021.4,2011.1,1628,17010.3,383.1,""smooth"",""right"",""right"",""good_move"",21963.4,2941.8,2598.4,19021.6,343.4,""smooth"",""right"",""right"",""good_move""]","",""
"2100","","<div style=""width:500px;"">
  <p>What determined the result of this run?</p>
  </div>","74","html-slider-response","57","906671","0.0-10.0-1.4","43","1","2025-07-02 10:18:43","80fe4187154257d5fb01684ea91b68b9","77.89.84.51","Mozilla/5.0 (Windows NT 10.0; Win64; x64) AppleWebKit/537.36 (KHTML, like Gecko) Chrome/137.0.0.0 Safari/537.36","WebKit","Chrome","137.0.0.0","Windows","10.0","https://app.prolific.com/","pl-PL,pl;q=0.9,en-US;q=0.8,en;q=0.7","5e8a5a892f6f027054a83d88","683db6dfa200031b80f2a654","68650765ee1ca017054505d8","5e8a5a892f6f027054a83d88","2025-07-02T10:33:52.858Z","","","","","","AttribQ","","","","","","","","","","","","","","","","","","","","","","","","","","","","","","","","","","","","","","50"
"1532","","<div style=""width:500px;"">
  <p>How much control did you have over the ball?</p>
  </div>","77","html-slider-response","58","908204","0.0-10.0-2.4","43","1","2025-07-02 10:18:43","80fe4187154257d5fb01684ea91b68b9","77.89.84.51","Mozilla/5.0 (Windows NT 10.0; Win64; x64) AppleWebKit/537.36 (KHTML, like Gecko) Chrome/137.0.0.0 Safari/537.36","WebKit","Chrome","137.0.0.0","Windows","10.0","https://app.prolific.com/","pl-PL,pl;q=0.9,en-US;q=0.8,en;q=0.7","5e8a5a892f6f027054a83d88","683db6dfa200031b80f2a654","68650765ee1ca017054505d8","5e8a5a892f6f027054a83d88","2025-07-02T10:33:54.391Z","","","","","","ControlQ","","","","","","","","","","","","","","","","","","","","","","","","","","","","","","","","","","","","","","50"
"1582","","<div style=""width:500px;"">
  <p>How would you describe your current emotional state?</p>
  </div>","30","html-slider-response","59","909787","0.0-10.0-3.4","43","1","2025-07-02 10:18:43","80fe4187154257d5fb01684ea91b68b9","77.89.84.51","Mozilla/5.0 (Windows NT 10.0; Win64; x64) AppleWebKit/537.36 (KHTML, like Gecko) Chrome/137.0.0.0 Safari/537.36","WebKit","Chrome","137.0.0.0","Windows","10.0","https://app.prolific.com/","pl-PL,pl;q=0.9,en-US;q=0.8,en;q=0.7","5e8a5a892f6f027054a83d88","683db6dfa200031b80f2a654","68650765ee1ca017054505d8","5e8a5a892f6f027054a83d88","2025-07-02T10:33:55.974Z","","","","","","StressQ","","","","","","","","","","","","","","","","","","","","","","","","","","","","","","","","","","","","","","50"
"2518","","<div style=""width:500px;"">
  <p>What best describes how you currently feel?</p>
  </div>","50","html-slider-response","60","912305","0.0-10.0-4.4","43","1","2025-07-02 10:18:43","80fe4187154257d5fb01684ea91b68b9","77.89.84.51","Mozilla/5.0 (Windows NT 10.0; Win64; x64) AppleWebKit/537.36 (KHTML, like Gecko) Chrome/137.0.0.0 Safari/537.36","WebKit","Chrome","137.0.0.0","Windows","10.0","https://app.prolific.com/","pl-PL,pl;q=0.9,en-US;q=0.8,en;q=0.7","5e8a5a892f6f027054a83d88","683db6dfa200031b80f2a654","68650765ee1ca017054505d8","5e8a5a892f6f027054a83d88","2025-07-02T10:33:58.492Z","","","","","","MotivationQ","","","","","","","","","","","","","","","","","","","","","","","","","","","","","","","","","","","","","","50"
"","","","","ctl-task-cpt","61","935267","0.0-10.0-0.5","43","1","2025-07-02 10:18:43","80fe4187154257d5fb01684ea91b68b9","77.89.84.51","Mozilla/5.0 (Windows NT 10.0; Win64; x64) AppleWebKit/537.36 (KHTML, like Gecko) Chrome/137.0.0.0 Safari/537.36","WebKit","Chrome","137.0.0.0","Windows","10.0","https://app.prolific.com/","pl-PL,pl;q=0.9,en-US;q=0.8,en;q=0.7","5e8a5a892f6f027054a83d88","683db6dfa200031b80f2a654","68650765ee1ca017054505d8","5e8a5a892f6f027054a83d88","2025-07-02T10:34:21.454Z","","","","","","","","","","","","","","","","win-only","2","g1:SE,g2:NW","0.5","6","0","913456.3","633","5635.8","19945.4","1","4","4","6","2","4","3","22","19","0.16666666666666666","908.9","3000","1280","[""left"",""up""]","{""num_key_presses"":6,""num_perfect"":4,""num_errors"":1,""num_randdir"":1,""num_randdir_good_moves"":1,""num_whilered"":0,""num_whileblue"":1,""num_blue"":1,""num_good_moves"":6}","[564.4285714285714,557.3348214285714,0.1,564.4285714285714,557.3348214285714,102.4,564.4285714285714,557.3348214285714,202.8,564.4285714285714,557.3348214285714,307.3,564.4285714285714,557.3348214285714,407.5,497.42857142857144,473.33482142857144,507.5,248.42857142857144,281.33482142857144,607.6,164.42857142857144,216.33482142857144,712.3,106.42857142857143,130.33482142857144,812.6,97.42857142857143,116.33482142857143,914.5,97.42857142857143,116.33482142857143,1017.1,91.42857142857143,184.33482142857144,1117.7,62.42857142857143,459.33482142857144,1217.7,-58.57142857142857,668.3348214285714,1322.4,-195.57142857142856,790.3348214285714,1422.5,-240.57142857142856,834.3348214285714,1528.1,-253.57142857142856,829.3348214285714,1632.6,-253.57142857142856,829.3348214285714,1737.7,-253.57142857142856,829.3348214285714,1843.8,-253.57142857142856,829.3348214285714,1947.8,-253.57142857142856,829.3348214285714,2052.6,-253.57142857142856,829.3348214285714,2158.6,-253.57142857142856,829.3348214285714,2262.2,-253.57142857142856,829.3348214285714,2362.6,-253.57142857142856,829.3348214285714,2463,-253.57142857142856,829.3348214285714,2567.7,-253.57142857142856,829.3348214285714,2668.8,-253.57142857142856,829.3348214285714,2773.9,-253.57142857142856,829.3348214285714,2877.5,-253.57142857142856,829.3348214285714,2978,-253.57142857142856,829.3348214285714,3083.2,-253.57142857142856,829.3348214285714,3183.5,-253.57142857142856,829.3348214285714,3288.9,-253.57142857142856,829.3348214285714,3392.9,-253.57142857142856,829.3348214285714,3493.1,-253.57142857142856,829.3348214285714,3597.4,-253.57142857142856,829.3348214285714,3702.7,-253.57142857142856,829.3348214285714,3807.4,-253.57142857142856,829.3348214285714,3912.9,-253.57142857142856,829.3348214285714,4017.5,-253.57142857142856,829.3348214285714,4118.1,-253.57142857142856,829.3348214285714,4222.4,-253.57142857142856,829.3348214285714,4323.1,-253.57142857142856,829.3348214285714,4427.4,-253.57142857142856,829.3348214285714,4533.4,-253.57142857142856,829.3348214285714,4633.6,-253.57142857142856,829.3348214285714,4738.4,-253.57142857142856,829.3348214285714,4842.5,-253.57142857142856,829.3348214285714,4949]","[1320.8,1320.8,1000,0,320.8,""smooth"",""up"",""up"",""good_move"",4061.7,2740.7,2439.4,1321,301.3,""oops"",""up"",""left"",""good_move"",7383.6,3321.7,3003.4,4061.9,318.3,""smooth"",""up"",""up"",""good_move"",9844.6,2460.8,2146.9,7383.8,313.9,""smooth"",""up"",""up"",""good_move"",12315.8,2471.2,2170.2,9844.6,301,""while_blue"",""left"",""left"",""good_move"",14224.5,1908.5,1411.4,12316,497.1,""smooth"",""left"",""left"",""good_move""]","",""
"2667","","<div style=""width:500px;"">
  <p>What determined the result of this run?</p>
  </div>","100","html-slider-response","62","937935","0.0-10.0-1.5","43","1","2025-07-02 10:18:43","80fe4187154257d5fb01684ea91b68b9","77.89.84.51","Mozilla/5.0 (Windows NT 10.0; Win64; x64) AppleWebKit/537.36 (KHTML, like Gecko) Chrome/137.0.0.0 Safari/537.36","WebKit","Chrome","137.0.0.0","Windows","10.0","https://app.prolific.com/","pl-PL,pl;q=0.9,en-US;q=0.8,en;q=0.7","5e8a5a892f6f027054a83d88","683db6dfa200031b80f2a654","68650765ee1ca017054505d8","5e8a5a892f6f027054a83d88","2025-07-02T10:34:24.122Z","","","","","","AttribQ","","","","","","","","","","","","","","","","","","","","","","","","","","","","","","","","","","","","","","50"
"1685","","<div style=""width:500px;"">
  <p>How much control did you have over the ball?</p>
  </div>","100","html-slider-response","63","939620","0.0-10.0-2.5","43","1","2025-07-02 10:18:43","80fe4187154257d5fb01684ea91b68b9","77.89.84.51","Mozilla/5.0 (Windows NT 10.0; Win64; x64) AppleWebKit/537.36 (KHTML, like Gecko) Chrome/137.0.0.0 Safari/537.36","WebKit","Chrome","137.0.0.0","Windows","10.0","https://app.prolific.com/","pl-PL,pl;q=0.9,en-US;q=0.8,en;q=0.7","5e8a5a892f6f027054a83d88","683db6dfa200031b80f2a654","68650765ee1ca017054505d8","5e8a5a892f6f027054a83d88","2025-07-02T10:34:25.807Z","","","","","","ControlQ","","","","","","","","","","","","","","","","","","","","","","","","","","","","","","","","","","","","","","50"
"2333","","<div style=""width:500px;"">
  <p>How would you describe your current emotional state?</p>
  </div>","20","html-slider-response","64","941953","0.0-10.0-3.5","43","1","2025-07-02 10:18:43","80fe4187154257d5fb01684ea91b68b9","77.89.84.51","Mozilla/5.0 (Windows NT 10.0; Win64; x64) AppleWebKit/537.36 (KHTML, like Gecko) Chrome/137.0.0.0 Safari/537.36","WebKit","Chrome","137.0.0.0","Windows","10.0","https://app.prolific.com/","pl-PL,pl;q=0.9,en-US;q=0.8,en;q=0.7","5e8a5a892f6f027054a83d88","683db6dfa200031b80f2a654","68650765ee1ca017054505d8","5e8a5a892f6f027054a83d88","2025-07-02T10:34:28.140Z","","","","","","StressQ","","","","","","","","","","","","","","","","","","","","","","","","","","","","","","","","","","","","","","50"
"1236","","<div style=""width:500px;"">
  <p>What best describes how you currently feel?</p>
  </div>","50","html-slider-response","65","943190","0.0-10.0-4.5","43","1","2025-07-02 10:18:43","80fe4187154257d5fb01684ea91b68b9","77.89.84.51","Mozilla/5.0 (Windows NT 10.0; Win64; x64) AppleWebKit/537.36 (KHTML, like Gecko) Chrome/137.0.0.0 Safari/537.36","WebKit","Chrome","137.0.0.0","Windows","10.0","https://app.prolific.com/","pl-PL,pl;q=0.9,en-US;q=0.8,en;q=0.7","5e8a5a892f6f027054a83d88","683db6dfa200031b80f2a654","68650765ee1ca017054505d8","5e8a5a892f6f027054a83d88","2025-07-02T10:34:29.377Z","","","","","","MotivationQ","","","","","","","","","","","","","","","","","","","","","","","","","","","","","","","","","","","","","","50"
"","","","","ctl-task-cpt","66","990037","0.0-10.0-0.6","43","1","2025-07-02 10:18:43","80fe4187154257d5fb01684ea91b68b9","77.89.84.51","Mozilla/5.0 (Windows NT 10.0; Win64; x64) AppleWebKit/537.36 (KHTML, like Gecko) Chrome/137.0.0.0 Safari/537.36","WebKit","Chrome","137.0.0.0","Windows","10.0","https://app.prolific.com/","pl-PL,pl;q=0.9,en-US;q=0.8,en;q=0.7","5e8a5a892f6f027054a83d88","683db6dfa200031b80f2a654","68650765ee1ca017054505d8","5e8a5a892f6f027054a83d88","2025-07-02T10:35:16.224Z","","","","","","","","","","","","","","","","win-only","0","g1:NW,g2:SE","0.4","7","0","944341.2","791.1","5795.5","43831.1","1","4","8","6","2","-8","-8","14","22","0.10606060606060606","917.2","3000","-3015","[""down"",""right""]","{""num_key_presses"":10,""num_perfect"":4,""num_errors"":0,""num_randdir"":6,""num_randdir_good_moves"":3,""num_whilered"":0,""num_whileblue"":0,""num_blue"":2,""num_good_moves"":7}","[565.4285714285714,556.3348214285714,0.1,565.4285714285714,556.3348214285714,104.3,565.4285714285714,556.3348214285714,205.2,565.4285714285714,556.3348214285714,310.1,565.4285714285714,556.3348214285714,414.1,565.4285714285714,556.3348214285714,514.3,680.4285714285714,746.3348214285714,614.4,901.4285714285714,923.3348214285714,715,959.4285714285714,949.3348214285714,815.6,959.4285714285714,949.3348214285714,919.8,959.4285714285714,945.3348214285714,1024.7,957.4285714285714,995.3348214285714,1125,980.4285714285714,1278.3348214285713,1230.3,986.4285714285714,1278.3348214285713,1334.1,1031.4285714285713,1268.3348214285713,1434.5,1046.4285714285713,1261.3348214285713,1539.1,1046.4285714285713,1261.3348214285713,1639.7,1046.4285714285713,1261.3348214285713,1744.1,1046.4285714285713,1261.3348214285713,1844.7,1046.4285714285713,1261.3348214285713,1944.7,1046.4285714285713,1261.3348214285713,2049.6,1046.4285714285713,1261.3348214285713,2149.9,1046.4285714285713,1261.3348214285713,2254.8,1046.4285714285713,1261.3348214285713,2359.7,1046.4285714285713,1261.3348214285713,2464.1,1046.4285714285713,1261.3348214285713,2564.7,1046.4285714285713,1261.3348214285713,2669.9,1046.4285714285713,1261.3348214285713,2770.9,1046.4285714285713,1261.3348214285713,2874.5,1046.4285714285713,1261.3348214285713,2980.5,1046.4285714285713,1261.3348214285713,3084.4,1046.4285714285713,1261.3348214285713,3189.4,1046.4285714285713,1261.3348214285713,3289.8,1046.4285714285713,1261.3348214285713,3389.8,1046.4285714285713,1261.3348214285713,3495.3,1046.4285714285713,1261.3348214285713,3599.6,1046.4285714285713,1261.3348214285713,3704.1,1046.4285714285713,1261.3348214285713,3805.1,1046.4285714285713,1261.3348214285713,3905.1,1046.4285714285713,1261.3348214285713,4010.3,1046.4285714285713,1261.3348214285713,4114.1,1046.4285714285713,1261.3348214285713,4214.6,1046.4285714285713,1261.3348214285713,4319,1046.4285714285713,1261.3348214285713,4419,1046.4285714285713,1261.3348214285713,4519.3,1046.4285714285713,1261.3348214285713,4620.5,1046.4285714285713,1261.3348214285713,4725.1,1046.4285714285713,1261.3348214285713,4829.5,1046.4285714285713,1261.3348214285713,4930.2]","[1301.3,1301.3,1000,0,301.3,""oops"",""down"",""left"",""bad_move"",8428.1,7126.6,2733.9,5405.1,289.2,""smooth"",""down"",""down"",""good_move"",12106.2,3677.9,3371.2,8428.3,306.7,""oops"",""down"",""right"",""good_move"",14794,2687.6,2416.4,12106.4,271.2,""oops"",""down"",""down"",""good_move"",20922.1,6127.9,2482,18134.5,305.6,""smooth"",""down"",""down"",""good_move"",23790.1,2867.9,2561.2,20922.2,306.7,""oops"",""right"",""up"",""bad_move"",26478.1,2687.8,2369.1,23790.3,318.7,""oops"",""right"",""up"",""bad_move"",29646.2,3168,2877,26478.3,290.9,""oops"",""right"",""down"",""good_move"",32737.1,3090.7,2768.6,29646.4,322.1,""smooth"",""right"",""right"",""good_move"",35685.2,2947.8,2686.4,32737.4,261.4,""smooth"",""right"",""right"",""good_move""]","",""
"2925","","<div style=""width:500px;"">
  <p>What determined the result of this run?</p>
  </div>","0","html-slider-response","67","992963","0.0-10.0-1.6","43","1","2025-07-02 10:18:43","80fe4187154257d5fb01684ea91b68b9","77.89.84.51","Mozilla/5.0 (Windows NT 10.0; Win64; x64) AppleWebKit/537.36 (KHTML, like Gecko) Chrome/137.0.0.0 Safari/537.36","WebKit","Chrome","137.0.0.0","Windows","10.0","https://app.prolific.com/","pl-PL,pl;q=0.9,en-US;q=0.8,en;q=0.7","5e8a5a892f6f027054a83d88","683db6dfa200031b80f2a654","68650765ee1ca017054505d8","5e8a5a892f6f027054a83d88","2025-07-02T10:35:19.150Z","","","","","","AttribQ","","","","","","","","","","","","","","","","","","","","","","","","","","","","","","","","","","","","","","50"
"2182","","<div style=""width:500px;"">
  <p>How much control did you have over the ball?</p>
  </div>","0","html-slider-response","68","995145","0.0-10.0-2.6","43","1","2025-07-02 10:18:43","80fe4187154257d5fb01684ea91b68b9","77.89.84.51","Mozilla/5.0 (Windows NT 10.0; Win64; x64) AppleWebKit/537.36 (KHTML, like Gecko) Chrome/137.0.0.0 Safari/537.36","WebKit","Chrome","137.0.0.0","Windows","10.0","https://app.prolific.com/","pl-PL,pl;q=0.9,en-US;q=0.8,en;q=0.7","5e8a5a892f6f027054a83d88","683db6dfa200031b80f2a654","68650765ee1ca017054505d8","5e8a5a892f6f027054a83d88","2025-07-02T10:35:21.332Z","","","","","","ControlQ","","","","","","","","","","","","","","","","","","","","","","","","","","","","","","","","","","","","","","50"
"1632","","<div style=""width:500px;"">
  <p>How would you describe your current emotional state?</p>
  </div>","25","html-slider-response","69","996777","0.0-10.0-3.6","43","1","2025-07-02 10:18:43","80fe4187154257d5fb01684ea91b68b9","77.89.84.51","Mozilla/5.0 (Windows NT 10.0; Win64; x64) AppleWebKit/537.36 (KHTML, like Gecko) Chrome/137.0.0.0 Safari/537.36","WebKit","Chrome","137.0.0.0","Windows","10.0","https://app.prolific.com/","pl-PL,pl;q=0.9,en-US;q=0.8,en;q=0.7","5e8a5a892f6f027054a83d88","683db6dfa200031b80f2a654","68650765ee1ca017054505d8","5e8a5a892f6f027054a83d88","2025-07-02T10:35:22.965Z","","","","","","StressQ","","","","","","","","","","","","","","","","","","","","","","","","","","","","","","","","","","","","","","50"
"1002","","<div style=""width:500px;"">
  <p>What best describes how you currently feel?</p>
  </div>","50","html-slider-response","70","997780","0.0-10.0-4.6","43","1","2025-07-02 10:18:43","80fe4187154257d5fb01684ea91b68b9","77.89.84.51","Mozilla/5.0 (Windows NT 10.0; Win64; x64) AppleWebKit/537.36 (KHTML, like Gecko) Chrome/137.0.0.0 Safari/537.36","WebKit","Chrome","137.0.0.0","Windows","10.0","https://app.prolific.com/","pl-PL,pl;q=0.9,en-US;q=0.8,en;q=0.7","5e8a5a892f6f027054a83d88","683db6dfa200031b80f2a654","68650765ee1ca017054505d8","5e8a5a892f6f027054a83d88","2025-07-02T10:35:23.967Z","","","","","","MotivationQ","","","","","","","","","","","","","","","","","","","","","","","","","","","","","","","","","","","","","","50"
"","","","","ctl-task-cpt","71","1032333","0.0-10.0-0.7","43","1","2025-07-02 10:18:43","80fe4187154257d5fb01684ea91b68b9","77.89.84.51","Mozilla/5.0 (Windows NT 10.0; Win64; x64) AppleWebKit/537.36 (KHTML, like Gecko) Chrome/137.0.0.0 Safari/537.36","WebKit","Chrome","137.0.0.0","Windows","10.0","https://app.prolific.com/","pl-PL,pl;q=0.9,en-US;q=0.8,en;q=0.7","5e8a5a892f6f027054a83d88","683db6dfa200031b80f2a654","68650765ee1ca017054505d8","5e8a5a892f6f027054a83d88","2025-07-02T10:35:58.520Z","","","","","","","","","","","","","","","","win-only","0","g1:NW,g2:SE","0.3","8","0","998931.1","934.7","5936.4","31535.5","1","4","4","6","2","4","4","18","14","0.13636363636363635","972.7","3000","250","[""down"",""right""]","{""num_key_presses"":8,""num_perfect"":3,""num_errors"":0,""num_randdir"":5,""num_randdir_good_moves"":4,""num_whilered"":0,""num_whileblue"":0,""num_blue"":1,""num_good_moves"":7}","[549.4285714285714,562.3348214285714,0.2,549.4285714285714,562.3348214285714,101.2,549.4285714285714,562.3348214285714,201.7,549.4285714285714,562.3348214285714,307.1,549.4285714285714,562.3348214285714,411,553.4285714285714,588.3348214285714,511.3,833.4285714285714,878.3348214285714,617.2,934.4285714285714,989.3348214285714,717.3,936.4285714285714,989.3348214285714,821.5,938.4285714285714,989.3348214285714,925.7,938.4285714285714,988.3348214285714,1026.8,938.4285714285714,988.3348214285714,1130.8,914.4285714285714,1236.3348214285713,1231.2,976.4285714285714,1278.3348214285713,1336.7,997.4285714285714,1257.3348214285713,1440.8,1011.4285714285714,1245.3348214285713,1542.1,1011.4285714285714,1245.3348214285713,1646.3,1011.4285714285714,1245.3348214285713,1751.9,1011.4285714285714,1245.3348214285713,1857.1,1011.4285714285714,1245.3348214285713,1957.2,1011.4285714285714,1245.3348214285713,2060.9,1011.4285714285714,1245.3348214285713,2161.5,1011.4285714285714,1245.3348214285713,2266.8,1011.4285714285714,1245.3348214285713,2367.2,1011.4285714285714,1245.3348214285713,2467.2,1011.4285714285714,1245.3348214285713,2570.9,1011.4285714285714,1245.3348214285713,2671.6,1011.4285714285714,1245.3348214285713,2776.8,1011.4285714285714,1245.3348214285713,2882.2,1011.4285714285714,1245.3348214285713,2986.4,1011.4285714285714,1245.3348214285713,3091,1011.4285714285714,1245.3348214285713,3195.7,1011.4285714285714,1245.3348214285713,3297.4,1011.4285714285714,1245.3348214285713,3400.7,1011.4285714285714,1245.3348214285713,3501.4,1011.4285714285714,1245.3348214285713,3601.4,1011.4285714285714,1245.3348214285713,3707.1,1011.4285714285714,1245.3348214285713,3811.1,1011.4285714285714,1245.3348214285713,3916.2,1011.4285714285714,1245.3348214285713,4021.8,1011.4285714285714,1245.3348214285713,4122.1,1011.4285714285714,1245.3348214285713,4226.2,1011.4285714285714,1245.3348214285713,4331.7,1011.4285714285714,1245.3348214285713,4432.3,1011.4285714285714,1245.3348214285713,4535.6,1011.4285714285714,1245.3348214285713,4635.8,1011.4285714285714,1245.3348214285713,4741.1,1011.4285714285714,1245.3348214285713,4847.7,1011.4285714285714,1245.3348214285713,4951.5]","[1308.5,1308.5,1000,0,308.5,""smooth"",""down"",""down"",""good_move"",3529.5,2220.7,1911.2,1308.8,309.5,""oops"",""down"",""right"",""good_move"",5799.4,2269.7,1918.8,3529.7,350.9,""oops"",""down"",""right"",""good_move"",9070.4,3270.9,2967.8,5799.5,303.1,""oops"",""down"",""down"",""good_move"",12160.4,3089.9,2823.7,9070.5,266.2,""smooth"",""down"",""down"",""good_move"",19421.3,7260.8,2902.4,15915.5,603.4,""oops"",""right"",""up"",""bad_move"",22791.3,3369.8,3091.7,19421.5,278.1,""smooth"",""down"",""down"",""good_move"",25512.4,2720.8,2354,22791.6,366.8,""oops"",""right"",""right"",""good_move""]","",""
"1458","","<div style=""width:500px;"">
  <p>What determined the result of this run?</p>
  </div>","68","html-slider-response","72","1033792","0.0-10.0-1.7","43","1","2025-07-02 10:18:43","80fe4187154257d5fb01684ea91b68b9","77.89.84.51","Mozilla/5.0 (Windows NT 10.0; Win64; x64) AppleWebKit/537.36 (KHTML, like Gecko) Chrome/137.0.0.0 Safari/537.36","WebKit","Chrome","137.0.0.0","Windows","10.0","https://app.prolific.com/","pl-PL,pl;q=0.9,en-US;q=0.8,en;q=0.7","5e8a5a892f6f027054a83d88","683db6dfa200031b80f2a654","68650765ee1ca017054505d8","5e8a5a892f6f027054a83d88","2025-07-02T10:35:59.979Z","","","","","","AttribQ","","","","","","","","","","","","","","","","","","","","","","","","","","","","","","","","","","","","","","50"
"844","","<div style=""width:500px;"">
  <p>How much control did you have over the ball?</p>
  </div>","68","html-slider-response","73","1034636","0.0-10.0-2.7","43","1","2025-07-02 10:18:43","80fe4187154257d5fb01684ea91b68b9","77.89.84.51","Mozilla/5.0 (Windows NT 10.0; Win64; x64) AppleWebKit/537.36 (KHTML, like Gecko) Chrome/137.0.0.0 Safari/537.36","WebKit","Chrome","137.0.0.0","Windows","10.0","https://app.prolific.com/","pl-PL,pl;q=0.9,en-US;q=0.8,en;q=0.7","5e8a5a892f6f027054a83d88","683db6dfa200031b80f2a654","68650765ee1ca017054505d8","5e8a5a892f6f027054a83d88","2025-07-02T10:36:00.823Z","","","","","","ControlQ","","","","","","","","","","","","","","","","","","","","","","","","","","","","","","","","","","","","","","50"
"1470","","<div style=""width:500px;"">
  <p>How would you describe your current emotional state?</p>
  </div>","29","html-slider-response","74","1036107","0.0-10.0-3.7","43","1","2025-07-02 10:18:43","80fe4187154257d5fb01684ea91b68b9","77.89.84.51","Mozilla/5.0 (Windows NT 10.0; Win64; x64) AppleWebKit/537.36 (KHTML, like Gecko) Chrome/137.0.0.0 Safari/537.36","WebKit","Chrome","137.0.0.0","Windows","10.0","https://app.prolific.com/","pl-PL,pl;q=0.9,en-US;q=0.8,en;q=0.7","5e8a5a892f6f027054a83d88","683db6dfa200031b80f2a654","68650765ee1ca017054505d8","5e8a5a892f6f027054a83d88","2025-07-02T10:36:02.294Z","","","","","","StressQ","","","","","","","","","","","","","","","","","","","","","","","","","","","","","","","","","","","","","","50"
"989","","<div style=""width:500px;"">
  <p>What best describes how you currently feel?</p>
  </div>","51","html-slider-response","75","1037096","0.0-10.0-4.7","43","1","2025-07-02 10:18:43","80fe4187154257d5fb01684ea91b68b9","77.89.84.51","Mozilla/5.0 (Windows NT 10.0; Win64; x64) AppleWebKit/537.36 (KHTML, like Gecko) Chrome/137.0.0.0 Safari/537.36","WebKit","Chrome","137.0.0.0","Windows","10.0","https://app.prolific.com/","pl-PL,pl;q=0.9,en-US;q=0.8,en;q=0.7","5e8a5a892f6f027054a83d88","683db6dfa200031b80f2a654","68650765ee1ca017054505d8","5e8a5a892f6f027054a83d88","2025-07-02T10:36:03.283Z","","","","","","MotivationQ","","","","","","","","","","","","","","","","","","","","","","","","","","","","","","","","","","","","","","50"
"","","","","ctl-task-cpt","76","1081115","0.0-10.0-0.8","43","1","2025-07-02 10:18:43","80fe4187154257d5fb01684ea91b68b9","77.89.84.51","Mozilla/5.0 (Windows NT 10.0; Win64; x64) AppleWebKit/537.36 (KHTML, like Gecko) Chrome/137.0.0.0 Safari/537.36","WebKit","Chrome","137.0.0.0","Windows","10.0","https://app.prolific.com/","pl-PL,pl;q=0.9,en-US;q=0.8,en;q=0.7","5e8a5a892f6f027054a83d88","683db6dfa200031b80f2a654","68650765ee1ca017054505d8","5e8a5a892f6f027054a83d88","2025-07-02T10:36:47.302Z","","","","","","","","","","","","","","","","win-only","0","g1:NW,g2:SE","0.4","9","0","1038247.4","834.6","5836.4","41001.4","1","4","8","6","2","8","6","24","18","0.18181818181818182","728.9","3000","140","[""down"",""right""]","{""num_key_presses"":10,""num_perfect"":3,""num_errors"":2,""num_randdir"":5,""num_randdir_good_moves"":4,""num_whilered"":0,""num_whileblue"":2,""num_blue"":4,""num_good_moves"":8}","[560.4285714285714,544.3348214285714,0.1,560.4285714285714,544.3348214285714,101.1,560.4285714285714,544.3348214285714,206,558.4285714285714,570.3348214285714,310.7,606.4285714285714,703.3348214285714,410.8,810.4285714285714,935.3348214285714,511.5,976.4285714285714,1033.3348214285713,616.4,995.4285714285714,1041.3348214285713,717.1,995.4285714285714,1041.3348214285713,821.7,1020.4285714285714,1122.3348214285713,926,1096.4285714285713,1278.3348214285713,1030.7,1106.4285714285713,1278.3348214285713,1131.3,1109.4285714285713,1278.3348214285713,1231.3,1109.4285714285713,1278.3348214285713,1331.5,1109.4285714285713,1278.3348214285713,1436.6,1109.4285714285713,1278.3348214285713,1537,1109.4285714285713,1278.3348214285713,1641.3,1109.4285714285713,1278.3348214285713,1746,1109.4285714285713,1278.3348214285713,1846.6,1109.4285714285713,1278.3348214285713,1950.9,1109.4285714285713,1278.3348214285713,2051.6,1109.4285714285713,1278.3348214285713,2156.2,1109.4285714285713,1278.3348214285713,2261.7,1109.4285714285713,1278.3348214285713,2365.6,1109.4285714285713,1278.3348214285713,2466.7,1109.4285714285713,1278.3348214285713,2570.8,1109.4285714285713,1278.3348214285713,2670.8,1109.4285714285713,1278.3348214285713,2771.5,1109.4285714285713,1278.3348214285713,2871.9,1109.4285714285713,1278.3348214285713,2976.5,1109.4285714285713,1278.3348214285713,3082.1,1109.4285714285713,1278.3348214285713,3187.2,1109.4285714285713,1278.3348214285713,3291.3,1109.4285714285713,1278.3348214285713,3395.7,1109.4285714285713,1278.3348214285713,3496.2,1109.4285714285713,1278.3348214285713,3600.9,1109.4285714285713,1278.3348214285713,3701.9,1109.4285714285713,1278.3348214285713,3805.9,1109.4285714285713,1278.3348214285713,3905.9,1109.4285714285713,1278.3348214285713,4011.8,1109.4285714285713,1278.3348214285713,4116.7,1109.4285714285713,1278.3348214285713,4220.8,1109.4285714285713,1278.3348214285713,4321.3,1109.4285714285713,1278.3348214285713,4426.1,1109.4285714285713,1278.3348214285713,4526.6,1109.4285714285713,1278.3348214285713,4630.6,1109.4285714285713,1278.3348214285713,4730.6,1109.4285714285713,1278.3348214285713,4831.1,1109.4285714285713,1278.3348214285713,4935.7]","[1337,1337.1,1000,0,337.1,""smooth"",""down"",""down"",""good_move"",3987.4,2650.2,2370.2,1337.2,280,""oops"",""down"",""down"",""good_move"",7357.2,3369.8,3032.6,3987.4,337.2,""oops"",""right"",""up"",""bad_move"",14217.2,6859.8,2795.3,11089.4,332.5,""oops"",""right"",""right"",""good_move"",17528,3310.6,2963.1,14217.4,347.5,""oops"",""right"",""right"",""good_move"",19847.9,2319.8,2030.6,17528.1,289.2,""while_blue"",""down"",""down"",""good_move"",23208.1,3359.9,2633.4,19848.2,726.5,""oops"",""down"",""right"",""good_move"",26348.3,3140,2836,23208.3,304,""while_blue"",""down"",""up"",""bad_move"",32119.1,5770.6,2054.9,29780,284.2,""smooth"",""down"",""down"",""good_move"",35079,2959.7,2686.1,32119.3,273.6,""smooth"",""down"",""down"",""good_move""]","",""
"2228","","<div style=""width:500px;"">
  <p>What determined the result of this run?</p>
  </div>","60","html-slider-response","77","1083344","0.0-10.0-1.8","43","1","2025-07-02 10:18:43","80fe4187154257d5fb01684ea91b68b9","77.89.84.51","Mozilla/5.0 (Windows NT 10.0; Win64; x64) AppleWebKit/537.36 (KHTML, like Gecko) Chrome/137.0.0.0 Safari/537.36","WebKit","Chrome","137.0.0.0","Windows","10.0","https://app.prolific.com/","pl-PL,pl;q=0.9,en-US;q=0.8,en;q=0.7","5e8a5a892f6f027054a83d88","683db6dfa200031b80f2a654","68650765ee1ca017054505d8","5e8a5a892f6f027054a83d88","2025-07-02T10:36:49.531Z","","","","","","AttribQ","","","","","","","","","","","","","","","","","","","","","","","","","","","","","","","","","","","","","","50"
"1171","","<div style=""width:500px;"">
  <p>How much control did you have over the ball?</p>
  </div>","59","html-slider-response","78","1084515","0.0-10.0-2.8","43","1","2025-07-02 10:18:43","80fe4187154257d5fb01684ea91b68b9","77.89.84.51","Mozilla/5.0 (Windows NT 10.0; Win64; x64) AppleWebKit/537.36 (KHTML, like Gecko) Chrome/137.0.0.0 Safari/537.36","WebKit","Chrome","137.0.0.0","Windows","10.0","https://app.prolific.com/","pl-PL,pl;q=0.9,en-US;q=0.8,en;q=0.7","5e8a5a892f6f027054a83d88","683db6dfa200031b80f2a654","68650765ee1ca017054505d8","5e8a5a892f6f027054a83d88","2025-07-02T10:36:50.702Z","","","","","","ControlQ","","","","","","","","","","","","","","","","","","","","","","","","","","","","","","","","","","","","","","50"
"1225","","<div style=""width:500px;"">
  <p>How would you describe your current emotional state?</p>
  </div>","27","html-slider-response","79","1085740","0.0-10.0-3.8","43","1","2025-07-02 10:18:43","80fe4187154257d5fb01684ea91b68b9","77.89.84.51","Mozilla/5.0 (Windows NT 10.0; Win64; x64) AppleWebKit/537.36 (KHTML, like Gecko) Chrome/137.0.0.0 Safari/537.36","WebKit","Chrome","137.0.0.0","Windows","10.0","https://app.prolific.com/","pl-PL,pl;q=0.9,en-US;q=0.8,en;q=0.7","5e8a5a892f6f027054a83d88","683db6dfa200031b80f2a654","68650765ee1ca017054505d8","5e8a5a892f6f027054a83d88","2025-07-02T10:36:51.928Z","","","","","","StressQ","","","","","","","","","","","","","","","","","","","","","","","","","","","","","","","","","","","","","","50"
"1205","","<div style=""width:500px;"">
  <p>What best describes how you currently feel?</p>
  </div>","50","html-slider-response","80","1086946","0.0-10.0-4.8","43","1","2025-07-02 10:18:43","80fe4187154257d5fb01684ea91b68b9","77.89.84.51","Mozilla/5.0 (Windows NT 10.0; Win64; x64) AppleWebKit/537.36 (KHTML, like Gecko) Chrome/137.0.0.0 Safari/537.36","WebKit","Chrome","137.0.0.0","Windows","10.0","https://app.prolific.com/","pl-PL,pl;q=0.9,en-US;q=0.8,en;q=0.7","5e8a5a892f6f027054a83d88","683db6dfa200031b80f2a654","68650765ee1ca017054505d8","5e8a5a892f6f027054a83d88","2025-07-02T10:36:53.133Z","","","","","","MotivationQ","","","","","","","","","","","","","","","","","","","","","","","","","","","","","","","","","","","","","","50"
"","","","","ctl-task-cpt","81","1125398","0.0-10.0-0.9","43","1","2025-07-02 10:18:43","80fe4187154257d5fb01684ea91b68b9","77.89.84.51","Mozilla/5.0 (Windows NT 10.0; Win64; x64) AppleWebKit/537.36 (KHTML, like Gecko) Chrome/137.0.0.0 Safari/537.36","WebKit","Chrome","137.0.0.0","Windows","10.0","https://app.prolific.com/","pl-PL,pl;q=0.9,en-US;q=0.8,en;q=0.7","5e8a5a892f6f027054a83d88","683db6dfa200031b80f2a654","68650765ee1ca017054505d8","5e8a5a892f6f027054a83d88","2025-07-02T10:37:31.585Z","","","","","","","","","","","","","","","","win-only","1","g1:NE,g2:SW","0.5","10","0","1088097.2","1009.3","6010.4","35435.4","1","4","4","6","2","4","2","26","24","0.19696969696969696","936.1","3000","670","[""down"",""left""]","{""num_key_presses"":8,""num_perfect"":5,""num_errors"":2,""num_randdir"":1,""num_randdir_good_moves"":1,""num_whilered"":0,""num_whileblue"":2,""num_blue"":4,""num_good_moves"":7}","[560.4285714285714,566.3348214285714,0,560.4285714285714,566.3348214285714,101.3,560.4285714285714,566.3348214285714,201.8,560.4285714285714,566.3348214285714,302,560.4285714285714,566.3348214285714,402.3,539.4285714285714,722.3348214285714,505.9,386.42857142857144,913.3348214285714,606.1,272.42857142857144,990.3348214285714,706.2,173.42857142857144,999.3348214285714,807,126.42857142857143,990.3348214285714,911.9,126.42857142857143,990.3348214285714,1012.3,95.42857142857143,1144.3348214285713,1116.2,-42.57142857142857,1278.3348214285713,1216.3,-62.57142857142857,1278.3348214285713,1321.6,-40.57142857142857,1269.3348214285713,1427.4,-40.57142857142857,1269.3348214285713,1531.5,-40.57142857142857,1269.3348214285713,1636.8,-58.57142857142857,1264.3348214285713,1736.9,-235.57142857142856,1187.3348214285713,1841,-254.57142857142856,1086.3348214285713,1942.4,-254.57142857142856,1086.3348214285713,2045.9,-254.57142857142856,1086.3348214285713,2146.9,-254.57142857142856,1086.3348214285713,2251.8,-254.57142857142856,1086.3348214285713,2356.7,-254.57142857142856,1086.3348214285713,2460.8,-254.57142857142856,1086.3348214285713,2561.8,-254.57142857142856,1086.3348214285713,2666.1,-254.57142857142856,1086.3348214285713,2766.3,-254.57142857142856,1086.3348214285713,2871.4,-254.57142857142856,1086.3348214285713,2971.7,-254.57142857142856,1086.3348214285713,3076.9,-254.57142857142856,1086.3348214285713,3181.2,-254.57142857142856,1086.3348214285713,3285.9,-254.57142857142856,1086.3348214285713,3386.9,-254.57142857142856,1086.3348214285713,3491.1,-254.57142857142856,1086.3348214285713,3592.4,-254.57142857142856,1086.3348214285713,3695.9,-254.57142857142856,1086.3348214285713,3801.9,-254.57142857142856,1086.3348214285713,3907,-254.57142857142856,1086.3348214285713,4011.4,-254.57142857142856,1086.3348214285713,4115.9,-254.57142857142856,1086.3348214285713,4216.8,-254.57142857142856,1086.3348214285713,4317.6,-254.57142857142856,1086.3348214285713,4420.8,-254.57142857142856,1086.3348214285713,4521.5,-254.57142857142856,1086.3348214285713,4626,-254.57142857142856,1086.3348214285713,4726.1,-254.57142857142856,1086.3348214285713,4831.7,-254.57142857142856,1086.3348214285713,4936.1]","[1355.4,1355.4,1000,0,355.4,""smooth"",""down"",""down"",""good_move"",4816.3,3460.8,3109.1,1355.6,351.6,""while_blue"",""down"",""up"",""bad_move"",7696.2,2879.7,2588.1,4816.5,291.6,""while_blue"",""down"",""left"",""good_move"",14426.3,6729.9,2925.8,11130,370.5,""smooth"",""down"",""down"",""good_move"",17236.4,2810,2423.2,14426.4,386.8,""oops"",""down"",""left"",""good_move"",19756.5,2520,2069.2,17236.5,450.9,""smooth"",""down"",""down"",""good_move"",22876.2,3119.5,2700,19756.7,419.5,""smooth"",""left"",""left"",""good_move"",29336.3,6459.8,2541.9,26421.4,373,""smooth"",""down"",""down"",""good_move""]","",""
"1661","","<div style=""width:500px;"">
  <p>What determined the result of this run?</p>
