"rt","response_timestamp","stimulus","response","trial_type","trial_index","time_elapsed","internal_node_id","run_id","condition","recorded_at","source_code_version","ip","user_agent","device","browser","browser_version","platform","platform_version","referer","accept_language","PROLIFIC_PID","STUDY_ID","SESSION_ID","prolific_id","realtime","view_history","question_order","consent","success","question_id","eventType","responses","item_order","radio_event_ids","radio_event_times","key_event_times","mouse_event_times","straightlining","zigzagging","honeypot","which_type","canvas_config","goals_layout","control_level","trial_number","tutorial_trial_number","trial_start_time","phase1_start_time","phase2_start_time","phase3_start_time","goal_1_value","goal_1_distance","goal_2_value","goal_2_distance","goal_selected","outcome","outcome_total","participant_final_score","participant_initial_score","participant_final_score_prop","goal_choice_rt","allocated_time","allocated_time_remaining","goal_direction","counts","mouse_movements","key_presses","correct","slider_start"
"3381","1751451520085","<p style='font-size:40px;line-height:1.25'><strong>Welcome to the experiment!</strong></p><p style='font-size:1.1em;line-height:1.25'>Thank you for your interest in our experiment! Before you begin, it is important that we obtain your informed consent to participate in the study.</p><p style='font-size:1.1em;line-height:1.25'>On the next screen will be an <strong>information sheet</strong> for you to read. To participate in the study we need you to read this information sheet and the following consent form carefully. If you agree with all the statements, please click the <strong>I agree</strong> button.</p><p style='font-size:1.1em;line-height:1.25'>Press <strong>Next</strong> to read the information sheet.</p>","0","custom-html-button-response","0","3384","0.0-0.0","31","1","2025-07-02 10:18:36","80fe4187154257d5fb01684ea91b68b9","85.244.210.251","Mozilla/5.0 (Windows NT 10.0; Win64; x64) AppleWebKit/537.36 (KHTML, like Gecko) Chrome/137.0.0.0 Safari/537.36","WebKit","Chrome","137.0.0.0","Windows","10.0","https://app.prolific.com/","pt-PT,pt;q=0.9,en-US;q=0.8,en;q=0.7","5ec2c14f488b5c0d146da2f9","683db6dfa200031b80f2a654","68650768931b62b1940889ed","5ec2c14f488b5c0d146da2f9","2025-07-02T10:18:40.086Z","","","","","","","","","","","","","","","","","","","","","","","","","","","","","","","","","","","","","","","","","","","",""
"24366","","","","instructions","1","27750","0.0-1.0","31","1","2025-07-02 10:18:36","80fe4187154257d5fb01684ea91b68b9","85.244.210.251","Mozilla/5.0 (Windows NT 10.0; Win64; x64) AppleWebKit/537.36 (KHTML, like Gecko) Chrome/137.0.0.0 Safari/537.36","WebKit","Chrome","137.0.0.0","Windows","10.0","https://app.prolific.com/","pt-PT,pt;q=0.9,en-US;q=0.8,en;q=0.7","5ec2c14f488b5c0d146da2f9","683db6dfa200031b80f2a654","68650768931b62b1940889ed","5ec2c14f488b5c0d146da2f9","","[{""page_index"":0,""viewing_time"":17194},{""page_index"":1,""viewing_time"":7171}]","","","","","","","","","","","","","","","","","","","","","","","","","","","","","","","","","","","","","","","","","","",""
"7026","","","{""Q0"":"""",""Q1"":"""",""Q2"":"""",""Q3"":"""",""Q4"":"""",""Q5"":"""",""Q6"":""I agree""}","survey-multi-choice","2","34778","0.0-2.0","31","1","2025-07-02 10:18:36","80fe4187154257d5fb01684ea91b68b9","85.244.210.251","Mozilla/5.0 (Windows NT 10.0; Win64; x64) AppleWebKit/537.36 (KHTML, like Gecko) Chrome/137.0.0.0 Safari/537.36","WebKit","Chrome","137.0.0.0","Windows","10.0","https://app.prolific.com/","pt-PT,pt;q=0.9,en-US;q=0.8,en;q=0.7","5ec2c14f488b5c0d146da2f9","683db6dfa200031b80f2a654","68650768931b62b1940889ed","5ec2c14f488b5c0d146da2f9","","","[0,1,2,3,4,5,6]","true","","","","","","","","","","","","","","","","","","","","","","","","","","","","","","","","","","","","","","","","",""
"6896","","","","fullscreen","3","42676","0.0-4.0","31","1","2025-07-02 10:18:36","80fe4187154257d5fb01684ea91b68b9","85.244.210.251","Mozilla/5.0 (Windows NT 10.0; Win64; x64) AppleWebKit/537.36 (KHTML, like Gecko) Chrome/137.0.0.0 Safari/537.36","WebKit","Chrome","137.0.0.0","Windows","10.0","https://app.prolific.com/","pt-PT,pt;q=0.9,en-US;q=0.8,en;q=0.7","5ec2c14f488b5c0d146da2f9","683db6dfa200031b80f2a654","68650768931b62b1940889ed","5ec2c14f488b5c0d146da2f9","","","","","true","","","","","","","","","","","","","","","","","","","","","","","","","","","","","","","","","","","","","","","",""
"4648","1751451564027"," <p style='font-size:1.1em;line-height:1.25'>Thank you for completing the consent form and closing all other tabs.</p><p style='font-size:1.1em;line-height:1.25'>We will now invite you to fill in some demographic information and questionnaires, before starting the game.<br>This will take about 5 minutes.<br></p><p style='font-size:1.1em;line-height:1.25'>Press the <strong>Next</strong> button to continue.</p>","0","custom-html-button-response","4","47325","0.0-5.0","31","1","2025-07-02 10:18:36","80fe4187154257d5fb01684ea91b68b9","85.244.210.251","Mozilla/5.0 (Windows NT 10.0; Win64; x64) AppleWebKit/537.36 (KHTML, like Gecko) Chrome/137.0.0.0 Safari/537.36","WebKit","Chrome","137.0.0.0","Windows","10.0","https://app.prolific.com/","pt-PT,pt;q=0.9,en-US;q=0.8,en;q=0.7","5ec2c14f488b5c0d146da2f9","683db6dfa200031b80f2a654","68650768931b62b1940889ed","5ec2c14f488b5c0d146da2f9","2025-07-02T10:19:24.027Z","","","","","","","","","","","","","","","","","","","","","","","","","","","","","","","","","","","","","","","","","","","",""
"4540","","","{""age"":""35""}","survey-text","5","51868","0.0-6.0-0.0","31","1","2025-07-02 10:18:36","80fe4187154257d5fb01684ea91b68b9","85.244.210.251","Mozilla/5.0 (Windows NT 10.0; Win64; x64) AppleWebKit/537.36 (KHTML, like Gecko) Chrome/137.0.0.0 Safari/537.36","WebKit","Chrome","137.0.0.0","Windows","10.0","https://app.prolific.com/","pt-PT,pt;q=0.9,en-US;q=0.8,en;q=0.7","5ec2c14f488b5c0d146da2f9","683db6dfa200031b80f2a654","68650768931b62b1940889ed","5ec2c14f488b5c0d146da2f9","","","","","","0","demographics","","","","","","","","","","","","","","","","","","","","","","","","","","","","","","","","","","","","","",""
"3458","","","{""gender_identity"":""male/man""}","survey-multi-choice","6","55327","0.0-6.0-1.0","31","1","2025-07-02 10:18:36","80fe4187154257d5fb01684ea91b68b9","85.244.210.251","Mozilla/5.0 (Windows NT 10.0; Win64; x64) AppleWebKit/537.36 (KHTML, like Gecko) Chrome/137.0.0.0 Safari/537.36","WebKit","Chrome","137.0.0.0","Windows","10.0","https://app.prolific.com/","pt-PT,pt;q=0.9,en-US;q=0.8,en;q=0.7","5ec2c14f488b5c0d146da2f9","683db6dfa200031b80f2a654","68650768931b62b1940889ed","5ec2c14f488b5c0d146da2f9","","","[0]","","","1","demographics","","","","","","","","","","","","","","","","","","","","","","","","","","","","","","","","","","","","","",""
"3485","","","{""assigned_sex"":""male""}","survey-multi-choice","7","58813","0.0-6.0-2.0","31","1","2025-07-02 10:18:36","80fe4187154257d5fb01684ea91b68b9","85.244.210.251","Mozilla/5.0 (Windows NT 10.0; Win64; x64) AppleWebKit/537.36 (KHTML, like Gecko) Chrome/137.0.0.0 Safari/537.36","WebKit","Chrome","137.0.0.0","Windows","10.0","https://app.prolific.com/","pt-PT,pt;q=0.9,en-US;q=0.8,en;q=0.7","5ec2c14f488b5c0d146da2f9","683db6dfa200031b80f2a654","68650768931b62b1940889ed","5ec2c14f488b5c0d146da2f9","","","[0]","","","2","demographics","","","","","","","","","","","","","","","","","","","","","","","","","","","","","","","","","","","","","",""
"2778","","","{""menstrual_cycle"":""No""}","survey-multi-choice","8","61592","0.0-6.0-3.0","31","1","2025-07-02 10:18:36","80fe4187154257d5fb01684ea91b68b9","85.244.210.251","Mozilla/5.0 (Windows NT 10.0; Win64; x64) AppleWebKit/537.36 (KHTML, like Gecko) Chrome/137.0.0.0 Safari/537.36","WebKit","Chrome","137.0.0.0","Windows","10.0","https://app.prolific.com/","pt-PT,pt;q=0.9,en-US;q=0.8,en;q=0.7","5ec2c14f488b5c0d146da2f9","683db6dfa200031b80f2a654","68650768931b62b1940889ed","5ec2c14f488b5c0d146da2f9","","","[0]","","","4","demographics","","","","","","","","","","","","","","","","","","","","","","","","","","","","","","","","","","","","","",""
"5567","","","{""education"":""Bachelor's Degree (e.g., BA)""}","survey-multi-choice","9","67160","0.0-6.0-4.0","31","1","2025-07-02 10:18:36","80fe4187154257d5fb01684ea91b68b9","85.244.210.251","Mozilla/5.0 (Windows NT 10.0; Win64; x64) AppleWebKit/537.36 (KHTML, like Gecko) Chrome/137.0.0.0 Safari/537.36","WebKit","Chrome","137.0.0.0","Windows","10.0","https://app.prolific.com/","pt-PT,pt;q=0.9,en-US;q=0.8,en;q=0.7","5ec2c14f488b5c0d146da2f9","683db6dfa200031b80f2a654","68650768931b62b1940889ed","5ec2c14f488b5c0d146da2f9","","","[0]","","","5","demographics","","","","","","","","","","","","","","","","","","","","","","","","","","","","","","","","","","","","","",""
"22674","","","{""education"":""GCSE/Standard Grades""}","survey-multi-choice","10","89835","0.0-6.0-5.0","31","1","2025-07-02 10:18:36","80fe4187154257d5fb01684ea91b68b9","85.244.210.251","Mozilla/5.0 (Windows NT 10.0; Win64; x64) AppleWebKit/537.36 (KHTML, like Gecko) Chrome/137.0.0.0 Safari/537.36","WebKit","Chrome","137.0.0.0","Windows","10.0","https://app.prolific.com/","pt-PT,pt;q=0.9,en-US;q=0.8,en;q=0.7","5ec2c14f488b5c0d146da2f9","683db6dfa200031b80f2a654","68650768931b62b1940889ed","5ec2c14f488b5c0d146da2f9","2025-07-02T10:20:06.537Z","","[0]","","","6","demographics","","","","","","","","","","","","","","","","","","","","","","","","","","","","","","","","","","","","","",""
"11073","","","{""mental_health_condition"":""No"",""mental_health_treatment"":""No"",""psychiatric_medication"":""No""}","survey-text","11","100910","0.0-7.0-0.0","31","1","2025-07-02 10:18:36","80fe4187154257d5fb01684ea91b68b9","85.244.210.251","Mozilla/5.0 (Windows NT 10.0; Win64; x64) AppleWebKit/537.36 (KHTML, like Gecko) Chrome/137.0.0.0 Safari/537.36","WebKit","Chrome","137.0.0.0","Windows","10.0","https://app.prolific.com/","pt-PT,pt;q=0.9,en-US;q=0.8,en;q=0.7","5ec2c14f488b5c0d146da2f9","683db6dfa200031b80f2a654","68650768931b62b1940889ed","5ec2c14f488b5c0d146da2f9","2025-07-02T10:20:17.612Z","","","","","1","mental_health","","","","","","","","","","","","","","","","","","","","","","","","","","","","","","","","","","","","","",""
"15274","","","{""depression_history"":[""Yes""]}","survey-multi-select","12","116186","0.0-7.0-1.0","31","1","2025-07-02 10:18:36","80fe4187154257d5fb01684ea91b68b9","85.244.210.251","Mozilla/5.0 (Windows NT 10.0; Win64; x64) AppleWebKit/537.36 (KHTML, like Gecko) Chrome/137.0.0.0 Safari/537.36","WebKit","Chrome","137.0.0.0","Windows","10.0","https://app.prolific.com/","pt-PT,pt;q=0.9,en-US;q=0.8,en;q=0.7","5ec2c14f488b5c0d146da2f9","683db6dfa200031b80f2a654","68650768931b62b1940889ed","5ec2c14f488b5c0d146da2f9","","","[0]","","","","mental_health","","","","","","","","","","","","","","","","","","","","","","","","","","","","","","","","","","","","","",""
"7837","","","{""depression_episodes"":""1-2"",""depression_recent"":""More than 1 year ago""}","survey-multi-choice","13","124024","0.0-7.0-2.0-0.0","31","1","2025-07-02 10:18:36","80fe4187154257d5fb01684ea91b68b9","85.244.210.251","Mozilla/5.0 (Windows NT 10.0; Win64; x64) AppleWebKit/537.36 (KHTML, like Gecko) Chrome/137.0.0.0 Safari/537.36","WebKit","Chrome","137.0.0.0","Windows","10.0","https://app.prolific.com/","pt-PT,pt;q=0.9,en-US;q=0.8,en;q=0.7","5ec2c14f488b5c0d146da2f9","683db6dfa200031b80f2a654","68650768931b62b1940889ed","5ec2c14f488b5c0d146da2f9","2025-07-02T10:20:40.726Z","","[0,1]","","","3","mental_health","","","","","","","","","","","","","","","","","","","","","","","","","","","","","","","","","","","","","",""
"52359.59999990463","","","","survey-template","14","176386","0.0-7.0-3.0","31","1","2025-07-02 10:18:36","80fe4187154257d5fb01684ea91b68b9","85.244.210.251","Mozilla/5.0 (Windows NT 10.0; Win64; x64) AppleWebKit/537.36 (KHTML, like Gecko) Chrome/137.0.0.0 Safari/537.36","WebKit","Chrome","137.0.0.0","Windows","10.0","https://app.prolific.com/","pt-PT,pt;q=0.9,en-US;q=0.8,en;q=0.7","5ec2c14f488b5c0d146da2f9","683db6dfa200031b80f2a654","68650768931b62b1940889ed","5ec2c14f488b5c0d146da2f9","2025-07-02T10:21:33.088Z","","","","","","ius","{""Q01"":""2"",""Q02"":""2"",""Q03"":""2"",""Q04"":""2"",""Q05"":""1"",""Q06"":""1"",""Q07"":""1"",""Q08"":""0"",""Q09"":""2"",""Q10"":""1"",""Q11"":""1"",""Q12"":""2"",""Q13"":""1""}","[0,1,2,3,4,5,6,7,8,9,10,11,12]","[""Q01"",""Q02"",""Q03"",""Q04"",""Q05"",""Q06"",""Q07"",""Q08"",""Q09"",""Q10"",""Q11"",""Q12"",""Q13""]","[5363.099999904633,7866.5,12079.5,15789,23209.299999952316,26715.799999952316,33385.39999985695,36054.09999990463,38983.199999809265,41306.39999985695,43305.799999952316,47080.09999990463,50529.5]","[]","[4694.5,5363.099999904633,7866.5,12079.5,15789,23209.299999952316,26715.799999952316,33385.39999985695,35485,36054.09999990463,38983.199999809265,41306.39999985695,43305.799999952316,47080.09999990463,49945.5,50529.5,52357.799999952316]","0.46153846153846156","0.4166666666666667","0","","","","","","","","","","","","","","","","","","","","","","","","","","","","",""
"2782","1751451695872","<p style='font-size:1.1em;line-height:1.25'>In the following, we will ask you a few questions relating to your experiences over the past month.<br></p><p style='font-size:1.1em;line-height:1.25'>Press the <strong>Next</strong> button to continue.</p>","0","custom-html-button-response","15","179170","0.0-7.0-4.0","31","1","2025-07-02 10:18:36","80fe4187154257d5fb01684ea91b68b9","85.244.210.251","Mozilla/5.0 (Windows NT 10.0; Win64; x64) AppleWebKit/537.36 (KHTML, like Gecko) Chrome/137.0.0.0 Safari/537.36","WebKit","Chrome","137.0.0.0","Windows","10.0","https://app.prolific.com/","pt-PT,pt;q=0.9,en-US;q=0.8,en;q=0.7","5ec2c14f488b5c0d146da2f9","683db6dfa200031b80f2a654","68650768931b62b1940889ed","5ec2c14f488b5c0d146da2f9","2025-07-02T10:21:35.872Z","","","","","","","","","","","","","","","","","","","","","","","","","","","","","","","","","","","","","","","","","","","",""
"48684.799999952316","","","","survey-template","16","227857","0.0-7.0-5.0","31","1","2025-07-02 10:18:36","80fe4187154257d5fb01684ea91b68b9","85.244.210.251","Mozilla/5.0 (Windows NT 10.0; Win64; x64) AppleWebKit/537.36 (KHTML, like Gecko) Chrome/137.0.0.0 Safari/537.36","WebKit","Chrome","137.0.0.0","Windows","10.0","https://app.prolific.com/","pt-PT,pt;q=0.9,en-US;q=0.8,en;q=0.7","5ec2c14f488b5c0d146da2f9","683db6dfa200031b80f2a654","68650768931b62b1940889ed","5ec2c14f488b5c0d146da2f9","2025-07-02T10:22:24.559Z","","","","","","pss","{""Q01"":""2"",""Q02"":""1"",""Q03"":""2"",""Q04"":""3"",""Q05"":""2"",""Q06"":""1"",""Q07"":""3"",""Q08"":""1"",""Q09"":""1"",""Q10"":""1""}","[0,1,2,3,4,5,6,7,8,9]","[""Q01"",""Q02"",""Q03"",""Q03"",""Q04"",""Q05"",""Q06"",""Q07"",""Q08"",""Q08"",""Q09"",""Q10"",""Q10""]","[5618.400000095367,8866,11102.700000047684,15546.100000143051,18417.900000095367,26080.299999952316,29225.60000014305,32491.299999952316,34709.40000009537,36658.200000047684,40085,43018.799999952316,44928.90000009537]","[]","[0,5618.400000095367,8866,11102.700000047684,15546.100000143051,18417.900000095367,24421.10000014305,25301.200000047684,26080.299999952316,29225.60000014305,32491.299999952316,34709.40000009537,36658.200000047684,40085,43018.799999952316,44928.90000009537,48682.799999952316]","0.6","0.5555555555555556","0","","","","","","","","","","","","","","","","","","","","","","","","","","","","",""
"2522","1751451747081","<p style='font-size:1.1em;line-height:1.25'>Thank you for your answers! Now we will ask you a few more questions relating to your feelings in the last 24 hours.<br></p><p style='font-size:1.1em;line-height:1.25'>Press the <strong>Next</strong> button to continue.</p>","0","custom-html-button-response","17","230379","0.0-7.0-6.0","31","1","2025-07-02 10:18:36","80fe4187154257d5fb01684ea91b68b9","85.244.210.251","Mozilla/5.0 (Windows NT 10.0; Win64; x64) AppleWebKit/537.36 (KHTML, like Gecko) Chrome/137.0.0.0 Safari/537.36","WebKit","Chrome","137.0.0.0","Windows","10.0","https://app.prolific.com/","pt-PT,pt;q=0.9,en-US;q=0.8,en;q=0.7","5ec2c14f488b5c0d146da2f9","683db6dfa200031b80f2a654","68650768931b62b1940889ed","5ec2c14f488b5c0d146da2f9","2025-07-02T10:22:27.082Z","","","","","","","","","","","","","","","","","","","","","","","","","","","","","","","","","","","","","","","","","","","",""
"71500.90000009537","","","","survey-template","18","301883","0.0-7.0-7.0","31","1","2025-07-02 10:18:36","80fe4187154257d5fb01684ea91b68b9","85.244.210.251","Mozilla/5.0 (Windows NT 10.0; Win64; x64) AppleWebKit/537.36 (KHTML, like Gecko) Chrome/137.0.0.0 Safari/537.36","WebKit","Chrome","137.0.0.0","Windows","10.0","https://app.prolific.com/","pt-PT,pt;q=0.9,en-US;q=0.8,en;q=0.7","5ec2c14f488b5c0d146da2f9","683db6dfa200031b80f2a654","68650768931b62b1940889ed","5ec2c14f488b5c0d146da2f9","2025-07-02T10:23:38.585Z","","","","","","drsp","{""Q01"":""1"",""Q02"":""1"",""Q03"":""3"",""Q04"":""2"",""Q05"":""0"",""Q06"":""1"",""Q07"":""0"",""Q08"":""1"",""Q09"":""1"",""Q10"":""1"",""Q11"":""1"",""Q12"":""2"",""Q13"":""2"",""Q14"":""4"",""Q15"":""4"",""Q16"":""0"",""Q17"":""1"",""Q18"":""0"",""Q19"":""0"",""Q20"":""2"",""Q21"":""1""}","[0,1,2,3,4,5,6,7,8,9,10,11,12,13,14,15,16,17,18,19,20]","[""Q01"",""Q02"",""Q03"",""Q04"",""Q05"",""Q06"",""Q07"",""Q08"",""Q09"",""Q10"",""Q11"",""Q12"",""Q13"",""Q14"",""Q15"",""Q15"",""Q16"",""Q17"",""Q16"",""Q18"",""Q19"",""Q20"",""Q21""]","[5359.800000190735,6686.5,12560.300000190735,13702.600000143051,15757.700000047684,22606.60000014305,24700.800000190735,25682.60000014305,28757.200000047684,29967.900000095367,32879.300000190735,35153.5,37590.40000009537,42422,46191.5,49507.5,50844.300000190735,55287.700000047684,55985.700000047684,58289.200000047684,62904.700000047684,66769.90000009537,70671.70000004768]","[]","[0,5359.800000190735,6686.5,11023,12560.300000190735,13702.600000143051,15757.700000047684,22119.800000190735,22606.60000014305,24700.800000190735,25682.60000014305,28757.200000047684,29967.900000095367,32879.300000190735,35153.5,37259.300000190735,37590.40000009537,42422,46191.5,49507.5,50844.300000190735,54467,55287.700000047684,55985.700000047684,58289.200000047684,62904.700000047684,66769.90000009537,70671.70000004768,71497.60000014305]","0.42857142857142855","0.4","0","","","","","","","","","","","","","","","","","","","","","","","","","","","","",""
"12998.900000095367","","","","survey-template","19","314884","0.0-7.0-8.0","31","1","2025-07-02 10:18:36","80fe4187154257d5fb01684ea91b68b9","85.244.210.251","Mozilla/5.0 (Windows NT 10.0; Win64; x64) AppleWebKit/537.36 (KHTML, like Gecko) Chrome/137.0.0.0 Safari/537.36","WebKit","Chrome","137.0.0.0","Windows","10.0","https://app.prolific.com/","pt-PT,pt;q=0.9,en-US;q=0.8,en;q=0.7","5ec2c14f488b5c0d146da2f9","683db6dfa200031b80f2a654","68650768931b62b1940889ed","5ec2c14f488b5c0d146da2f9","2025-07-02T10:23:51.586Z","","","","","","stress","{""Q01"":""2"",""Q02"":""2"",""Q03"":""1""}","[0,1,2]","[""Q01"",""Q02"",""Q03""]","[3421.7000000476837,7082.200000047684,12048.5]","[]","[3421.7000000476837,7082.200000047684,12048.5,12998.100000143051]","0.3333333333333333","0.5","0","","","","","","","","","","","","","","","","","","","","","","","","","","","","",""
"43477","","","","instructions","20","358361","0.0-8.0-0.0","31","1","2025-07-02 10:18:36","80fe4187154257d5fb01684ea91b68b9","85.244.210.251","Mozilla/5.0 (Windows NT 10.0; Win64; x64) AppleWebKit/537.36 (KHTML, like Gecko) Chrome/137.0.0.0 Safari/537.36","WebKit","Chrome","137.0.0.0","Windows","10.0","https://app.prolific.com/","pt-PT,pt;q=0.9,en-US;q=0.8,en;q=0.7","5ec2c14f488b5c0d146da2f9","683db6dfa200031b80f2a654","68650768931b62b1940889ed","5ec2c14f488b5c0d146da2f9","","[{""page_index"":0,""viewing_time"":11173},{""page_index"":1,""viewing_time"":17951},{""page_index"":2,""viewing_time"":4604},{""page_index"":3,""viewing_time"":9748}]","","","","","","","","","","","","","","","","","","","","","","","","","","","","","","","","","","","","","","","","","","",""
"","","","","ctl-task-cpt","21","395654","0.0-8.0-1.0","31","1","2025-07-02 10:18:36","80fe4187154257d5fb01684ea91b68b9","85.244.210.251","Mozilla/5.0 (Windows NT 10.0; Win64; x64) AppleWebKit/537.36 (KHTML, like Gecko) Chrome/137.0.0.0 Safari/537.36","WebKit","Chrome","137.0.0.0","Windows","10.0","https://app.prolific.com/","pt-PT,pt;q=0.9,en-US;q=0.8,en;q=0.7","5ec2c14f488b5c0d146da2f9","683db6dfa200031b80f2a654","68650768931b62b1940889ed","5ec2c14f488b5c0d146da2f9","","","","","","","","","","","","","","","","","win-only","3","g1:SW,g2:NE","1","0","1","360579.4","4577.6","8581.5","34287.9","2","4","4","6","1","2","1","1","0","0.007575757575757576","4003.9","4000","1295","[""down"",""left""]","{""num_key_presses"":8,""num_perfect"":6,""num_errors"":1,""num_randdir"":0,""num_randdir_good_moves"":0,""num_whilered"":1,""num_whileblue"":0,""num_blue"":2,""num_good_moves"":5}","[411.57142857142856,418.47767857142856,0.2,411.57142857142856,418.47767857142856,103.4,411.57142857142856,418.47767857142856,207.9,411.57142857142856,418.47767857142856,313.5,411.57142857142856,418.47767857142856,413.8,411.57142857142856,418.47767857142856,518.2,411.57142857142856,418.47767857142856,624.5,411.57142857142856,418.47767857142856,728.7,411.57142857142856,418.47767857142856,833.4,411.57142857142856,418.47767857142856,934,411.57142857142856,418.47767857142856,1038.2,411.57142857142856,418.47767857142856,1142.9,411.57142857142856,418.47767857142856,1243.7,411.57142857142856,418.47767857142856,1348.6,411.57142857142856,418.47767857142856,1448.8,411.57142857142856,418.47767857142856,1554.3,411.57142857142856,418.47767857142856,1658.7,411.57142857142856,418.47767857142856,1763.5,411.57142857142856,418.47767857142856,1868.1,411.57142857142856,418.47767857142856,1973.1,411.57142857142856,418.47767857142856,2077.6,411.57142857142856,418.47767857142856,2179.1,411.57142857142856,418.47767857142856,2283.2,411.57142857142856,418.47767857142856,2388.3,411.57142857142856,418.47767857142856,2492.9,411.57142857142856,418.47767857142856,2593.2,411.57142857142856,418.47767857142856,2693.6,411.57142857142856,418.47767857142856,2797.7,411.57142857142856,418.47767857142856,2898.2,411.57142857142856,418.47767857142856,2998.3,411.57142857142856,418.47767857142856,3103,411.57142857142856,418.47767857142856,3208.2,411.57142857142856,418.47767857142856,3308.3,411.57142857142856,418.47767857142856,3408.4,411.57142857142856,418.47767857142856,3513.9,411.57142857142856,418.47767857142856,3617.9,411.57142857142856,418.47767857142856,3722.8,411.57142857142856,418.47767857142856,3823.1,411.57142857142856,418.47767857142856,3928.5]","[1477,1477,1000,0,477,""smooth"",""right"",""right"",""bad_move"",2203.3,725.9,2725.4,1477.5,-1999.6,""error"",""-"",""-"",""no_move"",2499.6,296.1,2725.4,1477.5,-1703.3,""while_red"",""-"",""-"",""no_move"",5830.6,3627.1,1996.3,3203.8,630.5,""smooth"",""down"",""down"",""good_move"",8597,2766,2396.3,5831,369.7,""smooth"",""down"",""down"",""good_move"",11673.3,3076,2737.1,8597.3,338.9,""smooth"",""left"",""left"",""good_move"",22207.4,10534,1780.1,19924.9,502.5,""smooth"",""left"",""left"",""good_move"",25617.8,3410.1,2980.7,22207.7,429.4,""smooth"",""left"",""left"",""good_move""]","",""
"6567","","","","instructions","22","402222","0.0-8.0-2.0","31","1","2025-07-02 10:18:36","80fe4187154257d5fb01684ea91b68b9","85.244.210.251","Mozilla/5.0 (Windows NT 10.0; Win64; x64) AppleWebKit/537.36 (KHTML, like Gecko) Chrome/137.0.0.0 Safari/537.36","WebKit","Chrome","137.0.0.0","Windows","10.0","https://app.prolific.com/","pt-PT,pt;q=0.9,en-US;q=0.8,en;q=0.7","5ec2c14f488b5c0d146da2f9","683db6dfa200031b80f2a654","68650768931b62b1940889ed","5ec2c14f488b5c0d146da2f9","","[{""page_index"":0,""viewing_time"":6567}]","","","","","","","","","","","","","","","","","","","","","","","","","","","","","","","","","","","","","","","","","","",""
"","","","","ctl-task-cpt","23","448000","0.0-8.0-3.0","31","1","2025-07-02 10:18:36","80fe4187154257d5fb01684ea91b68b9","85.244.210.251","Mozilla/5.0 (Windows NT 10.0; Win64; x64) AppleWebKit/537.36 (KHTML, like Gecko) Chrome/137.0.0.0 Safari/537.36","WebKit","Chrome","137.0.0.0","Windows","10.0","https://app.prolific.com/","pt-PT,pt;q=0.9,en-US;q=0.8,en;q=0.7","5ec2c14f488b5c0d146da2f9","683db6dfa200031b80f2a654","68650768931b62b1940889ed","5ec2c14f488b5c0d146da2f9","","","","","","","","","","","","","","","","","win-only","3","g1:SW,g2:NE","0.35","0","3","404439","1379.2","5381","42772.7","2","4","8","6","1","-2","-2","0","0","0","4001.8","4000","-3005","[""down"",""left""]","{""num_key_presses"":9,""num_perfect"":4,""num_errors"":0,""num_randdir"":5,""num_randdir_good_moves"":1,""num_whilered"":0,""num_whileblue"":0,""num_blue"":3,""num_good_moves"":5}","[411.57142857142856,425.47767857142856,0.3,411.57142857142856,425.47767857142856,101.5,411.57142857142856,425.47767857142856,206.8,465.57142857142856,422.47767857142856,307.4,665.5714285714286,432.47767857142856,411.1,665.5714285714286,432.47767857142856,517.1,712.5714285714286,431.47767857142856,622,735.5714285714286,426.47767857142856,723.8,735.5714285714286,426.47767857142856,827.5,735.5714285714286,426.47767857142856,931.3,735.5714285714286,426.47767857142856,1032.3,735.5714285714286,426.47767857142856,1136.3,735.5714285714286,426.47767857142856,1237.9,735.5714285714286,426.47767857142856,1342.1,735.5714285714286,426.47767857142856,1446.1,735.5714285714286,426.47767857142856,1546.1,735.5714285714286,426.47767857142856,1647.1,735.5714285714286,426.47767857142856,1751.4,735.5714285714286,426.47767857142856,1852.2,735.5714285714286,426.47767857142856,1952.6,735.5714285714286,426.47767857142856,2057.2,735.5714285714286,426.47767857142856,2161.5,735.5714285714286,426.47767857142856,2262,735.5714285714286,426.47767857142856,2366.7,735.5714285714286,426.47767857142856,2472.5,735.5714285714286,426.47767857142856,2577.8,735.5714285714286,426.47767857142856,2681.1,735.5714285714286,426.47767857142856,2781.5,735.5714285714286,426.47767857142856,2882.2,735.5714285714286,426.47767857142856,2987.3,735.5714285714286,426.47767857142856,3092,735.5714285714286,426.47767857142856,3196.3,735.5714285714286,426.47767857142856,3296.7,735.5714285714286,426.47767857142856,3397.3,735.5714285714286,426.47767857142856,3501.4,735.5714285714286,426.47767857142856,3601.8,735.5714285714286,426.47767857142856,3701.8,735.5714285714286,426.47767857142856,3801.8,735.5714285714286,426.47767857142856,3902.4]","[1330.1,1330.1,1000,0,330.1,""smooth"",""down"",""down"",""good_move"",4638,3307.7,2971.9,1330.3,335.8,""oops"",""left"",""up"",""bad_move"",7538,2899.5,2526.9,4638.5,372.6,""smooth"",""down"",""down"",""good_move"",13244.2,5706.1,1997.3,10786.3,460.6,""smooth"",""left"",""left"",""good_move"",15944.3,2700,2355.8,13244.3,344.2,""oops"",""down"",""up"",""bad_move"",19320.2,3375.6,3029.8,15944.6,345.8,""smooth"",""down"",""down"",""good_move"",21480.2,2159.9,1448.7,19320.3,711.2,""oops"",""down"",""up"",""bad_move"",24908.4,3428,2999.7,21480.4,428.3,""oops"",""down"",""down"",""good_move"",31716.9,6807.9,2687.5,28590.3,439.1,""oops"",""down"",""up"",""bad_move""]","",""
"23917","","","","instructions","24","471917","0.0-8.0-4.0","31","1","2025-07-02 10:18:36","80fe4187154257d5fb01684ea91b68b9","85.244.210.251","Mozilla/5.0 (Windows NT 10.0; Win64; x64) AppleWebKit/537.36 (KHTML, like Gecko) Chrome/137.0.0.0 Safari/537.36","WebKit","Chrome","137.0.0.0","Windows","10.0","https://app.prolific.com/","pt-PT,pt;q=0.9,en-US;q=0.8,en;q=0.7","5ec2c14f488b5c0d146da2f9","683db6dfa200031b80f2a654","68650768931b62b1940889ed","5ec2c14f488b5c0d146da2f9","","[{""page_index"":0,""viewing_time"":6407},{""page_index"":1,""viewing_time"":17510}]","","","","","","","","","","","","","","","","","","","","","","","","","","","","","","","","","","","","","","","","","","",""
"8491","","","{""green_ball"":[""Ball always moves in the direction I press""]}","survey-multi-select","25","480409","0.0-8.0-5.0-0.0","31","1","2025-07-02 10:18:36","80fe4187154257d5fb01684ea91b68b9","85.244.210.251","Mozilla/5.0 (Windows NT 10.0; Win64; x64) AppleWebKit/537.36 (KHTML, like Gecko) Chrome/137.0.0.0 Safari/537.36","WebKit","Chrome","137.0.0.0","Windows","10.0","https://app.prolific.com/","pt-PT,pt;q=0.9,en-US;q=0.8,en;q=0.7","5ec2c14f488b5c0d146da2f9","683db6dfa200031b80f2a654","68650768931b62b1940889ed","5ec2c14f488b5c0d146da2f9","","","[0]","","","","quiz","","","","","","","","","","","","","","","","","","","","","","","","","","","","","","","","","","","","","false",""
"3454","","<p align='center'><b>INCORRECT.</b> Usually the green ball moves in the indicated direction, but sometimes it shakes and moves randomly. </p>","0","html-button-response","26","483864","0.0-8.0-5.0-1.0","31","1","2025-07-02 10:18:36","80fe4187154257d5fb01684ea91b68b9","85.244.210.251","Mozilla/5.0 (Windows NT 10.0; Win64; x64) AppleWebKit/537.36 (KHTML, like Gecko) Chrome/137.0.0.0 Safari/537.36","WebKit","Chrome","137.0.0.0","Windows","10.0","https://app.prolific.com/","pt-PT,pt;q=0.9,en-US;q=0.8,en;q=0.7","5ec2c14f488b5c0d146da2f9","683db6dfa200031b80f2a654","68650768931b62b1940889ed","5ec2c14f488b5c0d146da2f9","","","","","","","","","","","","","","","","","","","","","","","","","","","","","","","","","","","","","","","","","","","","",""
"25298","","","{""green_ball"":[""Ball always moves in the direction I press"",""Ball sometimes shakes and moves in a random direction""]}","survey-multi-select","27","509163","0.0-8.0-5.1-0.1","31","1","2025-07-02 10:18:36","80fe4187154257d5fb01684ea91b68b9","85.244.210.251","Mozilla/5.0 (Windows NT 10.0; Win64; x64) AppleWebKit/537.36 (KHTML, like Gecko) Chrome/137.0.0.0 Safari/537.36","WebKit","Chrome","137.0.0.0","Windows","10.0","https://app.prolific.com/","pt-PT,pt;q=0.9,en-US;q=0.8,en;q=0.7","5ec2c14f488b5c0d146da2f9","683db6dfa200031b80f2a654","68650768931b62b1940889ed","5ec2c14f488b5c0d146da2f9","","","[0]","","","","quiz","","","","","","","","","","","","","","","","","","","","","","","","","","","","","","","","","","","","","false",""
"8635","","<p align='center'><b>INCORRECT.</b> Usually the green ball moves in the indicated direction, but sometimes it shakes and moves randomly. </p>","0","html-button-response","28","517799","0.0-8.0-5.1-1.1","31","1","2025-07-02 10:18:36","80fe4187154257d5fb01684ea91b68b9","85.244.210.251","Mozilla/5.0 (Windows NT 10.0; Win64; x64) AppleWebKit/537.36 (KHTML, like Gecko) Chrome/137.0.0.0 Safari/537.36","WebKit","Chrome","137.0.0.0","Windows","10.0","https://app.prolific.com/","pt-PT,pt;q=0.9,en-US;q=0.8,en;q=0.7","5ec2c14f488b5c0d146da2f9","683db6dfa200031b80f2a654","68650768931b62b1940889ed","5ec2c14f488b5c0d146da2f9","","","","","","","","","","","","","","","","","","","","","","","","","","","","","","","","","","","","","","","","","","","","",""
"4591","","","{""green_ball"":[""Ball sometimes shakes and moves in a random direction""]}","survey-multi-select","29","522391","0.0-8.0-5.2-0.2","31","1","2025-07-02 10:18:36","80fe4187154257d5fb01684ea91b68b9","85.244.210.251","Mozilla/5.0 (Windows NT 10.0; Win64; x64) AppleWebKit/537.36 (KHTML, like Gecko) Chrome/137.0.0.0 Safari/537.36","WebKit","Chrome","137.0.0.0","Windows","10.0","https://app.prolific.com/","pt-PT,pt;q=0.9,en-US;q=0.8,en;q=0.7","5ec2c14f488b5c0d146da2f9","683db6dfa200031b80f2a654","68650768931b62b1940889ed","5ec2c14f488b5c0d146da2f9","","","[0]","","","","quiz","","","","","","","","","","","","","","","","","","","","","","","","","","","","","","","","","","","","","true",""
"2811","","<p align='center'><b>CORRECT!</b> Indeed, the green ball may sometimes shake and move in a random direction.</p>","0","html-button-response","30","525203","0.0-8.0-5.2-1.2","31","1","2025-07-02 10:18:36","80fe4187154257d5fb01684ea91b68b9","85.244.210.251","Mozilla/5.0 (Windows NT 10.0; Win64; x64) AppleWebKit/537.36 (KHTML, like Gecko) Chrome/137.0.0.0 Safari/537.36","WebKit","Chrome","137.0.0.0","Windows","10.0","https://app.prolific.com/","pt-PT,pt;q=0.9,en-US;q=0.8,en;q=0.7","5ec2c14f488b5c0d146da2f9","683db6dfa200031b80f2a654","68650768931b62b1940889ed","5ec2c14f488b5c0d146da2f9","","","","","","","","","","","","","","","","","","","","","","","","","","","","","","","","","","","","","","","","","","","","",""
"6778","","","{""yellow_ball"":[""Ball doesn‘t move and I get -1 penalty point""]}","survey-multi-select","31","531982","0.0-8.0-6.0-0.0","31","1","2025-07-02 10:18:36","80fe4187154257d5fb01684ea91b68b9","85.244.210.251","Mozilla/5.0 (Windows NT 10.0; Win64; x64) AppleWebKit/537.36 (KHTML, like Gecko) Chrome/137.0.0.0 Safari/537.36","WebKit","Chrome","137.0.0.0","Windows","10.0","https://app.prolific.com/","pt-PT,pt;q=0.9,en-US;q=0.8,en;q=0.7","5ec2c14f488b5c0d146da2f9","683db6dfa200031b80f2a654","68650768931b62b1940889ed","5ec2c14f488b5c0d146da2f9","","","[0]","","","","quiz","","","","","","","","","","","","","","","","","","","","","","","","","","","","","","","","","","","","","true",""
"917","","<p align='center'><b>CORRECT!</b> Indeed, the yellow ball never moves and you receive a penalty.</p>","0","html-button-response","32","532900","0.0-8.0-6.0-1.0","31","1","2025-07-02 10:18:36","80fe4187154257d5fb01684ea91b68b9","85.244.210.251","Mozilla/5.0 (Windows NT 10.0; Win64; x64) AppleWebKit/537.36 (KHTML, like Gecko) Chrome/137.0.0.0 Safari/537.36","WebKit","Chrome","137.0.0.0","Windows","10.0","https://app.prolific.com/","pt-PT,pt;q=0.9,en-US;q=0.8,en;q=0.7","5ec2c14f488b5c0d146da2f9","683db6dfa200031b80f2a654","68650768931b62b1940889ed","5ec2c14f488b5c0d146da2f9","","","","","","","","","","","","","","","","","","","","","","","","","","","","","","","","","","","","","","","","","","","","",""
"15433","","","{""blue_ball"":[""Ball always shakes and moves in a random direction""]}","survey-multi-select","33","548334","0.0-8.0-7.0-0.0","31","1","2025-07-02 10:18:36","80fe4187154257d5fb01684ea91b68b9","85.244.210.251","Mozilla/5.0 (Windows NT 10.0; Win64; x64) AppleWebKit/537.36 (KHTML, like Gecko) Chrome/137.0.0.0 Safari/537.36","WebKit","Chrome","137.0.0.0","Windows","10.0","https://app.prolific.com/","pt-PT,pt;q=0.9,en-US;q=0.8,en;q=0.7","5ec2c14f488b5c0d146da2f9","683db6dfa200031b80f2a654","68650768931b62b1940889ed","5ec2c14f488b5c0d146da2f9","","","[0]","","","","quiz","","","","","","","","","","","","","","","","","","","","","","","","","","","","","","","","","","","","","true",""
"2119","","<p align='center'><b>CORRECT!</b> Indeed, the blue ball always shakes and moves in a random direction. Also there is a penalty of -1 point.</p>","0","html-button-response","34","550455","0.0-8.0-7.0-1.0","31","1","2025-07-02 10:18:36","80fe4187154257d5fb01684ea91b68b9","85.244.210.251","Mozilla/5.0 (Windows NT 10.0; Win64; x64) AppleWebKit/537.36 (KHTML, like Gecko) Chrome/137.0.0.0 Safari/537.36","WebKit","Chrome","137.0.0.0","Windows","10.0","https://app.prolific.com/","pt-PT,pt;q=0.9,en-US;q=0.8,en;q=0.7","5ec2c14f488b5c0d146da2f9","683db6dfa200031b80f2a654","68650768931b62b1940889ed","5ec2c14f488b5c0d146da2f9","","","","","","","","","","","","","","","","","","","","","","","","","","","","","","","","","","","","","","","","","","","","",""
"3139","","","{""bonus"":[""When I reach 50% of points""]}","survey-multi-select","35","553595","0.0-8.0-8.0-0.0","31","1","2025-07-02 10:18:36","80fe4187154257d5fb01684ea91b68b9","85.244.210.251","Mozilla/5.0 (Windows NT 10.0; Win64; x64) AppleWebKit/537.36 (KHTML, like Gecko) Chrome/137.0.0.0 Safari/537.36","WebKit","Chrome","137.0.0.0","Windows","10.0","https://app.prolific.com/","pt-PT,pt;q=0.9,en-US;q=0.8,en;q=0.7","5ec2c14f488b5c0d146da2f9","683db6dfa200031b80f2a654","68650768931b62b1940889ed","5ec2c14f488b5c0d146da2f9","","","[0]","","","","quiz","","","","","","","","","","","","","","","","","","","","","","","","","","","","","","","","","","","","","true",""
"928","","<p align='center'><b>CORRECT!</b> Indeed, you receive 2 pounds extra when you reach 50% of points.</p>","0","html-button-response","36","554524","0.0-8.0-8.0-1.0","31","1","2025-07-02 10:18:36","80fe4187154257d5fb01684ea91b68b9","85.244.210.251","Mozilla/5.0 (Windows NT 10.0; Win64; x64) AppleWebKit/537.36 (KHTML, like Gecko) Chrome/137.0.0.0 Safari/537.36","WebKit","Chrome","137.0.0.0","Windows","10.0","https://app.prolific.com/","pt-PT,pt;q=0.9,en-US;q=0.8,en;q=0.7","5ec2c14f488b5c0d146da2f9","683db6dfa200031b80f2a654","68650768931b62b1940889ed","5ec2c14f488b5c0d146da2f9","","","","","","","","","","","","","","","","","","","","","","","","","","","","","","","","","","","","","","","","","","","","",""
"1755","","","","instructions","37","556280","0.0-8.0-9.0","31","1","2025-07-02 10:18:36","80fe4187154257d5fb01684ea91b68b9","85.244.210.251","Mozilla/5.0 (Windows NT 10.0; Win64; x64) AppleWebKit/537.36 (KHTML, like Gecko) Chrome/137.0.0.0 Safari/537.36","WebKit","Chrome","137.0.0.0","Windows","10.0","https://app.prolific.com/","pt-PT,pt;q=0.9,en-US;q=0.8,en;q=0.7","5ec2c14f488b5c0d146da2f9","683db6dfa200031b80f2a654","68650768931b62b1940889ed","5ec2c14f488b5c0d146da2f9","","[{""page_index"":0,""viewing_time"":1755}]","","","","","","","","","","","","","","","","","","","","","","","","","","","","","","","","","","","","","","","","","","",""
"17596","","<p>Before you start with this game please answer the following three questions yourself. </p>
  <p>Through this game, we measure several aspects of your cognitive performance, such as reaction times, multi-tasking capabilities </p>
  <p>and the ability to assess the situation you are in.</p>
  <p></p>
  <p><b>How good do you usually are in such tasks?</b></p>","54","html-slider-response","38","573877","0.0-9.0-0.0","31","1","2025-07-02 10:18:36","80fe4187154257d5fb01684ea91b68b9","85.244.210.251","Mozilla/5.0 (Windows NT 10.0; Win64; x64) AppleWebKit/537.36 (KHTML, like Gecko) Chrome/137.0.0.0 Safari/537.36","WebKit","Chrome","137.0.0.0","Windows","10.0","https://app.prolific.com/","pt-PT,pt;q=0.9,en-US;q=0.8,en;q=0.7","5ec2c14f488b5c0d146da2f9","683db6dfa200031b80f2a654","68650768931b62b1940889ed","5ec2c14f488b5c0d146da2f9","2025-07-02T10:28:10.579Z","","","","","","PreSkillQ","","","","","","","","","","","","","","","","","","","","","","","","","","","","","","","","","","","","","","50"
"4820","","<div style=""width:500px;"">
  <p>How well do you think you will perform in this task compared to other participants?</p>
  </div>","41","html-slider-response","39","578698","0.0-9.0-1.0","31","1","2025-07-02 10:18:36","80fe4187154257d5fb01684ea91b68b9","85.244.210.251","Mozilla/5.0 (Windows NT 10.0; Win64; x64) AppleWebKit/537.36 (KHTML, like Gecko) Chrome/137.0.0.0 Safari/537.36","WebKit","Chrome","137.0.0.0","Windows","10.0","https://app.prolific.com/","pt-PT,pt;q=0.9,en-US;q=0.8,en;q=0.7","5ec2c14f488b5c0d146da2f9","683db6dfa200031b80f2a654","68650768931b62b1940889ed","5ec2c14f488b5c0d146da2f9","2025-07-02T10:28:15.400Z","","","","","","PrePerfQ","","","","","","","","","","","","","","","","","","","","","","","","","","","","","","","","","","","","","","50"
"3244","","<div style=""width:500px;"">
  <p>What best describes how you currently feel?</p>
  </div>","38","html-slider-response","40","581943","0.0-9.0-2.0","31","1","2025-07-02 10:18:36","80fe4187154257d5fb01684ea91b68b9","85.244.210.251","Mozilla/5.0 (Windows NT 10.0; Win64; x64) AppleWebKit/537.36 (KHTML, like Gecko) Chrome/137.0.0.0 Safari/537.36","WebKit","Chrome","137.0.0.0","Windows","10.0","https://app.prolific.com/","pt-PT,pt;q=0.9,en-US;q=0.8,en;q=0.7","5ec2c14f488b5c0d146da2f9","683db6dfa200031b80f2a654","68650768931b62b1940889ed","5ec2c14f488b5c0d146da2f9","2025-07-02T10:28:18.645Z","","","","","","PreMotivationQ","","","","","","","","","","","","","","","","","","","","","","","","","","","","","","","","","","","","","","50"
"","","","","ctl-task-cpt","41","610572","0.0-10.0-0.0","31","1","2025-07-02 10:18:36","80fe4187154257d5fb01684ea91b68b9","85.244.210.251","Mozilla/5.0 (Windows NT 10.0; Win64; x64) AppleWebKit/537.36 (KHTML, like Gecko) Chrome/137.0.0.0 Safari/537.36","WebKit","Chrome","137.0.0.0","Windows","10.0","https://app.prolific.com/","pt-PT,pt;q=0.9,en-US;q=0.8,en;q=0.7","5ec2c14f488b5c0d146da2f9","683db6dfa200031b80f2a654","68650768931b62b1940889ed","5ec2c14f488b5c0d146da2f9","2025-07-02T10:28:47.275Z","","","","","","","","","","","","","","","","win-only","1","g1:NE,g2:SW","1","1","0","584161.8","1198","6200.7","25611.1","1","4","8","6","2","8","8","8","0","0.06060606060606061","1061.2","3000","745","[""down"",""left""]","{""num_key_presses"":6,""num_perfect"":6,""num_errors"":0,""num_randdir"":0,""num_randdir_good_moves"":0,""num_whilered"":0,""num_whileblue"":0,""num_blue"":1,""num_good_moves"":6}","[414.57142857142856,420.47767857142856,0.2,414.57142857142856,420.47767857142856,103,421.57142857142856,409.47767857142856,208,535.5714285714286,293.47767857142856,312.6,659.5714285714286,191.47767857142856,412.6,692.5714285714286,159.47767857142856,517.8,435.57142857142856,377.47767857142856,618.8,152.57142857142856,667.4776785714286,722.4,133.57142857142856,692.4776785714286,822.7,107.57142857142857,709.4776785714286,923.6,83.57142857142857,736.4776785714286,1027.6,76.57142857142857,745.4776785714286,1128.1,76.57142857142857,745.4776785714286,1232.8,82.57142857142857,738.4776785714286,1334.3,107.57142857142857,714.4776785714286,1438.8,144.57142857142856,680.4776785714286,1543.1,156.57142857142856,667.4776785714286,1644.3,156.57142857142856,667.4776785714286,1748.9,156.57142857142856,667.4776785714286,1849.5,156.57142857142856,667.4776785714286,1952.3,156.57142857142856,667.4776785714286,2052.4,156.57142857142856,667.4776785714286,2152.5,156.57142857142856,667.4776785714286,2252.5,156.57142857142856,667.4776785714286,2352.7,156.57142857142856,667.4776785714286,2457.9,156.57142857142856,667.4776785714286,2562.4,156.57142857142856,667.4776785714286,2662.7,156.57142857142856,667.4776785714286,2763.7,156.57142857142856,667.4776785714286,2868.8,156.57142857142856,667.4776785714286,2973.4,156.57142857142856,667.4776785714286,3077.5,156.57142857142856,667.4776785714286,3182.3,156.57142857142856,667.4776785714286,3282.9,156.57142857142856,667.4776785714286,3387.6,156.57142857142856,667.4776785714286,3493.7,156.57142857142856,667.4776785714286,3598.2,156.57142857142856,667.4776785714286,3702.5,156.57142857142856,667.4776785714286,3807.4,156.57142857142856,667.4776785714286,3907.6,156.57142857142856,667.4776785714286,4007.9,156.57142857142856,667.4776785714286,4108.2,156.57142857142856,667.4776785714286,4212.4,156.57142857142856,667.4776785714286,4313.3,156.57142857142856,667.4776785714286,4417.7,156.57142857142856,667.4776785714286,4519.2,156.57142857142856,667.4776785714286,4622.4,156.57142857142856,667.4776785714286,4722.7,156.57142857142856,667.4776785714286,4827.6,156.57142857142856,667.4776785714286,4928.9]","[1538.6,1538.6,1000,0,538.6,""smooth"",""down"",""down"",""good_move"",4886.6,3347.7,2981,1539.1,366.5,""smooth"",""down"",""down"",""good_move"",7792.8,2905.8,2600.7,4887,305.1,""smooth"",""down"",""down"",""good_move"",13429,5636,1938.5,11131.5,359,""smooth"",""left"",""left"",""good_move"",16504.9,3075.6,2703.9,13429.3,371.7,""smooth"",""left"",""left"",""good_move"",19323.3,2818.1,2471.3,16505.2,346.8,""smooth"",""left"",""left"",""good_move""]","",""
"5194","","<div style=""width:500px;"">
  <p>What determined the result of this run?</p>
  </div>","75","html-slider-response","42","615768","0.0-10.0-1.0","31","1","2025-07-02 10:18:36","80fe4187154257d5fb01684ea91b68b9","85.244.210.251","Mozilla/5.0 (Windows NT 10.0; Win64; x64) AppleWebKit/537.36 (KHTML, like Gecko) Chrome/137.0.0.0 Safari/537.36","WebKit","Chrome","137.0.0.0","Windows","10.0","https://app.prolific.com/","pt-PT,pt;q=0.9,en-US;q=0.8,en;q=0.7","5ec2c14f488b5c0d146da2f9","683db6dfa200031b80f2a654","68650768931b62b1940889ed","5ec2c14f488b5c0d146da2f9","2025-07-02T10:28:52.470Z","","","","","","AttribQ","","","","","","","","","","","","","","","","","","","","","","","","","","","","","","","","","","","","","","50"
"3313","","<div style=""width:500px;"">
  <p>How much control did you have over the ball?</p>
  </div>","100","html-slider-response","43","619082","0.0-10.0-2.0","31","1","2025-07-02 10:18:36","80fe4187154257d5fb01684ea91b68b9","85.244.210.251","Mozilla/5.0 (Windows NT 10.0; Win64; x64) AppleWebKit/537.36 (KHTML, like Gecko) Chrome/137.0.0.0 Safari/537.36","WebKit","Chrome","137.0.0.0","Windows","10.0","https://app.prolific.com/","pt-PT,pt;q=0.9,en-US;q=0.8,en;q=0.7","5ec2c14f488b5c0d146da2f9","683db6dfa200031b80f2a654","68650768931b62b1940889ed","5ec2c14f488b5c0d146da2f9","2025-07-02T10:28:55.784Z","","","","","","ControlQ","","","","","","","","","","","","","","","","","","","","","","","","","","","","","","","","","","","","","","50"
"6279","","<div style=""width:500px;"">
  <p>How would you describe your current emotional state?</p>
  </div>","55","html-slider-response","44","625361","0.0-10.0-3.0","31","1","2025-07-02 10:18:36","80fe4187154257d5fb01684ea91b68b9","85.244.210.251","Mozilla/5.0 (Windows NT 10.0; Win64; x64) AppleWebKit/537.36 (KHTML, like Gecko) Chrome/137.0.0.0 Safari/537.36","WebKit","Chrome","137.0.0.0","Windows","10.0","https://app.prolific.com/","pt-PT,pt;q=0.9,en-US;q=0.8,en;q=0.7","5ec2c14f488b5c0d146da2f9","683db6dfa200031b80f2a654","68650768931b62b1940889ed","5ec2c14f488b5c0d146da2f9","2025-07-02T10:29:02.063Z","","","","","","StressQ","","","","","","","","","","","","","","","","","","","","","","","","","","","","","","","","","","","","","","50"
"3022","","<div style=""width:500px;"">
  <p>What best describes how you currently feel?</p>
  </div>","46","html-slider-response","45","628384","0.0-10.0-4.0","31","1","2025-07-02 10:18:36","80fe4187154257d5fb01684ea91b68b9","85.244.210.251","Mozilla/5.0 (Windows NT 10.0; Win64; x64) AppleWebKit/537.36 (KHTML, like Gecko) Chrome/137.0.0.0 Safari/537.36","WebKit","Chrome","137.0.0.0","Windows","10.0","https://app.prolific.com/","pt-PT,pt;q=0.9,en-US;q=0.8,en;q=0.7","5ec2c14f488b5c0d146da2f9","683db6dfa200031b80f2a654","68650768931b62b1940889ed","5ec2c14f488b5c0d146da2f9","2025-07-02T10:29:05.086Z","","","","","","MotivationQ","","","","","","","","","","","","","","","","","","","","","","","","","","","","","","","","","","","","","","50"
"","","","","ctl-task-cpt","46","657756","0.0-10.0-0.1","31","1","2025-07-02 10:18:36","80fe4187154257d5fb01684ea91b68b9","85.244.210.251","Mozilla/5.0 (Windows NT 10.0; Win64; x64) AppleWebKit/537.36 (KHTML, like Gecko) Chrome/137.0.0.0 Safari/537.36","WebKit","Chrome","137.0.0.0","Windows","10.0","https://app.prolific.com/","pt-PT,pt;q=0.9,en-US;q=0.8,en;q=0.7","5ec2c14f488b5c0d146da2f9","683db6dfa200031b80f2a654","68650768931b62b1940889ed","5ec2c14f488b5c0d146da2f9","2025-07-02T10:29:34.458Z","","","","","","","","","","","","","","","","win-only","3","g1:SW,g2:NE","0.9","2","0","630601.8","1003.9","6006","26355.8","1","4","4","6","2","4","3","11","8","0.08333333333333333","945.9","3000","735","[""up"",""right""]","{""num_key_presses"":6,""num_perfect"":5,""num_errors"":1,""num_randdir"":0,""num_randdir_good_moves"":0,""num_whilered"":0,""num_whileblue"":1,""num_blue"":2,""num_good_moves"":6}","[408.57142857142856,421.47767857142856,0.2,408.57142857142856,421.47767857142856,103.3,408.57142857142856,421.47767857142856,207.1,408.57142857142856,421.47767857142856,311.8,408.57142857142856,422.47767857142856,416.5,430.57142857142856,405.47767857142856,517.4,572.5714285714286,270.47767857142856,622.8,660.5714285714286,188.47767857142856,727.8,699.5714285714286,138.47767857142856,833.1,738.5714285714286,106.47767857142857,936.7,740.5714285714286,105.47767857142857,1036.8,740.5714285714286,105.47767857142857,1137.2,740.5714285714286,105.47767857142857,1242.9,740.5714285714286,106.47767857142857,1347,740.5714285714286,106.47767857142857,1448.3,740.5714285714286,106.47767857142857,1553.1,740.5714285714286,106.47767857142857,1658.2,740.5714285714286,106.47767857142857,1761.6,740.5714285714286,106.47767857142857,1866.4,740.5714285714286,106.47767857142857,1966.8,740.5714285714286,106.47767857142857,2067.5,740.5714285714286,106.47767857142857,2172.3,740.5714285714286,106.47767857142857,2276.3,740.5714285714286,107.47767857142857,2376.8,740.5714285714286,108.47767857142857,2476.8,740.5714285714286,108.47767857142857,2582.2,740.5714285714286,110.47767857142857,2687.3,740.5714285714286,111.47767857142857,2791.3,740.5714285714286,111.47767857142857,2892.1,740.5714285714286,111.47767857142857,2996.3,740.5714285714286,110.47767857142857,3096.7,740.5714285714286,109.47767857142857,3197.2,740.5714285714286,109.47767857142857,3297.8,740.5714285714286,108.47767857142857,3402.4,740.5714285714286,108.47767857142857,3506.5,740.5714285714286,108.47767857142857,3607.2,740.5714285714286,106.47767857142857,3712.4,740.5714285714286,104.47767857142857,3817.3,740.5714285714286,103.47767857142857,3921.6,740.5714285714286,103.47767857142857,4022.1,740.5714285714286,103.47767857142857,4123,740.5714285714286,103.47767857142857,4227.4,740.5714285714286,102.47767857142857,4331.7,740.5714285714286,102.47767857142857,4431.8,740.5714285714286,102.47767857142857,4532.3,740.5714285714286,102.47767857142857,4637.5,740.5714285714286,102.47767857142857,4742.3,740.5714285714286,102.47767857142857,4846.5,740.5714285714286,102.47767857142857,4947.3]","[1579.6,1579.6,1000,0,579.6,""smooth"",""up"",""up"",""good_move"",5199.6,3619.5,3330.2,1580.1,289.3,""while_blue"",""up"",""right"",""good_move"",12224.8,7024.7,2528.2,9224.9,471.7,""smooth"",""up"",""up"",""good_move"",15364.6,3139.6,2784.4,12225,355.2,""smooth"",""right"",""right"",""good_move"",18512.7,3147.8,2714.6,15364.9,433.2,""smooth"",""right"",""right"",""good_move"",20267.1,1754.2,1301,18513,453.1,""smooth"",""up"",""up"",""good_move""]","",""
"3383","","<div style=""width:500px;"">
  <p>What determined the result of this run?</p>
  </div>","61","html-slider-response","47","661140","0.0-10.0-1.1","31","1","2025-07-02 10:18:36","80fe4187154257d5fb01684ea91b68b9","85.244.210.251","Mozilla/5.0 (Windows NT 10.0; Win64; x64) AppleWebKit/537.36 (KHTML, like Gecko) Chrome/137.0.0.0 Safari/537.36","WebKit","Chrome","137.0.0.0","Windows","10.0","https://app.prolific.com/","pt-PT,pt;q=0.9,en-US;q=0.8,en;q=0.7","5ec2c14f488b5c0d146da2f9","683db6dfa200031b80f2a654","68650768931b62b1940889ed","5ec2c14f488b5c0d146da2f9","2025-07-02T10:29:37.842Z","","","","","","AttribQ","","","","","","","","","","","","","","","","","","","","","","","","","","","","","","","","","","","","","","50"
"2811","","<div style=""width:500px;"">
  <p>How much control did you have over the ball?</p>
  </div>","100","html-slider-response","48","663951","0.0-10.0-2.1","31","1","2025-07-02 10:18:36","80fe4187154257d5fb01684ea91b68b9","85.244.210.251","Mozilla/5.0 (Windows NT 10.0; Win64; x64) AppleWebKit/537.36 (KHTML, like Gecko) Chrome/137.0.0.0 Safari/537.36","WebKit","Chrome","137.0.0.0","Windows","10.0","https://app.prolific.com/","pt-PT,pt;q=0.9,en-US;q=0.8,en;q=0.7","5ec2c14f488b5c0d146da2f9","683db6dfa200031b80f2a654","68650768931b62b1940889ed","5ec2c14f488b5c0d146da2f9","2025-07-02T10:29:40.653Z","","","","","","ControlQ","","","","","","","","","","","","","","","","","","","","","","","","","","","","","","","","","","","","","","50"
"5633","","<div style=""width:500px;"">
  <p>How would you describe your current emotional state?</p>
  </div>","56","html-slider-response","49","669585","0.0-10.0-3.1","31","1","2025-07-02 10:18:36","80fe4187154257d5fb01684ea91b68b9","85.244.210.251","Mozilla/5.0 (Windows NT 10.0; Win64; x64) AppleWebKit/537.36 (KHTML, like Gecko) Chrome/137.0.0.0 Safari/537.36","WebKit","Chrome","137.0.0.0","Windows","10.0","https://app.prolific.com/","pt-PT,pt;q=0.9,en-US;q=0.8,en;q=0.7","5ec2c14f488b5c0d146da2f9","683db6dfa200031b80f2a654","68650768931b62b1940889ed","5ec2c14f488b5c0d146da2f9","2025-07-02T10:29:46.287Z","","","","","","StressQ","","","","","","","","","","","","","","","","","","","","","","","","","","","","","","","","","","","","","","50"
"3547","","<div style=""width:500px;"">
  <p>What best describes how you currently feel?</p>
  </div>","41","html-slider-response","50","673133","0.0-10.0-4.1","31","1","2025-07-02 10:18:36","80fe4187154257d5fb01684ea91b68b9","85.244.210.251","Mozilla/5.0 (Windows NT 10.0; Win64; x64) AppleWebKit/537.36 (KHTML, like Gecko) Chrome/137.0.0.0 Safari/537.36","WebKit","Chrome","137.0.0.0","Windows","10.0","https://app.prolific.com/","pt-PT,pt;q=0.9,en-US;q=0.8,en;q=0.7","5ec2c14f488b5c0d146da2f9","683db6dfa200031b80f2a654","68650768931b62b1940889ed","5ec2c14f488b5c0d146da2f9","2025-07-02T10:29:49.835Z","","","","","","MotivationQ","","","","","","","","","","","","","","","","","","","","","","","","","","","","","","","","","","","","","","50"
"","","","","ctl-task-cpt","51","706092","0.0-10.0-0.2","31","1","2025-07-02 10:18:36","80fe4187154257d5fb01684ea91b68b9","85.244.210.251","Mozilla/5.0 (Windows NT 10.0; Win64; x64) AppleWebKit/537.36 (KHTML, like Gecko) Chrome/137.0.0.0 Safari/537.36","WebKit","Chrome","137.0.0.0","Windows","10.0","https://app.prolific.com/","pt-PT,pt;q=0.9,en-US;q=0.8,en;q=0.7","5ec2c14f488b5c0d146da2f9","683db6dfa200031b80f2a654","68650768931b62b1940889ed","5ec2c14f488b5c0d146da2f9","2025-07-02T10:30:22.794Z","","","","","","","","","","","","","","","","win-only","1","g1:NE,g2:SW","0.8","3","0","675350.9","1025.1","6026.8","29940.6","1","4","4","6","2","4","4","15","11","0.11363636363636363","842","3000","20","[""down"",""left""]","{""num_key_presses"":8,""num_perfect"":6,""num_errors"":0,""num_randdir"":2,""num_randdir_good_moves"":1,""num_whilered"":0,""num_whileblue"":0,""num_blue"":1,""num_good_moves"":7}","[413.57142857142856,424.47767857142856,0.1,413.57142857142856,424.47767857142856,100.1,413.57142857142856,424.47767857142856,201.6,413.57142857142856,424.47767857142856,305.4,401.57142857142856,438.47767857142856,410.1,203.57142857142856,622.4776785714286,510.1,119.57142857142857,711.4776785714286,610.6,95.57142857142857,737.4776785714286,710.8,84.57142857142857,747.4776785714286,815.3,83.57142857142857,748.4776785714286,916.3,83.57142857142857,747.4776785714286,1020.2,97.57142857142857,728.4776785714286,1120.3,184.57142857142856,598.4776785714286,1225.3,282.57142857142856,500.47767857142856,1325.6,282.57142857142856,500.47767857142856,1430.9,282.57142857142856,500.47767857142856,1535.3,282.57142857142856,500.47767857142856,1635.9,282.57142857142856,500.47767857142856,1736.8,282.57142857142856,500.47767857142856,1841.7,282.57142857142856,500.47767857142856,1946.5,282.57142857142856,500.47767857142856,2050.6,282.57142857142856,500.47767857142856,2150.8,282.57142857142856,500.47767857142856,2255.2,282.57142857142856,500.47767857142856,2355.9,282.57142857142856,500.47767857142856,2460.4,282.57142857142856,500.47767857142856,2560.8,282.57142857142856,500.47767857142856,2666.6,282.57142857142856,500.47767857142856,2770.4,282.57142857142856,500.47767857142856,2875.4,282.57142857142856,500.47767857142856,2975.5,282.57142857142856,500.47767857142856,3075.7,282.57142857142856,500.47767857142856,3180.6,282.57142857142856,500.47767857142856,3285.5,282.57142857142856,500.47767857142856,3390.6,282.57142857142856,500.47767857142856,3491,282.57142857142856,500.47767857142856,3595.9,282.57142857142856,500.47767857142856,3700.8,282.57142857142856,500.47767857142856,3805.7,282.57142857142856,500.47767857142856,3910.7,282.57142857142856,500.47767857142856,4010.7,282.57142857142856,500.47767857142856,4110.9,282.57142857142856,500.47767857142856,4216.3,282.57142857142856,500.47767857142856,4320.9,282.57142857142856,500.47767857142856,4421.1,282.57142857142856,500.47767857142856,4525.9,282.57142857142856,500.47767857142856,4630.1,282.57142857142856,500.47767857142856,4730.7,282.57142857142856,500.47767857142856,4835.4,282.57142857142856,500.47767857142856,4941.8]","[1506.1,1506.4,1000,0,506.4,""oops"",""down"",""left"",""good_move"",3882.2,2375.3,1929.9,1506.9,445.4,""smooth"",""down"",""down"",""good_move"",9545.9,5663.3,2267.1,6949.2,329.6,""smooth"",""down"",""down"",""good_move"",12838.3,3292.2,2899.8,9546.1,392.4,""oops"",""left"",""up"",""bad_move"",15633.8,2795.1,2401.3,12838.8,393.7,""smooth"",""left"",""left"",""good_move"",18826.5,3192.3,2865.5,15634.2,326.8,""smooth"",""down"",""down"",""good_move"",21876.3,3049.5,2730.6,18826.8,318.9,""smooth"",""left"",""left"",""good_move"",23824.7,1948.1,1635.9,21876.6,312.2,""smooth"",""down"",""down"",""good_move""]","",""
"4141","","<div style=""width:500px;"">
  <p>What determined the result of this run?</p>
  </div>","54","html-slider-response","52","710234","0.0-10.0-1.2","31","1","2025-07-02 10:18:36","80fe4187154257d5fb01684ea91b68b9","85.244.210.251","Mozilla/5.0 (Windows NT 10.0; Win64; x64) AppleWebKit/537.36 (KHTML, like Gecko) Chrome/137.0.0.0 Safari/537.36","WebKit","Chrome","137.0.0.0","Windows","10.0","https://app.prolific.com/","pt-PT,pt;q=0.9,en-US;q=0.8,en;q=0.7","5ec2c14f488b5c0d146da2f9","683db6dfa200031b80f2a654","68650768931b62b1940889ed","5ec2c14f488b5c0d146da2f9","2025-07-02T10:30:26.936Z","","","","","","AttribQ","","","","","","","","","","","","","","","","","","","","","","","","","","","","","","","","","","","","","","50"
"3691","","<div style=""width:500px;"">
  <p>How much control did you have over the ball?</p>
  </div>","58","html-slider-response","53","713926","0.0-10.0-2.2","31","1","2025-07-02 10:18:36","80fe4187154257d5fb01684ea91b68b9","85.244.210.251","Mozilla/5.0 (Windows NT 10.0; Win64; x64) AppleWebKit/537.36 (KHTML, like Gecko) Chrome/137.0.0.0 Safari/537.36","WebKit","Chrome","137.0.0.0","Windows","10.0","https://app.prolific.com/","pt-PT,pt;q=0.9,en-US;q=0.8,en;q=0.7","5ec2c14f488b5c0d146da2f9","683db6dfa200031b80f2a654","68650768931b62b1940889ed","5ec2c14f488b5c0d146da2f9","2025-07-02T10:30:30.628Z","","","","","","ControlQ","","","","","","","","","","","","","","","","","","","","","","","","","","","","","","","","","","","","","","50"
"3758","","<div style=""width:500px;"">
  <p>How would you describe your current emotional state?</p>
  </div>","55","html-slider-response","54","717685","0.0-10.0-3.2","31","1","2025-07-02 10:18:36","80fe4187154257d5fb01684ea91b68b9","85.244.210.251","Mozilla/5.0 (Windows NT 10.0; Win64; x64) AppleWebKit/537.36 (KHTML, like Gecko) Chrome/137.0.0.0 Safari/537.36","WebKit","Chrome","137.0.0.0","Windows","10.0","https://app.prolific.com/","pt-PT,pt;q=0.9,en-US;q=0.8,en;q=0.7","5ec2c14f488b5c0d146da2f9","683db6dfa200031b80f2a654","68650768931b62b1940889ed","5ec2c14f488b5c0d146da2f9","2025-07-02T10:30:34.387Z","","","","","","StressQ","","","","","","","","","","","","","","","","","","","","","","","","","","","","","","","","","","","","","","50"
"3203","","<div style=""width:500px;"">
  <p>What best describes how you currently feel?</p>
  </div>","34","html-slider-response","55","720889","0.0-10.0-4.2","31","1","2025-07-02 10:18:36","80fe4187154257d5fb01684ea91b68b9","85.244.210.251","Mozilla/5.0 (Windows NT 10.0; Win64; x64) AppleWebKit/537.36 (KHTML, like Gecko) Chrome/137.0.0.0 Safari/537.36","WebKit","Chrome","137.0.0.0","Windows","10.0","https://app.prolific.com/","pt-PT,pt;q=0.9,en-US;q=0.8,en;q=0.7","5ec2c14f488b5c0d146da2f9","683db6dfa200031b80f2a654","68650768931b62b1940889ed","5ec2c14f488b5c0d146da2f9","2025-07-02T10:30:37.591Z","","","","","","MotivationQ","","","","","","","","","","","","","","","","","","","","","","","","","","","","","","","","","","","","","","50"
"","","","","ctl-task-cpt","56","758014","0.0-10.0-0.3","31","1","2025-07-02 10:18:36","80fe4187154257d5fb01684ea91b68b9","85.244.210.251","Mozilla/5.0 (Windows NT 10.0; Win64; x64) AppleWebKit/537.36 (KHTML, like Gecko) Chrome/137.0.0.0 Safari/537.36","WebKit","Chrome","137.0.0.0","Windows","10.0","https://app.prolific.com/","pt-PT,pt;q=0.9,en-US;q=0.8,en;q=0.7","5ec2c14f488b5c0d146da2f9","683db6dfa200031b80f2a654","68650768931b62b1940889ed","5ec2c14f488b5c0d146da2f9","2025-07-02T10:31:14.716Z","","","","","","","","","","","","","","","","win-only","3","g1:SW,g2:NE","0.7","4","0","723106.2","776.1","5780.5","34107","1","4","8","6","2","-8","-9","6","15","0.045454545454545456","891.1","3000","-3015","[""up"",""right""]","{""num_key_presses"":9,""num_perfect"":5,""num_errors"":1,""num_randdir"":3,""num_randdir_good_moves"":1,""num_whilered"":0,""num_whileblue"":1,""num_blue"":1,""num_good_moves"":6}","[417.57142857142856,421.47767857142856,0.2,417.57142857142856,421.47767857142856,105.9,417.57142857142856,421.47767857142856,210.3,417.57142857142856,421.47767857142856,314.5,412.57142857142856,456.47767857142856,421.9,513.5714285714286,363.47767857142856,525.5,632.5714285714286,230.47767857142856,625.9,685.5714285714286,158.47767857142856,731.1,714.5714285714286,108.47767857142857,835,719.5714285714286,100.47767857142857,939.7,719.5714285714286,100.47767857142857,1045.6,719.5714285714286,100.47767857142857,1149.9,719.5714285714286,100.47767857142857,1250.2,719.5714285714286,100.47767857142857,1355.1,719.5714285714286,100.47767857142857,1455.5,719.5714285714286,100.47767857142857,1559.7,719.5714285714286,100.47767857142857,1660,719.5714285714286,100.47767857142857,1764.4,719.5714285714286,100.47767857142857,1865.2,719.5714285714286,100.47767857142857,1969.7,719.5714285714286,100.47767857142857,2074.4,719.5714285714286,100.47767857142857,2174.9,719.5714285714286,100.47767857142857,2275.1,719.5714285714286,100.47767857142857,2379.5,719.5714285714286,100.47767857142857,2480.1,719.5714285714286,100.47767857142857,2584.8,719.5714285714286,100.47767857142857,2685,719.5714285714286,100.47767857142857,2785.3,719.5714285714286,100.47767857142857,2889.3,719.5714285714286,100.47767857142857,2990.1,719.5714285714286,100.47767857142857,3094.2,719.5714285714286,100.47767857142857,3195.7,719.5714285714286,100.47767857142857,3300.1,719.5714285714286,100.47767857142857,3404.3,719.5714285714286,100.47767857142857,3504.3,719.5714285714286,100.47767857142857,3604.5,719.5714285714286,100.47767857142857,3709.5,719.5714285714286,100.47767857142857,3810,719.5714285714286,100.47767857142857,3914.3,719.5714285714286,100.47767857142857,4019.8,719.5714285714286,100.47767857142857,4124.3,719.5714285714286,100.47767857142857,4226,719.5714285714286,100.47767857142857,4329.9,719.5714285714286,100.47767857142857,4430.8,719.5714285714286,100.47767857142857,4534.8,719.5714285714286,100.47767857142857,4639.6,719.5714285714286,100.47767857142857,4739.8,719.5714285714286,100.47767857142857,4844.3,719.5714285714286,100.47767857142857,4945.1]","[1444.2,1444.3,1000,0,444.3,""smooth"",""up"",""up"",""good_move"",4596.2,3151.4,2846.4,1444.9,304.9,""smooth"",""up"",""up"",""good_move"",8280.6,3684.3,3334.2,4596.4,350,""smooth"",""right"",""right"",""good_move"",11120.3,2839.3,2495.7,8281,343.6,""smooth"",""right"",""right"",""good_move"",14758.7,3638.2,3299.4,11120.5,338.8,""oops"",""up"",""left"",""bad_move"",17570.5,2811.5,2476.9,14759,334.6,""while_blue"",""up"",""down"",""bad_move"",19986.6,2415.8,2053.7,17570.8,362.1,""oops"",""right"",""right"",""good_move"",22676.8,2689.9,2345.2,19986.9,344.7,""smooth"",""up"",""up"",""good_move"",25050.9,2373.5,2117.9,22677.4,255.6,""oops"",""right"",""left"",""bad_move""]","",""
"3310","","<div style=""width:500px;"">
  <p>What determined the result of this run?</p>
  </div>","0","html-slider-response","57","761325","0.0-10.0-1.3","31","1","2025-07-02 10:18:36","80fe4187154257d5fb01684ea91b68b9","85.244.210.251","Mozilla/5.0 (Windows NT 10.0; Win64; x64) AppleWebKit/537.36 (KHTML, like Gecko) Chrome/137.0.0.0 Safari/537.36","WebKit","Chrome","137.0.0.0","Windows","10.0","https://app.prolific.com/","pt-PT,pt;q=0.9,en-US;q=0.8,en;q=0.7","5ec2c14f488b5c0d146da2f9","683db6dfa200031b80f2a654","68650768931b62b1940889ed","5ec2c14f488b5c0d146da2f9","2025-07-02T10:31:18.027Z","","","","","","AttribQ","","","","","","","","","","","","","","","","","","","","","","","","","","","","","","","","","","","","","","50"
"3841","","<div style=""width:500px;"">
  <p>How much control did you have over the ball?</p>
  </div>","17","html-slider-response","58","765166","0.0-10.0-2.3","31","1","2025-07-02 10:18:36","80fe4187154257d5fb01684ea91b68b9","85.244.210.251","Mozilla/5.0 (Windows NT 10.0; Win64; x64) AppleWebKit/537.36 (KHTML, like Gecko) Chrome/137.0.0.0 Safari/537.36","WebKit","Chrome","137.0.0.0","Windows","10.0","https://app.prolific.com/","pt-PT,pt;q=0.9,en-US;q=0.8,en;q=0.7","5ec2c14f488b5c0d146da2f9","683db6dfa200031b80f2a654","68650768931b62b1940889ed","5ec2c14f488b5c0d146da2f9","2025-07-02T10:31:21.868Z","","","","","","ControlQ","","","","","","","","","","","","","","","","","","","","","","","","","","","","","","","","","","","","","","50"
"2543","","<div style=""width:500px;"">
  <p>How would you describe your current emotional state?</p>
  </div>","65","html-slider-response","59","767710","0.0-10.0-3.3","31","1","2025-07-02 10:18:36","80fe4187154257d5fb01684ea91b68b9","85.244.210.251","Mozilla/5.0 (Windows NT 10.0; Win64; x64) AppleWebKit/537.36 (KHTML, like Gecko) Chrome/137.0.0.0 Safari/537.36","WebKit","Chrome","137.0.0.0","Windows","10.0","https://app.prolific.com/","pt-PT,pt;q=0.9,en-US;q=0.8,en;q=0.7","5ec2c14f488b5c0d146da2f9","683db6dfa200031b80f2a654","68650768931b62b1940889ed","5ec2c14f488b5c0d146da2f9","2025-07-02T10:31:24.412Z","","","","","","StressQ","","","","","","","","","","","","","","","","","","","","","","","","","","","","","","","","","","","","","","50"
"2388","","<div style=""width:500px;"">
  <p>What best describes how you currently feel?</p>
  </div>","26","html-slider-response","60","770099","0.0-10.0-4.3","31","1","2025-07-02 10:18:36","80fe4187154257d5fb01684ea91b68b9","85.244.210.251","Mozilla/5.0 (Windows NT 10.0; Win64; x64) AppleWebKit/537.36 (KHTML, like Gecko) Chrome/137.0.0.0 Safari/537.36","WebKit","Chrome","137.0.0.0","Windows","10.0","https://app.prolific.com/","pt-PT,pt;q=0.9,en-US;q=0.8,en;q=0.7","5ec2c14f488b5c0d146da2f9","683db6dfa200031b80f2a654","68650768931b62b1940889ed","5ec2c14f488b5c0d146da2f9","2025-07-02T10:31:26.801Z","","","","","","MotivationQ","","","","","","","","","","","","","","","","","","","","","","","","","","","","","","","","","","","","","","50"
"","","","","ctl-task-cpt","61","801579","0.0-10.0-0.4","31","1","2025-07-02 10:18:36","80fe4187154257d5fb01684ea91b68b9","85.244.210.251","Mozilla/5.0 (Windows NT 10.0; Win64; x64) AppleWebKit/537.36 (KHTML, like Gecko) Chrome/137.0.0.0 Safari/537.36","WebKit","Chrome","137.0.0.0","Windows","10.0","https://app.prolific.com/","pt-PT,pt;q=0.9,en-US;q=0.8,en;q=0.7","5ec2c14f488b5c0d146da2f9","683db6dfa200031b80f2a654","68650768931b62b1940889ed","5ec2c14f488b5c0d146da2f9","2025-07-02T10:31:58.281Z","","","","","","","","","","","","","","","","win-only","0","g1:NW,g2:SE","0.6","5","0","772317","804.2","5806.1","28461.8","1","4","4","6","2","-4","-4","2","6","0.015151515151515152","3104.6","3000","-3005","[""down"",""right""]","{""num_key_presses"":8,""num_perfect"":5,""num_errors"":0,""num_randdir"":3,""num_randdir_good_moves"":2,""num_whilered"":0,""num_whileblue"":0,""num_blue"":0,""num_good_moves"":6}","[425.57142857142856,423.47767857142856,0.2,425.57142857142856,422.47767857142856,102.2,425.57142857142856,422.47767857142856,206.9,425.57142857142856,422.47767857142856,311.8,425.57142857142856,422.47767857142856,416.6,424.57142857142856,424.47767857142856,521.9,432.57142857142856,450.47767857142856,626.8,484.57142857142856,510.47767857142856,731.4,580.5714285714286,579.4776785714286,832.2,659.5714285714286,632.4776785714286,932.4,707.5714285714286,663.4776785714286,1036.2,723.5714285714286,677.4776785714286,1136.3,726.5714285714286,682.4776785714286,1236.7,737.5714285714286,697.4776785714286,1341.8,750.5714285714286,718.4776785714286,1446.9,755.5714285714286,727.4776785714286,1547,755.5714285714286,728.4776785714286,1651.8,755.5714285714286,728.4776785714286,1758.4,755.5714285714286,728.4776785714286,1861.9,755.5714285714286,728.4776785714286,1968,755.5714285714286,728.4776785714286,2071.8,755.5714285714286,728.4776785714286,2173.1,755.5714285714286,728.4776785714286,2276.3,755.5714285714286,728.4776785714286,2382.1,755.5714285714286,728.4776785714286,2486.9,755.5714285714286,728.4776785714286,2586.9,755.5714285714286,728.4776785714286,2691.3,755.5714285714286,728.4776785714286,2791.3,755.5714285714286,728.4776785714286,2892.3,755.5714285714286,728.4776785714286,2996.1,755.5714285714286,728.4776785714286,3096.1,755.5714285714286,728.4776785714286,3197.1,755.5714285714286,728.4776785714286,3301.3,755.5714285714286,728.4776785714286,3401.7,754.5714285714286,724.4776785714286,3502,752.5714285714286,721.4776785714286,3606.6,752.5714285714286,721.4776785714286,3707.6,741.5714285714286,673.4776785714286,3811.6,763.5714285714286,510.47767857142856,3911.7,807.5714285714286,447.47767857142856,4012.3,814.5714285714286,443.47767857142856,4116.4,814.5714285714286,443.47767857142856,4216.4,814.5714285714286,443.47767857142856,4317.3,814.5714285714286,443.47767857142856,4422.3,814.5714285714286,443.47767857142856,4526,814.5714285714286,443.47767857142856,4627.1,814.5714285714286,443.47767857142856,4732.2,814.5714285714286,443.47767857142856,4832.4,814.5714285714286,443.47767857142856,4937.8]","[1471,1471,1000,0,471,""oops"",""right"",""down"",""good_move"",3667.2,2195.9,1541.5,1471.3,654.4,""smooth"",""left"",""left"",""bad_move"",6491.2,2823.7,2514.3,3667.5,309.4,""smooth"",""down"",""down"",""good_move"",8495.1,2003.7,1645.3,6491.4,358.4,""smooth"",""down"",""down"",""good_move"",11230.8,2735.6,2469.1,8495.3,266.5,""oops"",""right"",""left"",""bad_move"",14189,2957.8,2603,11231.2,354.8,""smooth"",""right"",""right"",""good_move"",17195,3005.7,2759,14189.3,246.7,""smooth"",""right"",""right"",""good_move"",20455.3,3260.1,2960.4,17195.2,299.7,""oops"",""right"",""right"",""good_move""]","",""
"3465","","<div style=""width:500px;"">
  <p>What determined the result of this run?</p>
  </div>","32","html-slider-response","62","805045","0.0-10.0-1.4","31","1","2025-07-02 10:18:36","80fe4187154257d5fb01684ea91b68b9","85.244.210.251","Mozilla/5.0 (Windows NT 10.0; Win64; x64) AppleWebKit/537.36 (KHTML, like Gecko) Chrome/137.0.0.0 Safari/537.36","WebKit","Chrome","137.0.0.0","Windows","10.0","https://app.prolific.com/","pt-PT,pt;q=0.9,en-US;q=0.8,en;q=0.7","5ec2c14f488b5c0d146da2f9","683db6dfa200031b80f2a654","68650768931b62b1940889ed","5ec2c14f488b5c0d146da2f9","2025-07-02T10:32:01.747Z","","","","","","AttribQ","","","","","","","","","","","","","","","","","","","","","","","","","","","","","","","","","","","","","","50"
"3809","","<div style=""width:500px;"">
  <p>How much control did you have over the ball?</p>
  </div>","32","html-slider-response","63","808855","0.0-10.0-2.4","31","1","2025-07-02 10:18:36","80fe4187154257d5fb01684ea91b68b9","85.244.210.251","Mozilla/5.0 (Windows NT 10.0; Win64; x64) AppleWebKit/537.36 (KHTML, like Gecko) Chrome/137.0.0.0 Safari/537.36","WebKit","Chrome","137.0.0.0","Windows","10.0","https://app.prolific.com/","pt-PT,pt;q=0.9,en-US;q=0.8,en;q=0.7","5ec2c14f488b5c0d146da2f9","683db6dfa200031b80f2a654","68650768931b62b1940889ed","5ec2c14f488b5c0d146da2f9","2025-07-02T10:32:05.557Z","","","","","","ControlQ","","","","","","","","","","","","","","","","","","","","","","","","","","","","","","","","","","","","","","50"
"2590","","<div style=""width:500px;"">
  <p>How would you describe your current emotional state?</p>
  </div>","68","html-slider-response","64","811447","0.0-10.0-3.4","31","1","2025-07-02 10:18:36","80fe4187154257d5fb01684ea91b68b9","85.244.210.251","Mozilla/5.0 (Windows NT 10.0; Win64; x64) AppleWebKit/537.36 (KHTML, like Gecko) Chrome/137.0.0.0 Safari/537.36","WebKit","Chrome","137.0.0.0","Windows","10.0","https://app.prolific.com/","pt-PT,pt;q=0.9,en-US;q=0.8,en;q=0.7","5ec2c14f488b5c0d146da2f9","683db6dfa200031b80f2a654","68650768931b62b1940889ed","5ec2c14f488b5c0d146da2f9","2025-07-02T10:32:08.149Z","","","","","","StressQ","","","","","","","","","","","","","","","","","","","","","","","","","","","","","","","","","","","","","","50"
"2394","","<div style=""width:500px;"">
  <p>What best describes how you currently feel?</p>
  </div>","20","html-slider-response","65","813841","0.0-10.0-4.4","31","1","2025-07-02 10:18:36","80fe4187154257d5fb01684ea91b68b9","85.244.210.251","Mozilla/5.0 (Windows NT 10.0; Win64; x64) AppleWebKit/537.36 (KHTML, like Gecko) Chrome/137.0.0.0 Safari/537.36","WebKit","Chrome","137.0.0.0","Windows","10.0","https://app.prolific.com/","pt-PT,pt;q=0.9,en-US;q=0.8,en;q=0.7","5ec2c14f488b5c0d146da2f9","683db6dfa200031b80f2a654","68650768931b62b1940889ed","5ec2c14f488b5c0d146da2f9","2025-07-02T10:32:10.543Z","","","","","","MotivationQ","","","","","","","","","","","","","","","","","","","","","","","","","","","","","","","","","","","","","","50"
"","","","","ctl-task-cpt","66","843766","0.0-10.0-0.5","31","1","2025-07-02 10:18:36","80fe4187154257d5fb01684ea91b68b9","85.244.210.251","Mozilla/5.0 (Windows NT 10.0; Win64; x64) AppleWebKit/537.36 (KHTML, like Gecko) Chrome/137.0.0.0 Safari/537.36","WebKit","Chrome","137.0.0.0","Windows","10.0","https://app.prolific.com/","pt-PT,pt;q=0.9,en-US;q=0.8,en;q=0.7","5ec2c14f488b5c0d146da2f9","683db6dfa200031b80f2a654","68650768931b62b1940889ed","5ec2c14f488b5c0d146da2f9","2025-07-02T10:32:40.468Z","","","","","","","","","","","","","","","","win-only","3","g1:SW,g2:NE","0.5","6","0","816059.2","767.8","5770.6","26906","1","4","8","6","1","-1","-4","0","2","0","1380.8","3000","-2995","[""down"",""left""]","{""num_key_presses"":6,""num_perfect"":2,""num_errors"":3,""num_randdir"":1,""num_randdir_good_moves"":0,""num_whilered"":0,""num_whileblue"":0,""num_blue"":1,""num_good_moves"":2}","[419.57142857142856,407.47767857142856,0.2,419.57142857142856,407.47767857142856,103.2,419.57142857142856,407.47767857142856,208.6,419.57142857142856,408.47767857142856,312.8,387.57142857142856,457.47767857142856,418.1,300.57142857142856,556.4776785714286,518.8,238.57142857142856,614.4776785714286,624,221.57142857142856,623.4776785714286,728.8,221.57142857142856,623.4776785714286,832.7,207.57142857142856,637.4776785714286,932.8,139.57142857142856,694.4776785714286,1033.2,120.57142857142857,708.4776785714286,1138.3,99.57142857142857,726.4776785714286,1239,94.57142857142857,731.4776785714286,1343.8,94.57142857142857,731.4776785714286,1443.9,94.57142857142857,731.4776785714286,1548.5,94.57142857142857,730.4776785714286,1648.5,103.57142857142857,724.4776785714286,1748.6,203.57142857142856,650.4776785714286,1854,356.57142857142856,511.47767857142856,1958.5,425.57142857142856,465.47767857142856,2058.8,467.57142857142856,443.47767857142856,2158.8,467.57142857142856,443.47767857142856,2264.1,467.57142857142856,443.47767857142856,2368.1,467.57142857142856,443.47767857142856,2472.5,467.57142857142856,443.47767857142856,2573.4,482.57142857142856,404.47767857142856,2678.4,521.5714285714286,361.47767857142856,2782.8,558.5714285714286,354.47767857142856,2882.8,558.5714285714286,354.47767857142856,2987.8,531.5714285714286,368.47767857142856,3088.9,601.5714285714286,300.47767857142856,3193,657.5714285714286,255.47767857142856,3297.7,657.5714285714286,255.47767857142856,3398.7,657.5714285714286,255.47767857142856,3498.7,657.5714285714286,255.47767857142856,3599.1,657.5714285714286,255.47767857142856,3702.8,657.5714285714286,255.47767857142856,3803.2,657.5714285714286,255.47767857142856,3907.4,657.5714285714286,255.47767857142856,4007.6,657.5714285714286,255.47767857142856,4107.8,657.5714285714286,255.47767857142856,4207.9,657.5714285714286,255.47767857142856,4308.7,657.5714285714286,255.47767857142856,4412.8,657.5714285714286,255.47767857142856,4512.9,657.5714285714286,255.47767857142856,4617.6,657.5714285714286,255.47767857142856,4717.8,657.5714285714286,255.47767857142856,4823.2,657.5714285714286,255.47767857142856,4927.7]","[445.1,445.1,1000,0,-554.9,""error"",""-"",""-"",""no_move"",3474.9,3029.7,1713.2,1446.2,315.5,""smooth"",""down"",""down"",""good_move"",6405.4,2930.2,2606.2,3475.2,324,""oops"",""left"",""right"",""bad_move"",10637.9,4232.1,3695.1,6405.8,537,""smooth"",""left"",""left"",""good_move"",14429.1,3790.6,3468.2,14105.6,-3144.7,""error"",""-"",""-"",""no_move"",15927.3,1498,1783.9,15430.9,-1287.5,""error"",""-"",""-"",""no_move""]","",""
"3843","","<div style=""width:500px;"">
  <p>What determined the result of this run?</p>
  </div>","28","html-slider-response","67","847610","0.0-10.0-1.5","31","1","2025-07-02 10:18:36","80fe4187154257d5fb01684ea91b68b9","85.244.210.251","Mozilla/5.0 (Windows NT 10.0; Win64; x64) AppleWebKit/537.36 (KHTML, like Gecko) Chrome/137.0.0.0 Safari/537.36","WebKit","Chrome","137.0.0.0","Windows","10.0","https://app.prolific.com/","pt-PT,pt;q=0.9,en-US;q=0.8,en;q=0.7","5ec2c14f488b5c0d146da2f9","683db6dfa200031b80f2a654","68650768931b62b1940889ed","5ec2c14f488b5c0d146da2f9","2025-07-02T10:32:44.312Z","","","","","","AttribQ","","","","","","","","","","","","","","","","","","","","","","","","","","","","","","","","","","","","","","50"
"2639","","<div style=""width:500px;"">
  <p>How much control did you have over the ball?</p>
  </div>","23","html-slider-response","68","850251","0.0-10.0-2.5","31","1","2025-07-02 10:18:36","80fe4187154257d5fb01684ea91b68b9","85.244.210.251","Mozilla/5.0 (Windows NT 10.0; Win64; x64) AppleWebKit/537.36 (KHTML, like Gecko) Chrome/137.0.0.0 Safari/537.36","WebKit","Chrome","137.0.0.0","Windows","10.0","https://app.prolific.com/","pt-PT,pt;q=0.9,en-US;q=0.8,en;q=0.7","5ec2c14f488b5c0d146da2f9","683db6dfa200031b80f2a654","68650768931b62b1940889ed","5ec2c14f488b5c0d146da2f9","2025-07-02T10:32:46.953Z","","","","","","ControlQ","","","","","","","","","","","","","","","","","","","","","","","","","","","","","","","","","","","","","","50"
"2778","","<div style=""width:500px;"">
  <p>How would you describe your current emotional state?</p>
  </div>","69","html-slider-response","69","853030","0.0-10.0-3.5","31","1","2025-07-02 10:18:36","80fe4187154257d5fb01684ea91b68b9","85.244.210.251","Mozilla/5.0 (Windows NT 10.0; Win64; x64) AppleWebKit/537.36 (KHTML, like Gecko) Chrome/137.0.0.0 Safari/537.36","WebKit","Chrome","137.0.0.0","Windows","10.0","https://app.prolific.com/","pt-PT,pt;q=0.9,en-US;q=0.8,en;q=0.7","5ec2c14f488b5c0d146da2f9","683db6dfa200031b80f2a654","68650768931b62b1940889ed","5ec2c14f488b5c0d146da2f9","2025-07-02T10:32:49.732Z","","","","","","StressQ","","","","","","","","","","","","","","","","","","","","","","","","","","","","","","","","","","","","","","50"
"2244","","<div style=""width:500px;"">
  <p>What best describes how you currently feel?</p>
  </div>","9","html-slider-response","70","855274","0.0-10.0-4.5","31","1","2025-07-02 10:18:36","80fe4187154257d5fb01684ea91b68b9","85.244.210.251","Mozilla/5.0 (Windows NT 10.0; Win64; x64) AppleWebKit/537.36 (KHTML, like Gecko) Chrome/137.0.0.0 Safari/537.36","WebKit","Chrome","137.0.0.0","Windows","10.0","https://app.prolific.com/","pt-PT,pt;q=0.9,en-US;q=0.8,en;q=0.7","5ec2c14f488b5c0d146da2f9","683db6dfa200031b80f2a654","68650768931b62b1940889ed","5ec2c14f488b5c0d146da2f9","2025-07-02T10:32:51.976Z","","","","","","MotivationQ","","","","","","","","","","","","","","","","","","","","","","","","","","","","","","","","","","","","","","50"
"","","","","ctl-task-cpt","71","874105","0.0-10.0-0.6","31","1","2025-07-02 10:18:36","80fe4187154257d5fb01684ea91b68b9","85.244.210.251","Mozilla/5.0 (Windows NT 10.0; Win64; x64) AppleWebKit/537.36 (KHTML, like Gecko) Chrome/137.0.0.0 Safari/537.36","WebKit","Chrome","137.0.0.0","Windows","10.0","https://app.prolific.com/","pt-PT,pt;q=0.9,en-US;q=0.8,en;q=0.7","5ec2c14f488b5c0d146da2f9","683db6dfa200031b80f2a654","68650768931b62b1940889ed","5ec2c14f488b5c0d146da2f9","2025-07-02T10:33:10.807Z","","","","","","","","","","","","","","","","win-only","2","g1:SE,g2:NW","0.4","7","0","857492","726.5","5731.6","15811.7","1","4","4","6","1","1","1","1","0","0.007575757575757576","4542.5","3000","1280","[""down"",""right""]","{""num_key_presses"":4,""num_perfect"":2,""num_errors"":0,""num_randdir"":2,""num_randdir_good_moves"":2,""num_whilered"":0,""num_whileblue"":0,""num_blue"":0,""num_good_moves"":4}","[409.57142857142856,414.47767857142856,0,409.57142857142856,414.47767857142856,104.2,409.57142857142856,414.47767857142856,204.6,409.57142857142856,414.47767857142856,304.8,417.57142857142856,423.47767857142856,410,474.57142857142856,479.47767857142856,514.5,556.5714285714286,531.4776785714286,615.6,612.5714285714286,565.4776785714286,716.4,630.5714285714286,574.4776785714286,819.6,630.5714285714286,574.4776785714286,923.8,629.5714285714286,570.4776785714286,1024.1,623.5714285714286,560.4776785714286,1124.9,604.5714285714286,532.4776785714286,1225.3,557.5714285714286,481.47767857142856,1328.7,498.57142857142856,430.47767857142856,1429.1,348.57142857142856,336.47767857142856,1529.3,91.57142857142857,190.47767857142856,1629.7,-9.42857142857143,83.47767857142857,1734.1,-13.42857142857143,78.47767857142857,1839.8,-13.42857142857143,78.47767857142857,1940.4,-14.42857142857143,80.47767857142857,2044.1,-16.42857142857143,91.47767857142857,2150,-17.42857142857143,102.47767857142857,2254,-18.42857142857143,121.47767857142857,2354.3,-15.42857142857143,170.47767857142856,2459.7,-4.428571428571431,246.47767857142856,2565,0.5714285714285694,294.47767857142856,2669,0.5714285714285694,321.47767857142856,2769.2,0.5714285714285694,335.47767857142856,2870.5,0.5714285714285694,342.47767857142856,2973.8,0.5714285714285694,342.47767857142856,3074.6,2.5714285714285694,342.47767857142856,3175,22.57142857142857,338.47767857142856,3279.7,162.57142857142856,398.47767857142856,3380.1,459.57142857142856,513.4776785714286,3485.5,621.5714285714286,565.4776785714286,3591.3,673.5714285714286,601.4776785714286,3694.7,673.5714285714286,575.4776785714286,3799.2,673.5714285714286,575.4776785714286,3899.4,690.5714285714286,639.4776785714286,4000,728.5714285714286,679.4776785714286,4104.8,731.5714285714286,685.4776785714286,4204.9,735.5714285714286,691.4776785714286,4309.5,745.5714285714286,705.4776785714286,4410,764.5714285714286,729.4776785714286,4510.1,767.5714285714286,733.4776785714286,4610.3,767.5714285714286,733.4776785714286,4715.1,768.5714285714286,732.4776785714286,4819.5,771.5714285714286,728.4776785714286,4919.7]","[1540.4,1540.4,1000,0,540.4,""smooth"",""down"",""down"",""good_move"",4316.7,2775.9,2372.2,1540.8,403.7,""oops"",""right"",""right"",""good_move"",7419.3,3102.2,2672.4,4317.2,429.8,""smooth"",""down"",""down"",""good_move"",9994.7,2575.1,2201.5,7419.6,373.6,""oops"",""right"",""right"",""good_move""]","",""
"3449","","<div style=""width:500px;"">
  <p>What determined the result of this run?</p>
  </div>","14","html-slider-response","72","877555","0.0-10.0-1.6","31","1","2025-07-02 10:18:36","80fe4187154257d5fb01684ea91b68b9","85.244.210.251","Mozilla/5.0 (Windows NT 10.0; Win64; x64) AppleWebKit/537.36 (KHTML, like Gecko) Chrome/137.0.0.0 Safari/537.36","WebKit","Chrome","137.0.0.0","Windows","10.0","https://app.prolific.com/","pt-PT,pt;q=0.9,en-US;q=0.8,en;q=0.7","5ec2c14f488b5c0d146da2f9","683db6dfa200031b80f2a654","68650768931b62b1940889ed","5ec2c14f488b5c0d146da2f9","2025-07-02T10:33:14.257Z","","","","","","AttribQ","","","","","","","","","","","","","","","","","","","","","","","","","","","","","","","","","","","","","","50"
"3027","","<div style=""width:500px;"">
  <p>How much control did you have over the ball?</p>
  </div>","17","html-slider-response","73","880583","0.0-10.0-2.6","31","1","2025-07-02 10:18:36","80fe4187154257d5fb01684ea91b68b9","85.244.210.251","Mozilla/5.0 (Windows NT 10.0; Win64; x64) AppleWebKit/537.36 (KHTML, like Gecko) Chrome/137.0.0.0 Safari/537.36","WebKit","Chrome","137.0.0.0","Windows","10.0","https://app.prolific.com/","pt-PT,pt;q=0.9,en-US;q=0.8,en;q=0.7","5ec2c14f488b5c0d146da2f9","683db6dfa200031b80f2a654","68650768931b62b1940889ed","5ec2c14f488b5c0d146da2f9","2025-07-02T10:33:17.285Z","","","","","","ControlQ","","","","","","","","","","","","","","","","","","","","","","","","","","","","","","","","","","","","","","50"
"3079","","<div style=""width:500px;"">
  <p>How would you describe your current emotional state?</p>
  </div>","97","html-slider-response","74","883662","0.0-10.0-3.6","31","1","2025-07-02 10:18:36","80fe4187154257d5fb01684ea91b68b9","85.244.210.251","Mozilla/5.0 (Windows NT 10.0; Win64; x64) AppleWebKit/537.36 (KHTML, like Gecko) Chrome/137.0.0.0 Safari/537.36","WebKit","Chrome","137.0.0.0","Windows","10.0","https://app.prolific.com/","pt-PT,pt;q=0.9,en-US;q=0.8,en;q=0.7","5ec2c14f488b5c0d146da2f9","683db6dfa200031b80f2a654","68650768931b62b1940889ed","5ec2c14f488b5c0d146da2f9","2025-07-02T10:33:20.364Z","","","","","","StressQ","","","","","","","","","","","","","","","","","","","","","","","","","","","","","","","","","","","","","","50"
"1915","","<div style=""width:500px;"">
  <p>What best describes how you currently feel?</p>
  </div>","5","html-slider-response","75","885578","0.0-10.0-4.6","31","1","2025-07-02 10:18:36","80fe4187154257d5fb01684ea91b68b9","85.244.210.251","Mozilla/5.0 (Windows NT 10.0; Win64; x64) AppleWebKit/537.36 (KHTML, like Gecko) Chrome/137.0.0.0 Safari/537.36","WebKit","Chrome","137.0.0.0","Windows","10.0","https://app.prolific.com/","pt-PT,pt;q=0.9,en-US;q=0.8,en;q=0.7","5ec2c14f488b5c0d146da2f9","683db6dfa200031b80f2a654","68650768931b62b1940889ed","5ec2c14f488b5c0d146da2f9","2025-07-02T10:33:22.280Z","","","","","","MotivationQ","","","","","","","","","","","","","","","","","","","","","","","","","","","","","","","","","","","","","","50"
"","","","","ctl-task-cpt","76","917691","0.0-10.0-0.7","31","1","2025-07-02 10:18:36","80fe4187154257d5fb01684ea91b68b9","85.244.210.251","Mozilla/5.0 (Windows NT 10.0; Win64; x64) AppleWebKit/537.36 (KHTML, like Gecko) Chrome/137.0.0.0 Safari/537.36","WebKit","Chrome","137.0.0.0","Windows","10.0","https://app.prolific.com/","pt-PT,pt;q=0.9,en-US;q=0.8,en;q=0.7","5ec2c14f488b5c0d146da2f9","683db6dfa200031b80f2a654","68650768931b62b1940889ed","5ec2c14f488b5c0d146da2f9","2025-07-02T10:33:54.394Z","","","","","","","","","","","","","","","","win-only","1","g1:NE,g2:SW","0.3","8","0","887796","558.3","5561.2","29096.5","1","4","8","6","2","-8","-8","0","1","0","1563.3","3000","-3015","[""down"",""left""]","{""num_key_presses"":7,""num_perfect"":1,""num_errors"":0,""num_randdir"":6,""num_randdir_good_moves"":4,""num_whilered"":0,""num_whileblue"":0,""num_blue"":0,""num_good_moves"":5}","[414.57142857142856,420.47767857142856,0.3,414.57142857142856,420.47767857142856,102.4,414.57142857142856,420.47767857142856,203,414.57142857142856,421.47767857142856,308.2,417.57142857142856,453.47767857142856,412.9,417.57142857142856,504.47767857142856,514,406.57142857142856,537.4776785714286,614,400.57142857142856,558.4776785714286,717.3,400.57142857142856,559.4776785714286,817.7,399.57142857142856,561.4776785714286,917.8,341.57142857142856,598.4776785714286,1023,291.57142857142856,607.4776785714286,1127,291.57142857142856,607.4776785714286,1227.8,234.57142857142856,653.4776785714286,1332.4,148.57142857142856,721.4776785714286,1437.2,134.57142857142856,743.4776785714286,1538.7,132.57142857142856,745.4776785714286,1644.6,131.57142857142856,746.4776785714286,1747.5,131.57142857142856,743.4776785714286,1853.2,140.57142857142856,705.4776785714286,1957.5,145.57142857142856,692.4776785714286,2058,145.57142857142856,692.4776785714286,2162.7,145.57142857142856,692.4776785714286,2268.2,145.57142857142856,692.4776785714286,2372.9,145.57142857142856,692.4776785714286,2473.9,145.57142857142856,692.4776785714286,2577.5,145.57142857142856,692.4776785714286,2682.8,145.57142857142856,692.4776785714286,2787.2,145.57142857142856,692.4776785714286,2887.7,145.57142857142856,692.4776785714286,2992.4,145.57142857142856,692.4776785714286,3093.2,145.57142857142856,692.4776785714286,3197.2,145.57142857142856,692.4776785714286,3297.7,145.57142857142856,692.4776785714286,3398.3,145.57142857142856,692.4776785714286,3503,145.57142857142856,692.4776785714286,3608.3,145.57142857142856,692.4776785714286,3713.1,145.57142857142856,692.4776785714286,3813.5,145.57142857142856,692.4776785714286,3917.6,145.57142857142856,692.4776785714286,4018.2,145.57142857142856,692.4776785714286,4123.7,145.57142857142856,692.4776785714286,4227.3,145.57142857142856,692.4776785714286,4327.4,145.57142857142856,692.4776785714286,4427.8,145.57142857142856,692.4776785714286,4533.4,145.57142857142856,692.4776785714286,4637.3,145.57142857142856,692.4776785714286,4741.9,145.57142857142856,692.4776785714286,4842.4,145.57142857142856,692.4776785714286,4942.9]","[1468.9,1468.9,1000,0,468.9,""oops"",""left"",""left"",""good_move"",4535.1,3065.9,2704.4,1469.2,361.5,""oops"",""down"",""down"",""good_move"",7493.2,2957.8,2607.9,4535.4,349.9,""oops"",""left"",""down"",""good_move"",10649.4,3155.8,2820.8,7493.6,335,""smooth"",""left"",""left"",""good_move"",13315.8,2666,2352.2,10649.8,313.8,""oops"",""down"",""left"",""good_move"",16761.1,3445.1,3119.5,13316,325.6,""oops"",""down"",""up"",""bad_move"",20529.7,3768.3,3448.5,16761.4,319.8,""oops"",""down"",""up"",""bad_move""]","",""
"2995","","<div style=""width:500px;"">
  <p>What determined the result of this run?</p>
  </div>","5","html-slider-response","77","920688","0.0-10.0-1.7","31","1","2025-07-02 10:18:36","80fe4187154257d5fb01684ea91b68b9","85.244.210.251","Mozilla/5.0 (Windows NT 10.0; Win64; x64) AppleWebKit/537.36 (KHTML, like Gecko) Chrome/137.0.0.0 Safari/537.36","WebKit","Chrome","137.0.0.0","Windows","10.0","https://app.prolific.com/","pt-PT,pt;q=0.9,en-US;q=0.8,en;q=0.7","5ec2c14f488b5c0d146da2f9","683db6dfa200031b80f2a654","68650768931b62b1940889ed","5ec2c14f488b5c0d146da2f9","2025-07-02T10:33:57.390Z","","","","","","AttribQ","","","","","","","","","","","","","","","","","","","","","","","","","","","","","","","","","","","","","","50"
"3393","","<div style=""width:500px;"">
  <p>How much control did you have over the ball?</p>
  </div>","21","html-slider-response","78","924082","0.0-10.0-2.7","31","1","2025-07-02 10:18:36","80fe4187154257d5fb01684ea91b68b9","85.244.210.251","Mozilla/5.0 (Windows NT 10.0; Win64; x64) AppleWebKit/537.36 (KHTML, like Gecko) Chrome/137.0.0.0 Safari/537.36","WebKit","Chrome","137.0.0.0","Windows","10.0","https://app.prolific.com/","pt-PT,pt;q=0.9,en-US;q=0.8,en;q=0.7","5ec2c14f488b5c0d146da2f9","683db6dfa200031b80f2a654","68650768931b62b1940889ed","5ec2c14f488b5c0d146da2f9","2025-07-02T10:34:00.784Z","","","","","","ControlQ","","","","","","","","","","","","","","","","","","","","","","","","","","","","","","","","","","","","","","50"
"6504","","<div style=""width:500px;"">
  <p>How would you describe your current emotional state?</p>
  </div>","20","html-slider-response","79","930587","0.0-10.0-3.7","31","1","2025-07-02 10:18:36","80fe4187154257d5fb01684ea91b68b9","85.244.210.251","Mozilla/5.0 (Windows NT 10.0; Win64; x64) AppleWebKit/537.36 (KHTML, like Gecko) Chrome/137.0.0.0 Safari/537.36","WebKit","Chrome","137.0.0.0","Windows","10.0","https://app.prolific.com/","pt-PT,pt;q=0.9,en-US;q=0.8,en;q=0.7","5ec2c14f488b5c0d146da2f9","683db6dfa200031b80f2a654","68650768931b62b1940889ed","5ec2c14f488b5c0d146da2f9","2025-07-02T10:34:07.289Z","","","","","","StressQ","","","","","","","","","","","","","","","","","","","","","","","","","","","","","","","","","","","","","","50"
"3531","","<div style=""width:500px;"">
  <p>What best describes how you currently feel?</p>
  </div>","0","html-slider-response","80","934119","0.0-10.0-4.7","31","1","2025-07-02 10:18:36","80fe4187154257d5fb01684ea91b68b9","85.244.210.251","Mozilla/5.0 (Windows NT 10.0; Win64; x64) AppleWebKit/537.36 (KHTML, like Gecko) Chrome/137.0.0.0 Safari/537.36","WebKit","Chrome","137.0.0.0","Windows","10.0","https://app.prolific.com/","pt-PT,pt;q=0.9,en-US;q=0.8,en;q=0.7","5ec2c14f488b5c0d146da2f9","683db6dfa200031b80f2a654","68650768931b62b1940889ed","5ec2c14f488b5c0d146da2f9","2025-07-02T10:34:10.821Z","","","","","","MotivationQ","","","","","","","","","","","","","","","","","","","","","","","","","","","","","","","","","","","","","","50"
"","","","","ctl-task-cpt","81","951755","0.0-10.0-0.8","31","1","2025-07-02 10:18:36","80fe4187154257d5fb01684ea91b68b9","85.244.210.251","Mozilla/5.0 (Windows NT 10.0; Win64; x64) AppleWebKit/537.36 (KHTML, like Gecko) Chrome/137.0.0.0 Safari/537.36","WebKit","Chrome","137.0.0.0","Windows","10.0","https://app.prolific.com/","pt-PT,pt;q=0.9,en-US;q=0.8,en;q=0.7","5ec2c14f488b5c0d146da2f9","683db6dfa200031b80f2a654","68650768931b62b1940889ed","5ec2c14f488b5c0d146da2f9","2025-07-02T10:34:28.457Z","","","","","","","","","","","","","","","","win-only","0","g1:NW,g2:SE","0.4","9","0","936336.5","826.7","5830.5","14617","1","4","4","6","2","-4","-6","0","0","0","2800.8","3000","-3010","[""down"",""right""]","{""num_key_presses"":13,""num_perfect"":0,""num_errors"":2,""num_randdir"":0,""num_randdir_good_moves"":0,""num_whilered"":11,""num_whileblue"":0,""num_blue"":0,""num_good_moves"":0}","[419.57142857142856,424.47767857142856,0.6,419.57142857142856,424.47767857142856,104.4,419.57142857142856,424.47767857142856,209.1,419.57142857142856,424.47767857142856,309.3,419.57142857142856,424.47767857142856,409.3,400.57142857142856,403.47767857142856,514,366.57142857142856,378.47767857142856,614,337.57142857142856,383.47767857142856,714,337.57142857142856,383.47767857142856,819.9,346.57142857142856,381.47767857142856,923.7,350.57142857142856,380.47767857142856,1025.2,350.57142857142856,380.47767857142856,1129.2,350.57142857142856,380.47767857142856,1233.5,354.57142857142856,388.47767857142856,1338.4,398.57142857142856,421.47767857142856,1439,409.57142857142856,435.47767857142856,1539.8,412.57142857142856,447.47767857142856,1643.5,413.57142857142856,454.47767857142856,1744,440.57142857142856,461.47767857142856,1845,536.5714285714286,567.4776785714286,1948.9,592.5714285714286,638.4776785714286,2049.6,648.5714285714286,692.4776785714286,2154.3,687.5714285714286,727.4776785714286,2259.7,697.5714285714286,737.4776785714286,2365,701.5714285714286,736.4776785714286,2469.4,706.5714285714286,733.4776785714286,2573.8,709.5714285714286,731.4776785714286,2675.3,716.5714285714286,730.4776785714286,2779.6,722.5714285714286,730.4776785714286,2884,722.5714285714286,730.4776785714286,2984.6,722.5714285714286,728.4776785714286,3088.9,722.5714285714286,728.4776785714286,3189.2,722.5714285714286,728.4776785714286,3289.4,722.5714285714286,728.4776785714286,3394.6,721.5714285714286,728.4776785714286,3499.2,721.5714285714286,728.4776785714286,3599.2,721.5714285714286,728.4776785714286,3699.4,721.5714285714286,728.4776785714286,3803.9,721.5714285714286,728.4776785714286,3904.1,721.5714285714286,728.4776785714286,4009.8,721.5714285714286,728.4776785714286,4114.4,721.5714285714286,728.4776785714286,4219.2,721.5714285714286,728.4776785714286,4323.7,721.5714285714286,728.4776785714286,4424.7,721.5714285714286,728.4776785714286,4528.9,721.5714285714286,728.4776785714286,4635.1,721.5714285714286,728.4776785714286,4739.5,721.5714285714286,728.4776785714286,4839.5,721.5714285714286,728.4776785714286,4944.9]","[387.1,387.1,1000,0,-612.9,""error"",""-"",""-"",""no_move"",501.1,113.8,1000,0,-498.9,""while_red"",""-"",""-"",""no_move"",577.1,189.8,1000,0,-422.9,""while_red"",""-"",""-"",""no_move"",661,273.7,1000,0,-339,""while_red"",""-"",""-"",""no_move"",733,345.7,1000,0,-267,""while_red"",""-"",""-"",""no_move"",807.2,420,1000,0,-192.7,""while_red"",""-"",""-"",""no_move"",859.1,471.8,1000,0,-140.9,""while_red"",""-"",""-"",""no_move"",927.1,539.8,1000,0,-72.9,""while_red"",""-"",""-"",""no_move"",1012,624.7,1000,0,12,""while_red"",""-"",""-"",""no_move"",1083.2,695.9,1000,0,83.2,""while_red"",""-"",""-"",""no_move"",1215.6,828.3,1000,0,215.6,""while_red"",""-"",""-"",""no_move"",1308.9,921.6,1000,0,308.9,""while_red"",""-"",""-"",""no_move"",2175.3,1788,2658.1,1391.4,-1874.2,""error"",""-"",""-"",""no_move""]","",""
"5222","","<div style=""width:500px;"">
  <p>What determined the result of this run?</p>
  </div>","99","html-slider-response","82","956977","0.0-10.0-1.8","31","1","2025-07-02 10:18:36","80fe4187154257d5fb01684ea91b68b9","85.244.210.251","Mozilla/5.0 (Windows NT 10.0; Win64; x64) AppleWebKit/537.36 (KHTML, like Gecko) Chrome/137.0.0.0 Safari/537.36","WebKit","Chrome","137.0.0.0","Windows","10.0","https://app.prolific.com/","pt-PT,pt;q=0.9,en-US;q=0.8,en;q=0.7","5ec2c14f488b5c0d146da2f9","683db6dfa200031b80f2a654","68650768931b62b1940889ed","5ec2c14f488b5c0d146da2f9","2025-07-02T10:34:33.680Z","","","","","","AttribQ","","","","","","","","","","","","","","","","","","","","","","","","","","","","","","","","","","","","","","50"
"4171","","<div style=""width:500px;"">
  <p>How much control did you have over the ball?</p>
  </div>","47","html-slider-response","83","961150","0.0-10.0-2.8","31","1","2025-07-02 10:18:36","80fe4187154257d5fb01684ea91b68b9","85.244.210.251","Mozilla/5.0 (Windows NT 10.0; Win64; x64) AppleWebKit/537.36 (KHTML, like Gecko) Chrome/137.0.0.0 Safari/537.36","WebKit","Chrome","137.0.0.0","Windows","10.0","https://app.prolific.com/","pt-PT,pt;q=0.9,en-US;q=0.8,en;q=0.7","5ec2c14f488b5c0d146da2f9","683db6dfa200031b80f2a654","68650768931b62b1940889ed","5ec2c14f488b5c0d146da2f9","2025-07-02T10:34:37.852Z","","","","","","ControlQ","","","","","","","","","","","","","","","","","","","","","","","","","","","","","","","","","","","","","","50"
"2450","","<div style=""width:500px;"">
  <p>How would you describe your current emotional state?</p>
  </div>","9","html-slider-response","84","963601","0.0-10.0-3.8","31","1","2025-07-02 10:18:36","80fe4187154257d5fb01684ea91b68b9","85.244.210.251","Mozilla/5.0 (Windows NT 10.0; Win64; x64) AppleWebKit/537.36 (KHTML, like Gecko) Chrome/137.0.0.0 Safari/537.36","WebKit","Chrome","137.0.0.0","Windows","10.0","https://app.prolific.com/","pt-PT,pt;q=0.9,en-US;q=0.8,en;q=0.7","5ec2c14f488b5c0d146da2f9","683db6dfa200031b80f2a654","68650768931b62b1940889ed","5ec2c14f488b5c0d146da2f9","2025-07-02T10:34:40.303Z","","","","","","StressQ","","","","","","","","","","","","","","","","","","","","","","","","","","","","","","","","","","","","","","50"
"1751","","<div style=""width:500px;"">
  <p>What best describes how you currently feel?</p>
  </div>","8","html-slider-response","85","965353","0.0-10.0-4.8","31","1","2025-07-02 10:18:36","80fe4187154257d5fb01684ea91b68b9","85.244.210.251","Mozilla/5.0 (Windows NT 10.0; Win64; x64) AppleWebKit/537.36 (KHTML, like Gecko) Chrome/137.0.0.0 Safari/537.36","WebKit","Chrome","137.0.0.0","Windows","10.0","https://app.prolific.com/","pt-PT,pt;q=0.9,en-US;q=0.8,en;q=0.7","5ec2c14f488b5c0d146da2f9","683db6dfa200031b80f2a654","68650768931b62b1940889ed","5ec2c14f488b5c0d146da2f9","2025-07-02T10:34:42.055Z","","","","","","MotivationQ","","","","","","","","","","","","","","","","","","","","","","","","","","","","","","","","","","","","","","50"
