"rt","response_timestamp","stimulus","response","trial_type","trial_index","time_elapsed","internal_node_id","run_id","condition","recorded_at","source_code_version","ip","user_agent","device","browser","browser_version","platform","platform_version","referer","accept_language","PROLIFIC_PID","STUDY_ID","SESSION_ID","prolific_id","realtime","view_history","question_order","consent","success","question_id","eventType","responses","item_order","radio_event_ids","radio_event_times","key_event_times","mouse_event_times","straightlining","zigzagging","honeypot","which_type","canvas_config","goals_layout","control_level","trial_number","tutorial_trial_number","trial_start_time","phase1_start_time","phase2_start_time","phase3_start_time","goal_1_value","goal_1_distance","goal_2_value","goal_2_distance","goal_selected","outcome","outcome_total","participant_final_score","participant_initial_score","participant_final_score_prop","goal_choice_rt","allocated_time","allocated_time_remaining","goal_direction","counts","mouse_movements","key_presses","correct","slider_start"
"4654","1751451504179","<p style='font-size:40px;line-height:1.25'><strong>Welcome to the experiment!</strong></p><p style='font-size:1.1em;line-height:1.25'>Thank you for your interest in our experiment! Before you begin, it is important that we obtain your informed consent to participate in the study.</p><p style='font-size:1.1em;line-height:1.25'>On the next screen will be an <strong>information sheet</strong> for you to read. To participate in the study we need you to read this information sheet and the following consent form carefully. If you agree with all the statements, please click the <strong>I agree</strong> button.</p><p style='font-size:1.1em;line-height:1.25'>Press <strong>Next</strong> to read the information sheet.</p>","0","custom-html-button-response","0","4656","0.0-0.0","4","1","2025-07-02 10:18:17","80fe4187154257d5fb01684ea91b68b9","162.226.250.215","Mozilla/5.0 (Windows NT 10.0; Win64; x64) AppleWebKit/537.36 (KHTML, like Gecko) Chrome/138.0.0.0 Safari/537.36 Edg/138.0.0.0","WebKit","Edge","138.0.0.0","Windows","10.0","https://app.prolific.com/","en-US,en;q=0.9","5eea9a9ea8d6d71ba912a73e","683db6dfa200031b80f2a654","6865076019d962441c528aba","5eea9a9ea8d6d71ba912a73e","2025-07-02T10:18:24.181Z","","","","","","","","","","","","","","","","","","","","","","","","","","","","","","","","","","","","","","","","","","","",""
"5932","","","","instructions","1","10590","0.0-1.0","4","1","2025-07-02 10:18:17","80fe4187154257d5fb01684ea91b68b9","162.226.250.215","Mozilla/5.0 (Windows NT 10.0; Win64; x64) AppleWebKit/537.36 (KHTML, like Gecko) Chrome/138.0.0.0 Safari/537.36 Edg/138.0.0.0","WebKit","Edge","138.0.0.0","Windows","10.0","https://app.prolific.com/","en-US,en;q=0.9","5eea9a9ea8d6d71ba912a73e","683db6dfa200031b80f2a654","6865076019d962441c528aba","5eea9a9ea8d6d71ba912a73e","","[{""page_index"":0,""viewing_time"":3770},{""page_index"":1,""viewing_time"":2162}]","","","","","","","","","","","","","","","","","","","","","","","","","","","","","","","","","","","","","","","","","","",""
"4543","","","{""Q0"":"""",""Q1"":"""",""Q2"":"""",""Q3"":"""",""Q4"":"""",""Q5"":"""",""Q6"":""I agree""}","survey-multi-choice","2","15136","0.0-2.0","4","1","2025-07-02 10:18:17","80fe4187154257d5fb01684ea91b68b9","162.226.250.215","Mozilla/5.0 (Windows NT 10.0; Win64; x64) AppleWebKit/537.36 (KHTML, like Gecko) Chrome/138.0.0.0 Safari/537.36 Edg/138.0.0.0","WebKit","Edge","138.0.0.0","Windows","10.0","https://app.prolific.com/","en-US,en;q=0.9","5eea9a9ea8d6d71ba912a73e","683db6dfa200031b80f2a654","6865076019d962441c528aba","5eea9a9ea8d6d71ba912a73e","","","[0,1,2,3,4,5,6]","true","","","","","","","","","","","","","","","","","","","","","","","","","","","","","","","","","","","","","","","","",""
"7151","","","","fullscreen","3","23296","0.0-4.0","4","1","2025-07-02 10:18:17","80fe4187154257d5fb01684ea91b68b9","162.226.250.215","Mozilla/5.0 (Windows NT 10.0; Win64; x64) AppleWebKit/537.36 (KHTML, like Gecko) Chrome/138.0.0.0 Safari/537.36 Edg/138.0.0.0","WebKit","Edge","138.0.0.0","Windows","10.0","https://app.prolific.com/","en-US,en;q=0.9","5eea9a9ea8d6d71ba912a73e","683db6dfa200031b80f2a654","6865076019d962441c528aba","5eea9a9ea8d6d71ba912a73e","","","","","true","","","","","","","","","","","","","","","","","","","","","","","","","","","","","","","","","","","","","","","",""
"6283","1751451529105"," <p style='font-size:1.1em;line-height:1.25'>Thank you for completing the consent form and closing all other tabs.</p><p style='font-size:1.1em;line-height:1.25'>We will now invite you to fill in some demographic information and questionnaires, before starting the game.<br>This will take about 5 minutes.<br></p><p style='font-size:1.1em;line-height:1.25'>Press the <strong>Next</strong> button to continue.</p>","0","custom-html-button-response","4","29581","0.0-5.0","4","1","2025-07-02 10:18:17","80fe4187154257d5fb01684ea91b68b9","162.226.250.215","Mozilla/5.0 (Windows NT 10.0; Win64; x64) AppleWebKit/537.36 (KHTML, like Gecko) Chrome/138.0.0.0 Safari/537.36 Edg/138.0.0.0","WebKit","Edge","138.0.0.0","Windows","10.0","https://app.prolific.com/","en-US,en;q=0.9","5eea9a9ea8d6d71ba912a73e","683db6dfa200031b80f2a654","6865076019d962441c528aba","5eea9a9ea8d6d71ba912a73e","2025-07-02T10:18:49.105Z","","","","","","","","","","","","","","","","","","","","","","","","","","","","","","","","","","","","","","","","","","","",""
"3173","","","{""age"":""39""}","survey-text","5","32758","0.0-6.0-0.0","4","1","2025-07-02 10:18:17","80fe4187154257d5fb01684ea91b68b9","162.226.250.215","Mozilla/5.0 (Windows NT 10.0; Win64; x64) AppleWebKit/537.36 (KHTML, like Gecko) Chrome/138.0.0.0 Safari/537.36 Edg/138.0.0.0","WebKit","Edge","138.0.0.0","Windows","10.0","https://app.prolific.com/","en-US,en;q=0.9","5eea9a9ea8d6d71ba912a73e","683db6dfa200031b80f2a654","6865076019d962441c528aba","5eea9a9ea8d6d71ba912a73e","","","","","","0","demographics","","","","","","","","","","","","","","","","","","","","","","","","","","","","","","","","","","","","","",""
"2063","","","{""gender_identity"":""male/man""}","survey-multi-choice","6","34822","0.0-6.0-1.0","4","1","2025-07-02 10:18:17","80fe4187154257d5fb01684ea91b68b9","162.226.250.215","Mozilla/5.0 (Windows NT 10.0; Win64; x64) AppleWebKit/537.36 (KHTML, like Gecko) Chrome/138.0.0.0 Safari/537.36 Edg/138.0.0.0","WebKit","Edge","138.0.0.0","Windows","10.0","https://app.prolific.com/","en-US,en;q=0.9","5eea9a9ea8d6d71ba912a73e","683db6dfa200031b80f2a654","6865076019d962441c528aba","5eea9a9ea8d6d71ba912a73e","","","[0]","","","1","demographics","","","","","","","","","","","","","","","","","","","","","","","","","","","","","","","","","","","","","",""
"2594","","","{""assigned_sex"":""male""}","survey-multi-choice","7","37418","0.0-6.0-2.0","4","1","2025-07-02 10:18:17","80fe4187154257d5fb01684ea91b68b9","162.226.250.215","Mozilla/5.0 (Windows NT 10.0; Win64; x64) AppleWebKit/537.36 (KHTML, like Gecko) Chrome/138.0.0.0 Safari/537.36 Edg/138.0.0.0","WebKit","Edge","138.0.0.0","Windows","10.0","https://app.prolific.com/","en-US,en;q=0.9","5eea9a9ea8d6d71ba912a73e","683db6dfa200031b80f2a654","6865076019d962441c528aba","5eea9a9ea8d6d71ba912a73e","","","[0]","","","2","demographics","","","","","","","","","","","","","","","","","","","","","","","","","","","","","","","","","","","","","",""
"4355","","","{""menstrual_cycle"":""No""}","survey-multi-choice","8","41774","0.0-6.0-3.0","4","1","2025-07-02 10:18:17","80fe4187154257d5fb01684ea91b68b9","162.226.250.215","Mozilla/5.0 (Windows NT 10.0; Win64; x64) AppleWebKit/537.36 (KHTML, like Gecko) Chrome/138.0.0.0 Safari/537.36 Edg/138.0.0.0","WebKit","Edge","138.0.0.0","Windows","10.0","https://app.prolific.com/","en-US,en;q=0.9","5eea9a9ea8d6d71ba912a73e","683db6dfa200031b80f2a654","6865076019d962441c528aba","5eea9a9ea8d6d71ba912a73e","","","[0]","","","4","demographics","","","","","","","","","","","","","","","","","","","","","","","","","","","","","","","","","","","","","",""
"25348","","","{""education"":""GCSE/Standard Grades""}","survey-multi-choice","9","67124","0.0-6.0-4.0","4","1","2025-07-02 10:18:17","80fe4187154257d5fb01684ea91b68b9","162.226.250.215","Mozilla/5.0 (Windows NT 10.0; Win64; x64) AppleWebKit/537.36 (KHTML, like Gecko) Chrome/138.0.0.0 Safari/537.36 Edg/138.0.0.0","WebKit","Edge","138.0.0.0","Windows","10.0","https://app.prolific.com/","en-US,en;q=0.9","5eea9a9ea8d6d71ba912a73e","683db6dfa200031b80f2a654","6865076019d962441c528aba","5eea9a9ea8d6d71ba912a73e","","","[0]","","","5","demographics","","","","","","","","","","","","","","","","","","","","","","","","","","","","","","","","","","","","","",""
"11064","","","{""education"":""Bachelor's Degree (e.g., BA)""}","survey-multi-choice","10","78189","0.0-6.0-5.0","4","1","2025-07-02 10:18:17","80fe4187154257d5fb01684ea91b68b9","162.226.250.215","Mozilla/5.0 (Windows NT 10.0; Win64; x64) AppleWebKit/537.36 (KHTML, like Gecko) Chrome/138.0.0.0 Safari/537.36 Edg/138.0.0.0","WebKit","Edge","138.0.0.0","Windows","10.0","https://app.prolific.com/","en-US,en;q=0.9","5eea9a9ea8d6d71ba912a73e","683db6dfa200031b80f2a654","6865076019d962441c528aba","5eea9a9ea8d6d71ba912a73e","2025-07-02T10:19:37.713Z","","[0]","","","6","demographics","","","","","","","","","","","","","","","","","","","","","","","","","","","","","","","","","","","","","",""
"55494","","","{""mental_health_condition"":""Anxiety"",""mental_health_treatment"":""no"",""psychiatric_medication"":""n/a""}","survey-text","11","133687","0.0-7.0-0.0","4","1","2025-07-02 10:18:17","80fe4187154257d5fb01684ea91b68b9","162.226.250.215","Mozilla/5.0 (Windows NT 10.0; Win64; x64) AppleWebKit/537.36 (KHTML, like Gecko) Chrome/138.0.0.0 Safari/537.36 Edg/138.0.0.0","WebKit","Edge","138.0.0.0","Windows","10.0","https://app.prolific.com/","en-US,en;q=0.9","5eea9a9ea8d6d71ba912a73e","683db6dfa200031b80f2a654","6865076019d962441c528aba","5eea9a9ea8d6d71ba912a73e","2025-07-02T10:20:33.211Z","","","","","1","mental_health","","","","","","","","","","","","","","","","","","","","","","","","","","","","","","","","","","","","","",""
"10603","","","{""depression_history"":[""Yes""]}","survey-multi-select","12","144293","0.0-7.0-1.0","4","1","2025-07-02 10:18:17","80fe4187154257d5fb01684ea91b68b9","162.226.250.215","Mozilla/5.0 (Windows NT 10.0; Win64; x64) AppleWebKit/537.36 (KHTML, like Gecko) Chrome/138.0.0.0 Safari/537.36 Edg/138.0.0.0","WebKit","Edge","138.0.0.0","Windows","10.0","https://app.prolific.com/","en-US,en;q=0.9","5eea9a9ea8d6d71ba912a73e","683db6dfa200031b80f2a654","6865076019d962441c528aba","5eea9a9ea8d6d71ba912a73e","","","[0]","","","","mental_health","","","","","","","","","","","","","","","","","","","","","","","","","","","","","","","","","","","","","",""
"9409","","","{""depression_episodes"":""1-2"",""depression_recent"":""More than 1 year ago""}","survey-multi-choice","13","153704","0.0-7.0-2.0-0.0","4","1","2025-07-02 10:18:17","80fe4187154257d5fb01684ea91b68b9","162.226.250.215","Mozilla/5.0 (Windows NT 10.0; Win64; x64) AppleWebKit/537.36 (KHTML, like Gecko) Chrome/138.0.0.0 Safari/537.36 Edg/138.0.0.0","WebKit","Edge","138.0.0.0","Windows","10.0","https://app.prolific.com/","en-US,en;q=0.9","5eea9a9ea8d6d71ba912a73e","683db6dfa200031b80f2a654","6865076019d962441c528aba","5eea9a9ea8d6d71ba912a73e","2025-07-02T10:20:53.228Z","","[0,1]","","","3","mental_health","","","","","","","","","","","","","","","","","","","","","","","","","","","","","","","","","","","","","",""
"48975.89999999106","","","","survey-template","14","202684","0.0-7.0-3.0","4","1","2025-07-02 10:18:17","80fe4187154257d5fb01684ea91b68b9","162.226.250.215","Mozilla/5.0 (Windows NT 10.0; Win64; x64) AppleWebKit/537.36 (KHTML, like Gecko) Chrome/138.0.0.0 Safari/537.36 Edg/138.0.0.0","WebKit","Edge","138.0.0.0","Windows","10.0","https://app.prolific.com/","en-US,en;q=0.9","5eea9a9ea8d6d71ba912a73e","683db6dfa200031b80f2a654","6865076019d962441c528aba","5eea9a9ea8d6d71ba912a73e","2025-07-02T10:21:42.208Z","","","","","","ius","{""Q01"":""2"",""Q02"":""2"",""Q03"":""2"",""Q04"":""2"",""Q05"":""3"",""Q06"":""1"",""Q07"":""1"",""Q08"":""0"",""Q09"":""3"",""Q10"":""2"",""Q11"":""2"",""Q12"":""3"",""Q13"":""2""}","[0,1,2,3,4,5,6,7,8,9,10,11,12]","[""Q01"",""Q02"",""Q03"",""Q04"",""Q05"",""Q06"",""Q07"",""Q08"",""Q09"",""Q10"",""Q11"",""Q12"",""Q13""]","[6488.5999999940395,9528.70000000298,14452.09999999404,17498.39999999106,22316.89999999106,26317,28913.89999999106,30950.59999999404,33729.20000000298,37103.70000000298,41317.20000000298,45205.20000000298,48246.39999999106]","[]","[6488.5999999940395,9528.70000000298,14452.09999999404,17498.39999999106,22316.89999999106,26317,28913.89999999106,30950.59999999404,33729.20000000298,37103.70000000298,41317.20000000298,45205.20000000298,48246.39999999106,48973.70000000298]","0.5384615384615384","0.4166666666666667","0","","","","","","","","","","","","","","","","","","","","","","","","","","","","",""
"1669","1751451703878","<p style='font-size:1.1em;line-height:1.25'>In the following, we will ask you a few questions relating to your experiences over the past month.<br></p><p style='font-size:1.1em;line-height:1.25'>Press the <strong>Next</strong> button to continue.</p>","0","custom-html-button-response","15","204354","0.0-7.0-4.0","4","1","2025-07-02 10:18:17","80fe4187154257d5fb01684ea91b68b9","162.226.250.215","Mozilla/5.0 (Windows NT 10.0; Win64; x64) AppleWebKit/537.36 (KHTML, like Gecko) Chrome/138.0.0.0 Safari/537.36 Edg/138.0.0.0","WebKit","Edge","138.0.0.0","Windows","10.0","https://app.prolific.com/","en-US,en;q=0.9","5eea9a9ea8d6d71ba912a73e","683db6dfa200031b80f2a654","6865076019d962441c528aba","5eea9a9ea8d6d71ba912a73e","2025-07-02T10:21:43.878Z","","","","","","","","","","","","","","","","","","","","","","","","","","","","","","","","","","","","","","","","","","","",""
"45678","","","","survey-template","16","250035","0.0-7.0-5.0","4","1","2025-07-02 10:18:17","80fe4187154257d5fb01684ea91b68b9","162.226.250.215","Mozilla/5.0 (Windows NT 10.0; Win64; x64) AppleWebKit/537.36 (KHTML, like Gecko) Chrome/138.0.0.0 Safari/537.36 Edg/138.0.0.0","WebKit","Edge","138.0.0.0","Windows","10.0","https://app.prolific.com/","en-US,en;q=0.9","5eea9a9ea8d6d71ba912a73e","683db6dfa200031b80f2a654","6865076019d962441c528aba","5eea9a9ea8d6d71ba912a73e","2025-07-02T10:22:29.559Z","","","","","","pss","{""Q01"":""2"",""Q02"":""1"",""Q03"":""3"",""Q04"":""2"",""Q05"":""2"",""Q06"":""1"",""Q07"":""3"",""Q08"":""1"",""Q09"":""2"",""Q10"":""0""}","[0,1,2,3,4,5,6,7,8,9]","[""Q01"",""Q02"",""Q03"",""Q04"",""Q05"",""Q06"",""Q07"",""Q08"",""Q09"",""Q10""]","[7120.199999988079,10458,14154.699999988079,18989.39999999106,24155.09999999404,27466.39999999106,29764.69999998808,33460.29999999702,39191,44697.19999998808]","[]","[0,7120.199999988079,10458,14154.699999988079,18989.39999999106,24155.09999999404,27466.39999999106,29764.69999998808,33460.29999999702,39191,41911.59999999404,43056.89999999106,44697.19999998808,45676.29999999702]","0.4","0.4444444444444444","0","","","","","","","","","","","","","","","","","","","","","","","","","","","","",""
"1795","1751451751355","<p style='font-size:1.1em;line-height:1.25'>Thank you for your answers! Now we will ask you a few more questions relating to your feelings in the last 24 hours.<br></p><p style='font-size:1.1em;line-height:1.25'>Press the <strong>Next</strong> button to continue.</p>","0","custom-html-button-response","17","251832","0.0-7.0-6.0","4","1","2025-07-02 10:18:17","80fe4187154257d5fb01684ea91b68b9","162.226.250.215","Mozilla/5.0 (Windows NT 10.0; Win64; x64) AppleWebKit/537.36 (KHTML, like Gecko) Chrome/138.0.0.0 Safari/537.36 Edg/138.0.0.0","WebKit","Edge","138.0.0.0","Windows","10.0","https://app.prolific.com/","en-US,en;q=0.9","5eea9a9ea8d6d71ba912a73e","683db6dfa200031b80f2a654","6865076019d962441c528aba","5eea9a9ea8d6d71ba912a73e","2025-07-02T10:22:31.356Z","","","","","","","","","","","","","","","","","","","","","","","","","","","","","","","","","","","","","","","","","","","",""
"40095.5","","","","survey-template","18","291932","0.0-7.0-7.0","4","1","2025-07-02 10:18:17","80fe4187154257d5fb01684ea91b68b9","162.226.250.215","Mozilla/5.0 (Windows NT 10.0; Win64; x64) AppleWebKit/537.36 (KHTML, like Gecko) Chrome/138.0.0.0 Safari/537.36 Edg/138.0.0.0","WebKit","Edge","138.0.0.0","Windows","10.0","https://app.prolific.com/","en-US,en;q=0.9","5eea9a9ea8d6d71ba912a73e","683db6dfa200031b80f2a654","6865076019d962441c528aba","5eea9a9ea8d6d71ba912a73e","2025-07-02T10:23:11.456Z","","","","","","drsp","{""Q01"":""0"",""Q02"":""0"",""Q03"":""0"",""Q04"":""0"",""Q05"":""0"",""Q06"":""0"",""Q07"":""0"",""Q08"":""0"",""Q09"":""0"",""Q10"":""0"",""Q11"":""0"",""Q12"":""1"",""Q13"":""1"",""Q14"":""0"",""Q15"":""0"",""Q16"":""0"",""Q17"":""0"",""Q18"":""0"",""Q19"":""0"",""Q20"":""0"",""Q21"":""0""}","[0,1,2,3,4,5,6,7,8,9,10,11,12,13,14,15,16,17,18,19,20]","[""Q01"",""Q02"",""Q03"",""Q04"",""Q05"",""Q06"",""Q07"",""Q08"",""Q09"",""Q10"",""Q11"",""Q12"",""Q12"",""Q13"",""Q12"",""Q13"",""Q14"",""Q15"",""Q16"",""Q17"",""Q18"",""Q19"",""Q20"",""Q21""]","[5091.9000000059605,5779.0999999940395,6640.70000000298,7341.70000000298,8349.5,9402.90000000596,13244.40000000596,14105.20000000298,15175.09999999404,17026.59999999404,18005.70000000298,19027.70000000298,22052.40000000596,24169.90000000596,25127.90000000596,25422.70000000298,27104.40000000596,28738.79999999702,29702.09999999404,30360.59999999404,32301.20000000298,33798.90000000596,35941.70000000298,38137.20000000298]","[]","[0,5091.9000000059605,5779.0999999940395,6640.70000000298,7341.70000000298,8349.5,9402.90000000596,13244.40000000596,14105.20000000298,15175.09999999404,17026.59999999404,18005.70000000298,19027.70000000298,22052.40000000596,24169.90000000596,25127.90000000596,25422.70000000298,27104.40000000596,28738.79999999702,29702.09999999404,30360.59999999404,32301.20000000298,33798.90000000596,35941.70000000298,38137.20000000298,40091.09999999404]","0.9047619047619048","0.1","0","","","","","","","","","","","","","","","","","","","","","","","","","","","","",""
"18025.70000000298","","","","survey-template","19","309959","0.0-7.0-8.0","4","1","2025-07-02 10:18:17","80fe4187154257d5fb01684ea91b68b9","162.226.250.215","Mozilla/5.0 (Windows NT 10.0; Win64; x64) AppleWebKit/537.36 (KHTML, like Gecko) Chrome/138.0.0.0 Safari/537.36 Edg/138.0.0.0","WebKit","Edge","138.0.0.0","Windows","10.0","https://app.prolific.com/","en-US,en;q=0.9","5eea9a9ea8d6d71ba912a73e","683db6dfa200031b80f2a654","6865076019d962441c528aba","5eea9a9ea8d6d71ba912a73e","2025-07-02T10:23:29.483Z","","","","","","stress","{""Q01"":""0"",""Q02"":""2"",""Q03"":""0""}","[0,1,2]","[""Q01"",""Q02"",""Q03""]","[3881.0999999940395,11959.29999999702,15104.89999999106]","[]","[3881.0999999940395,11959.29999999702,15104.89999999106,18024.79999999702]","0.6666666666666666","0","0","","","","","","","","","","","","","","","","","","","","","","","","","","","","",""
"67451","","","","instructions","20","377411","0.0-8.0-0.0","4","1","2025-07-02 10:18:17","80fe4187154257d5fb01684ea91b68b9","162.226.250.215","Mozilla/5.0 (Windows NT 10.0; Win64; x64) AppleWebKit/537.36 (KHTML, like Gecko) Chrome/138.0.0.0 Safari/537.36 Edg/138.0.0.0","WebKit","Edge","138.0.0.0","Windows","10.0","https://app.prolific.com/","en-US,en;q=0.9","5eea9a9ea8d6d71ba912a73e","683db6dfa200031b80f2a654","6865076019d962441c528aba","5eea9a9ea8d6d71ba912a73e","","[{""page_index"":0,""viewing_time"":17528},{""page_index"":1,""viewing_time"":23100},{""page_index"":2,""viewing_time"":9991},{""page_index"":3,""viewing_time"":16831}]","","","","","","","","","","","","","","","","","","","","","","","","","","","","","","","","","","","","","","","","","","",""
"","","","","ctl-task-cpt","21","408201","0.0-8.0-1.0","4","1","2025-07-02 10:18:17","80fe4187154257d5fb01684ea91b68b9","162.226.250.215","Mozilla/5.0 (Windows NT 10.0; Win64; x64) AppleWebKit/537.36 (KHTML, like Gecko) Chrome/138.0.0.0 Safari/537.36 Edg/138.0.0.0","WebKit","Edge","138.0.0.0","Windows","10.0","https://app.prolific.com/","en-US,en;q=0.9","5eea9a9ea8d6d71ba912a73e","683db6dfa200031b80f2a654","6865076019d962441c528aba","5eea9a9ea8d6d71ba912a73e","","","","","","","","","","","","","","","","","win-only","3","g1:SW,g2:NE","1","0","1","380218.4","2839.2","6842.5","27776.2","2","4","4","6","2","4","1","1","0","0.007575757575757576","1800.1","4000","2240","[""up"",""right""]","{""num_key_presses"":11,""num_perfect"":5,""num_errors"":3,""num_randdir"":0,""num_randdir_good_moves"":0,""num_whilered"":3,""num_whileblue"":1,""num_blue"":1,""num_good_moves"":6}","[425.57142857142856,423.6808016640799,0.4,425.57142857142856,423.6808016640799,107.3,425.57142857142856,423.6808016640799,208.7,425.57142857142856,423.6808016640799,314.2,425.57142857142856,423.6808016640799,422.7,425.57142857142856,423.6808016640799,528.8,425.57142857142856,423.6808016640799,647,425.57142857142856,423.6808016640799,760,425.57142857142856,423.6808016640799,864.8,425.57142857142856,423.6808016640799,967.7,425.57142857142856,423.6808016640799,1074.6,425.57142857142856,423.6808016640799,1176.7,425.57142857142856,423.6808016640799,1277,425.57142857142856,423.6808016640799,1382.7,425.57142857142856,423.6808016640799,1485.1,425.57142857142856,423.6808016640799,1593.6,425.57142857142856,423.6808016640799,1701.3,746.5714285714286,105.68080166407994,1811.6,746.5714285714286,105.68080166407994,1912.2,746.5714285714286,105.68080166407994,2016.2,746.5714285714286,105.68080166407994,2126.2,746.5714285714286,105.68080166407994,2230.9,746.5714285714286,105.68080166407994,2331.4,746.5714285714286,105.68080166407994,2435.1,746.5714285714286,105.68080166407994,2542.5,746.5714285714286,105.68080166407994,2646.3,746.5714285714286,105.68080166407994,2752.1,746.5714285714286,105.68080166407994,2857.3,746.5714285714286,105.68080166407994,2963.5,746.5714285714286,105.68080166407994,3064.4,746.5714285714286,105.68080166407994,3172.6,746.5714285714286,105.68080166407994,3277.6,746.5714285714286,105.68080166407994,3381.5,746.5714285714286,105.68080166407994,3481.5,746.5714285714286,105.68080166407994,3587.1,746.5714285714286,105.68080166407994,3688,746.5714285714286,105.68080166407994,3796.7,746.5714285714286,105.68080166407994,3898.1]","[449.6,449.5,1000,0.1,-550.5,""error"",""-"",""-"",""no_move"",659.6,209.9,1000,0.1,-340.4,""while_red"",""-"",""-"",""no_move"",4232.7,3782.9,2339.8,1451.8,441.2,""smooth"",""up"",""up"",""good_move"",4403.1,169.7,2610,4233.4,-2440.3,""error"",""-"",""-"",""no_move"",4567.2,163.7,2610,4233.4,-2276.2,""while_red"",""-"",""-"",""no_move"",4725.8,322.3,2610,4233.4,-2117.6,""while_red"",""-"",""-"",""no_move"",8345,3941.5,2356,5405.2,583.8,""smooth"",""up"",""up"",""good_move"",11215.7,2870.6,2430.1,8345.1,440.5,""smooth"",""up"",""up"",""good_move"",14681.8,3466,3091.6,11215.8,374.4,""while_blue"",""right"",""right"",""good_move"",17495.9,2813.8,2345.6,14682.1,468.2,""smooth"",""right"",""right"",""good_move"",20806.2,3310.2,2948.8,17496.1,361.3,""smooth"",""right"",""right"",""good_move""]","",""
"16160","","","","instructions","22","424362","0.0-8.0-2.0","4","1","2025-07-02 10:18:17","80fe4187154257d5fb01684ea91b68b9","162.226.250.215","Mozilla/5.0 (Windows NT 10.0; Win64; x64) AppleWebKit/537.36 (KHTML, like Gecko) Chrome/138.0.0.0 Safari/537.36 Edg/138.0.0.0","WebKit","Edge","138.0.0.0","Windows","10.0","https://app.prolific.com/","en-US,en;q=0.9","5eea9a9ea8d6d71ba912a73e","683db6dfa200031b80f2a654","6865076019d962441c528aba","5eea9a9ea8d6d71ba912a73e","","[{""page_index"":0,""viewing_time"":16160}]","","","","","","","","","","","","","","","","","","","","","","","","","","","","","","","","","","","","","","","","","","",""
"","","","","ctl-task-cpt","23","462723","0.0-8.0-3.0","4","1","2025-07-02 10:18:17","80fe4187154257d5fb01684ea91b68b9","162.226.250.215","Mozilla/5.0 (Windows NT 10.0; Win64; x64) AppleWebKit/537.36 (KHTML, like Gecko) Chrome/138.0.0.0 Safari/537.36 Edg/138.0.0.0","WebKit","Edge","138.0.0.0","Windows","10.0","https://app.prolific.com/","en-US,en;q=0.9","5eea9a9ea8d6d71ba912a73e","683db6dfa200031b80f2a654","6865076019d962441c528aba","5eea9a9ea8d6d71ba912a73e","","","","","","","","","","","","","","","","","win-only","3","g1:SW,g2:NE","0.35","0","3","427167.1","2674.1","6676.1","35352.7","2","4","8","6","1","2","1","1","0","0.007575757575757576","1557.1","4000","2015","[""down"",""left""]","{""num_key_presses"":7,""num_perfect"":3,""num_errors"":1,""num_randdir"":3,""num_randdir_good_moves"":2,""num_whilered"":0,""num_whileblue"":0,""num_blue"":3,""num_good_moves"":5}","[419.57142857142856,420.6808016640799,0.3,419.57142857142856,420.6808016640799,106.5,419.57142857142856,420.6808016640799,210.3,419.57142857142856,420.6808016640799,312.1,419.57142857142856,420.6808016640799,420.8,419.57142857142856,420.6808016640799,526.4,419.57142857142856,420.6808016640799,626.4,419.57142857142856,420.6808016640799,726.9,419.57142857142856,420.6808016640799,832.7,419.57142857142856,420.6808016640799,942.7,419.57142857142856,420.6808016640799,1042.9,419.57142857142856,420.6808016640799,1152,419.57142857142856,420.6808016640799,1252.1,419.57142857142856,420.6808016640799,1353.2,419.57142857142856,420.6808016640799,1556.5,71.57142857142857,777.6808016640799,1660.4,71.57142857142857,777.6808016640799,1766.3,71.57142857142857,777.6808016640799,1870.1,71.57142857142857,777.6808016640799,1972.6,71.57142857142857,777.6808016640799,2076.2,71.57142857142857,777.6808016640799,2176.5,71.57142857142857,777.6808016640799,2281.8,71.57142857142857,777.6808016640799,2393.1,71.57142857142857,777.6808016640799,2500.5,71.57142857142857,777.6808016640799,2610,71.57142857142857,777.6808016640799,2710.1,71.57142857142857,777.6808016640799,2811.2,71.57142857142857,777.6808016640799,2911.6,71.57142857142857,777.6808016640799,3015.8,71.57142857142857,777.6808016640799,3118.7,71.57142857142857,777.6808016640799,3218.9,71.57142857142857,777.6808016640799,3318.9,71.57142857142857,777.6808016640799,3426.5,71.57142857142857,777.6808016640799,3531.2,71.57142857142857,777.6808016640799,3632,71.57142857142857,777.6808016640799,3732.7,71.57142857142857,777.6808016640799,3840,71.57142857142857,777.6808016640799,3942.9]","[5170.7,5170.7,2791.1,2011.1,368.5,""oops"",""down"",""down"",""good_move"",7662.8,2491.7,1754.9,5171.2,736.8,""smooth"",""left"",""left"",""good_move"",14502.5,6839.2,2890.8,11257.4,354.3,""smooth"",""left"",""left"",""good_move"",17851.9,3349.1,2999.6,14502.8,349.5,""oops"",""down"",""up"",""bad_move"",21562.1,3709.9,3222.3,21225.8,-2886,""error"",""-"",""-"",""no_move"",25630.4,4068,2681.4,22564.4,384.6,""oops"",""down"",""down"",""good_move"",28552.2,2921.6,2506.8,25630.6,414.8,""smooth"",""down"",""down"",""good_move""]","",""
"10978","","","","instructions","24","473702","0.0-8.0-4.0","4","1","2025-07-02 10:18:17","80fe4187154257d5fb01684ea91b68b9","162.226.250.215","Mozilla/5.0 (Windows NT 10.0; Win64; x64) AppleWebKit/537.36 (KHTML, like Gecko) Chrome/138.0.0.0 Safari/537.36 Edg/138.0.0.0","WebKit","Edge","138.0.0.0","Windows","10.0","https://app.prolific.com/","en-US,en;q=0.9","5eea9a9ea8d6d71ba912a73e","683db6dfa200031b80f2a654","6865076019d962441c528aba","5eea9a9ea8d6d71ba912a73e","","[{""page_index"":0,""viewing_time"":7396},{""page_index"":1,""viewing_time"":3582}]","","","","","","","","","","","","","","","","","","","","","","","","","","","","","","","","","","","","","","","","","","",""
"10087","","","{""green_ball"":[""Ball always moves in the direction I press""]}","survey-multi-select","25","483791","0.0-8.0-5.0-0.0","4","1","2025-07-02 10:18:17","80fe4187154257d5fb01684ea91b68b9","162.226.250.215","Mozilla/5.0 (Windows NT 10.0; Win64; x64) AppleWebKit/537.36 (KHTML, like Gecko) Chrome/138.0.0.0 Safari/537.36 Edg/138.0.0.0","WebKit","Edge","138.0.0.0","Windows","10.0","https://app.prolific.com/","en-US,en;q=0.9","5eea9a9ea8d6d71ba912a73e","683db6dfa200031b80f2a654","6865076019d962441c528aba","5eea9a9ea8d6d71ba912a73e","","","[0]","","","","quiz","","","","","","","","","","","","","","","","","","","","","","","","","","","","","","","","","","","","","false",""
"7282","","<p align='center'><b>INCORRECT.</b> Usually the green ball moves in the indicated direction, but sometimes it shakes and moves randomly. </p>","0","html-button-response","26","491075","0.0-8.0-5.0-1.0","4","1","2025-07-02 10:18:17","80fe4187154257d5fb01684ea91b68b9","162.226.250.215","Mozilla/5.0 (Windows NT 10.0; Win64; x64) AppleWebKit/537.36 (KHTML, like Gecko) Chrome/138.0.0.0 Safari/537.36 Edg/138.0.0.0","WebKit","Edge","138.0.0.0","Windows","10.0","https://app.prolific.com/","en-US,en;q=0.9","5eea9a9ea8d6d71ba912a73e","683db6dfa200031b80f2a654","6865076019d962441c528aba","5eea9a9ea8d6d71ba912a73e","","","","","","","","","","","","","","","","","","","","","","","","","","","","","","","","","","","","","","","","","","","","",""
"7789","","","{""green_ball"":[""Ball sometimes shakes and moves in a random direction""]}","survey-multi-select","27","498867","0.0-8.0-5.1-0.1","4","1","2025-07-02 10:18:17","80fe4187154257d5fb01684ea91b68b9","162.226.250.215","Mozilla/5.0 (Windows NT 10.0; Win64; x64) AppleWebKit/537.36 (KHTML, like Gecko) Chrome/138.0.0.0 Safari/537.36 Edg/138.0.0.0","WebKit","Edge","138.0.0.0","Windows","10.0","https://app.prolific.com/","en-US,en;q=0.9","5eea9a9ea8d6d71ba912a73e","683db6dfa200031b80f2a654","6865076019d962441c528aba","5eea9a9ea8d6d71ba912a73e","","","[0]","","","","quiz","","","","","","","","","","","","","","","","","","","","","","","","","","","","","","","","","","","","","true",""
"3835","","<p align='center'><b>CORRECT!</b> Indeed, the green ball may sometimes shake and move in a random direction.</p>","0","html-button-response","28","502704","0.0-8.0-5.1-1.1","4","1","2025-07-02 10:18:17","80fe4187154257d5fb01684ea91b68b9","162.226.250.215","Mozilla/5.0 (Windows NT 10.0; Win64; x64) AppleWebKit/537.36 (KHTML, like Gecko) Chrome/138.0.0.0 Safari/537.36 Edg/138.0.0.0","WebKit","Edge","138.0.0.0","Windows","10.0","https://app.prolific.com/","en-US,en;q=0.9","5eea9a9ea8d6d71ba912a73e","683db6dfa200031b80f2a654","6865076019d962441c528aba","5eea9a9ea8d6d71ba912a73e","","","","","","","","","","","","","","","","","","","","","","","","","","","","","","","","","","","","","","","","","","","","",""
"12414","","","{""yellow_ball"":[""Ball doesn‘t move and I get -1 penalty point""]}","survey-multi-select","29","515120","0.0-8.0-6.0-0.0","4","1","2025-07-02 10:18:17","80fe4187154257d5fb01684ea91b68b9","162.226.250.215","Mozilla/5.0 (Windows NT 10.0; Win64; x64) AppleWebKit/537.36 (KHTML, like Gecko) Chrome/138.0.0.0 Safari/537.36 Edg/138.0.0.0","WebKit","Edge","138.0.0.0","Windows","10.0","https://app.prolific.com/","en-US,en;q=0.9","5eea9a9ea8d6d71ba912a73e","683db6dfa200031b80f2a654","6865076019d962441c528aba","5eea9a9ea8d6d71ba912a73e","","","[0]","","","","quiz","","","","","","","","","","","","","","","","","","","","","","","","","","","","","","","","","","","","","true",""
"1341","","<p align='center'><b>CORRECT!</b> Indeed, the yellow ball never moves and you receive a penalty.</p>","0","html-button-response","30","516463","0.0-8.0-6.0-1.0","4","1","2025-07-02 10:18:17","80fe4187154257d5fb01684ea91b68b9","162.226.250.215","Mozilla/5.0 (Windows NT 10.0; Win64; x64) AppleWebKit/537.36 (KHTML, like Gecko) Chrome/138.0.0.0 Safari/537.36 Edg/138.0.0.0","WebKit","Edge","138.0.0.0","Windows","10.0","https://app.prolific.com/","en-US,en;q=0.9","5eea9a9ea8d6d71ba912a73e","683db6dfa200031b80f2a654","6865076019d962441c528aba","5eea9a9ea8d6d71ba912a73e","","","","","","","","","","","","","","","","","","","","","","","","","","","","","","","","","","","","","","","","","","","","",""
"31450","","","{""blue_ball"":[""Ball always shakes and moves in a random direction"",""Ball doesn‘t move and I get -1 penalty point""]}","survey-multi-select","31","547915","0.0-8.0-7.0-0.0","4","1","2025-07-02 10:18:17","80fe4187154257d5fb01684ea91b68b9","162.226.250.215","Mozilla/5.0 (Windows NT 10.0; Win64; x64) AppleWebKit/537.36 (KHTML, like Gecko) Chrome/138.0.0.0 Safari/537.36 Edg/138.0.0.0","WebKit","Edge","138.0.0.0","Windows","10.0","https://app.prolific.com/","en-US,en;q=0.9","5eea9a9ea8d6d71ba912a73e","683db6dfa200031b80f2a654","6865076019d962441c528aba","5eea9a9ea8d6d71ba912a73e","","","[0]","","","","quiz","","","","","","","","","","","","","","","","","","","","","","","","","","","","","","","","","","","","","false",""
"2986","","<p align='center'><b>INCORRECT.</b> The blue ball always shakes and moves randomly.</p>","0","html-button-response","32","550902","0.0-8.0-7.0-1.0","4","1","2025-07-02 10:18:17","80fe4187154257d5fb01684ea91b68b9","162.226.250.215","Mozilla/5.0 (Windows NT 10.0; Win64; x64) AppleWebKit/537.36 (KHTML, like Gecko) Chrome/138.0.0.0 Safari/537.36 Edg/138.0.0.0","WebKit","Edge","138.0.0.0","Windows","10.0","https://app.prolific.com/","en-US,en;q=0.9","5eea9a9ea8d6d71ba912a73e","683db6dfa200031b80f2a654","6865076019d962441c528aba","5eea9a9ea8d6d71ba912a73e","","","","","","","","","","","","","","","","","","","","","","","","","","","","","","","","","","","","","","","","","","","","",""
"6973","","","{""blue_ball"":[""Ball always shakes and moves in a random direction""]}","survey-multi-select","33","557878","0.0-8.0-7.1-0.1","4","1","2025-07-02 10:18:17","80fe4187154257d5fb01684ea91b68b9","162.226.250.215","Mozilla/5.0 (Windows NT 10.0; Win64; x64) AppleWebKit/537.36 (KHTML, like Gecko) Chrome/138.0.0.0 Safari/537.36 Edg/138.0.0.0","WebKit","Edge","138.0.0.0","Windows","10.0","https://app.prolific.com/","en-US,en;q=0.9","5eea9a9ea8d6d71ba912a73e","683db6dfa200031b80f2a654","6865076019d962441c528aba","5eea9a9ea8d6d71ba912a73e","","","[0]","","","","quiz","","","","","","","","","","","","","","","","","","","","","","","","","","","","","","","","","","","","","true",""
"1398","","<p align='center'><b>CORRECT!</b> Indeed, the blue ball always shakes and moves in a random direction. Also there is a penalty of -1 point.</p>","0","html-button-response","34","559277","0.0-8.0-7.1-1.1","4","1","2025-07-02 10:18:17","80fe4187154257d5fb01684ea91b68b9","162.226.250.215","Mozilla/5.0 (Windows NT 10.0; Win64; x64) AppleWebKit/537.36 (KHTML, like Gecko) Chrome/138.0.0.0 Safari/537.36 Edg/138.0.0.0","WebKit","Edge","138.0.0.0","Windows","10.0","https://app.prolific.com/","en-US,en;q=0.9","5eea9a9ea8d6d71ba912a73e","683db6dfa200031b80f2a654","6865076019d962441c528aba","5eea9a9ea8d6d71ba912a73e","","","","","","","","","","","","","","","","","","","","","","","","","","","","","","","","","","","","","","","","","","","","",""
"7430","","","{""bonus"":[""When I reach 50% of points""]}","survey-multi-select","35","566709","0.0-8.0-8.0-0.0","4","1","2025-07-02 10:18:17","80fe4187154257d5fb01684ea91b68b9","162.226.250.215","Mozilla/5.0 (Windows NT 10.0; Win64; x64) AppleWebKit/537.36 (KHTML, like Gecko) Chrome/138.0.0.0 Safari/537.36 Edg/138.0.0.0","WebKit","Edge","138.0.0.0","Windows","10.0","https://app.prolific.com/","en-US,en;q=0.9","5eea9a9ea8d6d71ba912a73e","683db6dfa200031b80f2a654","6865076019d962441c528aba","5eea9a9ea8d6d71ba912a73e","","","[0]","","","","quiz","","","","","","","","","","","","","","","","","","","","","","","","","","","","","","","","","","","","","true",""
"1731","","<p align='center'><b>CORRECT!</b> Indeed, you receive 2 pounds extra when you reach 50% of points.</p>","0","html-button-response","36","568441","0.0-8.0-8.0-1.0","4","1","2025-07-02 10:18:17","80fe4187154257d5fb01684ea91b68b9","162.226.250.215","Mozilla/5.0 (Windows NT 10.0; Win64; x64) AppleWebKit/537.36 (KHTML, like Gecko) Chrome/138.0.0.0 Safari/537.36 Edg/138.0.0.0","WebKit","Edge","138.0.0.0","Windows","10.0","https://app.prolific.com/","en-US,en;q=0.9","5eea9a9ea8d6d71ba912a73e","683db6dfa200031b80f2a654","6865076019d962441c528aba","5eea9a9ea8d6d71ba912a73e","","","","","","","","","","","","","","","","","","","","","","","","","","","","","","","","","","","","","","","","","","","","",""
"2770","","","","instructions","37","571212","0.0-8.0-9.0","4","1","2025-07-02 10:18:17","80fe4187154257d5fb01684ea91b68b9","162.226.250.215","Mozilla/5.0 (Windows NT 10.0; Win64; x64) AppleWebKit/537.36 (KHTML, like Gecko) Chrome/138.0.0.0 Safari/537.36 Edg/138.0.0.0","WebKit","Edge","138.0.0.0","Windows","10.0","https://app.prolific.com/","en-US,en;q=0.9","5eea9a9ea8d6d71ba912a73e","683db6dfa200031b80f2a654","6865076019d962441c528aba","5eea9a9ea8d6d71ba912a73e","","[{""page_index"":0,""viewing_time"":2769}]","","","","","","","","","","","","","","","","","","","","","","","","","","","","","","","","","","","","","","","","","","",""
"17384","","<p>Before you start with this game please answer the following three questions yourself. </p>
  <p>Through this game, we measure several aspects of your cognitive performance, such as reaction times, multi-tasking capabilities </p>
  <p>and the ability to assess the situation you are in.</p>
  <p></p>
  <p><b>How good do you usually are in such tasks?</b></p>","70","html-slider-response","38","588597","0.0-9.0-0.0","4","1","2025-07-02 10:18:17","80fe4187154257d5fb01684ea91b68b9","162.226.250.215","Mozilla/5.0 (Windows NT 10.0; Win64; x64) AppleWebKit/537.36 (KHTML, like Gecko) Chrome/138.0.0.0 Safari/537.36 Edg/138.0.0.0","WebKit","Edge","138.0.0.0","Windows","10.0","https://app.prolific.com/","en-US,en;q=0.9","5eea9a9ea8d6d71ba912a73e","683db6dfa200031b80f2a654","6865076019d962441c528aba","5eea9a9ea8d6d71ba912a73e","2025-07-02T10:28:08.121Z","","","","","","PreSkillQ","","","","","","","","","","","","","","","","","","","","","","","","","","","","","","","","","","","","","","50"
"5249","","<div style=""width:500px;"">
  <p>How well do you think you will perform in this task compared to other participants?</p>
  </div>","55","html-slider-response","39","593848","0.0-9.0-1.0","4","1","2025-07-02 10:18:17","80fe4187154257d5fb01684ea91b68b9","162.226.250.215","Mozilla/5.0 (Windows NT 10.0; Win64; x64) AppleWebKit/537.36 (KHTML, like Gecko) Chrome/138.0.0.0 Safari/537.36 Edg/138.0.0.0","WebKit","Edge","138.0.0.0","Windows","10.0","https://app.prolific.com/","en-US,en;q=0.9","5eea9a9ea8d6d71ba912a73e","683db6dfa200031b80f2a654","6865076019d962441c528aba","5eea9a9ea8d6d71ba912a73e","2025-07-02T10:28:13.372Z","","","","","","PrePerfQ","","","","","","","","","","","","","","","","","","","","","","","","","","","","","","","","","","","","","","50"
"4900","","<div style=""width:500px;"">
  <p>What best describes how you currently feel?</p>
  </div>","100","html-slider-response","40","598749","0.0-9.0-2.0","4","1","2025-07-02 10:18:17","80fe4187154257d5fb01684ea91b68b9","162.226.250.215","Mozilla/5.0 (Windows NT 10.0; Win64; x64) AppleWebKit/537.36 (KHTML, like Gecko) Chrome/138.0.0.0 Safari/537.36 Edg/138.0.0.0","WebKit","Edge","138.0.0.0","Windows","10.0","https://app.prolific.com/","en-US,en;q=0.9","5eea9a9ea8d6d71ba912a73e","683db6dfa200031b80f2a654","6865076019d962441c528aba","5eea9a9ea8d6d71ba912a73e","2025-07-02T10:28:18.274Z","","","","","","PreMotivationQ","","","","","","","","","","","","","","","","","","","","","","","","","","","","","","","","","","","","","","50"
"","","","","ctl-task-cpt","41","635596","0.0-10.0-0.0","4","1","2025-07-02 10:18:17","80fe4187154257d5fb01684ea91b68b9","162.226.250.215","Mozilla/5.0 (Windows NT 10.0; Win64; x64) AppleWebKit/537.36 (KHTML, like Gecko) Chrome/138.0.0.0 Safari/537.36 Edg/138.0.0.0","WebKit","Edge","138.0.0.0","Windows","10.0","https://app.prolific.com/","en-US,en;q=0.9","5eea9a9ea8d6d71ba912a73e","683db6dfa200031b80f2a654","6865076019d962441c528aba","5eea9a9ea8d6d71ba912a73e","2025-07-02T10:28:55.120Z","","","","","","","","","","","","","","","","win-only","0","g1:NW,g2:SE","1","1","0","601556.8","4263.5","9273.8","33829.7","1","4","8","6","2","8","8","8","0","0.06060606060606061","2031.6","3000","1350","[""down"",""right""]","{""num_key_presses"":6,""num_perfect"":6,""num_errors"":0,""num_randdir"":0,""num_randdir_good_moves"":0,""num_whilered"":0,""num_whileblue"":0,""num_blue"":3,""num_good_moves"":6}","[419.57142857142856,423.6808016640799,0.6,419.57142857142856,423.6808016640799,108.1,419.57142857142856,423.6808016640799,213.1,419.57142857142856,423.6808016640799,314.5,419.57142857142856,423.6808016640799,418.6,419.57142857142856,423.6808016640799,525.8,419.57142857142856,423.6808016640799,627.8,419.57142857142856,423.6808016640799,740.2,419.57142857142856,423.6808016640799,842.3,419.57142857142856,423.6808016640799,953.5,419.57142857142856,423.6808016640799,1056,419.57142857142856,423.6808016640799,1158.4,419.57142857142856,423.6808016640799,1267.4,419.57142857142856,423.6808016640799,1373.5,419.57142857142856,423.6808016640799,1474,419.57142857142856,423.6808016640799,1579.7,419.57142857142856,423.6808016640799,1680.1,419.57142857142856,423.6808016640799,1786.7,419.57142857142856,423.6808016640799,1895.8,760.0714285714286,762.6808016640799,2043.3,760.0714285714286,762.6808016640799,2149.7,760.0714285714286,762.6808016640799,2252.4,760.0714285714286,762.6808016640799,2359.2,760.0714285714286,762.6808016640799,2463.4,760.0714285714286,762.6808016640799,2564.1,760.0714285714286,762.6808016640799,2675.4,760.0714285714286,762.6808016640799,2777,760.0714285714286,762.6808016640799,2882.1,760.0714285714286,762.6808016640799,2983.4,760.0714285714286,762.6808016640799,3092.2,760.0714285714286,762.6808016640799,3195.9,760.0714285714286,762.6808016640799,3299,760.0714285714286,762.6808016640799,3405.9,760.0714285714286,762.6808016640799,3509.3,760.0714285714286,762.6808016640799,3609.4,760.0714285714286,762.6808016640799,3717,760.0714285714286,762.6808016640799,3818.6,760.0714285714286,762.6808016640799,3923.2,760.0714285714286,762.6808016640799,4029.2,760.0714285714286,762.6808016640799,4133.4,760.0714285714286,762.6808016640799,4241.9,760.0714285714286,762.6808016640799,4342.4,760.0714285714286,762.6808016640799,4446.9,760.0714285714286,762.6808016640799,4550.7,760.0714285714286,762.6808016640799,4653.4,760.0714285714286,762.6808016640799,4753.8,760.0714285714286,762.6808016640799,4859.5,760.0714285714286,762.6808016640799,4959.6]","[1440.5,1440.5,1000,0,440.5,""smooth"",""down"",""down"",""good_move"",13326.4,11885.3,2177.3,10801.5,347.6,""smooth"",""down"",""down"",""good_move"",16430.2,3103.6,2636.7,13326.7,466.9,""smooth"",""right"",""right"",""good_move"",19208.4,2777.5,2439.3,16430.9,338.2,""smooth"",""right"",""right"",""good_move"",22007.7,2799,2497.4,19208.7,301.6,""smooth"",""down"",""down"",""good_move"",24443.8,2435.9,2110.7,22007.9,325.2,""smooth"",""right"",""right"",""good_move""]","",""
"6241","","<div style=""width:500px;"">
  <p>What determined the result of this run?</p>
  </div>","100","html-slider-response","42","641838","0.0-10.0-1.0","4","1","2025-07-02 10:18:17","80fe4187154257d5fb01684ea91b68b9","162.226.250.215","Mozilla/5.0 (Windows NT 10.0; Win64; x64) AppleWebKit/537.36 (KHTML, like Gecko) Chrome/138.0.0.0 Safari/537.36 Edg/138.0.0.0","WebKit","Edge","138.0.0.0","Windows","10.0","https://app.prolific.com/","en-US,en;q=0.9","5eea9a9ea8d6d71ba912a73e","683db6dfa200031b80f2a654","6865076019d962441c528aba","5eea9a9ea8d6d71ba912a73e","2025-07-02T10:29:01.362Z","","","","","","AttribQ","","","","","","","","","","","","","","","","","","","","","","","","","","","","","","","","","","","","","","50"
"2670","","<div style=""width:500px;"">
  <p>How much control did you have over the ball?</p>
  </div>","100","html-slider-response","43","644509","0.0-10.0-2.0","4","1","2025-07-02 10:18:17","80fe4187154257d5fb01684ea91b68b9","162.226.250.215","Mozilla/5.0 (Windows NT 10.0; Win64; x64) AppleWebKit/537.36 (KHTML, like Gecko) Chrome/138.0.0.0 Safari/537.36 Edg/138.0.0.0","WebKit","Edge","138.0.0.0","Windows","10.0","https://app.prolific.com/","en-US,en;q=0.9","5eea9a9ea8d6d71ba912a73e","683db6dfa200031b80f2a654","6865076019d962441c528aba","5eea9a9ea8d6d71ba912a73e","2025-07-02T10:29:04.033Z","","","","","","ControlQ","","","","","","","","","","","","","","","","","","","","","","","","","","","","","","","","","","","","","","50"
"5272","","<div style=""width:500px;"">
  <p>How would you describe your current emotional state?</p>
  </div>","2","html-slider-response","44","649781","0.0-10.0-3.0","4","1","2025-07-02 10:18:17","80fe4187154257d5fb01684ea91b68b9","162.226.250.215","Mozilla/5.0 (Windows NT 10.0; Win64; x64) AppleWebKit/537.36 (KHTML, like Gecko) Chrome/138.0.0.0 Safari/537.36 Edg/138.0.0.0","WebKit","Edge","138.0.0.0","Windows","10.0","https://app.prolific.com/","en-US,en;q=0.9","5eea9a9ea8d6d71ba912a73e","683db6dfa200031b80f2a654","6865076019d962441c528aba","5eea9a9ea8d6d71ba912a73e","2025-07-02T10:29:09.305Z","","","","","","StressQ","","","","","","","","","","","","","","","","","","","","","","","","","","","","","","","","","","","","","","50"
"5236","","<div style=""width:500px;"">
  <p>What best describes how you currently feel?</p>
  </div>","100","html-slider-response","45","655019","0.0-10.0-4.0","4","1","2025-07-02 10:18:17","80fe4187154257d5fb01684ea91b68b9","162.226.250.215","Mozilla/5.0 (Windows NT 10.0; Win64; x64) AppleWebKit/537.36 (KHTML, like Gecko) Chrome/138.0.0.0 Safari/537.36 Edg/138.0.0.0","WebKit","Edge","138.0.0.0","Windows","10.0","https://app.prolific.com/","en-US,en;q=0.9","5eea9a9ea8d6d71ba912a73e","683db6dfa200031b80f2a654","6865076019d962441c528aba","5eea9a9ea8d6d71ba912a73e","2025-07-02T10:29:14.543Z","","","","","","MotivationQ","","","","","","","","","","","","","","","","","","","","","","","","","","","","","","","","","","","","","","50"
"","","","","ctl-task-cpt","46","691790","0.0-10.0-0.1","4","1","2025-07-02 10:18:17","80fe4187154257d5fb01684ea91b68b9","162.226.250.215","Mozilla/5.0 (Windows NT 10.0; Win64; x64) AppleWebKit/537.36 (KHTML, like Gecko) Chrome/138.0.0.0 Safari/537.36 Edg/138.0.0.0","WebKit","Edge","138.0.0.0","Windows","10.0","https://app.prolific.com/","en-US,en;q=0.9","5eea9a9ea8d6d71ba912a73e","683db6dfa200031b80f2a654","6865076019d962441c528aba","5eea9a9ea8d6d71ba912a73e","2025-07-02T10:29:51.314Z","","","","","","","","","","","","","","","","win-only","1","g1:NE,g2:SW","0.9","2","0","657826","3156.9","8161","33759","1","4","4","6","2","4","3","11","8","0.08333333333333333","1224.1","3000","1030","[""down"",""left""]","{""num_key_presses"":8,""num_perfect"":6,""num_errors"":1,""num_randdir"":1,""num_randdir_good_moves"":0,""num_whilered"":0,""num_whileblue"":1,""num_blue"":2,""num_good_moves"":7}","[418.07142857142856,419.1808016640799,0.3,418.07142857142856,419.1808016640799,104.1,418.07142857142856,419.1808016640799,204.3,418.07142857142856,419.1808016640799,309.9,418.07142857142856,419.1808016640799,413.9,418.07142857142856,419.1808016640799,514.6,418.07142857142856,419.1808016640799,617.8,418.07142857142856,419.1808016640799,718.3,418.07142857142856,419.1808016640799,820.3,418.07142857142856,419.1808016640799,920.7,418.07142857142856,419.1808016640799,1026.7,418.07142857142856,419.1808016640799,1126.8,77.57142857142857,780.6808016640799,1238.5,77.57142857142857,780.6808016640799,1338.9,77.57142857142857,780.6808016640799,1444.4,77.57142857142857,780.6808016640799,1544.7,77.57142857142857,780.6808016640799,1645,77.57142857142857,780.6808016640799,1752.2,77.57142857142857,780.6808016640799,1859,77.57142857142857,780.6808016640799,1959,77.57142857142857,780.6808016640799,2060.8,77.57142857142857,780.6808016640799,2170,77.57142857142857,780.6808016640799,2275.1,77.57142857142857,780.6808016640799,2376,77.57142857142857,780.6808016640799,2479.6,77.57142857142857,780.6808016640799,2584.1,77.57142857142857,780.6808016640799,2686.5,77.57142857142857,780.6808016640799,2786.5,77.57142857142857,780.6808016640799,2889.2,77.57142857142857,780.6808016640799,2991.8,77.57142857142857,780.6808016640799,3098.2,77.57142857142857,780.6808016640799,3204.4,77.57142857142857,780.6808016640799,3309.7,77.57142857142857,780.6808016640799,3416.7,77.57142857142857,780.6808016640799,3521.2,77.57142857142857,780.6808016640799,3624.5,77.57142857142857,780.6808016640799,3725.7,77.57142857142857,780.6808016640799,3835.8,77.57142857142857,780.6808016640799,3938.1,77.57142857142857,780.6808016640799,4041.8,77.57142857142857,780.6808016640799,4144.7,77.57142857142857,780.6808016640799,4252.5,77.57142857142857,780.6808016640799,4353.7,77.57142857142857,780.6808016640799,4454,77.57142857142857,780.6808016640799,4554.4,77.57142857142857,780.6808016640799,4659.9,77.57142857142857,780.6808016640799,4760.4,77.57142857142857,780.6808016640799,4864.2,77.57142857142857,780.6808016640799,4969.9]","[4337.9,4337.9,1944.9,2008,385,""smooth"",""down"",""down"",""good_move"",7524.1,3185.6,2797.6,4338.6,388,""smooth"",""down"",""down"",""good_move"",10388.1,2863.8,2519.8,7524.4,344,""oops"",""left"",""up"",""bad_move"",13640.2,3251.7,2912,10388.5,339.7,""while_blue"",""left"",""left"",""good_move"",16243.8,2603.1,2114.2,13640.8,488.8,""smooth"",""left"",""left"",""good_move"",19155.9,2911.9,2566.1,16244,345.8,""smooth"",""down"",""down"",""good_move"",22472.1,3315.6,2993.8,19156.5,321.8,""smooth"",""down"",""down"",""good_move"",25490.1,3017.8,2741.9,22472.3,275.9,""smooth"",""left"",""left"",""good_move""]","",""
"8064","","<div style=""width:500px;"">
  <p>What determined the result of this run?</p>
  </div>","60","html-slider-response","47","699855","0.0-10.0-1.1","4","1","2025-07-02 10:18:17","80fe4187154257d5fb01684ea91b68b9","162.226.250.215","Mozilla/5.0 (Windows NT 10.0; Win64; x64) AppleWebKit/537.36 (KHTML, like Gecko) Chrome/138.0.0.0 Safari/537.36 Edg/138.0.0.0","WebKit","Edge","138.0.0.0","Windows","10.0","https://app.prolific.com/","en-US,en;q=0.9","5eea9a9ea8d6d71ba912a73e","683db6dfa200031b80f2a654","6865076019d962441c528aba","5eea9a9ea8d6d71ba912a73e","2025-07-02T10:29:59.379Z","","","","","","AttribQ","","","","","","","","","","","","","","","","","","","","","","","","","","","","","","","","","","","","","","50"
"3468","","<div style=""width:500px;"">
  <p>How much control did you have over the ball?</p>
  </div>","57","html-slider-response","48","703324","0.0-10.0-2.1","4","1","2025-07-02 10:18:17","80fe4187154257d5fb01684ea91b68b9","162.226.250.215","Mozilla/5.0 (Windows NT 10.0; Win64; x64) AppleWebKit/537.36 (KHTML, like Gecko) Chrome/138.0.0.0 Safari/537.36 Edg/138.0.0.0","WebKit","Edge","138.0.0.0","Windows","10.0","https://app.prolific.com/","en-US,en;q=0.9","5eea9a9ea8d6d71ba912a73e","683db6dfa200031b80f2a654","6865076019d962441c528aba","5eea9a9ea8d6d71ba912a73e","2025-07-02T10:30:02.849Z","","","","","","ControlQ","","","","","","","","","","","","","","","","","","","","","","","","","","","","","","","","","","","","","","50"
"4099","","<div style=""width:500px;"">
  <p>How would you describe your current emotional state?</p>
  </div>","2","html-slider-response","49","707425","0.0-10.0-3.1","4","1","2025-07-02 10:18:17","80fe4187154257d5fb01684ea91b68b9","162.226.250.215","Mozilla/5.0 (Windows NT 10.0; Win64; x64) AppleWebKit/537.36 (KHTML, like Gecko) Chrome/138.0.0.0 Safari/537.36 Edg/138.0.0.0","WebKit","Edge","138.0.0.0","Windows","10.0","https://app.prolific.com/","en-US,en;q=0.9","5eea9a9ea8d6d71ba912a73e","683db6dfa200031b80f2a654","6865076019d962441c528aba","5eea9a9ea8d6d71ba912a73e","2025-07-02T10:30:06.949Z","","","","","","StressQ","","","","","","","","","","","","","","","","","","","","","","","","","","","","","","","","","","","","","","50"
"3445","","<div style=""width:500px;"">
  <p>What best describes how you currently feel?</p>
  </div>","100","html-slider-response","50","710871","0.0-10.0-4.1","4","1","2025-07-02 10:18:17","80fe4187154257d5fb01684ea91b68b9","162.226.250.215","Mozilla/5.0 (Windows NT 10.0; Win64; x64) AppleWebKit/537.36 (KHTML, like Gecko) Chrome/138.0.0.0 Safari/537.36 Edg/138.0.0.0","WebKit","Edge","138.0.0.0","Windows","10.0","https://app.prolific.com/","en-US,en;q=0.9","5eea9a9ea8d6d71ba912a73e","683db6dfa200031b80f2a654","6865076019d962441c528aba","5eea9a9ea8d6d71ba912a73e","2025-07-02T10:30:10.395Z","","","","","","MotivationQ","","","","","","","","","","","","","","","","","","","","","","","","","","","","","","","","","","","","","","50"
"","","","","ctl-task-cpt","51","759777","0.0-10.0-0.2","4","1","2025-07-02 10:18:17","80fe4187154257d5fb01684ea91b68b9","162.226.250.215","Mozilla/5.0 (Windows NT 10.0; Win64; x64) AppleWebKit/537.36 (KHTML, like Gecko) Chrome/138.0.0.0 Safari/537.36 Edg/138.0.0.0","WebKit","Edge","138.0.0.0","Windows","10.0","https://app.prolific.com/","en-US,en;q=0.9","5eea9a9ea8d6d71ba912a73e","683db6dfa200031b80f2a654","6865076019d962441c528aba","5eea9a9ea8d6d71ba912a73e","2025-07-02T10:30:59.301Z","","","","","","","","","","","","","","","","win-only","0","g1:NW,g2:SE","0.8","3","0","713679.3","1139.5","6141.8","45897.4","1","4","8","6","2","8","7","18","11","0.13636363636363635","1275.3","3000","825","[""down"",""right""]","{""num_key_presses"":10,""num_perfect"":8,""num_errors"":1,""num_randdir"":1,""num_randdir_good_moves"":0,""num_whilered"":0,""num_whileblue"":1,""num_blue"":4,""num_good_moves"":8}","[418.07142857142856,416.1808016640799,0.2,418.07142857142856,416.1808016640799,102.4,418.07142857142856,416.1808016640799,206.8,418.07142857142856,416.1808016640799,313.7,418.07142857142856,416.1808016640799,414.7,418.07142857142856,416.1808016640799,518.3,418.07142857142856,416.1808016640799,618.4,418.07142857142856,416.1808016640799,726.3,418.07142857142856,416.1808016640799,827.2,418.07142857142856,416.1808016640799,936.3,418.07142857142856,416.1808016640799,1038.5,418.07142857142856,416.1808016640799,1144.2,766.0714285714286,746.1808016640799,1276.4,766.0714285714286,746.1808016640799,1385,766.0714285714286,746.1808016640799,1486,766.0714285714286,746.1808016640799,1586.6,766.0714285714286,746.1808016640799,1688.1,766.0714285714286,746.1808016640799,1791.4,766.0714285714286,746.1808016640799,1891.5,766.0714285714286,746.1808016640799,1992.4,766.0714285714286,746.1808016640799,2097.4,766.0714285714286,746.1808016640799,2197.9,766.0714285714286,746.1808016640799,2302.2,766.0714285714286,746.1808016640799,2403.9,766.0714285714286,746.1808016640799,2506.8,766.0714285714286,746.1808016640799,2609,766.0714285714286,746.1808016640799,2717.9,766.0714285714286,746.1808016640799,2825.3,766.0714285714286,746.1808016640799,2930.8,766.0714285714286,746.1808016640799,3030.8,766.0714285714286,746.1808016640799,3135.1,766.0714285714286,746.1808016640799,3235.1,766.0714285714286,746.1808016640799,3341,766.0714285714286,746.1808016640799,3441.4,766.0714285714286,746.1808016640799,3543,766.0714285714286,746.1808016640799,3649.9,766.0714285714286,746.1808016640799,3757.8,766.0714285714286,746.1808016640799,3863.4,766.0714285714286,746.1808016640799,3969.2,766.0714285714286,746.1808016640799,4074.2,766.0714285714286,746.1808016640799,4174.3,766.0714285714286,746.1808016640799,4282.1,766.0714285714286,746.1808016640799,4383.4,766.0714285714286,746.1808016640799,4485.8,766.0714285714286,746.1808016640799,4587.3,766.0714285714286,746.1808016640799,4691.9,766.0714285714286,746.1808016640799,4800.1,766.0714285714286,746.1808016640799,4901.4]","[1362.8,1362.8,1000,0,362.8,""smooth"",""down"",""down"",""good_move"",3431.6,2068.5,1731.2,1363.1,337.3,""smooth"",""down"",""down"",""good_move"",7105.4,3673.3,3312.3,3432.1,361,""smooth"",""down"",""down"",""good_move"",9722.7,2616.8,2294.1,7105.9,322.7,""while_blue"",""right"",""left"",""bad_move"",16857.4,7133.8,2446,14107.5,303.9,""smooth"",""right"",""right"",""good_move"",20541,3683.3,3366.1,16857.7,317.2,""smooth"",""right"",""right"",""good_move"",23775.8,3234.4,2932,20541.4,302.4,""oops"",""right"",""up"",""bad_move"",27006.5,3230.3,2855.7,23776.2,374.6,""smooth"",""right"",""right"",""good_move"",29527.8,2521.1,2214.6,27006.7,306.5,""smooth"",""down"",""down"",""good_move"",39640.7,10112.4,2861.9,36409.6,369.2,""smooth"",""right"",""right"",""good_move""]","",""
"2651","","<div style=""width:500px;"">
  <p>What determined the result of this run?</p>
  </div>","90","html-slider-response","52","762429","0.0-10.0-1.2","4","1","2025-07-02 10:18:17","80fe4187154257d5fb01684ea91b68b9","162.226.250.215","Mozilla/5.0 (Windows NT 10.0; Win64; x64) AppleWebKit/537.36 (KHTML, like Gecko) Chrome/138.0.0.0 Safari/537.36 Edg/138.0.0.0","WebKit","Edge","138.0.0.0","Windows","10.0","https://app.prolific.com/","en-US,en;q=0.9","5eea9a9ea8d6d71ba912a73e","683db6dfa200031b80f2a654","6865076019d962441c528aba","5eea9a9ea8d6d71ba912a73e","2025-07-02T10:31:01.953Z","","","","","","AttribQ","","","","","","","","","","","","","","","","","","","","","","","","","","","","","","","","","","","","","","50"
"2976","","<div style=""width:500px;"">
  <p>How much control did you have over the ball?</p>
  </div>","71","html-slider-response","53","765406","0.0-10.0-2.2","4","1","2025-07-02 10:18:17","80fe4187154257d5fb01684ea91b68b9","162.226.250.215","Mozilla/5.0 (Windows NT 10.0; Win64; x64) AppleWebKit/537.36 (KHTML, like Gecko) Chrome/138.0.0.0 Safari/537.36 Edg/138.0.0.0","WebKit","Edge","138.0.0.0","Windows","10.0","https://app.prolific.com/","en-US,en;q=0.9","5eea9a9ea8d6d71ba912a73e","683db6dfa200031b80f2a654","6865076019d962441c528aba","5eea9a9ea8d6d71ba912a73e","2025-07-02T10:31:04.930Z","","","","","","ControlQ","","","","","","","","","","","","","","","","","","","","","","","","","","","","","","","","","","","","","","50"
"3151","","<div style=""width:500px;"">
  <p>How would you describe your current emotional state?</p>
  </div>","0","html-slider-response","54","768558","0.0-10.0-3.2","4","1","2025-07-02 10:18:17","80fe4187154257d5fb01684ea91b68b9","162.226.250.215","Mozilla/5.0 (Windows NT 10.0; Win64; x64) AppleWebKit/537.36 (KHTML, like Gecko) Chrome/138.0.0.0 Safari/537.36 Edg/138.0.0.0","WebKit","Edge","138.0.0.0","Windows","10.0","https://app.prolific.com/","en-US,en;q=0.9","5eea9a9ea8d6d71ba912a73e","683db6dfa200031b80f2a654","6865076019d962441c528aba","5eea9a9ea8d6d71ba912a73e","2025-07-02T10:31:08.082Z","","","","","","StressQ","","","","","","","","","","","","","","","","","","","","","","","","","","","","","","","","","","","","","","50"
"2369","","<div style=""width:500px;"">
  <p>What best describes how you currently feel?</p>
  </div>","100","html-slider-response","55","770929","0.0-10.0-4.2","4","1","2025-07-02 10:18:17","80fe4187154257d5fb01684ea91b68b9","162.226.250.215","Mozilla/5.0 (Windows NT 10.0; Win64; x64) AppleWebKit/537.36 (KHTML, like Gecko) Chrome/138.0.0.0 Safari/537.36 Edg/138.0.0.0","WebKit","Edge","138.0.0.0","Windows","10.0","https://app.prolific.com/","en-US,en;q=0.9","5eea9a9ea8d6d71ba912a73e","683db6dfa200031b80f2a654","6865076019d962441c528aba","5eea9a9ea8d6d71ba912a73e","2025-07-02T10:31:10.453Z","","","","","","MotivationQ","","","","","","","","","","","","","","","","","","","","","","","","","","","","","","","","","","","","","","50"
"","","","","ctl-task-cpt","56","822961","0.0-10.0-0.3","4","1","2025-07-02 10:18:17","80fe4187154257d5fb01684ea91b68b9","162.226.250.215","Mozilla/5.0 (Windows NT 10.0; Win64; x64) AppleWebKit/537.36 (KHTML, like Gecko) Chrome/138.0.0.0 Safari/537.36 Edg/138.0.0.0","WebKit","Edge","138.0.0.0","Windows","10.0","https://app.prolific.com/","en-US,en;q=0.9","5eea9a9ea8d6d71ba912a73e","683db6dfa200031b80f2a654","6865076019d962441c528aba","5eea9a9ea8d6d71ba912a73e","2025-07-02T10:32:02.485Z","","","","","","","","","","","","","","","","win-only","3","g1:SW,g2:NE","0.7","4","0","773742.6","1097.4","6101.4","49011.7","1","4","4","6","2","4","3","21","18","0.1590909090909091","1175.9","3000","645","[""up"",""right""]","{""num_key_presses"":10,""num_perfect"":7,""num_errors"":1,""num_randdir"":2,""num_randdir_good_moves"":0,""num_whilered"":0,""num_whileblue"":1,""num_blue"":6,""num_good_moves"":8}","[404.57142857142856,416.1808016640799,0.4,404.57142857142856,416.1808016640799,107.8,404.57142857142856,416.1808016640799,213,404.57142857142856,416.1808016640799,318.1,404.57142857142856,416.1808016640799,420.4,404.57142857142856,416.1808016640799,520.4,404.57142857142856,416.1808016640799,621.4,404.57142857142856,416.1808016640799,729.4,404.57142857142856,416.1808016640799,836.1,404.57142857142856,416.1808016640799,938,404.57142857142856,416.1808016640799,1038.1,404.57142857142856,416.1808016640799,1146.2,788.5714285714286,80.18080166407994,1252.8,788.5714285714286,80.18080166407994,1353,788.5714285714286,80.18080166407994,1459.9,788.5714285714286,80.18080166407994,1560,788.5714285714286,80.18080166407994,1662.5,788.5714285714286,80.18080166407994,1763.4,788.5714285714286,80.18080166407994,1870.7,788.5714285714286,80.18080166407994,1979.1,788.5714285714286,80.18080166407994,2079.2,788.5714285714286,80.18080166407994,2187.9,788.5714285714286,80.18080166407994,2287.9,788.5714285714286,80.18080166407994,2391.5,788.5714285714286,80.18080166407994,2496.2,788.5714285714286,80.18080166407994,2606.1,788.5714285714286,80.18080166407994,2710.3,788.5714285714286,80.18080166407994,2812.8,788.5714285714286,80.18080166407994,2913.5,788.5714285714286,80.18080166407994,3021.8,788.5714285714286,80.18080166407994,3128.5,788.5714285714286,80.18080166407994,3230.3,788.5714285714286,80.18080166407994,3337.3,788.5714285714286,80.18080166407994,3446.7,788.5714285714286,80.18080166407994,3548.6,788.5714285714286,80.18080166407994,3648.7,788.5714285714286,80.18080166407994,3749.2,788.5714285714286,80.18080166407994,3853.9,788.5714285714286,80.18080166407994,3954,788.5714285714286,80.18080166407994,4056.3,788.5714285714286,80.18080166407994,4159,788.5714285714286,80.18080166407994,4262.6,788.5714285714286,80.18080166407994,4362.6,788.5714285714286,80.18080166407994,4464.3,788.5714285714286,80.18080166407994,4569.2,788.5714285714286,80.18080166407994,4678.1,788.5714285714286,80.18080166407994,4778.6,788.5714285714286,80.18080166407994,4879.3,788.5714285714286,80.18080166407994,4984.5]","[1374.6,1374.7,1000,0,374.7,""smooth"",""up"",""up"",""good_move"",10984.1,9609,2250.3,8449.9,283.9,""smooth"",""up"",""up"",""good_move"",16619.4,5635.2,2493.1,13775.5,350.8,""oops"",""up"",""down"",""bad_move"",19816.2,3196.5,2840.1,16619.7,356.4,""oops"",""right"",""down"",""bad_move"",23384.8,3568.2,3183.1,19816.6,385.1,""while_blue"",""right"",""right"",""good_move"",26015.4,2630.1,2172.5,23385.3,457.6,""smooth"",""right"",""right"",""good_move"",31349.1,5333.6,2050,28926.4,372.7,""smooth"",""up"",""up"",""good_move"",37404.6,6055.3,2084.7,34942.8,377.1,""smooth"",""up"",""up"",""good_move"",39548.7,2144,1756.2,37404.8,387.8,""smooth"",""up"",""up"",""good_move"",42782.8,3233.9,2869.7,39549.1,364.1,""smooth"",""right"",""right"",""good_move""]","",""
"3321","","<div style=""width:500px;"">
  <p>What determined the result of this run?</p>
  </div>","64","html-slider-response","57","826283","0.0-10.0-1.3","4","1","2025-07-02 10:18:17","80fe4187154257d5fb01684ea91b68b9","162.226.250.215","Mozilla/5.0 (Windows NT 10.0; Win64; x64) AppleWebKit/537.36 (KHTML, like Gecko) Chrome/138.0.0.0 Safari/537.36 Edg/138.0.0.0","WebKit","Edge","138.0.0.0","Windows","10.0","https://app.prolific.com/","en-US,en;q=0.9","5eea9a9ea8d6d71ba912a73e","683db6dfa200031b80f2a654","6865076019d962441c528aba","5eea9a9ea8d6d71ba912a73e","2025-07-02T10:32:05.807Z","","","","","","AttribQ","","","","","","","","","","","","","","","","","","","","","","","","","","","","","","","","","","","","","","50"
"2310","","<div style=""width:500px;"">
  <p>How much control did you have over the ball?</p>
  </div>","63","html-slider-response","58","828594","0.0-10.0-2.3","4","1","2025-07-02 10:18:17","80fe4187154257d5fb01684ea91b68b9","162.226.250.215","Mozilla/5.0 (Windows NT 10.0; Win64; x64) AppleWebKit/537.36 (KHTML, like Gecko) Chrome/138.0.0.0 Safari/537.36 Edg/138.0.0.0","WebKit","Edge","138.0.0.0","Windows","10.0","https://app.prolific.com/","en-US,en;q=0.9","5eea9a9ea8d6d71ba912a73e","683db6dfa200031b80f2a654","6865076019d962441c528aba","5eea9a9ea8d6d71ba912a73e","2025-07-02T10:32:08.118Z","","","","","","ControlQ","","","","","","","","","","","","","","","","","","","","","","","","","","","","","","","","","","","","","","50"
"3021","","<div style=""width:500px;"">
  <p>How would you describe your current emotional state?</p>
  </div>","3","html-slider-response","59","831616","0.0-10.0-3.3","4","1","2025-07-02 10:18:17","80fe4187154257d5fb01684ea91b68b9","162.226.250.215","Mozilla/5.0 (Windows NT 10.0; Win64; x64) AppleWebKit/537.36 (KHTML, like Gecko) Chrome/138.0.0.0 Safari/537.36 Edg/138.0.0.0","WebKit","Edge","138.0.0.0","Windows","10.0","https://app.prolific.com/","en-US,en;q=0.9","5eea9a9ea8d6d71ba912a73e","683db6dfa200031b80f2a654","6865076019d962441c528aba","5eea9a9ea8d6d71ba912a73e","2025-07-02T10:32:11.140Z","","","","","","StressQ","","","","","","","","","","","","","","","","","","","","","","","","","","","","","","","","","","","","","","50"
"2385","","<div style=""width:500px;"">
  <p>What best describes how you currently feel?</p>
  </div>","100","html-slider-response","60","834003","0.0-10.0-4.3","4","1","2025-07-02 10:18:17","80fe4187154257d5fb01684ea91b68b9","162.226.250.215","Mozilla/5.0 (Windows NT 10.0; Win64; x64) AppleWebKit/537.36 (KHTML, like Gecko) Chrome/138.0.0.0 Safari/537.36 Edg/138.0.0.0","WebKit","Edge","138.0.0.0","Windows","10.0","https://app.prolific.com/","en-US,en;q=0.9","5eea9a9ea8d6d71ba912a73e","683db6dfa200031b80f2a654","6865076019d962441c528aba","5eea9a9ea8d6d71ba912a73e","2025-07-02T10:32:13.527Z","","","","","","MotivationQ","","","","","","","","","","","","","","","","","","","","","","","","","","","","","","","","","","","","","","50"
"","","","","ctl-task-cpt","61","859457","0.0-10.0-0.4","4","1","2025-07-02 10:18:17","80fe4187154257d5fb01684ea91b68b9","162.226.250.215","Mozilla/5.0 (Windows NT 10.0; Win64; x64) AppleWebKit/537.36 (KHTML, like Gecko) Chrome/138.0.0.0 Safari/537.36 Edg/138.0.0.0","WebKit","Edge","138.0.0.0","Windows","10.0","https://app.prolific.com/","en-US,en;q=0.9","5eea9a9ea8d6d71ba912a73e","683db6dfa200031b80f2a654","6865076019d962441c528aba","5eea9a9ea8d6d71ba912a73e","2025-07-02T10:32:38.981Z","","","","","","","","","","","","","","","","win-only","2","g1:SE,g2:NW","0.6","5","0","836822","1162.8","6167.6","22442.3","1","4","8","6","2","8","7","28","21","0.21212121212121213","1163.3","3000","1500","[""left"",""up""]","{""num_key_presses"":7,""num_perfect"":4,""num_errors"":1,""num_randdir"":2,""num_randdir_good_moves"":2,""num_whilered"":0,""num_whileblue"":0,""num_blue"":0,""num_good_moves"":6}","[419.57142857142856,420.6808016640799,0.2,419.57142857142856,420.6808016640799,105.3,419.57142857142856,420.6808016640799,215.4,419.57142857142856,420.6808016640799,326.1,419.57142857142856,420.6808016640799,426.2,419.57142857142856,420.6808016640799,533.8,419.57142857142856,420.6808016640799,637.3,419.57142857142856,420.6808016640799,737.6,419.57142857142856,420.6808016640799,838.4,419.57142857142856,420.6808016640799,939.8,419.57142857142856,420.6808016640799,1048.2,419.57142857142856,420.6808016640799,1155.9,79.07142857142857,105.68080166407994,1258.4,79.07142857142857,105.68080166407994,1370.5,79.07142857142857,105.68080166407994,1471.1,79.07142857142857,105.68080166407994,1577.4,79.07142857142857,105.68080166407994,1680.2,79.07142857142857,105.68080166407994,1783.1,79.07142857142857,105.68080166407994,1891.7,79.07142857142857,105.68080166407994,1993.3,79.07142857142857,105.68080166407994,2098.1,79.07142857142857,105.68080166407994,2203.1,79.07142857142857,105.68080166407994,2308.3,79.07142857142857,105.68080166407994,2409.6,79.07142857142857,105.68080166407994,2509.8,79.07142857142857,105.68080166407994,2613.6,79.07142857142857,105.68080166407994,2718.3,79.07142857142857,105.68080166407994,2819.6,79.07142857142857,105.68080166407994,2920.8,79.07142857142857,105.68080166407994,3025.7,79.07142857142857,105.68080166407994,3132.9,79.07142857142857,105.68080166407994,3245.7,79.07142857142857,105.68080166407994,3349,79.07142857142857,105.68080166407994,3449.9,79.07142857142857,105.68080166407994,3552.9,79.07142857142857,105.68080166407994,3653.3,79.07142857142857,105.68080166407994,3754,79.07142857142857,105.68080166407994,3864.5,79.07142857142857,105.68080166407994,3968.9,79.07142857142857,105.68080166407994,4076.4,79.07142857142857,105.68080166407994,4183.6,79.07142857142857,105.68080166407994,4283.9,79.07142857142857,105.68080166407994,4385,79.07142857142857,105.68080166407994,4485.9,79.07142857142857,105.68080166407994,4592.2,79.07142857142857,105.68080166407994,4700.8,79.07142857142857,105.68080166407994,4804.5,79.07142857142857,105.68080166407994,4915.3]","[461.9,461.9,1000,0,-538.1,""error"",""-"",""-"",""no_move"",3856,3393.8,1983.2,1472.1,400.7,""smooth"",""up"",""up"",""good_move"",5679.8,1823.5,1442.7,3856.3,380.8,""smooth"",""up"",""up"",""good_move"",8467,2786.9,2426.9,5680.1,360,""smooth"",""up"",""up"",""good_move"",10486.1,2019,1672.4,8467.1,346.6,""oops"",""left"",""left"",""good_move"",12617.6,2131,1811.5,10486.6,319.5,""oops"",""left"",""left"",""good_move"",16121.4,3503.5,3161.6,12617.9,341.9,""smooth"",""left"",""left"",""good_move""]","",""
"2994","","<div style=""width:500px;"">
  <p>What determined the result of this run?</p>
  </div>","76","html-slider-response","62","862452","0.0-10.0-1.4","4","1","2025-07-02 10:18:17","80fe4187154257d5fb01684ea91b68b9","162.226.250.215","Mozilla/5.0 (Windows NT 10.0; Win64; x64) AppleWebKit/537.36 (KHTML, like Gecko) Chrome/138.0.0.0 Safari/537.36 Edg/138.0.0.0","WebKit","Edge","138.0.0.0","Windows","10.0","https://app.prolific.com/","en-US,en;q=0.9","5eea9a9ea8d6d71ba912a73e","683db6dfa200031b80f2a654","6865076019d962441c528aba","5eea9a9ea8d6d71ba912a73e","2025-07-02T10:32:41.976Z","","","","","","AttribQ","","","","","","","","","","","","","","","","","","","","","","","","","","","","","","","","","","","","","","50"
"2484","","<div style=""width:500px;"">
  <p>How much control did you have over the ball?</p>
  </div>","67","html-slider-response","63","864937","0.0-10.0-2.4","4","1","2025-07-02 10:18:17","80fe4187154257d5fb01684ea91b68b9","162.226.250.215","Mozilla/5.0 (Windows NT 10.0; Win64; x64) AppleWebKit/537.36 (KHTML, like Gecko) Chrome/138.0.0.0 Safari/537.36 Edg/138.0.0.0","WebKit","Edge","138.0.0.0","Windows","10.0","https://app.prolific.com/","en-US,en;q=0.9","5eea9a9ea8d6d71ba912a73e","683db6dfa200031b80f2a654","6865076019d962441c528aba","5eea9a9ea8d6d71ba912a73e","2025-07-02T10:32:44.461Z","","","","","","ControlQ","","","","","","","","","","","","","","","","","","","","","","","","","","","","","","","","","","","","","","50"
"4474","","<div style=""width:500px;"">
  <p>How would you describe your current emotional state?</p>
  </div>","1","html-slider-response","64","869412","0.0-10.0-3.4","4","1","2025-07-02 10:18:17","80fe4187154257d5fb01684ea91b68b9","162.226.250.215","Mozilla/5.0 (Windows NT 10.0; Win64; x64) AppleWebKit/537.36 (KHTML, like Gecko) Chrome/138.0.0.0 Safari/537.36 Edg/138.0.0.0","WebKit","Edge","138.0.0.0","Windows","10.0","https://app.prolific.com/","en-US,en;q=0.9","5eea9a9ea8d6d71ba912a73e","683db6dfa200031b80f2a654","6865076019d962441c528aba","5eea9a9ea8d6d71ba912a73e","2025-07-02T10:32:48.936Z","","","","","","StressQ","","","","","","","","","","","","","","","","","","","","","","","","","","","","","","","","","","","","","","50"
"2202","","<div style=""width:500px;"">
  <p>What best describes how you currently feel?</p>
  </div>","100","html-slider-response","65","871615","0.0-10.0-4.4","4","1","2025-07-02 10:18:17","80fe4187154257d5fb01684ea91b68b9","162.226.250.215","Mozilla/5.0 (Windows NT 10.0; Win64; x64) AppleWebKit/537.36 (KHTML, like Gecko) Chrome/138.0.0.0 Safari/537.36 Edg/138.0.0.0","WebKit","Edge","138.0.0.0","Windows","10.0","https://app.prolific.com/","en-US,en;q=0.9","5eea9a9ea8d6d71ba912a73e","683db6dfa200031b80f2a654","6865076019d962441c528aba","5eea9a9ea8d6d71ba912a73e","2025-07-02T10:32:51.140Z","","","","","","MotivationQ","","","","","","","","","","","","","","","","","","","","","","","","","","","","","","","","","","","","","","50"
"","","","","ctl-task-cpt","66","915229","0.0-10.0-0.5","4","1","2025-07-02 10:18:17","80fe4187154257d5fb01684ea91b68b9","162.226.250.215","Mozilla/5.0 (Windows NT 10.0; Win64; x64) AppleWebKit/537.36 (KHTML, like Gecko) Chrome/138.0.0.0 Safari/537.36 Edg/138.0.0.0","WebKit","Edge","138.0.0.0","Windows","10.0","https://app.prolific.com/","en-US,en;q=0.9","5eea9a9ea8d6d71ba912a73e","683db6dfa200031b80f2a654","6865076019d962441c528aba","5eea9a9ea8d6d71ba912a73e","2025-07-02T10:33:34.753Z","","","","","","","","","","","","","","","","win-only","2","g1:SE,g2:NW","0.5","6","0","874438.2","969.6","5972.1","40599.8","1","4","4","6","2","-4","-6","22","28","0.16666666666666666","1333.2","3000","-2155","[""left"",""up""]","{""num_key_presses"":11,""num_perfect"":4,""num_errors"":2,""num_randdir"":5,""num_randdir_good_moves"":1,""num_whilered"":0,""num_whileblue"":2,""num_blue"":2,""num_good_moves"":5}","[416.57142857142856,425.1808016640799,0.2,416.57142857142856,425.1808016640799,102.3,416.57142857142856,425.1808016640799,202.9,416.57142857142856,425.1808016640799,305.3,416.57142857142856,425.1808016640799,406.2,416.57142857142856,425.1808016640799,509,416.57142857142856,425.1808016640799,610.2,416.57142857142856,425.1808016640799,711.2,416.57142857142856,425.1808016640799,813.4,416.57142857142856,425.1808016640799,918.3,416.57142857142856,425.1808016640799,1018.7,416.57142857142856,425.1808016640799,1121.7,416.57142857142856,425.1808016640799,1227.1,416.57142857142856,425.1808016640799,1328,68.57142857142857,87.68080166407994,1432.8,68.57142857142857,87.68080166407994,1536.8,68.57142857142857,87.68080166407994,1637.6,68.57142857142857,87.68080166407994,1744.7,68.57142857142857,87.68080166407994,1846,68.57142857142857,87.68080166407994,1952.6,68.57142857142857,87.68080166407994,2053.7,68.57142857142857,87.68080166407994,2156.1,68.57142857142857,87.68080166407994,2256.3,68.57142857142857,87.68080166407994,2360.9,68.57142857142857,87.68080166407994,2462,68.57142857142857,87.68080166407994,2562.2,68.57142857142857,87.68080166407994,2670.6,68.57142857142857,87.68080166407994,2772.9,68.57142857142857,87.68080166407994,2873,68.57142857142857,87.68080166407994,2976.9,68.57142857142857,87.68080166407994,3077,68.57142857142857,87.68080166407994,3179.1,68.57142857142857,87.68080166407994,3280.3,68.57142857142857,87.68080166407994,3387,68.57142857142857,87.68080166407994,3487.5,68.57142857142857,87.68080166407994,3589.2,68.57142857142857,87.68080166407994,3693.9,68.57142857142857,87.68080166407994,3798.4,68.57142857142857,87.68080166407994,3901.1,68.57142857142857,87.68080166407994,4003.7,68.57142857142857,87.68080166407994,4106.2,68.57142857142857,87.68080166407994,4213.6,68.57142857142857,87.68080166407994,4320.5,68.57142857142857,87.68080166407994,4430.3,68.57142857142857,87.68080166407994,4535.2,68.57142857142857,87.68080166407994,4648.2,68.57142857142857,87.68080166407994,4749.8,68.57142857142857,87.68080166407994,4851.4,68.57142857142857,87.68080166407994,4952.2]","[1346.9,1346.9,1000,0,346.9,""oops"",""up"",""down"",""bad_move"",4159.3,2811.9,2249.2,1347.4,562.7,""oops"",""left"",""right"",""bad_move"",6945.2,2785.6,2399.8,4159.8,385.8,""oops"",""up"",""left"",""good_move"",10220.6,3274.4,2866.9,6946.2,407.5,""while_blue"",""up"",""down"",""bad_move"",13559.1,3338.1,2726.3,10221,611.8,""smooth"",""up"",""up"",""good_move"",17529.2,3969.7,3618.3,13559.5,351.4,""while_blue"",""left"",""right"",""bad_move"",20617.8,3088.3,2548.1,17529.5,540.2,""oops"",""left"",""right"",""bad_move"",23859.4,3241.3,2884.7,20618.1,356.6,""smooth"",""left"",""left"",""good_move"",26526.9,2666.9,2287.6,23860,379.3,""smooth"",""left"",""left"",""good_move"",28700.2,2173,1814,26527.2,359,""oops"",""left"",""down"",""bad_move"",31878.2,3177.8,2772.4,28700.6,405.3,""smooth"",""left"",""left"",""good_move""]","",""
"5095","","<div style=""width:500px;"">
  <p>What determined the result of this run?</p>
  </div>","2","html-slider-response","67","920325","0.0-10.0-1.5","4","1","2025-07-02 10:18:17","80fe4187154257d5fb01684ea91b68b9","162.226.250.215","Mozilla/5.0 (Windows NT 10.0; Win64; x64) AppleWebKit/537.36 (KHTML, like Gecko) Chrome/138.0.0.0 Safari/537.36 Edg/138.0.0.0","WebKit","Edge","138.0.0.0","Windows","10.0","https://app.prolific.com/","en-US,en;q=0.9","5eea9a9ea8d6d71ba912a73e","683db6dfa200031b80f2a654","6865076019d962441c528aba","5eea9a9ea8d6d71ba912a73e","2025-07-02T10:33:39.849Z","","","","","","AttribQ","","","","","","","","","","","","","","","","","","","","","","","","","","","","","","","","","","","","","","50"
"2637","","<div style=""width:500px;"">
  <p>How much control did you have over the ball?</p>
  </div>","8","html-slider-response","68","922963","0.0-10.0-2.5","4","1","2025-07-02 10:18:17","80fe4187154257d5fb01684ea91b68b9","162.226.250.215","Mozilla/5.0 (Windows NT 10.0; Win64; x64) AppleWebKit/537.36 (KHTML, like Gecko) Chrome/138.0.0.0 Safari/537.36 Edg/138.0.0.0","WebKit","Edge","138.0.0.0","Windows","10.0","https://app.prolific.com/","en-US,en;q=0.9","5eea9a9ea8d6d71ba912a73e","683db6dfa200031b80f2a654","6865076019d962441c528aba","5eea9a9ea8d6d71ba912a73e","2025-07-02T10:33:42.487Z","","","","","","ControlQ","","","","","","","","","","","","","","","","","","","","","","","","","","","","","","","","","","","","","","50"
"2701","","<div style=""width:500px;"">
  <p>How would you describe your current emotional state?</p>
  </div>","58","html-slider-response","69","925665","0.0-10.0-3.5","4","1","2025-07-02 10:18:17","80fe4187154257d5fb01684ea91b68b9","162.226.250.215","Mozilla/5.0 (Windows NT 10.0; Win64; x64) AppleWebKit/537.36 (KHTML, like Gecko) Chrome/138.0.0.0 Safari/537.36 Edg/138.0.0.0","WebKit","Edge","138.0.0.0","Windows","10.0","https://app.prolific.com/","en-US,en;q=0.9","5eea9a9ea8d6d71ba912a73e","683db6dfa200031b80f2a654","6865076019d962441c528aba","5eea9a9ea8d6d71ba912a73e","2025-07-02T10:33:45.189Z","","","","","","StressQ","","","","","","","","","","","","","","","","","","","","","","","","","","","","","","","","","","","","","","50"
"3280","","<div style=""width:500px;"">
  <p>What best describes how you currently feel?</p>
  </div>","100","html-slider-response","70","928946","0.0-10.0-4.5","4","1","2025-07-02 10:18:17","80fe4187154257d5fb01684ea91b68b9","162.226.250.215","Mozilla/5.0 (Windows NT 10.0; Win64; x64) AppleWebKit/537.36 (KHTML, like Gecko) Chrome/138.0.0.0 Safari/537.36 Edg/138.0.0.0","WebKit","Edge","138.0.0.0","Windows","10.0","https://app.prolific.com/","en-US,en;q=0.9","5eea9a9ea8d6d71ba912a73e","683db6dfa200031b80f2a654","6865076019d962441c528aba","5eea9a9ea8d6d71ba912a73e","2025-07-02T10:33:48.470Z","","","","","","MotivationQ","","","","","","","","","","","","","","","","","","","","","","","","","","","","","","","","","","","","","","50"
"","","","","ctl-task-cpt","71","977238","0.0-10.0-0.6","4","1","2025-07-02 10:18:17","80fe4187154257d5fb01684ea91b68b9","162.226.250.215","Mozilla/5.0 (Windows NT 10.0; Win64; x64) AppleWebKit/537.36 (KHTML, like Gecko) Chrome/138.0.0.0 Safari/537.36 Edg/138.0.0.0","WebKit","Edge","138.0.0.0","Windows","10.0","https://app.prolific.com/","en-US,en;q=0.9","5eea9a9ea8d6d71ba912a73e","683db6dfa200031b80f2a654","6865076019d962441c528aba","5eea9a9ea8d6d71ba912a73e","2025-07-02T10:34:36.762Z","","","","","","","","","","","","","","","","win-only","2","g1:SE,g2:NW","0.4","7","0","931774.1","1010.7","6016.3","45280.6","1","4","4","6","2","-4","-4","18","22","0.13636363636363635","1976.3","3000","-2045","[""left"",""up""]","{""num_key_presses"":10,""num_perfect"":4,""num_errors"":0,""num_randdir"":6,""num_randdir_good_moves"":0,""num_whilered"":0,""num_whileblue"":0,""num_blue"":3,""num_good_moves"":4}","[427.07142857142856,414.6808016640799,0.2,427.07142857142856,414.6808016640799,103.9,427.07142857142856,414.6808016640799,211.9,427.07142857142856,414.6808016640799,314.9,427.07142857142856,414.6808016640799,420,427.07142857142856,414.6808016640799,529.3,427.07142857142856,414.6808016640799,638.6,427.07142857142856,414.6808016640799,746.2,427.07142857142856,414.6808016640799,850.6,427.07142857142856,414.6808016640799,954.8,427.07142857142856,414.6808016640799,1059.1,427.07142857142856,414.6808016640799,1162,427.07142857142856,414.6808016640799,1270.5,427.07142857142856,414.6808016640799,1371.1,427.07142857142856,414.6808016640799,1476.2,427.07142857142856,414.6808016640799,1588,427.07142857142856,414.6808016640799,1694.1,427.07142857142856,414.6808016640799,1796.1,427.07142857142856,414.6808016640799,1896.5,89.57142857142857,66.68080166407994,2001.5,89.57142857142857,66.68080166407994,2109.4,89.57142857142857,66.68080166407994,2213.9,89.57142857142857,66.68080166407994,2317.5,89.57142857142857,66.68080166407994,2426.6,89.57142857142857,66.68080166407994,2538.3,89.57142857142857,66.68080166407994,2645.9,89.57142857142857,66.68080166407994,2749.7,89.57142857142857,66.68080166407994,2852,89.57142857142857,66.68080166407994,2954,89.57142857142857,66.68080166407994,3055.2,89.57142857142857,66.68080166407994,3163,89.57142857142857,66.68080166407994,3271,89.57142857142857,66.68080166407994,3375.3,89.57142857142857,66.68080166407994,3478.8,89.57142857142857,66.68080166407994,3588.6,89.57142857142857,66.68080166407994,3693.6,89.57142857142857,66.68080166407994,3795.5,89.57142857142857,66.68080166407994,3896.6,89.57142857142857,66.68080166407994,4003.3,89.57142857142857,66.68080166407994,4105.1,89.57142857142857,66.68080166407994,4211.6,89.57142857142857,66.68080166407994,4319.3,89.57142857142857,66.68080166407994,4423.7,89.57142857142857,66.68080166407994,4524.4,89.57142857142857,66.68080166407994,4624.6,89.57142857142857,66.68080166407994,4726.7,89.57142857142857,66.68080166407994,4837.3,89.57142857142857,66.68080166407994,4937.9]","[1414.6,1414.6,1000,0,414.6,""smooth"",""up"",""up"",""good_move"",7315.6,5900.5,1449,5451.6,415,""oops"",""up"",""down"",""bad_move"",10125.9,2810,2427.3,7315.9,382.7,""oops"",""up"",""down"",""bad_move"",13152.2,3026.1,2666.4,10126.1,359.7,""smooth"",""left"",""left"",""good_move"",21799.5,8646.9,1747.5,19688.2,363.8,""oops"",""left"",""right"",""bad_move"",24789,2989.2,2553.2,21799.8,436,""oops"",""left"",""down"",""bad_move"",27700.1,2910.6,2535.4,24789.5,375.2,""oops"",""left"",""right"",""bad_move"",30465.3,2764.9,2404.9,27700.4,360,""smooth"",""left"",""left"",""good_move"",32811.2,2345.2,1980.2,30466.1,365,""smooth"",""left"",""left"",""good_move"",35822.3,3010.9,2745.3,32811.4,265.6,""oops"",""left"",""right"",""bad_move""]","",""
"3161","","<div style=""width:500px;"">
  <p>What determined the result of this run?</p>
  </div>","3","html-slider-response","72","980401","0.0-10.0-1.6","4","1","2025-07-02 10:18:17","80fe4187154257d5fb01684ea91b68b9","162.226.250.215","Mozilla/5.0 (Windows NT 10.0; Win64; x64) AppleWebKit/537.36 (KHTML, like Gecko) Chrome/138.0.0.0 Safari/537.36 Edg/138.0.0.0","WebKit","Edge","138.0.0.0","Windows","10.0","https://app.prolific.com/","en-US,en;q=0.9","5eea9a9ea8d6d71ba912a73e","683db6dfa200031b80f2a654","6865076019d962441c528aba","5eea9a9ea8d6d71ba912a73e","2025-07-02T10:34:39.925Z","","","","","","AttribQ","","","","","","","","","","","","","","","","","","","","","","","","","","","","","","","","","","","","","","50"
"4156","","<div style=""width:500px;"">
  <p>How much control did you have over the ball?</p>
  </div>","9","html-slider-response","73","984558","0.0-10.0-2.6","4","1","2025-07-02 10:18:17","80fe4187154257d5fb01684ea91b68b9","162.226.250.215","Mozilla/5.0 (Windows NT 10.0; Win64; x64) AppleWebKit/537.36 (KHTML, like Gecko) Chrome/138.0.0.0 Safari/537.36 Edg/138.0.0.0","WebKit","Edge","138.0.0.0","Windows","10.0","https://app.prolific.com/","en-US,en;q=0.9","5eea9a9ea8d6d71ba912a73e","683db6dfa200031b80f2a654","6865076019d962441c528aba","5eea9a9ea8d6d71ba912a73e","2025-07-02T10:34:44.082Z","","","","","","ControlQ","","","","","","","","","","","","","","","","","","","","","","","","","","","","","","","","","","","","","","50"
"3388","","<div style=""width:500px;"">
  <p>How would you describe your current emotional state?</p>
  </div>","99","html-slider-response","74","987948","0.0-10.0-3.6","4","1","2025-07-02 10:18:17","80fe4187154257d5fb01684ea91b68b9","162.226.250.215","Mozilla/5.0 (Windows NT 10.0; Win64; x64) AppleWebKit/537.36 (KHTML, like Gecko) Chrome/138.0.0.0 Safari/537.36 Edg/138.0.0.0","WebKit","Edge","138.0.0.0","Windows","10.0","https://app.prolific.com/","en-US,en;q=0.9","5eea9a9ea8d6d71ba912a73e","683db6dfa200031b80f2a654","6865076019d962441c528aba","5eea9a9ea8d6d71ba912a73e","2025-07-02T10:34:47.472Z","","","","","","StressQ","","","","","","","","","","","","","","","","","","","","","","","","","","","","","","","","","","","","","","50"
"5024","","<div style=""width:500px;"">
  <p>What best describes how you currently feel?</p>
  </div>","68","html-slider-response","75","992973","0.0-10.0-4.6","4","1","2025-07-02 10:18:17","80fe4187154257d5fb01684ea91b68b9","162.226.250.215","Mozilla/5.0 (Windows NT 10.0; Win64; x64) AppleWebKit/537.36 (KHTML, like Gecko) Chrome/138.0.0.0 Safari/537.36 Edg/138.0.0.0","WebKit","Edge","138.0.0.0","Windows","10.0","https://app.prolific.com/","en-US,en;q=0.9","5eea9a9ea8d6d71ba912a73e","683db6dfa200031b80f2a654","6865076019d962441c528aba","5eea9a9ea8d6d71ba912a73e","2025-07-02T10:34:52.497Z","","","","","","MotivationQ","","","","","","","","","","","","","","","","","","","","","","","","","","","","","","","","","","","","","","50"
"","","","","ctl-task-cpt","76","1056901","0.0-10.0-0.7","4","1","2025-07-02 10:18:17","80fe4187154257d5fb01684ea91b68b9","162.226.250.215","Mozilla/5.0 (Windows NT 10.0; Win64; x64) AppleWebKit/537.36 (KHTML, like Gecko) Chrome/138.0.0.0 Safari/537.36 Edg/138.0.0.0","WebKit","Edge","138.0.0.0","Windows","10.0","https://app.prolific.com/","en-US,en;q=0.9","5eea9a9ea8d6d71ba912a73e","683db6dfa200031b80f2a654","6865076019d962441c528aba","5eea9a9ea8d6d71ba912a73e","2025-07-02T10:35:56.425Z","","","","","","","","","","","","","","","","win-only","2","g1:SE,g2:NW","0.3","8","0","995806.8","8570.6","13574.1","60910.6","1","4","8","6","2","-8","-8","10","18","0.07575757575757576","947.3","3000","-2145","[""left"",""up""]","{""num_key_presses"":12,""num_perfect"":4,""num_errors"":0,""num_randdir"":8,""num_randdir_good_moves"":3,""num_whilered"":0,""num_whileblue"":0,""num_blue"":3,""num_good_moves"":7}","[407.57142857142856,413.1808016640799,0.2,407.57142857142856,413.1808016640799,108.1,407.57142857142856,413.1808016640799,209.8,407.57142857142856,413.1808016640799,310.5,407.57142857142856,413.1808016640799,420.6,407.57142857142856,413.1808016640799,522.2,407.57142857142856,413.1808016640799,624.6,407.57142857142856,413.1808016640799,726.8,407.57142857142856,413.1808016640799,832.8,83.57142857142857,104.18080166407994,948.7,83.57142857142857,104.18080166407994,1048.8,83.57142857142857,104.18080166407994,1150.3,83.57142857142857,104.18080166407994,1251.6,83.57142857142857,104.18080166407994,1358.1,83.57142857142857,104.18080166407994,1458.8,83.57142857142857,104.18080166407994,1559,83.57142857142857,104.18080166407994,1666.4,83.57142857142857,104.18080166407994,1771.4,83.57142857142857,104.18080166407994,1874.8,83.57142857142857,104.18080166407994,1975.8,83.57142857142857,104.18080166407994,2085.7,83.57142857142857,104.18080166407994,2188.2,83.57142857142857,104.18080166407994,2291.5,83.57142857142857,104.18080166407994,2399.9,83.57142857142857,104.18080166407994,2501.8,83.57142857142857,104.18080166407994,2608.4,83.57142857142857,104.18080166407994,2719.5,83.57142857142857,104.18080166407994,2820.6,83.57142857142857,104.18080166407994,2938.1,83.57142857142857,104.18080166407994,3052.2,83.57142857142857,104.18080166407994,3156.9,83.57142857142857,104.18080166407994,3257,83.57142857142857,104.18080166407994,3358.6,83.57142857142857,104.18080166407994,3460.3,83.57142857142857,104.18080166407994,3571.5,83.57142857142857,104.18080166407994,3675,83.57142857142857,104.18080166407994,3782.7,83.57142857142857,104.18080166407994,3884.9,83.57142857142857,104.18080166407994,3989.8,83.57142857142857,104.18080166407994,4092.4,83.57142857142857,104.18080166407994,4194.8,83.57142857142857,104.18080166407994,4302.1,83.57142857142857,104.18080166407994,4403.3,83.57142857142857,104.18080166407994,4508.2,83.57142857142857,104.18080166407994,4609.8,83.57142857142857,104.18080166407994,4715.2,83.57142857142857,104.18080166407994,4819.4,83.57142857142857,104.18080166407994,4920.3]","[1365.8,1365.8,1000,0,365.8,""oops"",""up"",""left"",""good_move"",5029.8,3663.4,3297.7,1366.4,365.7,""oops"",""up"",""right"",""bad_move"",7550,2519.6,2067.3,5030.4,452.3,""oops"",""left"",""down"",""bad_move"",10397.6,2847.3,2490.3,7550.3,357,""oops"",""left"",""down"",""bad_move"",13780,3382.2,3043.7,10397.8,338.5,""smooth"",""left"",""left"",""good_move"",16548.4,2768,2396.3,13780.4,371.7,""oops"",""left"",""right"",""bad_move"",19734.8,3186,2842.2,16548.8,343.9,""oops"",""left"",""left"",""good_move"",25685.7,5950.6,2252.2,23071.9,361.6,""oops"",""left"",""up"",""good_move"",29039.9,3353.8,3010.4,25686.1,343.4,""smooth"",""left"",""left"",""good_move"",35680.3,6640,2734.8,32576.4,369.1,""smooth"",""left"",""left"",""good_move"",42329.1,6648.5,2472.6,39539.6,316.9,""smooth"",""up"",""up"",""good_move"",45104.6,2775.1,2521,42329.5,254.1,""oops"",""up"",""down"",""bad_move""]","",""
"3388","","<div style=""width:500px;"">
  <p>What determined the result of this run?</p>
  </div>","6","html-slider-response","77","1060290","0.0-10.0-1.7","4","1","2025-07-02 10:18:17","80fe4187154257d5fb01684ea91b68b9","162.226.250.215","Mozilla/5.0 (Windows NT 10.0; Win64; x64) AppleWebKit/537.36 (KHTML, like Gecko) Chrome/138.0.0.0 Safari/537.36 Edg/138.0.0.0","WebKit","Edge","138.0.0.0","Windows","10.0","https://app.prolific.com/","en-US,en;q=0.9","5eea9a9ea8d6d71ba912a73e","683db6dfa200031b80f2a654","6865076019d962441c528aba","5eea9a9ea8d6d71ba912a73e","2025-07-02T10:35:59.815Z","","","","","","AttribQ","","","","","","","","","","","","","","","","","","","","","","","","","","","","","","","","","","","","","","50"
"2603","","<div style=""width:500px;"">
  <p>How much control did you have over the ball?</p>
  </div>","9","html-slider-response","78","1062895","0.0-10.0-2.7","4","1","2025-07-02 10:18:17","80fe4187154257d5fb01684ea91b68b9","162.226.250.215","Mozilla/5.0 (Windows NT 10.0; Win64; x64) AppleWebKit/537.36 (KHTML, like Gecko) Chrome/138.0.0.0 Safari/537.36 Edg/138.0.0.0","WebKit","Edge","138.0.0.0","Windows","10.0","https://app.prolific.com/","en-US,en;q=0.9","5eea9a9ea8d6d71ba912a73e","683db6dfa200031b80f2a654","6865076019d962441c528aba","5eea9a9ea8d6d71ba912a73e","2025-07-02T10:36:02.419Z","","","","","","ControlQ","","","","","","","","","","","","","","","","","","","","","","","","","","","","","","","","","","","","","","50"
"2707","","<div style=""width:500px;"">
  <p>How would you describe your current emotional state?</p>
  </div>","97","html-slider-response","79","1065604","0.0-10.0-3.7","4","1","2025-07-02 10:18:17","80fe4187154257d5fb01684ea91b68b9","162.226.250.215","Mozilla/5.0 (Windows NT 10.0; Win64; x64) AppleWebKit/537.36 (KHTML, like Gecko) Chrome/138.0.0.0 Safari/537.36 Edg/138.0.0.0","WebKit","Edge","138.0.0.0","Windows","10.0","https://app.prolific.com/","en-US,en;q=0.9","5eea9a9ea8d6d71ba912a73e","683db6dfa200031b80f2a654","6865076019d962441c528aba","5eea9a9ea8d6d71ba912a73e","2025-07-02T10:36:05.128Z","","","","","","StressQ","","","","","","","","","","","","","","","","","","","","","","","","","","","","","","","","","","","","","","50"
"4135","","<div style=""width:500px;"">
  <p>What best describes how you currently feel?</p>
  </div>","60","html-slider-response","80","1069739","0.0-10.0-4.7","4","1","2025-07-02 10:18:17","80fe4187154257d5fb01684ea91b68b9","162.226.250.215","Mozilla/5.0 (Windows NT 10.0; Win64; x64) AppleWebKit/537.36 (KHTML, like Gecko) Chrome/138.0.0.0 Safari/537.36 Edg/138.0.0.0","WebKit","Edge","138.0.0.0","Windows","10.0","https://app.prolific.com/","en-US,en;q=0.9","5eea9a9ea8d6d71ba912a73e","683db6dfa200031b80f2a654","6865076019d962441c528aba","5eea9a9ea8d6d71ba912a73e","2025-07-02T10:36:09.264Z","","","","","","MotivationQ","","","","","","","","","","","","","","","","","","","","","","","","","","","","","","","","","","","","","","50"
"","","","","ctl-task-cpt","81","1113753","0.0-10.0-0.8","4","1","2025-07-02 10:18:17","80fe4187154257d5fb01684ea91b68b9","162.226.250.215","Mozilla/5.0 (Windows NT 10.0; Win64; x64) AppleWebKit/537.36 (KHTML, like Gecko) Chrome/138.0.0.0 Safari/537.36 Edg/138.0.0.0","WebKit","Edge","138.0.0.0","Windows","10.0","https://app.prolific.com/","en-US,en;q=0.9","5eea9a9ea8d6d71ba912a73e","683db6dfa200031b80f2a654","6865076019d962441c528aba","5eea9a9ea8d6d71ba912a73e","2025-07-02T10:36:53.277Z","","","","","","","","","","","","","","","","win-only","1","g1:NE,g2:SW","0.4","9","0","1072579.3","1068","6078","41000","1","4","8","6","2","8","7","17","10","0.12878787878787878","985.8","3000","910","[""down"",""left""]","{""num_key_presses"":10,""num_perfect"":3,""num_errors"":1,""num_randdir"":6,""num_randdir_good_moves"":5,""num_whilered"":0,""num_whileblue"":1,""num_blue"":3,""num_good_moves"":8}","[413.57142857142856,416.1808016640799,0.4,413.57142857142856,416.1808016640799,108.8,413.57142857142856,416.1808016640799,211.1,413.57142857142856,416.1808016640799,317.7,413.57142857142856,416.1808016640799,422.2,413.57142857142856,416.1808016640799,524.9,413.57142857142856,416.1808016640799,625.7,413.57142857142856,416.1808016640799,728,413.57142857142856,416.1808016640799,832.4,413.57142857142856,416.1808016640799,939.7,82.07142857142857,770.1808016640799,1043.2,82.07142857142857,770.1808016640799,1144.8,82.07142857142857,770.1808016640799,1248.6,82.07142857142857,770.1808016640799,1356.4,82.07142857142857,770.1808016640799,1456.8,82.07142857142857,770.1808016640799,1558.8,82.07142857142857,770.1808016640799,1669.2,82.07142857142857,770.1808016640799,1772.2,82.07142857142857,770.1808016640799,1874.7,82.07142857142857,770.1808016640799,1987.1,82.07142857142857,770.1808016640799,2092.4,82.07142857142857,770.1808016640799,2193.9,82.07142857142857,770.1808016640799,2304.4,82.07142857142857,770.1808016640799,2405.3,82.07142857142857,770.1808016640799,2509.6,82.07142857142857,770.1808016640799,2622.7,82.07142857142857,770.1808016640799,2737,82.07142857142857,770.1808016640799,2839.3,82.07142857142857,770.1808016640799,2939.6,82.07142857142857,770.1808016640799,3044.1,82.07142857142857,770.1808016640799,3154,82.07142857142857,770.1808016640799,3255,82.07142857142857,770.1808016640799,3359,82.07142857142857,770.1808016640799,3469.2,82.07142857142857,770.1808016640799,3578.3,82.07142857142857,770.1808016640799,3688,82.07142857142857,770.1808016640799,3794,82.07142857142857,770.1808016640799,3906.3,82.07142857142857,770.1808016640799,4011.2,82.07142857142857,770.1808016640799,4116.2,82.07142857142857,770.1808016640799,4223.2,82.07142857142857,770.1808016640799,4331.7,82.07142857142857,770.1808016640799,4436.6,82.07142857142857,770.1808016640799,4537.5,82.07142857142857,770.1808016640799,4642.7,82.07142857142857,770.1808016640799,4752.1,82.07142857142857,770.1808016640799,4856.4,82.07142857142857,770.1808016640799,4972.4]","[1358.3,1358.3,1000,0,358.3,""smooth"",""down"",""down"",""good_move"",4066.2,2707.1,2388.7,1359.2,318.4,""while_blue"",""left"",""right"",""bad_move"",6134.3,2067.4,1642.2,4066.9,425.2,""oops"",""left"",""left"",""good_move"",8632,2497.4,2162.4,6134.6,335,""oops"",""left"",""left"",""good_move"",19574.7,10942.5,2638.1,16496.5,440.1,""oops"",""left"",""up"",""bad_move"",22776.1,3201,2836,19575.1,365,""oops"",""down"",""down"",""good_move"",25272.3,2495.9,2145.7,22776.4,350.2,""oops"",""left"",""down"",""good_move"",28443.6,3171.1,2809.2,25272.6,361.8,""oops"",""left"",""left"",""good_move"",32142.8,3698.7,3338.7,28444.1,360,""smooth"",""left"",""left"",""good_move"",34757.3,2614.2,2270.9,32143.1,343.3,""smooth"",""down"",""down"",""good_move""]","",""
"4591","","<div style=""width:500px;"">
  <p>What determined the result of this run?</p>
  </div>","46","html-slider-response","82","1118345","0.0-10.0-1.8","4","1","2025-07-02 10:18:17","80fe4187154257d5fb01684ea91b68b9","162.226.250.215","Mozilla/5.0 (Windows NT 10.0; Win64; x64) AppleWebKit/537.36 (KHTML, like Gecko) Chrome/138.0.0.0 Safari/537.36 Edg/138.0.0.0","WebKit","Edge","138.0.0.0","Windows","10.0","https://app.prolific.com/","en-US,en;q=0.9","5eea9a9ea8d6d71ba912a73e","683db6dfa200031b80f2a654","6865076019d962441c528aba","5eea9a9ea8d6d71ba912a73e","2025-07-02T10:36:57.869Z","","","","","","AttribQ","","","","","","","","","","","","","","","","","","","","","","","","","","","","","","","","","","","","","","50"
"3151","","<div style=""width:500px;"">
  <p>How much control did you have over the ball?</p>
  </div>","55","html-slider-response","83","1121498","0.0-10.0-2.8","4","1","2025-07-02 10:18:17","80fe4187154257d5fb01684ea91b68b9","162.226.250.215","Mozilla/5.0 (Windows NT 10.0; Win64; x64) AppleWebKit/537.36 (KHTML, like Gecko) Chrome/138.0.0.0 Safari/537.36 Edg/138.0.0.0","WebKit","Edge","138.0.0.0","Windows","10.0","https://app.prolific.com/","en-US,en;q=0.9","5eea9a9ea8d6d71ba912a73e","683db6dfa200031b80f2a654","6865076019d962441c528aba","5eea9a9ea8d6d71ba912a73e","2025-07-02T10:37:01.022Z","","","","","","ControlQ","","","","","","","","","","","","","","","","","","","","","","","","","","","","","","","","","","","","","","50"
"4958","","<div style=""width:500px;"">
  <p>How would you describe your current emotional state?</p>
  </div>","45","html-slider-response","84","1126457","0.0-10.0-3.8","4","1","2025-07-02 10:18:17","80fe4187154257d5fb01684ea91b68b9","162.226.250.215","Mozilla/5.0 (Windows NT 10.0; Win64; x64) AppleWebKit/537.36 (KHTML, like Gecko) Chrome/138.0.0.0 Safari/537.36 Edg/138.0.0.0","WebKit","Edge","138.0.0.0","Windows","10.0","https://app.prolific.com/","en-US,en;q=0.9","5eea9a9ea8d6d71ba912a73e","683db6dfa200031b80f2a654","6865076019d962441c528aba","5eea9a9ea8d6d71ba912a73e","2025-07-02T10:37:05.981Z","","","","","","StressQ","","","","","","","","","","","","","","","","","","","","","","","","","","","","","","","","","","","","","","50"
"2574","","<div style=""width:500px;"">
  <p>What best describes how you currently feel?</p>
  </div>","56","html-slider-response","85","1129033","0.0-10.0-4.8","4","1","2025-07-02 10:18:17","80fe4187154257d5fb01684ea91b68b9","162.226.250.215","Mozilla/5.0 (Windows NT 10.0; Win64; x64) AppleWebKit/537.36 (KHTML, like Gecko) Chrome/138.0.0.0 Safari/537.36 Edg/138.0.0.0","WebKit","Edge","138.0.0.0","Windows","10.0","https://app.prolific.com/","en-US,en;q=0.9","5eea9a9ea8d6d71ba912a73e","683db6dfa200031b80f2a654","6865076019d962441c528aba","5eea9a9ea8d6d71ba912a73e","2025-07-02T10:37:08.557Z","","","","","","MotivationQ","","","","","","","","","","","","","","","","","","","","","","","","","","","","","","","","","","","","","","50"
