"rt","response_timestamp","stimulus","response","trial_type","trial_index","time_elapsed","internal_node_id","run_id","condition","recorded_at","source_code_version","ip","user_agent","device","browser","browser_version","platform","platform_version","referer","accept_language","PROLIFIC_PID","STUDY_ID","SESSION_ID","prolific_id","realtime","view_history","question_order","consent","success","question_id","eventType","responses","item_order","radio_event_ids","radio_event_times","key_event_times","mouse_event_times","straightlining","zigzagging","honeypot","which_type","canvas_config","goals_layout","control_level","trial_number","tutorial_trial_number","trial_start_time","phase1_start_time","phase2_start_time","phase3_start_time","goal_1_value","goal_1_distance","goal_2_value","goal_2_distance","goal_selected","outcome","outcome_total","participant_final_score","participant_initial_score","participant_final_score_prop","goal_choice_rt","allocated_time","allocated_time_remaining","goal_direction","counts","mouse_movements","key_presses","correct","slider_start"
"5230","1751451548648","<p style='font-size:40px;line-height:1.25'><strong>Welcome to the experiment!</strong></p><p style='font-size:1.1em;line-height:1.25'>Thank you for your interest in our experiment! Before you begin, it is important that we obtain your informed consent to participate in the study.</p><p style='font-size:1.1em;line-height:1.25'>On the next screen will be an <strong>information sheet</strong> for you to read. To participate in the study we need you to read this information sheet and the following consent form carefully. If you agree with all the statements, please click the <strong>I agree</strong> button.</p><p style='font-size:1.1em;line-height:1.25'>Press <strong>Next</strong> to read the information sheet.</p>","0","custom-html-button-response","0","5234","0.0-0.0","70","1","2025-07-02 10:19:01","80fe4187154257d5fb01684ea91b68b9","37.47.222.205","Mozilla/5.0 (Windows NT 10.0; Win64; x64) AppleWebKit/537.36 (KHTML, like Gecko) Chrome/138.0.0.0 Safari/537.36","WebKit","Chrome","138.0.0.0","Windows","10.0","https://app.prolific.com/","pl-PL,pl;q=0.9,en-US;q=0.8,en;q=0.7","5f06eefaf3fc742667b4e79d","683db6dfa200031b80f2a654","686507551bfcba0f981358d1","5f06eefaf3fc742667b4e79d","2025-07-02T10:19:08.650Z","","","","","","","","","","","","","","","","","","","","","","","","","","","","","","","","","","","","","","","","","","","",""
"7886","","","","instructions","1","13122","0.0-1.0","70","1","2025-07-02 10:19:01","80fe4187154257d5fb01684ea91b68b9","37.47.222.205","Mozilla/5.0 (Windows NT 10.0; Win64; x64) AppleWebKit/537.36 (KHTML, like Gecko) Chrome/138.0.0.0 Safari/537.36","WebKit","Chrome","138.0.0.0","Windows","10.0","https://app.prolific.com/","pl-PL,pl;q=0.9,en-US;q=0.8,en;q=0.7","5f06eefaf3fc742667b4e79d","683db6dfa200031b80f2a654","686507551bfcba0f981358d1","5f06eefaf3fc742667b4e79d","","[{""page_index"":0,""viewing_time"":5022},{""page_index"":1,""viewing_time"":2864}]","","","","","","","","","","","","","","","","","","","","","","","","","","","","","","","","","","","","","","","","","","",""
"4583","","","{""Q0"":"""",""Q1"":"""",""Q2"":"""",""Q3"":"""",""Q4"":"""",""Q5"":"""",""Q6"":""I agree""}","survey-multi-choice","2","17708","0.0-2.0","70","1","2025-07-02 10:19:01","80fe4187154257d5fb01684ea91b68b9","37.47.222.205","Mozilla/5.0 (Windows NT 10.0; Win64; x64) AppleWebKit/537.36 (KHTML, like Gecko) Chrome/138.0.0.0 Safari/537.36","WebKit","Chrome","138.0.0.0","Windows","10.0","https://app.prolific.com/","pl-PL,pl;q=0.9,en-US;q=0.8,en;q=0.7","5f06eefaf3fc742667b4e79d","683db6dfa200031b80f2a654","686507551bfcba0f981358d1","5f06eefaf3fc742667b4e79d","","","[0,1,2,3,4,5,6]","true","","","","","","","","","","","","","","","","","","","","","","","","","","","","","","","","","","","","","","","","",""
"17642","","","","fullscreen","3","36367","0.0-4.0","70","1","2025-07-02 10:19:01","80fe4187154257d5fb01684ea91b68b9","37.47.222.205","Mozilla/5.0 (Windows NT 10.0; Win64; x64) AppleWebKit/537.36 (KHTML, like Gecko) Chrome/138.0.0.0 Safari/537.36","WebKit","Chrome","138.0.0.0","Windows","10.0","https://app.prolific.com/","pl-PL,pl;q=0.9,en-US;q=0.8,en;q=0.7","5f06eefaf3fc742667b4e79d","683db6dfa200031b80f2a654","686507551bfcba0f981358d1","5f06eefaf3fc742667b4e79d","","","","","true","","","","","","","","","","","","","","","","","","","","","","","","","","","","","","","","","","","","","","","",""
"5651","1751451585435"," <p style='font-size:1.1em;line-height:1.25'>Thank you for completing the consent form and closing all other tabs.</p><p style='font-size:1.1em;line-height:1.25'>We will now invite you to fill in some demographic information and questionnaires, before starting the game.<br>This will take about 5 minutes.<br></p><p style='font-size:1.1em;line-height:1.25'>Press the <strong>Next</strong> button to continue.</p>","0","custom-html-button-response","4","42020","0.0-5.0","70","1","2025-07-02 10:19:01","80fe4187154257d5fb01684ea91b68b9","37.47.222.205","Mozilla/5.0 (Windows NT 10.0; Win64; x64) AppleWebKit/537.36 (KHTML, like Gecko) Chrome/138.0.0.0 Safari/537.36","WebKit","Chrome","138.0.0.0","Windows","10.0","https://app.prolific.com/","pl-PL,pl;q=0.9,en-US;q=0.8,en;q=0.7","5f06eefaf3fc742667b4e79d","683db6dfa200031b80f2a654","686507551bfcba0f981358d1","5f06eefaf3fc742667b4e79d","2025-07-02T10:19:45.436Z","","","","","","","","","","","","","","","","","","","","","","","","","","","","","","","","","","","","","","","","","","","",""
"4661","","","{""age"":""38""}","survey-text","5","46685","0.0-6.0-0.0","70","1","2025-07-02 10:19:01","80fe4187154257d5fb01684ea91b68b9","37.47.222.205","Mozilla/5.0 (Windows NT 10.0; Win64; x64) AppleWebKit/537.36 (KHTML, like Gecko) Chrome/138.0.0.0 Safari/537.36","WebKit","Chrome","138.0.0.0","Windows","10.0","https://app.prolific.com/","pl-PL,pl;q=0.9,en-US;q=0.8,en;q=0.7","5f06eefaf3fc742667b4e79d","683db6dfa200031b80f2a654","686507551bfcba0f981358d1","5f06eefaf3fc742667b4e79d","","","","","","0","demographics","","","","","","","","","","","","","","","","","","","","","","","","","","","","","","","","","","","","","",""
"7963","","","{""gender_identity"":""male/man""}","survey-multi-choice","6","54653","0.0-6.0-1.0","70","1","2025-07-02 10:19:01","80fe4187154257d5fb01684ea91b68b9","37.47.222.205","Mozilla/5.0 (Windows NT 10.0; Win64; x64) AppleWebKit/537.36 (KHTML, like Gecko) Chrome/138.0.0.0 Safari/537.36","WebKit","Chrome","138.0.0.0","Windows","10.0","https://app.prolific.com/","pl-PL,pl;q=0.9,en-US;q=0.8,en;q=0.7","5f06eefaf3fc742667b4e79d","683db6dfa200031b80f2a654","686507551bfcba0f981358d1","5f06eefaf3fc742667b4e79d","","","[0]","","","1","demographics","","","","","","","","","","","","","","","","","","","","","","","","","","","","","","","","","","","","","",""
"5427","","","{""assigned_sex"":""male""}","survey-multi-choice","7","60086","0.0-6.0-2.0","70","1","2025-07-02 10:19:01","80fe4187154257d5fb01684ea91b68b9","37.47.222.205","Mozilla/5.0 (Windows NT 10.0; Win64; x64) AppleWebKit/537.36 (KHTML, like Gecko) Chrome/138.0.0.0 Safari/537.36","WebKit","Chrome","138.0.0.0","Windows","10.0","https://app.prolific.com/","pl-PL,pl;q=0.9,en-US;q=0.8,en;q=0.7","5f06eefaf3fc742667b4e79d","683db6dfa200031b80f2a654","686507551bfcba0f981358d1","5f06eefaf3fc742667b4e79d","","","[0]","","","2","demographics","","","","","","","","","","","","","","","","","","","","","","","","","","","","","","","","","","","","","",""
"6122","","","{""menstrual_cycle"":""No""}","survey-multi-choice","8","66212","0.0-6.0-3.0","70","1","2025-07-02 10:19:01","80fe4187154257d5fb01684ea91b68b9","37.47.222.205","Mozilla/5.0 (Windows NT 10.0; Win64; x64) AppleWebKit/537.36 (KHTML, like Gecko) Chrome/138.0.0.0 Safari/537.36","WebKit","Chrome","138.0.0.0","Windows","10.0","https://app.prolific.com/","pl-PL,pl;q=0.9,en-US;q=0.8,en;q=0.7","5f06eefaf3fc742667b4e79d","683db6dfa200031b80f2a654","686507551bfcba0f981358d1","5f06eefaf3fc742667b4e79d","","","[0]","","","4","demographics","","","","","","","","","","","","","","","","","","","","","","","","","","","","","","","","","","","","","",""
"4579","","","{""education"":""Master's Degree (e.g., MSc)""}","survey-multi-choice","9","70798","0.0-6.0-4.0","70","1","2025-07-02 10:19:01","80fe4187154257d5fb01684ea91b68b9","37.47.222.205","Mozilla/5.0 (Windows NT 10.0; Win64; x64) AppleWebKit/537.36 (KHTML, like Gecko) Chrome/138.0.0.0 Safari/537.36","WebKit","Chrome","138.0.0.0","Windows","10.0","https://app.prolific.com/","pl-PL,pl;q=0.9,en-US;q=0.8,en;q=0.7","5f06eefaf3fc742667b4e79d","683db6dfa200031b80f2a654","686507551bfcba0f981358d1","5f06eefaf3fc742667b4e79d","","","[0]","","","5","demographics","","","","","","","","","","","","","","","","","","","","","","","","","","","","","","","","","","","","","",""
"5098","","","{""education"":""Master's Degree (e.g., MSc)""}","survey-multi-choice","10","75902","0.0-6.0-5.0","70","1","2025-07-02 10:19:01","80fe4187154257d5fb01684ea91b68b9","37.47.222.205","Mozilla/5.0 (Windows NT 10.0; Win64; x64) AppleWebKit/537.36 (KHTML, like Gecko) Chrome/138.0.0.0 Safari/537.36","WebKit","Chrome","138.0.0.0","Windows","10.0","https://app.prolific.com/","pl-PL,pl;q=0.9,en-US;q=0.8,en;q=0.7","5f06eefaf3fc742667b4e79d","683db6dfa200031b80f2a654","686507551bfcba0f981358d1","5f06eefaf3fc742667b4e79d","2025-07-02T10:20:19.319Z","","[0]","","","6","demographics","","","","","","","","","","","","","","","","","","","","","","","","","","","","","","","","","","","","","",""
"20284","","","{""mental_health_condition"":""no"",""mental_health_treatment"":""no"",""psychiatric_medication"":""//""}","survey-text","11","96196","0.0-7.0-0.0","70","1","2025-07-02 10:19:01","80fe4187154257d5fb01684ea91b68b9","37.47.222.205","Mozilla/5.0 (Windows NT 10.0; Win64; x64) AppleWebKit/537.36 (KHTML, like Gecko) Chrome/138.0.0.0 Safari/537.36","WebKit","Chrome","138.0.0.0","Windows","10.0","https://app.prolific.com/","pl-PL,pl;q=0.9,en-US;q=0.8,en;q=0.7","5f06eefaf3fc742667b4e79d","683db6dfa200031b80f2a654","686507551bfcba0f981358d1","5f06eefaf3fc742667b4e79d","2025-07-02T10:20:39.613Z","","","","","1","mental_health","","","","","","","","","","","","","","","","","","","","","","","","","","","","","","","","","","","","","",""
"15850","","","{""depression_history"":[""No""]}","survey-multi-select","12","112066","0.0-7.0-1.0","70","1","2025-07-02 10:19:01","80fe4187154257d5fb01684ea91b68b9","37.47.222.205","Mozilla/5.0 (Windows NT 10.0; Win64; x64) AppleWebKit/537.36 (KHTML, like Gecko) Chrome/138.0.0.0 Safari/537.36","WebKit","Chrome","138.0.0.0","Windows","10.0","https://app.prolific.com/","pl-PL,pl;q=0.9,en-US;q=0.8,en;q=0.7","5f06eefaf3fc742667b4e79d","683db6dfa200031b80f2a654","686507551bfcba0f981358d1","5f06eefaf3fc742667b4e79d","","","[0]","","","","mental_health","","","","","","","","","","","","","","","","","","","","","","","","","","","","","","","","","","","","","",""
"55221.5","","","","survey-template","13","167304","0.0-7.0-3.0","70","1","2025-07-02 10:19:01","80fe4187154257d5fb01684ea91b68b9","37.47.222.205","Mozilla/5.0 (Windows NT 10.0; Win64; x64) AppleWebKit/537.36 (KHTML, like Gecko) Chrome/138.0.0.0 Safari/537.36","WebKit","Chrome","138.0.0.0","Windows","10.0","https://app.prolific.com/","pl-PL,pl;q=0.9,en-US;q=0.8,en;q=0.7","5f06eefaf3fc742667b4e79d","683db6dfa200031b80f2a654","686507551bfcba0f981358d1","5f06eefaf3fc742667b4e79d","2025-07-02T10:21:50.720Z","","","","","","ius","{""Q01"":""2"",""Q02"":""3"",""Q03"":""3"",""Q04"":""2"",""Q05"":""2"",""Q06"":""3"",""Q07"":""3"",""Q08"":""0"",""Q09"":""4"",""Q10"":""2"",""Q11"":""2"",""Q12"":""4"",""Q13"":""2""}","[0,1,2,3,4,5,6,7,8,9,10,11,12]","[""Q01"",""Q02"",""Q03"",""Q04"",""Q05"",""Q06"",""Q07"",""Q08"",""Q09"",""Q10"",""Q11"",""Q12"",""Q13"",""Q13""]","[5659.899999976158,9338,12315.099999964237,16229.099999964237,18832,21542.399999976158,25358.099999964237,27694.5,36088.89999997616,41237.80000001192,43282,46001.59999996424,49046.19999998808,51546.5]","[]","[5659.899999976158,9338,12315.099999964237,16229.099999964237,18832,21542.399999976158,25358.099999964237,27694.5,36088.89999997616,41237.80000001192,43282,46001.59999996424,49046.19999998808,51546.5,55212.09999996424]","0.46153846153846156","0.3333333333333333","0","","","","","","","","","","","","","","","","","","","","","","","","","","","","",""
"4915","1751451715637","<p style='font-size:1.1em;line-height:1.25'>In the following, we will ask you a few questions relating to your experiences over the past month.<br></p><p style='font-size:1.1em;line-height:1.25'>Press the <strong>Next</strong> button to continue.</p>","0","custom-html-button-response","14","172222","0.0-7.0-4.0","70","1","2025-07-02 10:19:01","80fe4187154257d5fb01684ea91b68b9","37.47.222.205","Mozilla/5.0 (Windows NT 10.0; Win64; x64) AppleWebKit/537.36 (KHTML, like Gecko) Chrome/138.0.0.0 Safari/537.36","WebKit","Chrome","138.0.0.0","Windows","10.0","https://app.prolific.com/","pl-PL,pl;q=0.9,en-US;q=0.8,en;q=0.7","5f06eefaf3fc742667b4e79d","683db6dfa200031b80f2a654","686507551bfcba0f981358d1","5f06eefaf3fc742667b4e79d","2025-07-02T10:21:55.638Z","","","","","","","","","","","","","","","","","","","","","","","","","","","","","","","","","","","","","","","","","","","",""
"48767.60000002384","","","","survey-template","15","221001","0.0-7.0-5.0","70","1","2025-07-02 10:19:01","80fe4187154257d5fb01684ea91b68b9","37.47.222.205","Mozilla/5.0 (Windows NT 10.0; Win64; x64) AppleWebKit/537.36 (KHTML, like Gecko) Chrome/138.0.0.0 Safari/537.36","WebKit","Chrome","138.0.0.0","Windows","10.0","https://app.prolific.com/","pl-PL,pl;q=0.9,en-US;q=0.8,en;q=0.7","5f06eefaf3fc742667b4e79d","683db6dfa200031b80f2a654","686507551bfcba0f981358d1","5f06eefaf3fc742667b4e79d","2025-07-02T10:22:44.418Z","","","","","","pss","{""Q01"":""2"",""Q02"":""1"",""Q03"":""2"",""Q04"":""3"",""Q05"":""3"",""Q06"":""1"",""Q07"":""1"",""Q08"":""2"",""Q09"":""1"",""Q10"":""1""}","[0,1,2,3,4,5,6,7,8,9]","[""Q01"",""Q02"",""Q03"",""Q04"",""Q05"",""Q06"",""Q07"",""Q08"",""Q09"",""Q10""]","[7553,11214,14060.5,18585.80000001192,21363.5,25887.69999998808,32136.19999998808,36753.69999998808,41738.80000001192,47266.19999998808]","[]","[0,7553,11214,14060.5,18585.80000001192,21363.5,25887.69999998808,32136.19999998808,36753.69999998808,41738.80000001192,47266.19999998808,48758.90000003576]","0.6","0.5555555555555556","0","","","","","","","","","","","","","","","","","","","","","","","","","","","","",""
"3949","1751451768369","<p style='font-size:1.1em;line-height:1.25'>Thank you for your answers! Now we will ask you a few more questions relating to your feelings in the last 24 hours.<br></p><p style='font-size:1.1em;line-height:1.25'>Press the <strong>Next</strong> button to continue.</p>","0","custom-html-button-response","16","224954","0.0-7.0-6.0","70","1","2025-07-02 10:19:01","80fe4187154257d5fb01684ea91b68b9","37.47.222.205","Mozilla/5.0 (Windows NT 10.0; Win64; x64) AppleWebKit/537.36 (KHTML, like Gecko) Chrome/138.0.0.0 Safari/537.36","WebKit","Chrome","138.0.0.0","Windows","10.0","https://app.prolific.com/","pl-PL,pl;q=0.9,en-US;q=0.8,en;q=0.7","5f06eefaf3fc742667b4e79d","683db6dfa200031b80f2a654","686507551bfcba0f981358d1","5f06eefaf3fc742667b4e79d","2025-07-02T10:22:48.371Z","","","","","","","","","","","","","","","","","","","","","","","","","","","","","","","","","","","","","","","","","","","",""
"47307.80000001192","","","","survey-template","17","272278","0.0-7.0-7.0","70","1","2025-07-02 10:19:01","80fe4187154257d5fb01684ea91b68b9","37.47.222.205","Mozilla/5.0 (Windows NT 10.0; Win64; x64) AppleWebKit/537.36 (KHTML, like Gecko) Chrome/138.0.0.0 Safari/537.36","WebKit","Chrome","138.0.0.0","Windows","10.0","https://app.prolific.com/","pl-PL,pl;q=0.9,en-US;q=0.8,en;q=0.7","5f06eefaf3fc742667b4e79d","683db6dfa200031b80f2a654","686507551bfcba0f981358d1","5f06eefaf3fc742667b4e79d","2025-07-02T10:23:35.694Z","","","","","","drsp","{""Q01"":""0"",""Q02"":""1"",""Q03"":""0"",""Q04"":""0"",""Q05"":""0"",""Q06"":""0"",""Q07"":""0"",""Q08"":""0"",""Q09"":""1"",""Q10"":""0"",""Q11"":""0"",""Q12"":""0"",""Q13"":""0"",""Q14"":""0"",""Q15"":""0"",""Q16"":""0"",""Q17"":""0"",""Q18"":""0"",""Q19"":""0"",""Q20"":""0"",""Q21"":""0""}","[0,1,2,3,4,5,6,7,8,9,10,11,12,13,14,15,16,17,18,19,20]","[""Q01"",""Q02"",""Q03"",""Q04"",""Q05"",""Q06"",""Q07"",""Q08"",""Q09"",""Q10"",""Q11"",""Q12"",""Q13"",""Q14"",""Q15"",""Q16"",""Q17"",""Q18"",""Q19"",""Q20"",""Q21""]","[4317.400000035763,5910.300000011921,8141.5,9628.600000023842,11214.100000023842,13103.100000023842,15155.400000035763,16734.80000001192,18875.900000035763,20372.700000047684,22288.600000023842,23810.700000047684,25808.100000023842,27323,29058.600000023842,30657.900000035763,31949.900000035763,37994.90000003576,41849,43906.5,45890.60000002384]","[]","[0.20000004768371582,4317.400000035763,5910.300000011921,8141.5,9628.600000023842,11214.100000023842,13103.100000023842,15155.400000035763,16734.80000001192,18875.900000035763,20372.700000047684,22288.600000023842,23810.700000047684,25808.100000023842,27323,29058.600000023842,30657.900000035763,31949.900000035763,37994.90000003576,41849,43906.5,45890.60000002384,47292.90000003576]","0.9047619047619048","0.2","0","","","","","","","","","","","","","","","","","","","","","","","","","","","","",""
"13096.199999988079","","","","survey-template","18","285382","0.0-7.0-8.0","70","1","2025-07-02 10:19:01","80fe4187154257d5fb01684ea91b68b9","37.47.222.205","Mozilla/5.0 (Windows NT 10.0; Win64; x64) AppleWebKit/537.36 (KHTML, like Gecko) Chrome/138.0.0.0 Safari/537.36","WebKit","Chrome","138.0.0.0","Windows","10.0","https://app.prolific.com/","pl-PL,pl;q=0.9,en-US;q=0.8,en;q=0.7","5f06eefaf3fc742667b4e79d","683db6dfa200031b80f2a654","686507551bfcba0f981358d1","5f06eefaf3fc742667b4e79d","2025-07-02T10:23:48.799Z","","","","","","stress","{""Q01"":""1"",""Q02"":""4"",""Q03"":""0""}","[0,1,2]","[""Q01"",""Q02"",""Q03""]","[6021.899999976158,7871.699999988079,11750.5]","[]","[6021.899999976158,7871.699999988079,11750.5,13092.399999976158]","0.6666666666666666","0.5","0","","","","","","","","","","","","","","","","","","","","","","","","","","","","",""
"100954","","","","instructions","19","386339","0.0-8.0-0.0","70","1","2025-07-02 10:19:01","80fe4187154257d5fb01684ea91b68b9","37.47.222.205","Mozilla/5.0 (Windows NT 10.0; Win64; x64) AppleWebKit/537.36 (KHTML, like Gecko) Chrome/138.0.0.0 Safari/537.36","WebKit","Chrome","138.0.0.0","Windows","10.0","https://app.prolific.com/","pl-PL,pl;q=0.9,en-US;q=0.8,en;q=0.7","5f06eefaf3fc742667b4e79d","683db6dfa200031b80f2a654","686507551bfcba0f981358d1","5f06eefaf3fc742667b4e79d","","[{""page_index"":0,""viewing_time"":18658},{""page_index"":1,""viewing_time"":38962},{""page_index"":2,""viewing_time"":2051},{""page_index"":1,""viewing_time"":11770},{""page_index"":2,""viewing_time"":7732},{""page_index"":3,""viewing_time"":21781}]","","","","","","","","","","","","","","","","","","","","","","","","","","","","","","","","","","","","","","","","","","",""
"","","","","ctl-task-cpt","20","419489","0.0-8.0-1.0","70","1","2025-07-02 10:19:01","80fe4187154257d5fb01684ea91b68b9","37.47.222.205","Mozilla/5.0 (Windows NT 10.0; Win64; x64) AppleWebKit/537.36 (KHTML, like Gecko) Chrome/138.0.0.0 Safari/537.36","WebKit","Chrome","138.0.0.0","Windows","10.0","https://app.prolific.com/","pl-PL,pl;q=0.9,en-US;q=0.8,en;q=0.7","5f06eefaf3fc742667b4e79d","683db6dfa200031b80f2a654","686507551bfcba0f981358d1","5f06eefaf3fc742667b4e79d","","","","","","","","","","","","","","","","","win-only","3","g1:SW,g2:NE","1","0","1","388730.1","8770","12780.6","30117.8","2","4","4","6","2","4","4","4","0","0.030303030303030304","4010.5","4000","1970","[""up"",""right""]","{""num_key_presses"":6,""num_perfect"":6,""num_errors"":0,""num_randdir"":0,""num_randdir_good_moves"":0,""num_whilered"":0,""num_whileblue"":0,""num_blue"":0,""num_good_moves"":6}","[422.57142857142856,417.6808016640799,1.3,422.57142857142856,417.6808016640799,106,422.57142857142856,417.6808016640799,205.9,422.57142857142856,417.6808016640799,310.6,422.57142857142856,417.6808016640799,412.2,422.57142857142856,417.6808016640799,517.9,422.57142857142856,417.6808016640799,619.9,422.57142857142856,417.6808016640799,726.5,422.57142857142856,417.6808016640799,826.5,422.57142857142856,417.6808016640799,927.2,422.57142857142856,417.6808016640799,1030.5,422.57142857142856,417.6808016640799,1140.6,422.57142857142856,417.6808016640799,1245.9,422.57142857142856,417.6808016640799,1346,422.57142857142856,417.6808016640799,1446.2,422.57142857142856,417.6808016640799,1550,422.57142857142856,417.6808016640799,1651.5,422.57142857142856,417.6808016640799,1759.4,422.57142857142856,417.6808016640799,1861.8,422.57142857142856,417.6808016640799,1967.3,422.57142857142856,417.6808016640799,2068.5,422.57142857142856,417.6808016640799,2177,422.57142857142856,417.6808016640799,2284.8,422.57142857142856,417.6808016640799,2391.4,422.57142857142856,417.6808016640799,2494.8,422.57142857142856,417.6808016640799,2598.7,422.57142857142856,417.6808016640799,2698.9,422.57142857142856,417.6808016640799,2807.4,422.57142857142856,417.6808016640799,2912.6,422.57142857142856,417.6808016640799,3018.9,422.57142857142856,417.6808016640799,3120.2,422.57142857142856,417.6808016640799,3226.9,422.57142857142856,417.6808016640799,3330.4,422.57142857142856,417.6808016640799,3453.2,422.57142857142856,417.6808016640799,3556.4,422.57142857142856,417.6808016640799,3664.4,422.57142857142856,417.6808016640799,3768.8,422.57142857142856,417.6808016640799,3876.1,422.57142857142856,417.6808016640799,3983.9]","[1555.2,1555.2,1000,0,555.2,""smooth"",""up"",""up"",""good_move"",4905.8,3347.2,2360.7,1558.9,986.4,""smooth"",""right"",""right"",""good_move"",8247.4,3335.2,2812.2,4912.2,523,""smooth"",""right"",""right"",""good_move"",11432.4,3179.3,2751.4,8253.2,427.8,""smooth"",""right"",""right"",""good_move"",14096,2662.4,2240.8,11433.8,421.5,""smooth"",""up"",""up"",""good_move"",17169,3071,2627.3,14098.1,443.6,""smooth"",""up"",""up"",""good_move""]","",""
"15782","","","","instructions","21","435272","0.0-8.0-2.0","70","1","2025-07-02 10:19:01","80fe4187154257d5fb01684ea91b68b9","37.47.222.205","Mozilla/5.0 (Windows NT 10.0; Win64; x64) AppleWebKit/537.36 (KHTML, like Gecko) Chrome/138.0.0.0 Safari/537.36","WebKit","Chrome","138.0.0.0","Windows","10.0","https://app.prolific.com/","pl-PL,pl;q=0.9,en-US;q=0.8,en;q=0.7","5f06eefaf3fc742667b4e79d","683db6dfa200031b80f2a654","686507551bfcba0f981358d1","5f06eefaf3fc742667b4e79d","","[{""page_index"":0,""viewing_time"":15780}]","","","","","","","","","","","","","","","","","","","","","","","","","","","","","","","","","","","","","","","","","","",""
"","","","","ctl-task-cpt","22","462553","0.0-8.0-3.0","70","1","2025-07-02 10:19:01","80fe4187154257d5fb01684ea91b68b9","37.47.222.205","Mozilla/5.0 (Windows NT 10.0; Win64; x64) AppleWebKit/537.36 (KHTML, like Gecko) Chrome/138.0.0.0 Safari/537.36","WebKit","Chrome","138.0.0.0","Windows","10.0","https://app.prolific.com/","pl-PL,pl;q=0.9,en-US;q=0.8,en;q=0.7","5f06eefaf3fc742667b4e79d","683db6dfa200031b80f2a654","686507551bfcba0f981358d1","5f06eefaf3fc742667b4e79d","","","","","","","","","","","","","","","","","win-only","3","g1:SW,g2:NE","0.35","0","3","437656.4","1481.6","5483.9","24259.9","2","4","8","6","1","2","2","2","0","0.015151515151515152","4002.2","4000","2085","[""down"",""left""]","{""num_key_presses"":6,""num_perfect"":3,""num_errors"":0,""num_randdir"":3,""num_randdir_good_moves"":2,""num_whilered"":0,""num_whileblue"":0,""num_blue"":1,""num_good_moves"":5}","[413.57142857142856,419.1808016640799,0.4,413.57142857142856,419.1808016640799,100,413.57142857142856,419.1808016640799,200.1,413.57142857142856,419.1808016640799,308.7,413.57142857142856,419.1808016640799,417.6,413.57142857142856,419.1808016640799,524.5,413.57142857142856,419.1808016640799,633.8,413.57142857142856,419.1808016640799,734.8,418.07142857142856,422.1808016640799,841.5,460.07142857142856,462.6808016640799,946.5,464.57142857142856,467.1808016640799,1048.9,464.57142857142856,467.1808016640799,1149.9,464.57142857142856,467.1808016640799,1250.7,464.57142857142856,467.1808016640799,1354.5,464.57142857142856,467.1808016640799,1458.9,464.57142857142856,467.1808016640799,1562.7,464.57142857142856,467.1808016640799,1667.9,464.57142857142856,467.1808016640799,1771.5,464.57142857142856,467.1808016640799,1875.9,464.57142857142856,467.1808016640799,1976.9,464.57142857142856,467.1808016640799,2083.1,464.57142857142856,467.1808016640799,2188.1,464.57142857142856,467.1808016640799,2291.6,464.57142857142856,467.1808016640799,2397.2,464.57142857142856,467.1808016640799,2498.3,464.57142857142856,467.1808016640799,2603.9,464.57142857142856,467.1808016640799,2705.8,464.57142857142856,467.1808016640799,2813.3,464.57142857142856,467.1808016640799,2917.7,464.57142857142856,467.1808016640799,3021.2,464.57142857142856,467.1808016640799,3128.5,464.57142857142856,467.1808016640799,3228.6,464.57142857142856,467.1808016640799,3333.9,464.57142857142856,467.1808016640799,3439.3,464.57142857142856,467.1808016640799,3541.9,464.57142857142856,467.1808016640799,3648.7,464.57142857142856,467.1808016640799,3752.9,464.57142857142856,467.1808016640799,3855.4,464.57142857142856,467.1808016640799,3955.4]","[1635.1,1635.1,1000,0,635.1,""smooth"",""down"",""down"",""good_move"",7168,5532,2155.5,4597.1,415.5,""oops"",""down"",""left"",""good_move"",10136.5,2967.5,2380,7169,587.5,""oops"",""down"",""up"",""bad_move"",12686.4,2548.2,2126.7,10138.3,421.4,""smooth"",""left"",""left"",""good_move"",16041,3353.6,2917,12687.4,436.7,""smooth"",""down"",""down"",""good_move"",18642.1,2600.3,2169.4,16041.8,430.9,""oops"",""down"",""down"",""good_move""]","",""
"41051","","","","instructions","23","503605","0.0-8.0-4.0","70","1","2025-07-02 10:19:01","80fe4187154257d5fb01684ea91b68b9","37.47.222.205","Mozilla/5.0 (Windows NT 10.0; Win64; x64) AppleWebKit/537.36 (KHTML, like Gecko) Chrome/138.0.0.0 Safari/537.36","WebKit","Chrome","138.0.0.0","Windows","10.0","https://app.prolific.com/","pl-PL,pl;q=0.9,en-US;q=0.8,en;q=0.7","5f06eefaf3fc742667b4e79d","683db6dfa200031b80f2a654","686507551bfcba0f981358d1","5f06eefaf3fc742667b4e79d","","[{""page_index"":0,""viewing_time"":7205},{""page_index"":1,""viewing_time"":33845}]","","","","","","","","","","","","","","","","","","","","","","","","","","","","","","","","","","","","","","","","","","",""
"16779","","","{""green_ball"":[""Ball sometimes shakes and moves in a random direction""]}","survey-multi-select","24","520399","0.0-8.0-5.0-0.0","70","1","2025-07-02 10:19:01","80fe4187154257d5fb01684ea91b68b9","37.47.222.205","Mozilla/5.0 (Windows NT 10.0; Win64; x64) AppleWebKit/537.36 (KHTML, like Gecko) Chrome/138.0.0.0 Safari/537.36","WebKit","Chrome","138.0.0.0","Windows","10.0","https://app.prolific.com/","pl-PL,pl;q=0.9,en-US;q=0.8,en;q=0.7","5f06eefaf3fc742667b4e79d","683db6dfa200031b80f2a654","686507551bfcba0f981358d1","5f06eefaf3fc742667b4e79d","","","[0]","","","","quiz","","","","","","","","","","","","","","","","","","","","","","","","","","","","","","","","","","","","","true",""
"4556","","<p align='center'><b>CORRECT!</b> Indeed, the green ball may sometimes shake and move in a random direction.</p>","0","html-button-response","25","524960","0.0-8.0-5.0-1.0","70","1","2025-07-02 10:19:01","80fe4187154257d5fb01684ea91b68b9","37.47.222.205","Mozilla/5.0 (Windows NT 10.0; Win64; x64) AppleWebKit/537.36 (KHTML, like Gecko) Chrome/138.0.0.0 Safari/537.36","WebKit","Chrome","138.0.0.0","Windows","10.0","https://app.prolific.com/","pl-PL,pl;q=0.9,en-US;q=0.8,en;q=0.7","5f06eefaf3fc742667b4e79d","683db6dfa200031b80f2a654","686507551bfcba0f981358d1","5f06eefaf3fc742667b4e79d","","","","","","","","","","","","","","","","","","","","","","","","","","","","","","","","","","","","","","","","","","","","",""
"13285","","","{""yellow_ball"":[""Ball doesn‘t move and I get -1 penalty point""]}","survey-multi-select","26","538252","0.0-8.0-6.0-0.0","70","1","2025-07-02 10:19:01","80fe4187154257d5fb01684ea91b68b9","37.47.222.205","Mozilla/5.0 (Windows NT 10.0; Win64; x64) AppleWebKit/537.36 (KHTML, like Gecko) Chrome/138.0.0.0 Safari/537.36","WebKit","Chrome","138.0.0.0","Windows","10.0","https://app.prolific.com/","pl-PL,pl;q=0.9,en-US;q=0.8,en;q=0.7","5f06eefaf3fc742667b4e79d","683db6dfa200031b80f2a654","686507551bfcba0f981358d1","5f06eefaf3fc742667b4e79d","","","[0]","","","","quiz","","","","","","","","","","","","","","","","","","","","","","","","","","","","","","","","","","","","","true",""
"2171","","<p align='center'><b>CORRECT!</b> Indeed, the yellow ball never moves and you receive a penalty.</p>","0","html-button-response","27","540426","0.0-8.0-6.0-1.0","70","1","2025-07-02 10:19:01","80fe4187154257d5fb01684ea91b68b9","37.47.222.205","Mozilla/5.0 (Windows NT 10.0; Win64; x64) AppleWebKit/537.36 (KHTML, like Gecko) Chrome/138.0.0.0 Safari/537.36","WebKit","Chrome","138.0.0.0","Windows","10.0","https://app.prolific.com/","pl-PL,pl;q=0.9,en-US;q=0.8,en;q=0.7","5f06eefaf3fc742667b4e79d","683db6dfa200031b80f2a654","686507551bfcba0f981358d1","5f06eefaf3fc742667b4e79d","","","","","","","","","","","","","","","","","","","","","","","","","","","","","","","","","","","","","","","","","","","","",""
"6788","","","{""blue_ball"":[""Ball doesn‘t move and I get -1 penalty point""]}","survey-multi-select","28","547222","0.0-8.0-7.0-0.0","70","1","2025-07-02 10:19:01","80fe4187154257d5fb01684ea91b68b9","37.47.222.205","Mozilla/5.0 (Windows NT 10.0; Win64; x64) AppleWebKit/537.36 (KHTML, like Gecko) Chrome/138.0.0.0 Safari/537.36","WebKit","Chrome","138.0.0.0","Windows","10.0","https://app.prolific.com/","pl-PL,pl;q=0.9,en-US;q=0.8,en;q=0.7","5f06eefaf3fc742667b4e79d","683db6dfa200031b80f2a654","686507551bfcba0f981358d1","5f06eefaf3fc742667b4e79d","","","[0]","","","","quiz","","","","","","","","","","","","","","","","","","","","","","","","","","","","","","","","","","","","","false",""
"2886","","<p align='center'><b>INCORRECT.</b> The blue ball always shakes and moves randomly.</p>","0","html-button-response","29","550112","0.0-8.0-7.0-1.0","70","1","2025-07-02 10:19:01","80fe4187154257d5fb01684ea91b68b9","37.47.222.205","Mozilla/5.0 (Windows NT 10.0; Win64; x64) AppleWebKit/537.36 (KHTML, like Gecko) Chrome/138.0.0.0 Safari/537.36","WebKit","Chrome","138.0.0.0","Windows","10.0","https://app.prolific.com/","pl-PL,pl;q=0.9,en-US;q=0.8,en;q=0.7","5f06eefaf3fc742667b4e79d","683db6dfa200031b80f2a654","686507551bfcba0f981358d1","5f06eefaf3fc742667b4e79d","","","","","","","","","","","","","","","","","","","","","","","","","","","","","","","","","","","","","","","","","","","","",""
"5743","","","{""blue_ball"":[""Ball always shakes and moves in a random direction""]}","survey-multi-select","30","555862","0.0-8.0-7.1-0.1","70","1","2025-07-02 10:19:01","80fe4187154257d5fb01684ea91b68b9","37.47.222.205","Mozilla/5.0 (Windows NT 10.0; Win64; x64) AppleWebKit/537.36 (KHTML, like Gecko) Chrome/138.0.0.0 Safari/537.36","WebKit","Chrome","138.0.0.0","Windows","10.0","https://app.prolific.com/","pl-PL,pl;q=0.9,en-US;q=0.8,en;q=0.7","5f06eefaf3fc742667b4e79d","683db6dfa200031b80f2a654","686507551bfcba0f981358d1","5f06eefaf3fc742667b4e79d","","","[0]","","","","quiz","","","","","","","","","","","","","","","","","","","","","","","","","","","","","","","","","","","","","true",""
"2629","","<p align='center'><b>CORRECT!</b> Indeed, the blue ball always shakes and moves in a random direction. Also there is a penalty of -1 point.</p>","0","html-button-response","31","558493","0.0-8.0-7.1-1.1","70","1","2025-07-02 10:19:01","80fe4187154257d5fb01684ea91b68b9","37.47.222.205","Mozilla/5.0 (Windows NT 10.0; Win64; x64) AppleWebKit/537.36 (KHTML, like Gecko) Chrome/138.0.0.0 Safari/537.36","WebKit","Chrome","138.0.0.0","Windows","10.0","https://app.prolific.com/","pl-PL,pl;q=0.9,en-US;q=0.8,en;q=0.7","5f06eefaf3fc742667b4e79d","683db6dfa200031b80f2a654","686507551bfcba0f981358d1","5f06eefaf3fc742667b4e79d","","","","","","","","","","","","","","","","","","","","","","","","","","","","","","","","","","","","","","","","","","","","",""
"4620","","","{""bonus"":[""When I reach 50% of points""]}","survey-multi-select","32","563125","0.0-8.0-8.0-0.0","70","1","2025-07-02 10:19:01","80fe4187154257d5fb01684ea91b68b9","37.47.222.205","Mozilla/5.0 (Windows NT 10.0; Win64; x64) AppleWebKit/537.36 (KHTML, like Gecko) Chrome/138.0.0.0 Safari/537.36","WebKit","Chrome","138.0.0.0","Windows","10.0","https://app.prolific.com/","pl-PL,pl;q=0.9,en-US;q=0.8,en;q=0.7","5f06eefaf3fc742667b4e79d","683db6dfa200031b80f2a654","686507551bfcba0f981358d1","5f06eefaf3fc742667b4e79d","","","[0]","","","","quiz","","","","","","","","","","","","","","","","","","","","","","","","","","","","","","","","","","","","","true",""
"2179","","<p align='center'><b>CORRECT!</b> Indeed, you receive 2 pounds extra when you reach 50% of points.</p>","0","html-button-response","33","565308","0.0-8.0-8.0-1.0","70","1","2025-07-02 10:19:01","80fe4187154257d5fb01684ea91b68b9","37.47.222.205","Mozilla/5.0 (Windows NT 10.0; Win64; x64) AppleWebKit/537.36 (KHTML, like Gecko) Chrome/138.0.0.0 Safari/537.36","WebKit","Chrome","138.0.0.0","Windows","10.0","https://app.prolific.com/","pl-PL,pl;q=0.9,en-US;q=0.8,en;q=0.7","5f06eefaf3fc742667b4e79d","683db6dfa200031b80f2a654","686507551bfcba0f981358d1","5f06eefaf3fc742667b4e79d","","","","","","","","","","","","","","","","","","","","","","","","","","","","","","","","","","","","","","","","","","","","",""
"4930","","","","instructions","34","570242","0.0-8.0-9.0","70","1","2025-07-02 10:19:01","80fe4187154257d5fb01684ea91b68b9","37.47.222.205","Mozilla/5.0 (Windows NT 10.0; Win64; x64) AppleWebKit/537.36 (KHTML, like Gecko) Chrome/138.0.0.0 Safari/537.36","WebKit","Chrome","138.0.0.0","Windows","10.0","https://app.prolific.com/","pl-PL,pl;q=0.9,en-US;q=0.8,en;q=0.7","5f06eefaf3fc742667b4e79d","683db6dfa200031b80f2a654","686507551bfcba0f981358d1","5f06eefaf3fc742667b4e79d","","[{""page_index"":0,""viewing_time"":4930}]","","","","","","","","","","","","","","","","","","","","","","","","","","","","","","","","","","","","","","","","","","",""
"9253","","<p>Before you start with this game please answer the following three questions yourself. </p>
  <p>Through this game, we measure several aspects of your cognitive performance, such as reaction times, multi-tasking capabilities </p>
  <p>and the ability to assess the situation you are in.</p>
  <p></p>
  <p><b>How good do you usually are in such tasks?</b></p>","77","html-slider-response","35","579500","0.0-9.0-0.0","70","1","2025-07-02 10:19:01","80fe4187154257d5fb01684ea91b68b9","37.47.222.205","Mozilla/5.0 (Windows NT 10.0; Win64; x64) AppleWebKit/537.36 (KHTML, like Gecko) Chrome/138.0.0.0 Safari/537.36","WebKit","Chrome","138.0.0.0","Windows","10.0","https://app.prolific.com/","pl-PL,pl;q=0.9,en-US;q=0.8,en;q=0.7","5f06eefaf3fc742667b4e79d","683db6dfa200031b80f2a654","686507551bfcba0f981358d1","5f06eefaf3fc742667b4e79d","2025-07-02T10:28:42.916Z","","","","","","PreSkillQ","","","","","","","","","","","","","","","","","","","","","","","","","","","","","","","","","","","","","","50"
"4422","","<div style=""width:500px;"">
  <p>How well do you think you will perform in this task compared to other participants?</p>
  </div>","70","html-slider-response","36","583926","0.0-9.0-1.0","70","1","2025-07-02 10:19:01","80fe4187154257d5fb01684ea91b68b9","37.47.222.205","Mozilla/5.0 (Windows NT 10.0; Win64; x64) AppleWebKit/537.36 (KHTML, like Gecko) Chrome/138.0.0.0 Safari/537.36","WebKit","Chrome","138.0.0.0","Windows","10.0","https://app.prolific.com/","pl-PL,pl;q=0.9,en-US;q=0.8,en;q=0.7","5f06eefaf3fc742667b4e79d","683db6dfa200031b80f2a654","686507551bfcba0f981358d1","5f06eefaf3fc742667b4e79d","2025-07-02T10:28:47.343Z","","","","","","PrePerfQ","","","","","","","","","","","","","","","","","","","","","","","","","","","","","","","","","","","","","","50"
"5827","","<div style=""width:500px;"">
  <p>What best describes how you currently feel?</p>
  </div>","76","html-slider-response","37","589759","0.0-9.0-2.0","70","1","2025-07-02 10:19:01","80fe4187154257d5fb01684ea91b68b9","37.47.222.205","Mozilla/5.0 (Windows NT 10.0; Win64; x64) AppleWebKit/537.36 (KHTML, like Gecko) Chrome/138.0.0.0 Safari/537.36","WebKit","Chrome","138.0.0.0","Windows","10.0","https://app.prolific.com/","pl-PL,pl;q=0.9,en-US;q=0.8,en;q=0.7","5f06eefaf3fc742667b4e79d","683db6dfa200031b80f2a654","686507551bfcba0f981358d1","5f06eefaf3fc742667b4e79d","2025-07-02T10:28:53.175Z","","","","","","PreMotivationQ","","","","","","","","","","","","","","","","","","","","","","","","","","","","","","","","","","","","","","50"
"","","","","ctl-task-cpt","38","626303","0.0-10.0-0.0","70","1","2025-07-02 10:19:01","80fe4187154257d5fb01684ea91b68b9","37.47.222.205","Mozilla/5.0 (Windows NT 10.0; Win64; x64) AppleWebKit/537.36 (KHTML, like Gecko) Chrome/138.0.0.0 Safari/537.36","WebKit","Chrome","138.0.0.0","Windows","10.0","https://app.prolific.com/","pl-PL,pl;q=0.9,en-US;q=0.8,en;q=0.7","5f06eefaf3fc742667b4e79d","683db6dfa200031b80f2a654","686507551bfcba0f981358d1","5f06eefaf3fc742667b4e79d","2025-07-02T10:29:29.719Z","","","","","","","","","","","","","","","","win-only","3","g1:SW,g2:NE","1","1","0","592135","2847.2","7850.5","33526.9","1","4","4","6","2","4","3","3","0","0.022727272727272728","1017","3000","800","[""up"",""right""]","{""num_key_presses"":8,""num_perfect"":7,""num_errors"":1,""num_randdir"":0,""num_randdir_good_moves"":0,""num_whilered"":0,""num_whileblue"":1,""num_blue"":2,""num_good_moves"":7}","[416.57142857142856,419.1808016640799,0.4,416.57142857142856,419.1808016640799,109.7,416.57142857142856,419.1808016640799,215.1,416.57142857142856,419.1808016640799,326.3,416.57142857142856,419.1808016640799,426.5,437.57142857142856,401.1808016640799,531.7,688.0714285714286,141.68080166407992,636.7,757.0714285714286,56.18080166407994,741.1,770.5714285714286,41.18080166407994,849.6,770.5714285714286,41.18080166407994,954.4,770.5714285714286,41.18080166407994,1056.2,770.5714285714286,41.18080166407994,1161.4,770.5714285714286,41.18080166407994,1263.3,770.5714285714286,41.18080166407994,1367.6,770.5714285714286,41.18080166407994,1472.5,770.5714285714286,41.18080166407994,1574.9,770.5714285714286,41.18080166407994,1684.6,770.5714285714286,41.18080166407994,1787.7,770.5714285714286,41.18080166407994,1890.6,770.5714285714286,41.18080166407994,1995.2,770.5714285714286,41.18080166407994,2097.5,770.5714285714286,41.18080166407994,2201.2,770.5714285714286,41.18080166407994,2306.8,770.5714285714286,41.18080166407994,2410.8,770.5714285714286,41.18080166407994,2519.3,770.5714285714286,41.18080166407994,2627.3,770.5714285714286,41.18080166407994,2729,770.5714285714286,41.18080166407994,2829.5,770.5714285714286,41.18080166407994,2934.8,770.5714285714286,41.18080166407994,3040.7,770.5714285714286,41.18080166407994,3147.4,770.5714285714286,41.18080166407994,3249.1,770.5714285714286,41.18080166407994,3359.2,770.5714285714286,41.18080166407994,3468.3,770.5714285714286,41.18080166407994,3576.4,770.5714285714286,41.18080166407994,3680.5,770.5714285714286,41.18080166407994,3785.9,770.5714285714286,41.18080166407994,3888.5,770.5714285714286,41.18080166407994,3992.6,770.5714285714286,41.18080166407994,4097.5,770.5714285714286,41.18080166407994,4199.4,770.5714285714286,41.18080166407994,4300.4,770.5714285714286,41.18080166407994,4404.5,770.5714285714286,41.18080166407994,4507.4,770.5714285714286,41.18080166407994,4616.9,770.5714285714286,41.18080166407994,4721.6,770.5714285714286,41.18080166407994,4826.8,770.5714285714286,41.18080166407994,4930.1]","[1574.6,1574.6,1001,0,573.6,""while_blue"",""up"",""left"",""bad_move"",4611,3034,2506.8,1577,527.2,""smooth"",""right"",""right"",""good_move"",7323,2711.1,2188.7,4611.9,522.4,""smooth"",""right"",""right"",""good_move"",13938.5,6614.7,2245.4,11324.9,368.2,""smooth"",""up"",""up"",""good_move"",17196.1,3256.9,2662.5,13939.2,594.4,""smooth"",""up"",""up"",""good_move"",20350.9,3154.4,2646.1,17196.6,508.3,""smooth"",""right"",""right"",""good_move"",22698.6,2346.9,1900.4,20351.7,446.5,""smooth"",""right"",""right"",""good_move"",25549.4,2850.3,2473.8,22699.2,376.4,""smooth"",""up"",""up"",""good_move""]","",""
"6738","","<div style=""width:500px;"">
  <p>What determined the result of this run?</p>
  </div>","97","html-slider-response","39","633043","0.0-10.0-1.0","70","1","2025-07-02 10:19:01","80fe4187154257d5fb01684ea91b68b9","37.47.222.205","Mozilla/5.0 (Windows NT 10.0; Win64; x64) AppleWebKit/537.36 (KHTML, like Gecko) Chrome/138.0.0.0 Safari/537.36","WebKit","Chrome","138.0.0.0","Windows","10.0","https://app.prolific.com/","pl-PL,pl;q=0.9,en-US;q=0.8,en;q=0.7","5f06eefaf3fc742667b4e79d","683db6dfa200031b80f2a654","686507551bfcba0f981358d1","5f06eefaf3fc742667b4e79d","2025-07-02T10:29:36.459Z","","","","","","AttribQ","","","","","","","","","","","","","","","","","","","","","","","","","","","","","","","","","","","","","","50"
"4832","","<div style=""width:500px;"">
  <p>How much control did you have over the ball?</p>
  </div>","95","html-slider-response","40","637878","0.0-10.0-2.0","70","1","2025-07-02 10:19:01","80fe4187154257d5fb01684ea91b68b9","37.47.222.205","Mozilla/5.0 (Windows NT 10.0; Win64; x64) AppleWebKit/537.36 (KHTML, like Gecko) Chrome/138.0.0.0 Safari/537.36","WebKit","Chrome","138.0.0.0","Windows","10.0","https://app.prolific.com/","pl-PL,pl;q=0.9,en-US;q=0.8,en;q=0.7","5f06eefaf3fc742667b4e79d","683db6dfa200031b80f2a654","686507551bfcba0f981358d1","5f06eefaf3fc742667b4e79d","2025-07-02T10:29:41.294Z","","","","","","ControlQ","","","","","","","","","","","","","","","","","","","","","","","","","","","","","","","","","","","","","","50"
"4411","","<div style=""width:500px;"">
  <p>How would you describe your current emotional state?</p>
  </div>","54","html-slider-response","41","642292","0.0-10.0-3.0","70","1","2025-07-02 10:19:01","80fe4187154257d5fb01684ea91b68b9","37.47.222.205","Mozilla/5.0 (Windows NT 10.0; Win64; x64) AppleWebKit/537.36 (KHTML, like Gecko) Chrome/138.0.0.0 Safari/537.36","WebKit","Chrome","138.0.0.0","Windows","10.0","https://app.prolific.com/","pl-PL,pl;q=0.9,en-US;q=0.8,en;q=0.7","5f06eefaf3fc742667b4e79d","683db6dfa200031b80f2a654","686507551bfcba0f981358d1","5f06eefaf3fc742667b4e79d","2025-07-02T10:29:45.708Z","","","","","","StressQ","","","","","","","","","","","","","","","","","","","","","","","","","","","","","","","","","","","","","","50"
"7882","","<div style=""width:500px;"">
  <p>What best describes how you currently feel?</p>
  </div>","70","html-slider-response","42","650176","0.0-10.0-4.0","70","1","2025-07-02 10:19:01","80fe4187154257d5fb01684ea91b68b9","37.47.222.205","Mozilla/5.0 (Windows NT 10.0; Win64; x64) AppleWebKit/537.36 (KHTML, like Gecko) Chrome/138.0.0.0 Safari/537.36","WebKit","Chrome","138.0.0.0","Windows","10.0","https://app.prolific.com/","pl-PL,pl;q=0.9,en-US;q=0.8,en;q=0.7","5f06eefaf3fc742667b4e79d","683db6dfa200031b80f2a654","686507551bfcba0f981358d1","5f06eefaf3fc742667b4e79d","2025-07-02T10:29:53.593Z","","","","","","MotivationQ","","","","","","","","","","","","","","","","","","","","","","","","","","","","","","","","","","","","","","50"
"","","","","ctl-task-cpt","43","687661","0.0-10.0-0.1","70","1","2025-07-02 10:19:01","80fe4187154257d5fb01684ea91b68b9","37.47.222.205","Mozilla/5.0 (Windows NT 10.0; Win64; x64) AppleWebKit/537.36 (KHTML, like Gecko) Chrome/138.0.0.0 Safari/537.36","WebKit","Chrome","138.0.0.0","Windows","10.0","https://app.prolific.com/","pl-PL,pl;q=0.9,en-US;q=0.8,en;q=0.7","5f06eefaf3fc742667b4e79d","683db6dfa200031b80f2a654","686507551bfcba0f981358d1","5f06eefaf3fc742667b4e79d","2025-07-02T10:30:31.077Z","","","","","","","","","","","","","","","","win-only","2","g1:SE,g2:NW","0.9","2","0","652552.2","2342.2","7346.1","34461.4","1","4","8","6","2","8","7","10","3","0.07575757575757576","1680","3000","550","[""left"",""up""]","{""num_key_presses"":10,""num_perfect"":8,""num_errors"":1,""num_randdir"":1,""num_randdir_good_moves"":0,""num_whilered"":0,""num_whileblue"":1,""num_blue"":1,""num_good_moves"":8}","[413.57142857142856,422.1808016640799,0.6,413.57142857142856,422.1808016640799,104.6,413.57142857142856,422.1808016640799,207.8,413.57142857142856,422.1808016640799,314.7,413.57142857142856,422.1808016640799,424.1,413.57142857142856,422.1808016640799,525.1,413.57142857142856,422.1808016640799,632.8,413.57142857142856,422.1808016640799,740.8,311.57142857142856,312.6808016640799,844.4,212.57142857142856,194.18080166407992,945.7,143.57142857142856,105.68080166407994,1055.6,112.07142857142857,81.68080166407994,1168.8,80.57142857142857,66.68080166407994,1269.7,61.07142857142857,66.68080166407994,1379,61.07142857142857,66.68080166407994,1480.5,61.07142857142857,66.68080166407994,1583.9,61.07142857142857,66.68080166407994,1699.6,61.07142857142857,66.68080166407994,1802.7,61.07142857142857,66.68080166407994,1906.7,61.07142857142857,66.68080166407994,2010.4,61.07142857142857,66.68080166407994,2114.8,61.07142857142857,66.68080166407994,2224.2,61.07142857142857,66.68080166407994,2334.9,61.07142857142857,66.68080166407994,2440.9,61.07142857142857,66.68080166407994,2541.5,61.07142857142857,66.68080166407994,2641.5,61.07142857142857,66.68080166407994,2743.7,61.07142857142857,66.68080166407994,2844.7,61.07142857142857,66.68080166407994,2949.2,61.07142857142857,66.68080166407994,3053,61.07142857142857,66.68080166407994,3158.5,61.07142857142857,66.68080166407994,3265.3,61.07142857142857,66.68080166407994,3370.3,61.07142857142857,66.68080166407994,3474.6,61.07142857142857,66.68080166407994,3575.6,61.07142857142857,66.68080166407994,3676.7,61.07142857142857,66.68080166407994,3780.7,61.07142857142857,66.68080166407994,3889.1,61.07142857142857,66.68080166407994,3994.2,61.07142857142857,66.68080166407994,4094.2,61.07142857142857,66.68080166407994,4199,61.07142857142857,66.68080166407994,4300.1,61.07142857142857,66.68080166407994,4404.5,61.07142857142857,66.68080166407994,4508.8,61.07142857142857,66.68080166407994,4613.7,61.07142857142857,66.68080166407994,4721.4,61.07142857142857,66.68080166407994,4824.6,61.07142857142857,66.68080166407994,4928.2]","[1416.6,1416.6,1000,0,416.6,""smooth"",""up"",""up"",""good_move"",4039.5,2622,2114.9,1417.6,507.1,""smooth"",""up"",""up"",""good_move"",6780.5,2740.5,2359.6,4040.1,380.8,""smooth"",""left"",""left"",""good_move"",9424.1,2642.6,2153.6,6781.5,489,""oops"",""left"",""down"",""bad_move"",11841.4,2415.5,2052.9,9425.9,362.6,""smooth"",""up"",""up"",""good_move"",14760.8,2918.5,2551.9,11842.3,366.6,""while_blue"",""left"",""down"",""bad_move"",17446.5,2684.7,2300.8,14761.8,383.9,""smooth"",""up"",""up"",""good_move"",21111.3,3664.3,3256.5,17447,407.9,""smooth"",""left"",""left"",""good_move"",24420.5,3307.8,2892.1,21112.9,415.5,""smooth"",""left"",""left"",""good_move"",26970.2,2548.1,2161.6,24422.1,386.5,""smooth"",""up"",""up"",""good_move""]","",""
"6291","","<div style=""width:500px;"">
  <p>What determined the result of this run?</p>
  </div>","66","html-slider-response","44","693956","0.0-10.0-1.1","70","1","2025-07-02 10:19:01","80fe4187154257d5fb01684ea91b68b9","37.47.222.205","Mozilla/5.0 (Windows NT 10.0; Win64; x64) AppleWebKit/537.36 (KHTML, like Gecko) Chrome/138.0.0.0 Safari/537.36","WebKit","Chrome","138.0.0.0","Windows","10.0","https://app.prolific.com/","pl-PL,pl;q=0.9,en-US;q=0.8,en;q=0.7","5f06eefaf3fc742667b4e79d","683db6dfa200031b80f2a654","686507551bfcba0f981358d1","5f06eefaf3fc742667b4e79d","2025-07-02T10:30:37.372Z","","","","","","AttribQ","","","","","","","","","","","","","","","","","","","","","","","","","","","","","","","","","","","","","","50"
"3205","","<div style=""width:500px;"">
  <p>How much control did you have over the ball?</p>
  </div>","59","html-slider-response","45","697163","0.0-10.0-2.1","70","1","2025-07-02 10:19:01","80fe4187154257d5fb01684ea91b68b9","37.47.222.205","Mozilla/5.0 (Windows NT 10.0; Win64; x64) AppleWebKit/537.36 (KHTML, like Gecko) Chrome/138.0.0.0 Safari/537.36","WebKit","Chrome","138.0.0.0","Windows","10.0","https://app.prolific.com/","pl-PL,pl;q=0.9,en-US;q=0.8,en;q=0.7","5f06eefaf3fc742667b4e79d","683db6dfa200031b80f2a654","686507551bfcba0f981358d1","5f06eefaf3fc742667b4e79d","2025-07-02T10:30:40.580Z","","","","","","ControlQ","","","","","","","","","","","","","","","","","","","","","","","","","","","","","","","","","","","","","","50"
"3398","","<div style=""width:500px;"">
  <p>How would you describe your current emotional state?</p>
  </div>","58","html-slider-response","46","700564","0.0-10.0-3.1","70","1","2025-07-02 10:19:01","80fe4187154257d5fb01684ea91b68b9","37.47.222.205","Mozilla/5.0 (Windows NT 10.0; Win64; x64) AppleWebKit/537.36 (KHTML, like Gecko) Chrome/138.0.0.0 Safari/537.36","WebKit","Chrome","138.0.0.0","Windows","10.0","https://app.prolific.com/","pl-PL,pl;q=0.9,en-US;q=0.8,en;q=0.7","5f06eefaf3fc742667b4e79d","683db6dfa200031b80f2a654","686507551bfcba0f981358d1","5f06eefaf3fc742667b4e79d","2025-07-02T10:30:43.981Z","","","","","","StressQ","","","","","","","","","","","","","","","","","","","","","","","","","","","","","","","","","","","","","","50"
"4973","","<div style=""width:500px;"">
  <p>What best describes how you currently feel?</p>
  </div>","80","html-slider-response","47","705540","0.0-10.0-4.1","70","1","2025-07-02 10:19:01","80fe4187154257d5fb01684ea91b68b9","37.47.222.205","Mozilla/5.0 (Windows NT 10.0; Win64; x64) AppleWebKit/537.36 (KHTML, like Gecko) Chrome/138.0.0.0 Safari/537.36","WebKit","Chrome","138.0.0.0","Windows","10.0","https://app.prolific.com/","pl-PL,pl;q=0.9,en-US;q=0.8,en;q=0.7","5f06eefaf3fc742667b4e79d","683db6dfa200031b80f2a654","686507551bfcba0f981358d1","5f06eefaf3fc742667b4e79d","2025-07-02T10:30:48.957Z","","","","","","MotivationQ","","","","","","","","","","","","","","","","","","","","","","","","","","","","","","","","","","","","","","50"
"","","","","ctl-task-cpt","48","738004","0.0-10.0-0.2","70","1","2025-07-02 10:19:01","80fe4187154257d5fb01684ea91b68b9","37.47.222.205","Mozilla/5.0 (Windows NT 10.0; Win64; x64) AppleWebKit/537.36 (KHTML, like Gecko) Chrome/138.0.0.0 Safari/537.36","WebKit","Chrome","138.0.0.0","Windows","10.0","https://app.prolific.com/","pl-PL,pl;q=0.9,en-US;q=0.8,en;q=0.7","5f06eefaf3fc742667b4e79d","683db6dfa200031b80f2a654","686507551bfcba0f981358d1","5f06eefaf3fc742667b4e79d","2025-07-02T10:31:21.420Z","","","","","","","","","","","","","","","","win-only","1","g1:NE,g2:SW","0.8","3","0","707914","1368.6","6371.7","29441.5","1","4","8","6","2","8","8","18","10","0.13636363636363635","1500.1","3000","615","[""down"",""left""]","{""num_key_presses"":8,""num_perfect"":7,""num_errors"":0,""num_randdir"":1,""num_randdir_good_moves"":0,""num_whilered"":0,""num_whileblue"":0,""num_blue"":1,""num_good_moves"":7}","[418.07142857142856,411.6808016640799,0.8,418.07142857142856,411.6808016640799,100.5,418.07142857142856,411.6808016640799,202.8,418.07142857142856,411.6808016640799,307.4,418.07142857142856,411.6808016640799,411.9,418.07142857142856,411.6808016640799,515.3,418.07142857142856,411.6808016640799,620.7,254.57142857142856,542.1808016640799,722.1,106.07142857142857,650.1808016640799,828.6,26.57142857142857,699.6808016640799,929.7,-13.92857142857143,743.1808016640799,1030.3,31.07142857142857,756.6808016640799,1137.6,95.57142857142857,716.1808016640799,1239,97.07142857142857,713.1808016640799,1344.2,97.07142857142857,713.1808016640799,1444.5,97.07142857142857,713.1808016640799,1551.1,97.07142857142857,713.1808016640799,1651.7,97.07142857142857,713.1808016640799,1752.1,97.07142857142857,713.1808016640799,1861.6,97.07142857142857,713.1808016640799,1965.7,97.07142857142857,713.1808016640799,2067.3,-85.92857142857143,713.1808016640799,2174.3,-297.42857142857144,695.1808016640799,2276.1,-297.42857142857144,695.1808016640799,2383,-297.42857142857144,695.1808016640799,2484.9,-297.42857142857144,695.1808016640799,2587.4,-297.42857142857144,695.1808016640799,2691.8,-297.42857142857144,695.1808016640799,2799.3,-297.42857142857144,695.1808016640799,2903.8,-297.42857142857144,695.1808016640799,3013.2,-297.42857142857144,695.1808016640799,3118.5,-297.42857142857144,695.1808016640799,3228.4,-297.42857142857144,695.1808016640799,3332.6,-297.42857142857144,695.1808016640799,3443.6,-297.42857142857144,695.1808016640799,3544.9,-297.42857142857144,695.1808016640799,3650,-297.42857142857144,695.1808016640799,3750.9,-297.42857142857144,695.1808016640799,3855.8,-297.42857142857144,695.1808016640799,3963.2,-297.42857142857144,695.1808016640799,4068,-297.42857142857144,695.1808016640799,4172,-297.42857142857144,695.1808016640799,4278.4,-297.42857142857144,695.1808016640799,4379.4,-297.42857142857144,695.1808016640799,4481.9,-297.42857142857144,695.1808016640799,4582.9,-297.42857142857144,695.1808016640799,4687,-297.42857142857144,695.1808016640799,4794.6,-297.42857142857144,695.1808016640799,4898,-297.42857142857144,695.1808016640799,4999.6]","[1383.3,1383.3,1000,0,383.3,""smooth"",""down"",""down"",""good_move"",2995.8,1610.8,1166.8,1385,444,""smooth"",""down"",""down"",""good_move"",6497,3499.9,3097.1,2997.1,402.8,""smooth"",""down"",""down"",""good_move"",8780.4,2282.8,1857.3,6497.6,425.5,""smooth"",""left"",""left"",""good_move"",10906.1,2124.3,1759.2,8781.9,365,""oops"",""left"",""right"",""bad_move"",13499.4,2591.2,2175.7,10908.2,415.5,""smooth"",""left"",""left"",""good_move"",19762.3,6262.2,2720.2,16669.7,372.4,""smooth"",""left"",""left"",""good_move"",22929.8,3167.1,2700.5,19762.7,466.6,""smooth"",""left"",""left"",""good_move""]","",""
"4813","","<div style=""width:500px;"">
  <p>What determined the result of this run?</p>
  </div>","76","html-slider-response","49","742819","0.0-10.0-1.2","70","1","2025-07-02 10:19:01","80fe4187154257d5fb01684ea91b68b9","37.47.222.205","Mozilla/5.0 (Windows NT 10.0; Win64; x64) AppleWebKit/537.36 (KHTML, like Gecko) Chrome/138.0.0.0 Safari/537.36","WebKit","Chrome","138.0.0.0","Windows","10.0","https://app.prolific.com/","pl-PL,pl;q=0.9,en-US;q=0.8,en;q=0.7","5f06eefaf3fc742667b4e79d","683db6dfa200031b80f2a654","686507551bfcba0f981358d1","5f06eefaf3fc742667b4e79d","2025-07-02T10:31:26.236Z","","","","","","AttribQ","","","","","","","","","","","","","","","","","","","","","","","","","","","","","","","","","","","","","","50"
"3003","","<div style=""width:500px;"">
  <p>How much control did you have over the ball?</p>
  </div>","62","html-slider-response","50","745829","0.0-10.0-2.2","70","1","2025-07-02 10:19:01","80fe4187154257d5fb01684ea91b68b9","37.47.222.205","Mozilla/5.0 (Windows NT 10.0; Win64; x64) AppleWebKit/537.36 (KHTML, like Gecko) Chrome/138.0.0.0 Safari/537.36","WebKit","Chrome","138.0.0.0","Windows","10.0","https://app.prolific.com/","pl-PL,pl;q=0.9,en-US;q=0.8,en;q=0.7","5f06eefaf3fc742667b4e79d","683db6dfa200031b80f2a654","686507551bfcba0f981358d1","5f06eefaf3fc742667b4e79d","2025-07-02T10:31:29.246Z","","","","","","ControlQ","","","","","","","","","","","","","","","","","","","","","","","","","","","","","","","","","","","","","","50"
"3019","","<div style=""width:500px;"">
  <p>How would you describe your current emotional state?</p>
  </div>","33","html-slider-response","51","748852","0.0-10.0-3.2","70","1","2025-07-02 10:19:01","80fe4187154257d5fb01684ea91b68b9","37.47.222.205","Mozilla/5.0 (Windows NT 10.0; Win64; x64) AppleWebKit/537.36 (KHTML, like Gecko) Chrome/138.0.0.0 Safari/537.36","WebKit","Chrome","138.0.0.0","Windows","10.0","https://app.prolific.com/","pl-PL,pl;q=0.9,en-US;q=0.8,en;q=0.7","5f06eefaf3fc742667b4e79d","683db6dfa200031b80f2a654","686507551bfcba0f981358d1","5f06eefaf3fc742667b4e79d","2025-07-02T10:31:32.268Z","","","","","","StressQ","","","","","","","","","","","","","","","","","","","","","","","","","","","","","","","","","","","","","","50"
"2532","","<div style=""width:500px;"">
  <p>What best describes how you currently feel?</p>
  </div>","76","html-slider-response","52","751386","0.0-10.0-4.2","70","1","2025-07-02 10:19:01","80fe4187154257d5fb01684ea91b68b9","37.47.222.205","Mozilla/5.0 (Windows NT 10.0; Win64; x64) AppleWebKit/537.36 (KHTML, like Gecko) Chrome/138.0.0.0 Safari/537.36","WebKit","Chrome","138.0.0.0","Windows","10.0","https://app.prolific.com/","pl-PL,pl;q=0.9,en-US;q=0.8,en;q=0.7","5f06eefaf3fc742667b4e79d","683db6dfa200031b80f2a654","686507551bfcba0f981358d1","5f06eefaf3fc742667b4e79d","2025-07-02T10:31:34.802Z","","","","","","MotivationQ","","","","","","","","","","","","","","","","","","","","","","","","","","","","","","","","","","","","","","50"
"","","","","ctl-task-cpt","53","795196","0.0-10.0-0.3","70","1","2025-07-02 10:19:01","80fe4187154257d5fb01684ea91b68b9","37.47.222.205","Mozilla/5.0 (Windows NT 10.0; Win64; x64) AppleWebKit/537.36 (KHTML, like Gecko) Chrome/138.0.0.0 Safari/537.36","WebKit","Chrome","138.0.0.0","Windows","10.0","https://app.prolific.com/","pl-PL,pl;q=0.9,en-US;q=0.8,en;q=0.7","5f06eefaf3fc742667b4e79d","683db6dfa200031b80f2a654","686507551bfcba0f981358d1","5f06eefaf3fc742667b4e79d","2025-07-02T10:32:18.612Z","","","","","","","","","","","","","","","","win-only","2","g1:SE,g2:NW","0.7","4","0","753758.9","1575.4","6578.9","40794.9","1","4","4","6","2","4","4","22","18","0.16666666666666666","1402.1","3000","860","[""left"",""up""]","{""num_key_presses"":8,""num_perfect"":5,""num_errors"":0,""num_randdir"":3,""num_randdir_good_moves"":2,""num_whilered"":0,""num_whileblue"":0,""num_blue"":4,""num_good_moves"":7}","[427.07142857142856,413.1808016640799,2,427.07142857142856,413.1808016640799,103.7,427.07142857142856,413.1808016640799,212.9,427.07142857142856,413.1808016640799,316.5,427.07142857142856,413.1808016640799,419,427.07142857142856,413.1808016640799,522.4,427.07142857142856,413.1808016640799,627.5,371.57142857142856,368.1808016640799,729.8,263.57142857142856,245.18080166407992,837.4,227.57142857142856,206.18080166407992,941,164.57142857142856,143.18080166407992,1044.6,86.57142857142857,71.18080166407994,1150.3,79.07142857142857,62.18080166407994,1252.3,79.07142857142857,62.18080166407994,1354.8,79.07142857142857,62.18080166407994,1456.5,79.07142857142857,62.18080166407994,1564.4,79.07142857142857,62.18080166407994,1672.3,79.07142857142857,62.18080166407994,1775.9,79.07142857142857,62.18080166407994,1878.4,79.07142857142857,62.18080166407994,1984,79.07142857142857,62.18080166407994,2084.5,79.07142857142857,62.18080166407994,2187.6,79.07142857142857,62.18080166407994,2292.5,79.07142857142857,62.18080166407994,2395.3,79.07142857142857,62.18080166407994,2498,79.07142857142857,62.18080166407994,2600.5,79.07142857142857,62.18080166407994,2711.7,79.07142857142857,62.18080166407994,2815.6,79.07142857142857,62.18080166407994,2919.8,79.07142857142857,62.18080166407994,3022.5,79.07142857142857,62.18080166407994,3125.9,79.07142857142857,62.18080166407994,3227.5,79.07142857142857,62.18080166407994,3335.6,79.07142857142857,62.18080166407994,3438.6,79.07142857142857,62.18080166407994,3548.6,79.07142857142857,62.18080166407994,3648.6,79.07142857142857,62.18080166407994,3755.9,79.07142857142857,62.18080166407994,3859.8,79.07142857142857,62.18080166407994,3962.3,79.07142857142857,62.18080166407994,4065.4,79.07142857142857,62.18080166407994,4165.9,79.07142857142857,62.18080166407994,4265.9,79.07142857142857,62.18080166407994,4367.5,79.07142857142857,62.18080166407994,4470.8,79.07142857142857,62.18080166407994,4585.5,79.07142857142857,62.18080166407994,4687.2,79.07142857142857,62.18080166407994,4793.9,79.07142857142857,62.18080166407994,4895.3,79.07142857142857,62.18080166407994,4997.2]","[10577.2,10577.2,2457.4,7587.9,531.9,""smooth"",""up"",""up"",""good_move"",13534.2,2956.4,2541.3,10577.9,415.1,""smooth"",""left"",""left"",""good_move"",16746.3,3209.9,2755.6,13536.4,454.3,""oops"",""left"",""left"",""good_move"",19382.3,2634.1,2127.9,16748.2,506.2,""oops"",""up"",""left"",""good_move"",25600.5,6217.3,2496.5,22709.7,394.3,""oops"",""up"",""right"",""bad_move"",28913.2,3311.8,2872.4,25601.5,439.4,""smooth"",""up"",""up"",""good_move"",31228.5,2314.4,1868.8,28914.2,445.5,""smooth"",""up"",""up"",""good_move"",34068.5,2838.5,2435.7,31230,402.8,""smooth"",""left"",""left"",""good_move""]","",""
"4633","","<div style=""width:500px;"">
  <p>What determined the result of this run?</p>
  </div>","56","html-slider-response","54","799831","0.0-10.0-1.3","70","1","2025-07-02 10:19:01","80fe4187154257d5fb01684ea91b68b9","37.47.222.205","Mozilla/5.0 (Windows NT 10.0; Win64; x64) AppleWebKit/537.36 (KHTML, like Gecko) Chrome/138.0.0.0 Safari/537.36","WebKit","Chrome","138.0.0.0","Windows","10.0","https://app.prolific.com/","pl-PL,pl;q=0.9,en-US;q=0.8,en;q=0.7","5f06eefaf3fc742667b4e79d","683db6dfa200031b80f2a654","686507551bfcba0f981358d1","5f06eefaf3fc742667b4e79d","2025-07-02T10:32:23.247Z","","","","","","AttribQ","","","","","","","","","","","","","","","","","","","","","","","","","","","","","","","","","","","","","","50"
"2938","","<div style=""width:500px;"">
  <p>How much control did you have over the ball?</p>
  </div>","55","html-slider-response","55","802771","0.0-10.0-2.3","70","1","2025-07-02 10:19:01","80fe4187154257d5fb01684ea91b68b9","37.47.222.205","Mozilla/5.0 (Windows NT 10.0; Win64; x64) AppleWebKit/537.36 (KHTML, like Gecko) Chrome/138.0.0.0 Safari/537.36","WebKit","Chrome","138.0.0.0","Windows","10.0","https://app.prolific.com/","pl-PL,pl;q=0.9,en-US;q=0.8,en;q=0.7","5f06eefaf3fc742667b4e79d","683db6dfa200031b80f2a654","686507551bfcba0f981358d1","5f06eefaf3fc742667b4e79d","2025-07-02T10:32:26.187Z","","","","","","ControlQ","","","","","","","","","","","","","","","","","","","","","","","","","","","","","","","","","","","","","","50"
"2932","","<div style=""width:500px;"">
  <p>How would you describe your current emotional state?</p>
  </div>","33","html-slider-response","56","805707","0.0-10.0-3.3","70","1","2025-07-02 10:19:01","80fe4187154257d5fb01684ea91b68b9","37.47.222.205","Mozilla/5.0 (Windows NT 10.0; Win64; x64) AppleWebKit/537.36 (KHTML, like Gecko) Chrome/138.0.0.0 Safari/537.36","WebKit","Chrome","138.0.0.0","Windows","10.0","https://app.prolific.com/","pl-PL,pl;q=0.9,en-US;q=0.8,en;q=0.7","5f06eefaf3fc742667b4e79d","683db6dfa200031b80f2a654","686507551bfcba0f981358d1","5f06eefaf3fc742667b4e79d","2025-07-02T10:32:29.123Z","","","","","","StressQ","","","","","","","","","","","","","","","","","","","","","","","","","","","","","","","","","","","","","","50"
"2782","","<div style=""width:500px;"">
  <p>What best describes how you currently feel?</p>
  </div>","76","html-slider-response","57","808491","0.0-10.0-4.3","70","1","2025-07-02 10:19:01","80fe4187154257d5fb01684ea91b68b9","37.47.222.205","Mozilla/5.0 (Windows NT 10.0; Win64; x64) AppleWebKit/537.36 (KHTML, like Gecko) Chrome/138.0.0.0 Safari/537.36","WebKit","Chrome","138.0.0.0","Windows","10.0","https://app.prolific.com/","pl-PL,pl;q=0.9,en-US;q=0.8,en;q=0.7","5f06eefaf3fc742667b4e79d","683db6dfa200031b80f2a654","686507551bfcba0f981358d1","5f06eefaf3fc742667b4e79d","2025-07-02T10:32:31.907Z","","","","","","MotivationQ","","","","","","","","","","","","","","","","","","","","","","","","","","","","","","","","","","","","","","50"
"","","","","ctl-task-cpt","58","851604","0.0-10.0-0.4","70","1","2025-07-02 10:19:01","80fe4187154257d5fb01684ea91b68b9","37.47.222.205","Mozilla/5.0 (Windows NT 10.0; Win64; x64) AppleWebKit/537.36 (KHTML, like Gecko) Chrome/138.0.0.0 Safari/537.36","WebKit","Chrome","138.0.0.0","Windows","10.0","https://app.prolific.com/","pl-PL,pl;q=0.9,en-US;q=0.8,en;q=0.7","5f06eefaf3fc742667b4e79d","683db6dfa200031b80f2a654","686507551bfcba0f981358d1","5f06eefaf3fc742667b4e79d","2025-07-02T10:33:15.020Z","","","","","","","","","","","","","","","","win-only","3","g1:SW,g2:NE","0.6","5","0","810864.6","1300.6","6302.8","40091.6","1","4","4","6","2","4","4","26","22","0.19696969696969696","1291.4","3000","1010","[""up"",""right""]","{""num_key_presses"":8,""num_perfect"":5,""num_errors"":0,""num_randdir"":3,""num_randdir_good_moves"":2,""num_whilered"":0,""num_whileblue"":0,""num_blue"":3,""num_good_moves"":7}","[413.57142857142856,414.6808016640799,0.4,413.57142857142856,414.6808016640799,105.7,413.57142857142856,414.6808016640799,216,413.57142857142856,414.6808016640799,320.2,413.57142857142856,414.6808016640799,438.3,413.57142857142856,414.6808016640799,542.1,413.57142857142856,414.6808016640799,647.3,524.5714285714286,278.1808016640799,755.1,668.5714285714286,137.18080166407992,863.1,716.5714285714286,90.68080166407994,969.2,749.5714285714286,75.68080166407994,1073.9,773.5714285714286,71.18080166407994,1178,773.5714285714286,71.18080166407994,1284.3,773.5714285714286,71.18080166407994,1390.4,773.5714285714286,71.18080166407994,1492.4,773.5714285714286,71.18080166407994,1593.6,773.5714285714286,71.18080166407994,1701.2,773.5714285714286,71.18080166407994,1802.1,773.5714285714286,71.18080166407994,1917.6,773.5714285714286,71.18080166407994,2021.8,773.5714285714286,71.18080166407994,2126.4,773.5714285714286,71.18080166407994,2230.7,773.5714285714286,71.18080166407994,2334.7,773.5714285714286,71.18080166407994,2439.5,773.5714285714286,71.18080166407994,2541.6,773.5714285714286,71.18080166407994,2647.3,773.5714285714286,71.18080166407994,2754.4,773.5714285714286,71.18080166407994,2854.7,773.5714285714286,71.18080166407994,2959.4,773.5714285714286,71.18080166407994,3061.7,773.5714285714286,71.18080166407994,3166.8,773.5714285714286,71.18080166407994,3269.5,773.5714285714286,71.18080166407994,3373.9,773.5714285714286,71.18080166407994,3476.9,773.5714285714286,71.18080166407994,3583.6,773.5714285714286,71.18080166407994,3687.5,773.5714285714286,71.18080166407994,3788.5,773.5714285714286,71.18080166407994,3894.6,773.5714285714286,71.18080166407994,3995.3,773.5714285714286,71.18080166407994,4105.6,773.5714285714286,71.18080166407994,4205.6,773.5714285714286,71.18080166407994,4313.1,773.5714285714286,71.18080166407994,4416.2,773.5714285714286,71.18080166407994,4521.3,773.5714285714286,71.18080166407994,4625.5,773.5714285714286,71.18080166407994,4729.4,773.5714285714286,71.18080166407994,4834.6,773.5714285714286,71.18080166407994,4935.2]","[4453.2,4453.2,2041.5,2018.2,393.5,""smooth"",""right"",""right"",""good_move"",7765,3310.5,2923.9,4454.5,386.6,""oops"",""right"",""right"",""good_move"",11628.9,3863.3,3411.1,7765.6,452.2,""oops"",""up"",""down"",""bad_move"",14829.5,3198.5,2808.3,11631.1,390.1,""oops"",""up"",""right"",""good_move"",21304.8,6473.9,1999.4,18860.1,445.3,""smooth"",""up"",""up"",""good_move"",23809.5,2504.1,1933.8,21305.4,570.3,""smooth"",""up"",""up"",""good_move"",30805.4,6994.7,2634.1,27816.8,354.5,""smooth"",""up"",""up"",""good_move"",33647.3,2841.6,2397.1,30805.7,444.5,""smooth"",""up"",""up"",""good_move""]","",""
"3657","","<div style=""width:500px;"">
  <p>What determined the result of this run?</p>
  </div>","77","html-slider-response","59","855264","0.0-10.0-1.4","70","1","2025-07-02 10:19:01","80fe4187154257d5fb01684ea91b68b9","37.47.222.205","Mozilla/5.0 (Windows NT 10.0; Win64; x64) AppleWebKit/537.36 (KHTML, like Gecko) Chrome/138.0.0.0 Safari/537.36","WebKit","Chrome","138.0.0.0","Windows","10.0","https://app.prolific.com/","pl-PL,pl;q=0.9,en-US;q=0.8,en;q=0.7","5f06eefaf3fc742667b4e79d","683db6dfa200031b80f2a654","686507551bfcba0f981358d1","5f06eefaf3fc742667b4e79d","2025-07-02T10:33:18.680Z","","","","","","AttribQ","","","","","","","","","","","","","","","","","","","","","","","","","","","","","","","","","","","","","","50"
"3921","","<div style=""width:500px;"">
  <p>How much control did you have over the ball?</p>
  </div>","62","html-slider-response","60","859190","0.0-10.0-2.4","70","1","2025-07-02 10:19:01","80fe4187154257d5fb01684ea91b68b9","37.47.222.205","Mozilla/5.0 (Windows NT 10.0; Win64; x64) AppleWebKit/537.36 (KHTML, like Gecko) Chrome/138.0.0.0 Safari/537.36","WebKit","Chrome","138.0.0.0","Windows","10.0","https://app.prolific.com/","pl-PL,pl;q=0.9,en-US;q=0.8,en;q=0.7","5f06eefaf3fc742667b4e79d","683db6dfa200031b80f2a654","686507551bfcba0f981358d1","5f06eefaf3fc742667b4e79d","2025-07-02T10:33:22.607Z","","","","","","ControlQ","","","","","","","","","","","","","","","","","","","","","","","","","","","","","","","","","","","","","","50"
"3441","","<div style=""width:500px;"">
  <p>How would you describe your current emotional state?</p>
  </div>","55","html-slider-response","61","862634","0.0-10.0-3.4","70","1","2025-07-02 10:19:01","80fe4187154257d5fb01684ea91b68b9","37.47.222.205","Mozilla/5.0 (Windows NT 10.0; Win64; x64) AppleWebKit/537.36 (KHTML, like Gecko) Chrome/138.0.0.0 Safari/537.36","WebKit","Chrome","138.0.0.0","Windows","10.0","https://app.prolific.com/","pl-PL,pl;q=0.9,en-US;q=0.8,en;q=0.7","5f06eefaf3fc742667b4e79d","683db6dfa200031b80f2a654","686507551bfcba0f981358d1","5f06eefaf3fc742667b4e79d","2025-07-02T10:33:26.051Z","","","","","","StressQ","","","","","","","","","","","","","","","","","","","","","","","","","","","","","","","","","","","","","","50"
"4589","","<div style=""width:500px;"">
  <p>What best describes how you currently feel?</p>
  </div>","84","html-slider-response","62","867226","0.0-10.0-4.4","70","1","2025-07-02 10:19:01","80fe4187154257d5fb01684ea91b68b9","37.47.222.205","Mozilla/5.0 (Windows NT 10.0; Win64; x64) AppleWebKit/537.36 (KHTML, like Gecko) Chrome/138.0.0.0 Safari/537.36","WebKit","Chrome","138.0.0.0","Windows","10.0","https://app.prolific.com/","pl-PL,pl;q=0.9,en-US;q=0.8,en;q=0.7","5f06eefaf3fc742667b4e79d","683db6dfa200031b80f2a654","686507551bfcba0f981358d1","5f06eefaf3fc742667b4e79d","2025-07-02T10:33:30.642Z","","","","","","MotivationQ","","","","","","","","","","","","","","","","","","","","","","","","","","","","","","","","","","","","","","50"
"","","","","ctl-task-cpt","63","908201","0.0-10.0-0.5","70","1","2025-07-02 10:19:01","80fe4187154257d5fb01684ea91b68b9","37.47.222.205","Mozilla/5.0 (Windows NT 10.0; Win64; x64) AppleWebKit/537.36 (KHTML, like Gecko) Chrome/138.0.0.0 Safari/537.36","WebKit","Chrome","138.0.0.0","Windows","10.0","https://app.prolific.com/","pl-PL,pl;q=0.9,en-US;q=0.8,en;q=0.7","5f06eefaf3fc742667b4e79d","683db6dfa200031b80f2a654","686507551bfcba0f981358d1","5f06eefaf3fc742667b4e79d","2025-07-02T10:34:11.617Z","","","","","","","","","","","","","","","","win-only","1","g1:NE,g2:SW","0.5","6","0","869596.7","1825.2","6833.5","37956.4","1","4","8","6","2","8","8","34","26","0.25757575757575757","1356.9","3000","830","[""down"",""left""]","{""num_key_presses"":8,""num_perfect"":5,""num_errors"":0,""num_randdir"":3,""num_randdir_good_moves"":2,""num_whilered"":0,""num_whileblue"":0,""num_blue"":3,""num_good_moves"":7}","[410.57142857142856,413.1808016640799,0.4,410.57142857142856,413.1808016640799,114.6,410.57142857142856,413.1808016640799,225.6,410.57142857142856,413.1808016640799,325.6,410.57142857142856,413.1808016640799,425.8,410.57142857142856,413.1808016640799,527.1,410.57142857142856,413.1808016640799,637.3,398.57142857142856,422.1808016640799,740.3,202.07142857142856,612.6808016640799,842.9,107.57142857142857,732.6808016640799,951.3,77.57142857142857,767.1808016640799,1052.1,62.57142857142857,791.1808016640799,1153.7,62.57142857142857,791.1808016640799,1261.1,62.57142857142857,791.1808016640799,1377.9,62.57142857142857,791.1808016640799,1481.7,62.57142857142857,791.1808016640799,1585.8,62.57142857142857,791.1808016640799,1693.7,62.57142857142857,791.1808016640799,1798.3,62.57142857142857,791.1808016640799,1903.1,-127.92857142857143,755.1808016640799,2007.9,-219.42857142857144,743.1808016640799,2111.8,-219.42857142857144,743.1808016640799,2216.1,-219.42857142857144,743.1808016640799,2320.7,-219.42857142857144,743.1808016640799,2425.3,-219.42857142857144,743.1808016640799,2527.7,-219.42857142857144,743.1808016640799,2630.9,-219.42857142857144,743.1808016640799,2741.9,-219.42857142857144,743.1808016640799,2842.9,-219.42857142857144,743.1808016640799,2948.4,-219.42857142857144,743.1808016640799,3051.5,-219.42857142857144,743.1808016640799,3152.6,-219.42857142857144,743.1808016640799,3258.1,-219.42857142857144,743.1808016640799,3366,-219.42857142857144,743.1808016640799,3474.4,-219.42857142857144,743.1808016640799,3590.6,-219.42857142857144,743.1808016640799,3691.1,-219.42857142857144,743.1808016640799,3800.1,-219.42857142857144,743.1808016640799,3901,-219.42857142857144,743.1808016640799,4002,-219.42857142857144,743.1808016640799,4102.8,-219.42857142857144,743.1808016640799,4208.2,-219.42857142857144,743.1808016640799,4313.2,-219.42857142857144,743.1808016640799,4417.5,-219.42857142857144,743.1808016640799,4528.8,-219.42857142857144,743.1808016640799,4638.2,-219.42857142857144,743.1808016640799,4758.7,-219.42857142857144,743.1808016640799,4863.8,-219.42857142857144,743.1808016640799,4969.2]","[1515.4,1515.4,1000,0,515.4,""smooth"",""down"",""down"",""good_move"",4142.2,2626.1,2181.6,1516.1,444.5,""smooth"",""down"",""down"",""good_move"",10430.5,6287.5,2730.7,7269.9,429.9,""oops"",""left"",""left"",""good_move"",12619.5,2188.5,1648.7,10431.1,539.8,""smooth"",""left"",""left"",""good_move"",15873.5,3253.5,2776.1,12620,477.4,""smooth"",""left"",""left"",""good_move"",19474,3599.2,3066.2,15874.8,533,""oops"",""down"",""right"",""bad_move"",28764,9288,2143.9,26146.8,473.4,""smooth"",""left"",""left"",""good_move"",30953.6,2189,1748.6,28764.6,440.4,""oops"",""down"",""down"",""good_move""]","",""
"3571","","<div style=""width:500px;"">
  <p>What determined the result of this run?</p>
  </div>","77","html-slider-response","64","911774","0.0-10.0-1.5","70","1","2025-07-02 10:19:01","80fe4187154257d5fb01684ea91b68b9","37.47.222.205","Mozilla/5.0 (Windows NT 10.0; Win64; x64) AppleWebKit/537.36 (KHTML, like Gecko) Chrome/138.0.0.0 Safari/537.36","WebKit","Chrome","138.0.0.0","Windows","10.0","https://app.prolific.com/","pl-PL,pl;q=0.9,en-US;q=0.8,en;q=0.7","5f06eefaf3fc742667b4e79d","683db6dfa200031b80f2a654","686507551bfcba0f981358d1","5f06eefaf3fc742667b4e79d","2025-07-02T10:34:15.194Z","","","","","","AttribQ","","","","","","","","","","","","","","","","","","","","","","","","","","","","","","","","","","","","","","50"
"2843","","<div style=""width:500px;"">
  <p>How much control did you have over the ball?</p>
  </div>","69","html-slider-response","65","914623","0.0-10.0-2.5","70","1","2025-07-02 10:19:01","80fe4187154257d5fb01684ea91b68b9","37.47.222.205","Mozilla/5.0 (Windows NT 10.0; Win64; x64) AppleWebKit/537.36 (KHTML, like Gecko) Chrome/138.0.0.0 Safari/537.36","WebKit","Chrome","138.0.0.0","Windows","10.0","https://app.prolific.com/","pl-PL,pl;q=0.9,en-US;q=0.8,en;q=0.7","5f06eefaf3fc742667b4e79d","683db6dfa200031b80f2a654","686507551bfcba0f981358d1","5f06eefaf3fc742667b4e79d","2025-07-02T10:34:18.040Z","","","","","","ControlQ","","","","","","","","","","","","","","","","","","","","","","","","","","","","","","","","","","","","","","50"
"3270","","<div style=""width:500px;"">
  <p>How would you describe your current emotional state?</p>
  </div>","58","html-slider-response","66","917901","0.0-10.0-3.5","70","1","2025-07-02 10:19:01","80fe4187154257d5fb01684ea91b68b9","37.47.222.205","Mozilla/5.0 (Windows NT 10.0; Win64; x64) AppleWebKit/537.36 (KHTML, like Gecko) Chrome/138.0.0.0 Safari/537.36","WebKit","Chrome","138.0.0.0","Windows","10.0","https://app.prolific.com/","pl-PL,pl;q=0.9,en-US;q=0.8,en;q=0.7","5f06eefaf3fc742667b4e79d","683db6dfa200031b80f2a654","686507551bfcba0f981358d1","5f06eefaf3fc742667b4e79d","2025-07-02T10:34:21.317Z","","","","","","StressQ","","","","","","","","","","","","","","","","","","","","","","","","","","","","","","","","","","","","","","50"
"2954","","<div style=""width:500px;"">
  <p>What best describes how you currently feel?</p>
  </div>","89","html-slider-response","67","920861","0.0-10.0-4.5","70","1","2025-07-02 10:19:01","80fe4187154257d5fb01684ea91b68b9","37.47.222.205","Mozilla/5.0 (Windows NT 10.0; Win64; x64) AppleWebKit/537.36 (KHTML, like Gecko) Chrome/138.0.0.0 Safari/537.36","WebKit","Chrome","138.0.0.0","Windows","10.0","https://app.prolific.com/","pl-PL,pl;q=0.9,en-US;q=0.8,en;q=0.7","5f06eefaf3fc742667b4e79d","683db6dfa200031b80f2a654","686507551bfcba0f981358d1","5f06eefaf3fc742667b4e79d","2025-07-02T10:34:24.277Z","","","","","","MotivationQ","","","","","","","","","","","","","","","","","","","","","","","","","","","","","","","","","","","","","","50"
"","","","","ctl-task-cpt","68","979593","0.0-10.0-0.6","70","1","2025-07-02 10:19:01","80fe4187154257d5fb01684ea91b68b9","37.47.222.205","Mozilla/5.0 (Windows NT 10.0; Win64; x64) AppleWebKit/537.36 (KHTML, like Gecko) Chrome/138.0.0.0 Safari/537.36","WebKit","Chrome","138.0.0.0","Windows","10.0","https://app.prolific.com/","pl-PL,pl;q=0.9,en-US;q=0.8,en;q=0.7","5f06eefaf3fc742667b4e79d","683db6dfa200031b80f2a654","686507551bfcba0f981358d1","5f06eefaf3fc742667b4e79d","2025-07-02T10:35:23.009Z","","","","","","","","","","","","","","","","win-only","3","g1:SW,g2:NE","0.4","7","0","923235.3","3708.2","8711.6","55696.1","1","4","4","6","2","-4","-5","29","34","0.2196969696969697","1480","3000","-1755","[""up"",""right""]","{""num_key_presses"":13,""num_perfect"":6,""num_errors"":1,""num_randdir"":6,""num_randdir_good_moves"":3,""num_whilered"":0,""num_whileblue"":1,""num_blue"":3,""num_good_moves"":9}","[407.57142857142856,422.1808016640799,0.4,407.57142857142856,422.1808016640799,106.5,407.57142857142856,422.1808016640799,210.9,407.57142857142856,422.1808016640799,315.4,407.57142857142856,422.1808016640799,422.1,407.57142857142856,422.1808016640799,523.7,407.57142857142856,422.1808016640799,625.2,407.57142857142856,422.1808016640799,728.4,407.57142857142856,422.1808016640799,830.9,569.5714285714286,242.18080166407992,935.2,695.5714285714286,83.18080166407994,1046,722.5714285714286,57.68080166407994,1146.5,731.5714285714286,53.18080166407994,1250.2,731.5714285714286,54.68080166407994,1358.7,731.5714285714286,54.68080166407994,1462.5,731.5714285714286,54.68080166407994,1567.7,731.5714285714286,54.68080166407994,1670.1,731.5714285714286,54.68080166407994,1777.3,731.5714285714286,54.68080166407994,1877.9,829.0714285714286,86.18080166407994,1977.9,1027.0714285714287,141.68080166407992,2082.1,1033.0714285714287,149.18080166407992,2193,1033.0714285714287,149.18080166407992,2314.5,1033.0714285714287,149.18080166407992,2425.5,1033.0714285714287,149.18080166407992,2526.4,1033.0714285714287,149.18080166407992,2628.9,1033.0714285714287,149.18080166407992,2732.7,1033.0714285714287,149.18080166407992,2837.2,1033.0714285714287,149.18080166407992,2941.2,1033.0714285714287,149.18080166407992,3048.5,1033.0714285714287,149.18080166407992,3150.1,1033.0714285714287,149.18080166407992,3252,1033.0714285714287,149.18080166407992,3353.8,1033.0714285714287,149.18080166407992,3463,1033.0714285714287,149.18080166407992,3565,1033.0714285714287,149.18080166407992,3667.1,1033.0714285714287,149.18080166407992,3767.8,1033.0714285714287,149.18080166407992,3867.8,1033.0714285714287,149.18080166407992,3979.3,1033.0714285714287,149.18080166407992,4086.5,1033.0714285714287,149.18080166407992,4193.9,1033.0714285714287,149.18080166407992,4294.8,1033.0714285714287,149.18080166407992,4396.7,1033.0714285714287,149.18080166407992,4502,1033.0714285714287,149.18080166407992,4605,1033.0714285714287,149.18080166407992,4706.5,1033.0714285714287,149.18080166407992,4815.5,1033.0714285714287,149.18080166407992,4917.6]","[5186.6,5186.6,2711.5,2016.6,458.5,""oops"",""right"",""right"",""good_move"",8371.3,3184.1,2639.7,5187.2,544.4,""oops"",""right"",""down"",""bad_move"",10828,2455.2,1972.8,8372.8,482.4,""oops"",""right"",""down"",""bad_move"",13409.7,2581,2183.9,10828.9,396.9,""oops"",""right"",""right"",""good_move"",16845.3,3434.7,3021.9,13410.6,412.8,""smooth"",""up"",""up"",""good_move"",20312,3464.9,3090.1,16847.1,374.8,""smooth"",""up"",""up"",""good_move"",23576.1,3262.8,2809.9,20313.3,452.9,""oops"",""up"",""right"",""good_move"",26352.3,2775.6,2377.8,23576.7,397.8,""smooth"",""up"",""up"",""good_move"",29283.4,2930.6,2547.6,26352.8,383,""smooth"",""up"",""up"",""good_move"",32527.6,3243.7,2792.3,29283.9,451.4,""oops"",""up"",""left"",""bad_move"",35095.1,2566.4,2174.7,32528.7,391.7,""while_blue"",""right"",""left"",""bad_move"",38171.9,3076.3,2588.9,35095.6,487.4,""smooth"",""right"",""right"",""good_move"",45247.2,7074.2,2521.3,42337.6,388.3,""smooth"",""right"",""right"",""good_move""]","",""
"11662","","<div style=""width:500px;"">
  <p>What determined the result of this run?</p>
  </div>","31","html-slider-response","69","991258","0.0-10.0-1.6","70","1","2025-07-02 10:19:01","80fe4187154257d5fb01684ea91b68b9","37.47.222.205","Mozilla/5.0 (Windows NT 10.0; Win64; x64) AppleWebKit/537.36 (KHTML, like Gecko) Chrome/138.0.0.0 Safari/537.36","WebKit","Chrome","138.0.0.0","Windows","10.0","https://app.prolific.com/","pl-PL,pl;q=0.9,en-US;q=0.8,en;q=0.7","5f06eefaf3fc742667b4e79d","683db6dfa200031b80f2a654","686507551bfcba0f981358d1","5f06eefaf3fc742667b4e79d","2025-07-02T10:35:34.675Z","","","","","","AttribQ","","","","","","","","","","","","","","","","","","","","","","","","","","","","","","","","","","","","","","50"
"4986","","<div style=""width:500px;"">
  <p>How much control did you have over the ball?</p>
  </div>","30","html-slider-response","70","996248","0.0-10.0-2.6","70","1","2025-07-02 10:19:01","80fe4187154257d5fb01684ea91b68b9","37.47.222.205","Mozilla/5.0 (Windows NT 10.0; Win64; x64) AppleWebKit/537.36 (KHTML, like Gecko) Chrome/138.0.0.0 Safari/537.36","WebKit","Chrome","138.0.0.0","Windows","10.0","https://app.prolific.com/","pl-PL,pl;q=0.9,en-US;q=0.8,en;q=0.7","5f06eefaf3fc742667b4e79d","683db6dfa200031b80f2a654","686507551bfcba0f981358d1","5f06eefaf3fc742667b4e79d","2025-07-02T10:35:39.664Z","","","","","","ControlQ","","","","","","","","","","","","","","","","","","","","","","","","","","","","","","","","","","","","","","50"
"2948","","<div style=""width:500px;"">
  <p>How would you describe your current emotional state?</p>
  </div>","78","html-slider-response","71","999198","0.0-10.0-3.6","70","1","2025-07-02 10:19:01","80fe4187154257d5fb01684ea91b68b9","37.47.222.205","Mozilla/5.0 (Windows NT 10.0; Win64; x64) AppleWebKit/537.36 (KHTML, like Gecko) Chrome/138.0.0.0 Safari/537.36","WebKit","Chrome","138.0.0.0","Windows","10.0","https://app.prolific.com/","pl-PL,pl;q=0.9,en-US;q=0.8,en;q=0.7","5f06eefaf3fc742667b4e79d","683db6dfa200031b80f2a654","686507551bfcba0f981358d1","5f06eefaf3fc742667b4e79d","2025-07-02T10:35:42.614Z","","","","","","StressQ","","","","","","","","","","","","","","","","","","","","","","","","","","","","","","","","","","","","","","50"
"2317","","<div style=""width:500px;"">
  <p>What best describes how you currently feel?</p>
  </div>","86","html-slider-response","72","1001519","0.0-10.0-4.6","70","1","2025-07-02 10:19:01","80fe4187154257d5fb01684ea91b68b9","37.47.222.205","Mozilla/5.0 (Windows NT 10.0; Win64; x64) AppleWebKit/537.36 (KHTML, like Gecko) Chrome/138.0.0.0 Safari/537.36","WebKit","Chrome","138.0.0.0","Windows","10.0","https://app.prolific.com/","pl-PL,pl;q=0.9,en-US;q=0.8,en;q=0.7","5f06eefaf3fc742667b4e79d","683db6dfa200031b80f2a654","686507551bfcba0f981358d1","5f06eefaf3fc742667b4e79d","2025-07-02T10:35:44.935Z","","","","","","MotivationQ","","","","","","","","","","","","","","","","","","","","","","","","","","","","","","","","","","","","","","50"
"","","","","ctl-task-cpt","73","1060293","0.0-10.0-0.7","70","1","2025-07-02 10:19:01","80fe4187154257d5fb01684ea91b68b9","37.47.222.205","Mozilla/5.0 (Windows NT 10.0; Win64; x64) AppleWebKit/537.36 (KHTML, like Gecko) Chrome/138.0.0.0 Safari/537.36","WebKit","Chrome","138.0.0.0","Windows","10.0","https://app.prolific.com/","pl-PL,pl;q=0.9,en-US;q=0.8,en;q=0.7","5f06eefaf3fc742667b4e79d","683db6dfa200031b80f2a654","686507551bfcba0f981358d1","5f06eefaf3fc742667b4e79d","2025-07-02T10:36:43.709Z","","","","","","","","","","","","","","","","win-only","1","g1:NE,g2:SW","0.3","8","0","1003889.1","2180.3","7194.2","55737.4","1","4","8","6","2","-8","-8","21","29","0.1590909090909091","1371.8","3000","-1700","[""down"",""left""]","{""num_key_presses"":11,""num_perfect"":3,""num_errors"":0,""num_randdir"":8,""num_randdir_good_moves"":2,""num_whilered"":0,""num_whileblue"":0,""num_blue"":4,""num_good_moves"":5}","[416.57142857142856,414.6808016640799,1.8,416.57142857142856,414.6808016640799,117.4,416.57142857142856,414.6808016640799,227.3,416.57142857142856,414.6808016640799,327.4,416.57142857142856,414.6808016640799,430.2,416.57142857142856,414.6808016640799,539.3,416.57142857142856,414.6808016640799,640.9,416.57142857142856,414.6808016640799,742.7,247.07142857142856,617.1808016640799,844.9,134.57142857142856,734.1808016640799,954.6,91.07142857142857,779.1808016640799,1057.1,83.57142857142857,785.1808016640799,1162.5,83.57142857142857,785.1808016640799,1267.9,83.57142857142857,785.1808016640799,1373,83.57142857142857,785.1808016640799,1474.3,83.57142857142857,785.1808016640799,1576.8,83.57142857142857,785.1808016640799,1681.2,83.57142857142857,785.1808016640799,1782.4,83.57142857142857,785.1808016640799,1883,83.57142857142857,785.1808016640799,1983.2,83.57142857142857,785.1808016640799,2090.3,-208.92857142857144,732.6808016640799,2190.8,-258.42857142857144,713.1808016640799,2304.8,-258.42857142857144,713.1808016640799,2415,-258.42857142857144,713.1808016640799,2517.3,-258.42857142857144,713.1808016640799,2619.2,-258.42857142857144,713.1808016640799,2719.9,-258.42857142857144,713.1808016640799,2823.1,-258.42857142857144,713.1808016640799,2931,-258.42857142857144,713.1808016640799,3032.7,-258.42857142857144,713.1808016640799,3136.4,-258.42857142857144,713.1808016640799,3240.2,-258.42857142857144,713.1808016640799,3342.3,-258.42857142857144,713.1808016640799,3449,-258.42857142857144,713.1808016640799,3554.3,-258.42857142857144,713.1808016640799,3659.6,-258.42857142857144,713.1808016640799,3762.3,-258.42857142857144,713.1808016640799,3864.9,-258.42857142857144,713.1808016640799,3967.4,-258.42857142857144,713.1808016640799,4075.4,-258.42857142857144,713.1808016640799,4182.1,-258.42857142857144,713.1808016640799,4304.2,-258.42857142857144,713.1808016640799,4409.3,-258.42857142857144,713.1808016640799,4510.9,-258.42857142857144,713.1808016640799,4618.8,-258.42857142857144,713.1808016640799,4723,-258.42857142857144,713.1808016640799,4827.3,-258.42857142857144,713.1808016640799,4928.1]","[4864,4864,2437.1,2019.1,407.8,""smooth"",""down"",""down"",""good_move"",7989.7,3124.7,2711.5,4865.1,413.2,""smooth"",""left"",""left"",""good_move"",10490,2499.4,2101,7990.6,398.4,""oops"",""down"",""left"",""good_move"",13481,2990.3,2611.3,10490.7,379,""oops"",""left"",""right"",""bad_move"",17522.3,4039.5,3541.1,13482.8,498.4,""oops"",""left"",""up"",""bad_move"",21210.2,3685.4,3298.4,17524.8,387,""smooth"",""down"",""down"",""good_move"",23854.1,2640.6,2204.3,21213.5,436.3,""oops"",""down"",""right"",""bad_move"",26698.9,2844,2432.3,23855,411.7,""oops"",""down"",""right"",""bad_move"",29491,2791.6,2409.8,26699.4,381.8,""oops"",""left"",""left"",""good_move"",32282.2,2790.6,2421.2,29491.6,369.4,""oops"",""left"",""right"",""bad_move"",38917.1,6634.5,3181.6,35239.1,496.5,""oops"",""down"",""right"",""bad_move""]","",""
"4252","","<div style=""width:500px;"">
  <p>What determined the result of this run?</p>
  </div>","5","html-slider-response","74","1064546","0.0-10.0-1.7","70","1","2025-07-02 10:19:01","80fe4187154257d5fb01684ea91b68b9","37.47.222.205","Mozilla/5.0 (Windows NT 10.0; Win64; x64) AppleWebKit/537.36 (KHTML, like Gecko) Chrome/138.0.0.0 Safari/537.36","WebKit","Chrome","138.0.0.0","Windows","10.0","https://app.prolific.com/","pl-PL,pl;q=0.9,en-US;q=0.8,en;q=0.7","5f06eefaf3fc742667b4e79d","683db6dfa200031b80f2a654","686507551bfcba0f981358d1","5f06eefaf3fc742667b4e79d","2025-07-02T10:36:47.962Z","","","","","","AttribQ","","","","","","","","","","","","","","","","","","","","","","","","","","","","","","","","","","","","","","50"
"3577","","<div style=""width:500px;"">
  <p>How much control did you have over the ball?</p>
  </div>","1","html-slider-response","75","1068128","0.0-10.0-2.7","70","1","2025-07-02 10:19:01","80fe4187154257d5fb01684ea91b68b9","37.47.222.205","Mozilla/5.0 (Windows NT 10.0; Win64; x64) AppleWebKit/537.36 (KHTML, like Gecko) Chrome/138.0.0.0 Safari/537.36","WebKit","Chrome","138.0.0.0","Windows","10.0","https://app.prolific.com/","pl-PL,pl;q=0.9,en-US;q=0.8,en;q=0.7","5f06eefaf3fc742667b4e79d","683db6dfa200031b80f2a654","686507551bfcba0f981358d1","5f06eefaf3fc742667b4e79d","2025-07-02T10:36:51.544Z","","","","","","ControlQ","","","","","","","","","","","","","","","","","","","","","","","","","","","","","","","","","","","","","","50"
"2800","","<div style=""width:500px;"">
  <p>How would you describe your current emotional state?</p>
  </div>","77","html-slider-response","76","1070930","0.0-10.0-3.7","70","1","2025-07-02 10:19:01","80fe4187154257d5fb01684ea91b68b9","37.47.222.205","Mozilla/5.0 (Windows NT 10.0; Win64; x64) AppleWebKit/537.36 (KHTML, like Gecko) Chrome/138.0.0.0 Safari/537.36","WebKit","Chrome","138.0.0.0","Windows","10.0","https://app.prolific.com/","pl-PL,pl;q=0.9,en-US;q=0.8,en;q=0.7","5f06eefaf3fc742667b4e79d","683db6dfa200031b80f2a654","686507551bfcba0f981358d1","5f06eefaf3fc742667b4e79d","2025-07-02T10:36:54.347Z","","","","","","StressQ","","","","","","","","","","","","","","","","","","","","","","","","","","","","","","","","","","","","","","50"
"3089","","<div style=""width:500px;"">
  <p>What best describes how you currently feel?</p>
  </div>","75","html-slider-response","77","1074022","0.0-10.0-4.7","70","1","2025-07-02 10:19:01","80fe4187154257d5fb01684ea91b68b9","37.47.222.205","Mozilla/5.0 (Windows NT 10.0; Win64; x64) AppleWebKit/537.36 (KHTML, like Gecko) Chrome/138.0.0.0 Safari/537.36","WebKit","Chrome","138.0.0.0","Windows","10.0","https://app.prolific.com/","pl-PL,pl;q=0.9,en-US;q=0.8,en;q=0.7","5f06eefaf3fc742667b4e79d","683db6dfa200031b80f2a654","686507551bfcba0f981358d1","5f06eefaf3fc742667b4e79d","2025-07-02T10:36:57.438Z","","","","","","MotivationQ","","","","","","","","","","","","","","","","","","","","","","","","","","","","","","","","","","","","","","50"
"","","","","ctl-task-cpt","78","1126566","0.0-10.0-0.8","70","1","2025-07-02 10:19:01","80fe4187154257d5fb01684ea91b68b9","37.47.222.205","Mozilla/5.0 (Windows NT 10.0; Win64; x64) AppleWebKit/537.36 (KHTML, like Gecko) Chrome/138.0.0.0 Safari/537.36","WebKit","Chrome","138.0.0.0","Windows","10.0","https://app.prolific.com/","pl-PL,pl;q=0.9,en-US;q=0.8,en;q=0.7","5f06eefaf3fc742667b4e79d","683db6dfa200031b80f2a654","686507551bfcba0f981358d1","5f06eefaf3fc742667b4e79d","2025-07-02T10:37:49.982Z","","","","","","","","","","","","","","","","win-only","2","g1:SE,g2:NW","0.4","9","0","1076392.3","1263.2","6267.2","49520.7","1","4","8","6","2","8","8","29","21","0.2196969696969697","3018.7","3000","310","[""left"",""up""]","{""num_key_presses"":10,""num_perfect"":4,""num_errors"":0,""num_randdir"":6,""num_randdir_good_moves"":4,""num_whilered"":0,""num_whileblue"":0,""num_blue"":4,""num_good_moves"":8}","[419.57142857142856,413.1808016640799,0.4,419.57142857142856,413.1808016640799,102.3,419.57142857142856,413.1808016640799,206.2,419.57142857142856,413.1808016640799,317.3,419.57142857142856,413.1808016640799,420.4,419.57142857142856,413.1808016640799,524.6,419.57142857142856,413.1808016640799,628.7,419.57142857142856,413.1808016640799,752.3,419.57142857142856,413.1808016640799,853.1,419.57142857142856,413.1808016640799,954.5,419.57142857142856,413.1808016640799,1059.7,419.57142857142856,413.1808016640799,1171.6,419.57142857142856,413.1808016640799,1280,419.57142857142856,413.1808016640799,1389.3,419.57142857142856,413.1808016640799,1501,419.57142857142856,413.1808016640799,1607.4,419.57142857142856,413.1808016640799,1708,419.57142857142856,413.1808016640799,1810.2,419.57142857142856,413.1808016640799,1923,419.57142857142856,413.1808016640799,2023.6,419.57142857142856,413.1808016640799,2130,349.07142857142856,324.6808016640799,2231.9,238.07142857142856,191.18080166407992,2333.4,163.07142857142856,117.68080166407994,2446.6,128.57142857142856,92.18080166407994,2548.7,101.57142857142857,77.18080166407994,2649.6,89.57142857142857,71.18080166407994,2753.1,89.57142857142857,71.18080166407994,2855.4,89.57142857142857,71.18080166407994,2963.2,89.57142857142857,71.18080166407994,3065,89.57142857142857,71.18080166407994,3168.2,89.57142857142857,71.18080166407994,3269.9,89.57142857142857,71.18080166407994,3377.3,89.57142857142857,71.18080166407994,3479.4,89.57142857142857,71.18080166407994,3588.6,-85.92857142857143,62.18080166407994,3692.3,-235.92857142857144,53.18080166407994,3796,-235.92857142857144,53.18080166407994,3901.6,-235.92857142857144,53.18080166407994,4023.5,-235.92857142857144,53.18080166407994,4129.2,-235.92857142857144,53.18080166407994,4231.2,-235.92857142857144,53.18080166407994,4333.3,-235.92857142857144,53.18080166407994,4442.4,-235.92857142857144,53.18080166407994,4545.3,-235.92857142857144,53.18080166407994,4647.1,-235.92857142857144,53.18080166407994,4748.8,-235.92857142857144,53.18080166407994,4858.4,-235.92857142857144,53.18080166407994,4959.1]","[1535.3,1535.3,1000,0,535.3,""smooth"",""up"",""up"",""good_move"",4183.7,2647.9,2139.5,1535.8,508.4,""oops"",""up"",""left"",""good_move"",13513.8,9329.3,1924.2,11058.4,531.2,""smooth"",""up"",""up"",""good_move"",16867.6,3353.1,2647.9,13514.5,705.2,""oops"",""up"",""right"",""bad_move"",23490.4,6620.9,2349.7,20743,397.7,""oops"",""left"",""left"",""good_move"",26493.7,3002.9,2458.2,23490.8,544.7,""smooth"",""left"",""left"",""good_move"",29930.1,3436.1,2954.4,26494,481.7,""oops"",""up"",""left"",""good_move"",33589.1,3658.4,3173.5,29930.7,484.9,""oops"",""up"",""down"",""bad_move"",39678.9,6089,2385.2,36885.1,408.6,""smooth"",""up"",""up"",""good_move"",43067.3,3388,2955.1,39679.3,432.9,""oops"",""up"",""up"",""good_move""]","",""
"3651","","<div style=""width:500px;"">
  <p>What determined the result of this run?</p>
  </div>","69","html-slider-response","79","1130219","0.0-10.0-1.8","70","1","2025-07-02 10:19:01","80fe4187154257d5fb01684ea91b68b9","37.47.222.205","Mozilla/5.0 (Windows NT 10.0; Win64; x64) AppleWebKit/537.36 (KHTML, like Gecko) Chrome/138.0.0.0 Safari/537.36","WebKit","Chrome","138.0.0.0","Windows","10.0","https://app.prolific.com/","pl-PL,pl;q=0.9,en-US;q=0.8,en;q=0.7","5f06eefaf3fc742667b4e79d","683db6dfa200031b80f2a654","686507551bfcba0f981358d1","5f06eefaf3fc742667b4e79d","2025-07-02T10:37:53.635Z","","","","","","AttribQ","","","","","","","","","","","","","","","","","","","","","","","","","","","","","","","","","","","","","","50"
"4300","","<div style=""width:500px;"">
  <p>How much control did you have over the ball?</p>
  </div>","58","html-slider-response","80","1134524","0.0-10.0-2.8","70","1","2025-07-02 10:19:01","80fe4187154257d5fb01684ea91b68b9","37.47.222.205","Mozilla/5.0 (Windows NT 10.0; Win64; x64) AppleWebKit/537.36 (KHTML, like Gecko) Chrome/138.0.0.0 Safari/537.36","WebKit","Chrome","138.0.0.0","Windows","10.0","https://app.prolific.com/","pl-PL,pl;q=0.9,en-US;q=0.8,en;q=0.7","5f06eefaf3fc742667b4e79d","683db6dfa200031b80f2a654","686507551bfcba0f981358d1","5f06eefaf3fc742667b4e79d","2025-07-02T10:37:57.940Z","","","","","","ControlQ","","","","","","","","","","","","","","","","","","","","","","","","","","","","","","","","","","","","","","50"
"3375","","<div style=""width:500px;"">
  <p>How would you describe your current emotional state?</p>
  </div>","45","html-slider-response","81","1137902","0.0-10.0-3.8","70","1","2025-07-02 10:19:01","80fe4187154257d5fb01684ea91b68b9","37.47.222.205","Mozilla/5.0 (Windows NT 10.0; Win64; x64) AppleWebKit/537.36 (KHTML, like Gecko) Chrome/138.0.0.0 Safari/537.36","WebKit","Chrome","138.0.0.0","Windows","10.0","https://app.prolific.com/","pl-PL,pl;q=0.9,en-US;q=0.8,en;q=0.7","5f06eefaf3fc742667b4e79d","683db6dfa200031b80f2a654","686507551bfcba0f981358d1","5f06eefaf3fc742667b4e79d","2025-07-02T10:38:01.318Z","","","","","","StressQ","","","","","","","","","","","","","","","","","","","","","","","","","","","","","","","","","","","","","","50"
"3156","","<div style=""width:500px;"">
  <p>What best describes how you currently feel?</p>
  </div>","81","html-slider-response","82","1141060","0.0-10.0-4.8","70","1","2025-07-02 10:19:01","80fe4187154257d5fb01684ea91b68b9","37.47.222.205","Mozilla/5.0 (Windows NT 10.0; Win64; x64) AppleWebKit/537.36 (KHTML, like Gecko) Chrome/138.0.0.0 Safari/537.36","WebKit","Chrome","138.0.0.0","Windows","10.0","https://app.prolific.com/","pl-PL,pl;q=0.9,en-US;q=0.8,en;q=0.7","5f06eefaf3fc742667b4e79d","683db6dfa200031b80f2a654","686507551bfcba0f981358d1","5f06eefaf3fc742667b4e79d","2025-07-02T10:38:04.476Z","","","","","","MotivationQ","","","","","","","","","","","","","","","","","","","","","","","","","","","","","","","","","","","","","","50"
