"rt","response_timestamp","stimulus","response","trial_type","trial_index","time_elapsed","internal_node_id","run_id","condition","recorded_at","source_code_version","ip","user_agent","device","browser","browser_version","platform","platform_version","referer","accept_language","PROLIFIC_PID","STUDY_ID","SESSION_ID","prolific_id","realtime","view_history","question_order","consent","success","question_id","eventType","responses","item_order","radio_event_ids","radio_event_times","key_event_times","mouse_event_times","straightlining","zigzagging","honeypot","which_type","canvas_config","goals_layout","control_level","trial_number","tutorial_trial_number","trial_start_time","phase1_start_time","phase2_start_time","phase3_start_time","goal_1_value","goal_1_distance","goal_2_value","goal_2_distance","goal_selected","outcome","outcome_total","participant_final_score","participant_initial_score","participant_final_score_prop","goal_choice_rt","allocated_time","allocated_time_remaining","goal_direction","counts","mouse_movements","key_presses","correct","slider_start"
"8400","1751452179474","<p style='font-size:40px;line-height:1.25'><strong>Welcome to the experiment!</strong></p><p style='font-size:1.1em;line-height:1.25'>Thank you for your interest in our experiment! Before you begin, it is important that we obtain your informed consent to participate in the study.</p><p style='font-size:1.1em;line-height:1.25'>On the next screen will be an <strong>information sheet</strong> for you to read. To participate in the study we need you to read this information sheet and the following consent form carefully. If you agree with all the statements, please click the <strong>I agree</strong> button.</p><p style='font-size:1.1em;line-height:1.25'>Press <strong>Next</strong> to read the information sheet.</p>","0","custom-html-button-response","0","8401","0.0-0.0","198","1","2025-07-02 10:29:19","80fe4187154257d5fb01684ea91b68b9","125.203.3.50","Mozilla/5.0 (Windows NT 10.0; Win64; x64) AppleWebKit/537.36 (KHTML, like Gecko) Chrome/137.0.0.0 Safari/537.36","WebKit","Chrome","137.0.0.0","Windows","10.0","https://app.prolific.com/","en-US,en;q=0.9","5f2448855226b0000a8129e1","683db6dfa200031b80f2a654","686509ecd852fdececfdbc73","5f2448855226b0000a8129e1","2025-07-02T10:29:39.474Z","","","","","","","","","","","","","","","","","","","","","","","","","","","","","","","","","","","","","","","","","","","",""
"6141","","","","instructions","1","14543","0.0-1.0","198","1","2025-07-02 10:29:19","80fe4187154257d5fb01684ea91b68b9","125.203.3.50","Mozilla/5.0 (Windows NT 10.0; Win64; x64) AppleWebKit/537.36 (KHTML, like Gecko) Chrome/137.0.0.0 Safari/537.36","WebKit","Chrome","137.0.0.0","Windows","10.0","https://app.prolific.com/","en-US,en;q=0.9","5f2448855226b0000a8129e1","683db6dfa200031b80f2a654","686509ecd852fdececfdbc73","5f2448855226b0000a8129e1","","[{""page_index"":0,""viewing_time"":4771},{""page_index"":1,""viewing_time"":1369}]","","","","","","","","","","","","","","","","","","","","","","","","","","","","","","","","","","","","","","","","","","",""
"4080","","","{""Q0"":"""",""Q1"":"""",""Q2"":"""",""Q3"":"""",""Q4"":"""",""Q5"":"""",""Q6"":""I agree""}","survey-multi-choice","2","18624","0.0-2.0","198","1","2025-07-02 10:29:19","80fe4187154257d5fb01684ea91b68b9","125.203.3.50","Mozilla/5.0 (Windows NT 10.0; Win64; x64) AppleWebKit/537.36 (KHTML, like Gecko) Chrome/137.0.0.0 Safari/537.36","WebKit","Chrome","137.0.0.0","Windows","10.0","https://app.prolific.com/","en-US,en;q=0.9","5f2448855226b0000a8129e1","683db6dfa200031b80f2a654","686509ecd852fdececfdbc73","5f2448855226b0000a8129e1","","","[0,1,2,3,4,5,6]","true","","","","","","","","","","","","","","","","","","","","","","","","","","","","","","","","","","","","","","","","",""
"11052","","","","fullscreen","3","30686","0.0-4.0","198","1","2025-07-02 10:29:19","80fe4187154257d5fb01684ea91b68b9","125.203.3.50","Mozilla/5.0 (Windows NT 10.0; Win64; x64) AppleWebKit/537.36 (KHTML, like Gecko) Chrome/137.0.0.0 Safari/537.36","WebKit","Chrome","137.0.0.0","Windows","10.0","https://app.prolific.com/","en-US,en;q=0.9","5f2448855226b0000a8129e1","683db6dfa200031b80f2a654","686509ecd852fdececfdbc73","5f2448855226b0000a8129e1","","","","","true","","","","","","","","","","","","","","","","","","","","","","","","","","","","","","","","","","","","","","","",""
"3537","1751452205296"," <p style='font-size:1.1em;line-height:1.25'>Thank you for completing the consent form and closing all other tabs.</p><p style='font-size:1.1em;line-height:1.25'>We will now invite you to fill in some demographic information and questionnaires, before starting the game.<br>This will take about 5 minutes.<br></p><p style='font-size:1.1em;line-height:1.25'>Press the <strong>Next</strong> button to continue.</p>","0","custom-html-button-response","4","34224","0.0-5.0","198","1","2025-07-02 10:29:19","80fe4187154257d5fb01684ea91b68b9","125.203.3.50","Mozilla/5.0 (Windows NT 10.0; Win64; x64) AppleWebKit/537.36 (KHTML, like Gecko) Chrome/137.0.0.0 Safari/537.36","WebKit","Chrome","137.0.0.0","Windows","10.0","https://app.prolific.com/","en-US,en;q=0.9","5f2448855226b0000a8129e1","683db6dfa200031b80f2a654","686509ecd852fdececfdbc73","5f2448855226b0000a8129e1","2025-07-02T10:30:05.297Z","","","","","","","","","","","","","","","","","","","","","","","","","","","","","","","","","","","","","","","","","","","",""
"3044","","","{""age"":""22""}","survey-text","5","37269","0.0-6.0-0.0","198","1","2025-07-02 10:29:19","80fe4187154257d5fb01684ea91b68b9","125.203.3.50","Mozilla/5.0 (Windows NT 10.0; Win64; x64) AppleWebKit/537.36 (KHTML, like Gecko) Chrome/137.0.0.0 Safari/537.36","WebKit","Chrome","137.0.0.0","Windows","10.0","https://app.prolific.com/","en-US,en;q=0.9","5f2448855226b0000a8129e1","683db6dfa200031b80f2a654","686509ecd852fdececfdbc73","5f2448855226b0000a8129e1","","","","","","0","demographics","","","","","","","","","","","","","","","","","","","","","","","","","","","","","","","","","","","","","",""
"2230","","","{""gender_identity"":""male/man""}","survey-multi-choice","6","39500","0.0-6.0-1.0","198","1","2025-07-02 10:29:19","80fe4187154257d5fb01684ea91b68b9","125.203.3.50","Mozilla/5.0 (Windows NT 10.0; Win64; x64) AppleWebKit/537.36 (KHTML, like Gecko) Chrome/137.0.0.0 Safari/537.36","WebKit","Chrome","137.0.0.0","Windows","10.0","https://app.prolific.com/","en-US,en;q=0.9","5f2448855226b0000a8129e1","683db6dfa200031b80f2a654","686509ecd852fdececfdbc73","5f2448855226b0000a8129e1","","","[0]","","","1","demographics","","","","","","","","","","","","","","","","","","","","","","","","","","","","","","","","","","","","","",""
"2438","","","{""assigned_sex"":""male""}","survey-multi-choice","7","41939","0.0-6.0-2.0","198","1","2025-07-02 10:29:19","80fe4187154257d5fb01684ea91b68b9","125.203.3.50","Mozilla/5.0 (Windows NT 10.0; Win64; x64) AppleWebKit/537.36 (KHTML, like Gecko) Chrome/137.0.0.0 Safari/537.36","WebKit","Chrome","137.0.0.0","Windows","10.0","https://app.prolific.com/","en-US,en;q=0.9","5f2448855226b0000a8129e1","683db6dfa200031b80f2a654","686509ecd852fdececfdbc73","5f2448855226b0000a8129e1","","","[0]","","","2","demographics","","","","","","","","","","","","","","","","","","","","","","","","","","","","","","","","","","","","","",""
"3014","","","{""menstrual_cycle"":""No""}","survey-multi-choice","8","44953","0.0-6.0-3.0","198","1","2025-07-02 10:29:19","80fe4187154257d5fb01684ea91b68b9","125.203.3.50","Mozilla/5.0 (Windows NT 10.0; Win64; x64) AppleWebKit/537.36 (KHTML, like Gecko) Chrome/137.0.0.0 Safari/537.36","WebKit","Chrome","137.0.0.0","Windows","10.0","https://app.prolific.com/","en-US,en;q=0.9","5f2448855226b0000a8129e1","683db6dfa200031b80f2a654","686509ecd852fdececfdbc73","5f2448855226b0000a8129e1","","","[0]","","","4","demographics","","","","","","","","","","","","","","","","","","","","","","","","","","","","","","","","","","","","","",""
"6298","","","{""education"":""Bachelor's Degree (e.g., BA)""}","survey-multi-choice","9","51252","0.0-6.0-4.0","198","1","2025-07-02 10:29:19","80fe4187154257d5fb01684ea91b68b9","125.203.3.50","Mozilla/5.0 (Windows NT 10.0; Win64; x64) AppleWebKit/537.36 (KHTML, like Gecko) Chrome/137.0.0.0 Safari/537.36","WebKit","Chrome","137.0.0.0","Windows","10.0","https://app.prolific.com/","en-US,en;q=0.9","5f2448855226b0000a8129e1","683db6dfa200031b80f2a654","686509ecd852fdececfdbc73","5f2448855226b0000a8129e1","","","[0]","","","5","demographics","","","","","","","","","","","","","","","","","","","","","","","","","","","","","","","","","","","","","",""
"11549","","","{""education"":""Master's Degree (e.g., MSc)""}","survey-multi-choice","10","62802","0.0-6.0-5.0","198","1","2025-07-02 10:29:19","80fe4187154257d5fb01684ea91b68b9","125.203.3.50","Mozilla/5.0 (Windows NT 10.0; Win64; x64) AppleWebKit/537.36 (KHTML, like Gecko) Chrome/137.0.0.0 Safari/537.36","WebKit","Chrome","137.0.0.0","Windows","10.0","https://app.prolific.com/","en-US,en;q=0.9","5f2448855226b0000a8129e1","683db6dfa200031b80f2a654","686509ecd852fdececfdbc73","5f2448855226b0000a8129e1","2025-07-02T10:30:33.875Z","","[0]","","","6","demographics","","","","","","","","","","","","","","","","","","","","","","","","","","","","","","","","","","","","","",""
"7393","","","{""mental_health_condition"":"""",""mental_health_treatment"":"""",""psychiatric_medication"":""""}","survey-text","11","70196","0.0-7.0-0.0","198","1","2025-07-02 10:29:19","80fe4187154257d5fb01684ea91b68b9","125.203.3.50","Mozilla/5.0 (Windows NT 10.0; Win64; x64) AppleWebKit/537.36 (KHTML, like Gecko) Chrome/137.0.0.0 Safari/537.36","WebKit","Chrome","137.0.0.0","Windows","10.0","https://app.prolific.com/","en-US,en;q=0.9","5f2448855226b0000a8129e1","683db6dfa200031b80f2a654","686509ecd852fdececfdbc73","5f2448855226b0000a8129e1","2025-07-02T10:30:41.269Z","","","","","1","mental_health","","","","","","","","","","","","","","","","","","","","","","","","","","","","","","","","","","","","","",""
"8048","","","{""depression_history"":[""No""]}","survey-multi-select","12","78245","0.0-7.0-1.0","198","1","2025-07-02 10:29:19","80fe4187154257d5fb01684ea91b68b9","125.203.3.50","Mozilla/5.0 (Windows NT 10.0; Win64; x64) AppleWebKit/537.36 (KHTML, like Gecko) Chrome/137.0.0.0 Safari/537.36","WebKit","Chrome","137.0.0.0","Windows","10.0","https://app.prolific.com/","en-US,en;q=0.9","5f2448855226b0000a8129e1","683db6dfa200031b80f2a654","686509ecd852fdececfdbc73","5f2448855226b0000a8129e1","","","[0]","","","","mental_health","","","","","","","","","","","","","","","","","","","","","","","","","","","","","","","","","","","","","",""
"53373.800000000745","","","","survey-template","13","131621","0.0-7.0-3.0","198","1","2025-07-02 10:29:19","80fe4187154257d5fb01684ea91b68b9","125.203.3.50","Mozilla/5.0 (Windows NT 10.0; Win64; x64) AppleWebKit/537.36 (KHTML, like Gecko) Chrome/137.0.0.0 Safari/537.36","WebKit","Chrome","137.0.0.0","Windows","10.0","https://app.prolific.com/","en-US,en;q=0.9","5f2448855226b0000a8129e1","683db6dfa200031b80f2a654","686509ecd852fdececfdbc73","5f2448855226b0000a8129e1","2025-07-02T10:31:42.694Z","","","","","","ius","{""Q01"":""4"",""Q02"":""4"",""Q03"":""0"",""Q04"":""2"",""Q05"":""3"",""Q06"":""1"",""Q07"":""3"",""Q08"":""0"",""Q09"":""4"",""Q10"":""4"",""Q11"":""3"",""Q12"":""2"",""Q13"":""3""}","[0,1,2,3,4,5,6,7,8,9,10,11,12]","[""Q01"",""Q02"",""Q03"",""Q04"",""Q05"",""Q06"",""Q07"",""Q08"",""Q09"",""Q10"",""Q11"",""Q12"",""Q13""]","[8139.200000001118,10530,15593.900000000373,22305.099999999627,30528.099999999627,33619,35026,36840.300000000745,39968.09999999963,42831,44069,48528.40000000037,52714.09999999963]","[]","[8139.200000001118,10130.099999999627,10530,15593.900000000373,22305.099999999627,29754.700000001118,30528.099999999627,33619,35026,36840.300000000745,39968.09999999963,42039.300000000745,42831,44069,48528.40000000037,52714.09999999963,53372.70000000112]","0.3076923076923077","0.5","0","","","","","","","","","","","","","","","","","","","","","","","","","","","","",""
"2107","1751452304801","<p style='font-size:1.1em;line-height:1.25'>In the following, we will ask you a few questions relating to your experiences over the past month.<br></p><p style='font-size:1.1em;line-height:1.25'>Press the <strong>Next</strong> button to continue.</p>","0","custom-html-button-response","14","133729","0.0-7.0-4.0","198","1","2025-07-02 10:29:19","80fe4187154257d5fb01684ea91b68b9","125.203.3.50","Mozilla/5.0 (Windows NT 10.0; Win64; x64) AppleWebKit/537.36 (KHTML, like Gecko) Chrome/137.0.0.0 Safari/537.36","WebKit","Chrome","137.0.0.0","Windows","10.0","https://app.prolific.com/","en-US,en;q=0.9","5f2448855226b0000a8129e1","683db6dfa200031b80f2a654","686509ecd852fdececfdbc73","5f2448855226b0000a8129e1","2025-07-02T10:31:44.802Z","","","","","","","","","","","","","","","","","","","","","","","","","","","","","","","","","","","","","","","","","","","",""
"45987.699999999255","","","","survey-template","15","179718","0.0-7.0-5.0","198","1","2025-07-02 10:29:19","80fe4187154257d5fb01684ea91b68b9","125.203.3.50","Mozilla/5.0 (Windows NT 10.0; Win64; x64) AppleWebKit/537.36 (KHTML, like Gecko) Chrome/137.0.0.0 Safari/537.36","WebKit","Chrome","137.0.0.0","Windows","10.0","https://app.prolific.com/","en-US,en;q=0.9","5f2448855226b0000a8129e1","683db6dfa200031b80f2a654","686509ecd852fdececfdbc73","5f2448855226b0000a8129e1","2025-07-02T10:32:30.791Z","","","","","","pss","{""Q01"":""2"",""Q02"":""2"",""Q03"":""2"",""Q04"":""1"",""Q05"":""1"",""Q06"":""4"",""Q07"":""1"",""Q08"":""2"",""Q09"":""1"",""Q10"":""3""}","[0,1,2,3,4,5,6,7,8,9]","[""Q01"",""Q02"",""Q03"",""Q05"",""Q04"",""Q06"",""Q07"",""Q08"",""Q09"",""Q10""]","[6428.799999998882,10097.699999999255,12997.599999999627,21729.599999999627,22291.699999999255,29889.799999998882,33564.79999999888,37137.59999999963,41832.79999999888,44996.5]","[]","[0,6428.799999998882,10097.699999999255,12997.599999999627,18716.400000000373,19483.699999999255,21729.599999999627,22291.699999999255,29889.799999998882,33564.79999999888,37137.59999999963,41832.79999999888,44996.5,45986.90000000037]","0.4","0.5555555555555556","0","","","","","","","","","","","","","","","","","","","","","","","","","","","","",""
"1245","1751452352036","<p style='font-size:1.1em;line-height:1.25'>Thank you for your answers! Now we will ask you a few more questions relating to your feelings in the last 24 hours.<br></p><p style='font-size:1.1em;line-height:1.25'>Press the <strong>Next</strong> button to continue.</p>","0","custom-html-button-response","16","180964","0.0-7.0-6.0","198","1","2025-07-02 10:29:19","80fe4187154257d5fb01684ea91b68b9","125.203.3.50","Mozilla/5.0 (Windows NT 10.0; Win64; x64) AppleWebKit/537.36 (KHTML, like Gecko) Chrome/137.0.0.0 Safari/537.36","WebKit","Chrome","137.0.0.0","Windows","10.0","https://app.prolific.com/","en-US,en;q=0.9","5f2448855226b0000a8129e1","683db6dfa200031b80f2a654","686509ecd852fdececfdbc73","5f2448855226b0000a8129e1","2025-07-02T10:32:32.037Z","","","","","","","","","","","","","","","","","","","","","","","","","","","","","","","","","","","","","","","","","","","",""
"49187.5","","","","survey-template","17","230153","0.0-7.0-7.0","198","1","2025-07-02 10:29:19","80fe4187154257d5fb01684ea91b68b9","125.203.3.50","Mozilla/5.0 (Windows NT 10.0; Win64; x64) AppleWebKit/537.36 (KHTML, like Gecko) Chrome/137.0.0.0 Safari/537.36","WebKit","Chrome","137.0.0.0","Windows","10.0","https://app.prolific.com/","en-US,en;q=0.9","5f2448855226b0000a8129e1","683db6dfa200031b80f2a654","686509ecd852fdececfdbc73","5f2448855226b0000a8129e1","2025-07-02T10:33:21.226Z","","","","","","drsp","{""Q01"":""1"",""Q02"":""2"",""Q03"":""0"",""Q04"":""2"",""Q05"":""0"",""Q06"":""0"",""Q07"":""0"",""Q08"":""0"",""Q09"":""3"",""Q10"":""1"",""Q11"":""4"",""Q12"":""0"",""Q13"":""2"",""Q14"":""5"",""Q15"":""0"",""Q16"":""0"",""Q17"":""0"",""Q18"":""0"",""Q19"":""0"",""Q20"":""1"",""Q21"":""0""}","[0,1,2,3,4,5,6,7,8,9,10,11,12,13,14,15,16,17,18,19,20]","[""Q02"",""Q01"",""Q03"",""Q04"",""Q05"",""Q06"",""Q07"",""Q08"",""Q09"",""Q10"",""Q11"",""Q12"",""Q13"",""Q14"",""Q15"",""Q16"",""Q17"",""Q18"",""Q19"",""Q19"",""Q20"",""Q21""]","[6244.5999999996275,6837,8164.9000000003725,10654.799999998882,11404.599999999627,12639.099999999627,14268.799999998882,14791.599999999627,21329.900000000373,23281.699999999255,25564.599999999627,28025,29250.900000000373,31499.099999999627,34611.699999999255,36210.09999999963,36828,41374.79999999888,42221.79999999888,43228.40000000037,46330.79999999888,48560.59999999963]","[]","[0,6244.5999999996275,6837,8164.9000000003725,10654.799999998882,11404.599999999627,12639.099999999627,13252.099999999627,13618.799999998882,14268.799999998882,14791.599999999627,21329.900000000373,23281.699999999255,25564.599999999627,28025,29250.900000000373,31499.099999999627,34611.699999999255,36210.09999999963,36828,37644.699999999255,41374.79999999888,42221.79999999888,43228.40000000037,46330.79999999888,48560.59999999963,49185.59999999963]","0.5714285714285714","0.2","0","","","","","","","","","","","","","","","","","","","","","","","","","","","","",""
"11222.5","","","","survey-template","18","241377","0.0-7.0-8.0","198","1","2025-07-02 10:29:19","80fe4187154257d5fb01684ea91b68b9","125.203.3.50","Mozilla/5.0 (Windows NT 10.0; Win64; x64) AppleWebKit/537.36 (KHTML, like Gecko) Chrome/137.0.0.0 Safari/537.36","WebKit","Chrome","137.0.0.0","Windows","10.0","https://app.prolific.com/","en-US,en;q=0.9","5f2448855226b0000a8129e1","683db6dfa200031b80f2a654","686509ecd852fdececfdbc73","5f2448855226b0000a8129e1","2025-07-02T10:33:32.450Z","","","","","","stress","{""Q01"":""2"",""Q02"":""3"",""Q03"":""1""}","[0,1,2]","[""Q01"",""Q02"",""Q01"",""Q01"",""Q03""]","[5373.299999998882,6519.0999999996275,6929.299999998882,7468.0999999996275,10565.299999998882]","[]","[5373.299999998882,6519.0999999996275,6929.299999998882,7468.0999999996275,10565.299999998882,11222]","0.6666666666666666","0.5","0","","","","","","","","","","","","","","","","","","","","","","","","","","","","",""
"6413","","","","instructions","19","247790","0.0-8.0-0.0","198","1","2025-07-02 10:29:19","80fe4187154257d5fb01684ea91b68b9","125.203.3.50","Mozilla/5.0 (Windows NT 10.0; Win64; x64) AppleWebKit/537.36 (KHTML, like Gecko) Chrome/137.0.0.0 Safari/537.36","WebKit","Chrome","137.0.0.0","Windows","10.0","https://app.prolific.com/","en-US,en;q=0.9","5f2448855226b0000a8129e1","683db6dfa200031b80f2a654","686509ecd852fdececfdbc73","5f2448855226b0000a8129e1","","[{""page_index"":0,""viewing_time"":1718},{""page_index"":1,""viewing_time"":2523},{""page_index"":2,""viewing_time"":1234},{""page_index"":3,""viewing_time"":938}]","","","","","","","","","","","","","","","","","","","","","","","","","","","","","","","","","","","","","","","","","","",""
"","","","","ctl-task-cpt","20","271589","0.0-8.0-1.0","198","1","2025-07-02 10:29:19","80fe4187154257d5fb01684ea91b68b9","125.203.3.50","Mozilla/5.0 (Windows NT 10.0; Win64; x64) AppleWebKit/537.36 (KHTML, like Gecko) Chrome/137.0.0.0 Safari/537.36","WebKit","Chrome","137.0.0.0","Windows","10.0","https://app.prolific.com/","en-US,en;q=0.9","5f2448855226b0000a8129e1","683db6dfa200031b80f2a654","686509ecd852fdececfdbc73","5f2448855226b0000a8129e1","","","","","","","","","","","","","","","","","win-only","2","g1:SE,g2:NW","1","0","1","260701","2269.1","6271.2","20792.9","2","4","4","6","1","2","0","0","0","0","2349.9","4000","1330","[""down"",""right""]","{""num_key_presses"":6,""num_perfect"":4,""num_errors"":2,""num_randdir"":0,""num_randdir_good_moves"":0,""num_whilered"":0,""num_whileblue"":0,""num_blue"":0,""num_good_moves"":4}","[416.5714133126395,419.07142761775424,0.2,416.5714133126395,419.07142761775424,102.2,416.5714133126395,419.07142761775424,202.2,432.8214133126395,435.32142761775424,306.5,277.8214133126395,307.82142761775424,406.6,276.5714133126395,314.07142761775424,506.8,311.5714133126395,349.07142761775424,612,406.5714133126395,454.07142761775424,712.2,486.5714133126395,547.8214276177542,812.6,486.5714133126395,547.8214276177542,912.7,486.5714133126395,551.5714276177542,1016.7,507.8214133126395,577.8214276177542,1116.9,507.8214133126395,577.8214276177542,1221.6,502.8214133126395,561.5714276177542,1322.1,506.5714133126395,560.3214276177542,1422.4,490.3214133126395,557.8214276177542,1526.6,477.8214133126395,557.8214276177542,1627.4,477.8214133126395,557.8214276177542,1732.4,542.8214133126395,584.0714276177542,1837.1,646.5714133126395,651.5714276177542,1942,705.3214133126395,721.5714276177542,2043.3,716.5714133126395,734.0714276177542,2147.8,747.8214133126395,752.8214276177542,2251.9,751.5714133126395,752.8214276177542,2356.2,751.5714133126395,752.8214276177542,2456.8,746.5714133126395,751.5714276177542,2557.1,711.5714133126395,730.3214276177542,2657.2,694.0714133126395,711.5714276177542,2757.4,656.5714133126395,654.0714276177542,2862.1,591.5714133126395,551.5714276177542,2962.1,577.8214133126395,531.5714276177542,3062.5,577.8214133126395,531.5714276177542,3162.7,577.8214133126395,531.5714276177542,3266.7,577.8214133126395,531.5714276177542,3367.4,577.8214133126395,531.5714276177542,3472.5,577.8214133126395,531.5714276177542,3576.2,577.8214133126395,531.5714276177542,3677.1,577.8214133126395,531.5714276177542,3782.4,571.5714133126395,525.3214276177542,3882.8,566.5714133126395,520.3214276177542,3986.6]","[2476.7,2476.7,1000,0,1476.7,""smooth"",""down"",""down"",""good_move"",3063,586.1,2966.8,2476.9,-2380.7,""error"",""-"",""-"",""no_move"",4083.8,1020.7,3159.6,4064.7,-3140.5,""error"",""-"",""-"",""no_move"",7840.4,3756.5,2309.3,5084.9,446.2,""smooth"",""down"",""down"",""good_move"",11288.7,3448.3,3068.2,7840.5,380,""smooth"",""right"",""right"",""good_move"",14428.8,3139.9,2733.3,11288.9,406.7,""smooth"",""right"",""right"",""good_move""]","",""
"13085","","","","instructions","21","284674","0.0-8.0-2.0","198","1","2025-07-02 10:29:19","80fe4187154257d5fb01684ea91b68b9","125.203.3.50","Mozilla/5.0 (Windows NT 10.0; Win64; x64) AppleWebKit/537.36 (KHTML, like Gecko) Chrome/137.0.0.0 Safari/537.36","WebKit","Chrome","137.0.0.0","Windows","10.0","https://app.prolific.com/","en-US,en;q=0.9","5f2448855226b0000a8129e1","683db6dfa200031b80f2a654","686509ecd852fdececfdbc73","5f2448855226b0000a8129e1","","[{""page_index"":0,""viewing_time"":13085}]","","","","","","","","","","","","","","","","","","","","","","","","","","","","","","","","","","","","","","","","","","",""
"","","","","ctl-task-cpt","22","313412","0.0-8.0-3.0","198","1","2025-07-02 10:29:19","80fe4187154257d5fb01684ea91b68b9","125.203.3.50","Mozilla/5.0 (Windows NT 10.0; Win64; x64) AppleWebKit/537.36 (KHTML, like Gecko) Chrome/137.0.0.0 Safari/537.36","WebKit","Chrome","137.0.0.0","Windows","10.0","https://app.prolific.com/","en-US,en;q=0.9","5f2448855226b0000a8129e1","683db6dfa200031b80f2a654","686509ecd852fdececfdbc73","5f2448855226b0000a8129e1","","","","","","","","","","","","","","","","","win-only","2","g1:SE,g2:NW","0.35","0","3","297585","1627.6","5631.3","25731.8","2","4","8","6","1","2","1","1","0","0.007575757575757576","1415.2","4000","2100","[""down"",""right""]","{""num_key_presses"":6,""num_perfect"":3,""num_errors"":1,""num_randdir"":2,""num_randdir_good_moves"":1,""num_whilered"":0,""num_whileblue"":1,""num_blue"":2,""num_good_moves"":5}","[425.3214133126395,412.82142761775424,0.3,425.3214133126395,412.82142761775424,100.3,425.3214133126395,412.82142761775424,200.4,425.3214133126395,412.82142761775424,300.4,425.3214133126395,412.82142761775424,403.4,425.3214133126395,416.57142761775424,503.8,440.3214133126395,431.57142761775424,604.5,446.5714133126395,441.57142761775424,708.7,542.8214133126395,589.0714276177542,816.5,641.5714133126395,731.5714276177542,916.5,661.5714133126395,730.3214276177542,1016.8,689.0714133126395,731.5714276177542,1118.1,721.5714133126395,746.5714276177542,1224.4,721.5714133126395,746.5714276177542,1332.4,721.5714133126395,746.5714276177542,1432.5,764.0714133126395,745.3214276177542,1533.8,1052.8214133126396,694.0714276177542,1633.8,1064.0714133126396,687.8214276177542,1738.3,1064.0714133126396,687.8214276177542,1838.3,1064.0714133126396,687.8214276177542,1938.5,1064.0714133126396,687.8214276177542,2039.1,1064.0714133126396,687.8214276177542,2143.5,1064.0714133126396,687.8214276177542,2248.5,1064.0714133126396,687.8214276177542,2353.6,1064.0714133126396,687.8214276177542,2458.2,1064.0714133126396,687.8214276177542,2558.3,1064.0714133126396,687.8214276177542,2658.9,1064.0714133126396,687.8214276177542,2764.9,1064.0714133126396,687.8214276177542,2868.6,1064.0714133126396,687.8214276177542,2968.8,1064.0714133126396,687.8214276177542,3068.8,1064.0714133126396,687.8214276177542,3173.5,1064.0714133126396,687.8214276177542,3273.7,1064.0714133126396,687.8214276177542,3373.7,1064.0714133126396,687.8214276177542,3480.8,1064.0714133126396,687.8214276177542,3584.6,1064.0714133126396,687.8214276177542,3688.5,1064.0714133126396,687.8214276177542,3797,1064.0714133126396,687.8214276177542,3898.9]","[1397.2,1397.2,1000,0,397.2,""oops"",""right"",""up"",""bad_move"",4256.1,2858.6,2482.6,1397.5,376,""oops"",""right"",""right"",""good_move"",7305.9,3049.5,2696.8,4256.4,352.7,""while_blue"",""down"",""right"",""good_move"",14296.2,6990.1,2437.1,11382.6,476.5,""smooth"",""down"",""down"",""good_move"",17010,2713.7,2274.9,14296.3,438.8,""smooth"",""down"",""down"",""good_move"",20006.8,2996.7,2523.2,17010.1,473.5,""smooth"",""down"",""down"",""good_move""]","",""
"40003","","","","instructions","23","353415","0.0-8.0-4.0","198","1","2025-07-02 10:29:19","80fe4187154257d5fb01684ea91b68b9","125.203.3.50","Mozilla/5.0 (Windows NT 10.0; Win64; x64) AppleWebKit/537.36 (KHTML, like Gecko) Chrome/137.0.0.0 Safari/537.36","WebKit","Chrome","137.0.0.0","Windows","10.0","https://app.prolific.com/","en-US,en;q=0.9","5f2448855226b0000a8129e1","683db6dfa200031b80f2a654","686509ecd852fdececfdbc73","5f2448855226b0000a8129e1","","[{""page_index"":0,""viewing_time"":9935},{""page_index"":1,""viewing_time"":30067}]","","","","","","","","","","","","","","","","","","","","","","","","","","","","","","","","","","","","","","","","","","",""
"15882","","","{""green_ball"":[""Ball sometimes shakes and moves in a random direction""]}","survey-multi-select","24","369301","0.0-8.0-5.0-0.0","198","1","2025-07-02 10:29:19","80fe4187154257d5fb01684ea91b68b9","125.203.3.50","Mozilla/5.0 (Windows NT 10.0; Win64; x64) AppleWebKit/537.36 (KHTML, like Gecko) Chrome/137.0.0.0 Safari/537.36","WebKit","Chrome","137.0.0.0","Windows","10.0","https://app.prolific.com/","en-US,en;q=0.9","5f2448855226b0000a8129e1","683db6dfa200031b80f2a654","686509ecd852fdececfdbc73","5f2448855226b0000a8129e1","","","[0]","","","","quiz","","","","","","","","","","","","","","","","","","","","","","","","","","","","","","","","","","","","","true",""
"1818","","<p align='center'><b>CORRECT!</b> Indeed, the green ball may sometimes shake and move in a random direction.</p>","0","html-button-response","25","371120","0.0-8.0-5.0-1.0","198","1","2025-07-02 10:29:19","80fe4187154257d5fb01684ea91b68b9","125.203.3.50","Mozilla/5.0 (Windows NT 10.0; Win64; x64) AppleWebKit/537.36 (KHTML, like Gecko) Chrome/137.0.0.0 Safari/537.36","WebKit","Chrome","137.0.0.0","Windows","10.0","https://app.prolific.com/","en-US,en;q=0.9","5f2448855226b0000a8129e1","683db6dfa200031b80f2a654","686509ecd852fdececfdbc73","5f2448855226b0000a8129e1","","","","","","","","","","","","","","","","","","","","","","","","","","","","","","","","","","","","","","","","","","","","",""
"4138","","","{""yellow_ball"":[""Ball doesn‘t move and I get -1 penalty point""]}","survey-multi-select","26","375259","0.0-8.0-6.0-0.0","198","1","2025-07-02 10:29:19","80fe4187154257d5fb01684ea91b68b9","125.203.3.50","Mozilla/5.0 (Windows NT 10.0; Win64; x64) AppleWebKit/537.36 (KHTML, like Gecko) Chrome/137.0.0.0 Safari/537.36","WebKit","Chrome","137.0.0.0","Windows","10.0","https://app.prolific.com/","en-US,en;q=0.9","5f2448855226b0000a8129e1","683db6dfa200031b80f2a654","686509ecd852fdececfdbc73","5f2448855226b0000a8129e1","","","[0]","","","","quiz","","","","","","","","","","","","","","","","","","","","","","","","","","","","","","","","","","","","","true",""
"771","","<p align='center'><b>CORRECT!</b> Indeed, the yellow ball never moves and you receive a penalty.</p>","0","html-button-response","27","376031","0.0-8.0-6.0-1.0","198","1","2025-07-02 10:29:19","80fe4187154257d5fb01684ea91b68b9","125.203.3.50","Mozilla/5.0 (Windows NT 10.0; Win64; x64) AppleWebKit/537.36 (KHTML, like Gecko) Chrome/137.0.0.0 Safari/537.36","WebKit","Chrome","137.0.0.0","Windows","10.0","https://app.prolific.com/","en-US,en;q=0.9","5f2448855226b0000a8129e1","683db6dfa200031b80f2a654","686509ecd852fdececfdbc73","5f2448855226b0000a8129e1","","","","","","","","","","","","","","","","","","","","","","","","","","","","","","","","","","","","","","","","","","","","",""
"3769","","","{""blue_ball"":[""Ball doesn‘t move and I get -1 penalty point""]}","survey-multi-select","28","379800","0.0-8.0-7.0-0.0","198","1","2025-07-02 10:29:19","80fe4187154257d5fb01684ea91b68b9","125.203.3.50","Mozilla/5.0 (Windows NT 10.0; Win64; x64) AppleWebKit/537.36 (KHTML, like Gecko) Chrome/137.0.0.0 Safari/537.36","WebKit","Chrome","137.0.0.0","Windows","10.0","https://app.prolific.com/","en-US,en;q=0.9","5f2448855226b0000a8129e1","683db6dfa200031b80f2a654","686509ecd852fdececfdbc73","5f2448855226b0000a8129e1","","","[0]","","","","quiz","","","","","","","","","","","","","","","","","","","","","","","","","","","","","","","","","","","","","false",""
"2829","","<p align='center'><b>INCORRECT.</b> The blue ball always shakes and moves randomly.</p>","0","html-button-response","29","382631","0.0-8.0-7.0-1.0","198","1","2025-07-02 10:29:19","80fe4187154257d5fb01684ea91b68b9","125.203.3.50","Mozilla/5.0 (Windows NT 10.0; Win64; x64) AppleWebKit/537.36 (KHTML, like Gecko) Chrome/137.0.0.0 Safari/537.36","WebKit","Chrome","137.0.0.0","Windows","10.0","https://app.prolific.com/","en-US,en;q=0.9","5f2448855226b0000a8129e1","683db6dfa200031b80f2a654","686509ecd852fdececfdbc73","5f2448855226b0000a8129e1","","","","","","","","","","","","","","","","","","","","","","","","","","","","","","","","","","","","","","","","","","","","",""
"4549","","","{""blue_ball"":[""Ball always shakes and moves in a random direction""]}","survey-multi-select","30","387183","0.0-8.0-7.1-0.1","198","1","2025-07-02 10:29:19","80fe4187154257d5fb01684ea91b68b9","125.203.3.50","Mozilla/5.0 (Windows NT 10.0; Win64; x64) AppleWebKit/537.36 (KHTML, like Gecko) Chrome/137.0.0.0 Safari/537.36","WebKit","Chrome","137.0.0.0","Windows","10.0","https://app.prolific.com/","en-US,en;q=0.9","5f2448855226b0000a8129e1","683db6dfa200031b80f2a654","686509ecd852fdececfdbc73","5f2448855226b0000a8129e1","","","[0]","","","","quiz","","","","","","","","","","","","","","","","","","","","","","","","","","","","","","","","","","","","","true",""
"3224","","<p align='center'><b>CORRECT!</b> Indeed, the blue ball always shakes and moves in a random direction. Also there is a penalty of -1 point.</p>","0","html-button-response","31","390409","0.0-8.0-7.1-1.1","198","1","2025-07-02 10:29:19","80fe4187154257d5fb01684ea91b68b9","125.203.3.50","Mozilla/5.0 (Windows NT 10.0; Win64; x64) AppleWebKit/537.36 (KHTML, like Gecko) Chrome/137.0.0.0 Safari/537.36","WebKit","Chrome","137.0.0.0","Windows","10.0","https://app.prolific.com/","en-US,en;q=0.9","5f2448855226b0000a8129e1","683db6dfa200031b80f2a654","686509ecd852fdececfdbc73","5f2448855226b0000a8129e1","","","","","","","","","","","","","","","","","","","","","","","","","","","","","","","","","","","","","","","","","","","","",""
"4887","","","{""bonus"":[""When I reach 50% of points""]}","survey-multi-select","32","395300","0.0-8.0-8.0-0.0","198","1","2025-07-02 10:29:19","80fe4187154257d5fb01684ea91b68b9","125.203.3.50","Mozilla/5.0 (Windows NT 10.0; Win64; x64) AppleWebKit/537.36 (KHTML, like Gecko) Chrome/137.0.0.0 Safari/537.36","WebKit","Chrome","137.0.0.0","Windows","10.0","https://app.prolific.com/","en-US,en;q=0.9","5f2448855226b0000a8129e1","683db6dfa200031b80f2a654","686509ecd852fdececfdbc73","5f2448855226b0000a8129e1","","","[0]","","","","quiz","","","","","","","","","","","","","","","","","","","","","","","","","","","","","","","","","","","","","true",""
"1010","","<p align='center'><b>CORRECT!</b> Indeed, you receive 2 pounds extra when you reach 50% of points.</p>","0","html-button-response","33","396312","0.0-8.0-8.0-1.0","198","1","2025-07-02 10:29:19","80fe4187154257d5fb01684ea91b68b9","125.203.3.50","Mozilla/5.0 (Windows NT 10.0; Win64; x64) AppleWebKit/537.36 (KHTML, like Gecko) Chrome/137.0.0.0 Safari/537.36","WebKit","Chrome","137.0.0.0","Windows","10.0","https://app.prolific.com/","en-US,en;q=0.9","5f2448855226b0000a8129e1","683db6dfa200031b80f2a654","686509ecd852fdececfdbc73","5f2448855226b0000a8129e1","","","","","","","","","","","","","","","","","","","","","","","","","","","","","","","","","","","","","","","","","","","","",""
"2758","","","","instructions","34","399070","0.0-8.0-9.0","198","1","2025-07-02 10:29:19","80fe4187154257d5fb01684ea91b68b9","125.203.3.50","Mozilla/5.0 (Windows NT 10.0; Win64; x64) AppleWebKit/537.36 (KHTML, like Gecko) Chrome/137.0.0.0 Safari/537.36","WebKit","Chrome","137.0.0.0","Windows","10.0","https://app.prolific.com/","en-US,en;q=0.9","5f2448855226b0000a8129e1","683db6dfa200031b80f2a654","686509ecd852fdececfdbc73","5f2448855226b0000a8129e1","","[{""page_index"":0,""viewing_time"":2757}]","","","","","","","","","","","","","","","","","","","","","","","","","","","","","","","","","","","","","","","","","","",""
"11732","","<p>Before you start with this game please answer the following three questions yourself. </p>
  <p>Through this game, we measure several aspects of your cognitive performance, such as reaction times, multi-tasking capabilities </p>
  <p>and the ability to assess the situation you are in.</p>
  <p></p>
  <p><b>How good do you usually are in such tasks?</b></p>","100","html-slider-response","35","410803","0.0-9.0-0.0","198","1","2025-07-02 10:29:19","80fe4187154257d5fb01684ea91b68b9","125.203.3.50","Mozilla/5.0 (Windows NT 10.0; Win64; x64) AppleWebKit/537.36 (KHTML, like Gecko) Chrome/137.0.0.0 Safari/537.36","WebKit","Chrome","137.0.0.0","Windows","10.0","https://app.prolific.com/","en-US,en;q=0.9","5f2448855226b0000a8129e1","683db6dfa200031b80f2a654","686509ecd852fdececfdbc73","5f2448855226b0000a8129e1","2025-07-02T10:36:21.876Z","","","","","","PreSkillQ","","","","","","","","","","","","","","","","","","","","","","","","","","","","","","","","","","","","","","50"
"4146","","<div style=""width:500px;"">
  <p>How well do you think you will perform in this task compared to other participants?</p>
  </div>","100","html-slider-response","36","414950","0.0-9.0-1.0","198","1","2025-07-02 10:29:19","80fe4187154257d5fb01684ea91b68b9","125.203.3.50","Mozilla/5.0 (Windows NT 10.0; Win64; x64) AppleWebKit/537.36 (KHTML, like Gecko) Chrome/137.0.0.0 Safari/537.36","WebKit","Chrome","137.0.0.0","Windows","10.0","https://app.prolific.com/","en-US,en;q=0.9","5f2448855226b0000a8129e1","683db6dfa200031b80f2a654","686509ecd852fdececfdbc73","5f2448855226b0000a8129e1","2025-07-02T10:36:26.023Z","","","","","","PrePerfQ","","","","","","","","","","","","","","","","","","","","","","","","","","","","","","","","","","","","","","50"
"2801","","<div style=""width:500px;"">
  <p>What best describes how you currently feel?</p>
  </div>","100","html-slider-response","37","417752","0.0-9.0-2.0","198","1","2025-07-02 10:29:19","80fe4187154257d5fb01684ea91b68b9","125.203.3.50","Mozilla/5.0 (Windows NT 10.0; Win64; x64) AppleWebKit/537.36 (KHTML, like Gecko) Chrome/137.0.0.0 Safari/537.36","WebKit","Chrome","137.0.0.0","Windows","10.0","https://app.prolific.com/","en-US,en;q=0.9","5f2448855226b0000a8129e1","683db6dfa200031b80f2a654","686509ecd852fdececfdbc73","5f2448855226b0000a8129e1","2025-07-02T10:36:28.825Z","","","","","","PreMotivationQ","","","","","","","","","","","","","","","","","","","","","","","","","","","","","","","","","","","","","","50"
"","","","","ctl-task-cpt","38","454594","0.0-10.0-0.0","198","1","2025-07-02 10:29:19","80fe4187154257d5fb01684ea91b68b9","125.203.3.50","Mozilla/5.0 (Windows NT 10.0; Win64; x64) AppleWebKit/537.36 (KHTML, like Gecko) Chrome/137.0.0.0 Safari/537.36","WebKit","Chrome","137.0.0.0","Windows","10.0","https://app.prolific.com/","en-US,en;q=0.9","5f2448855226b0000a8129e1","683db6dfa200031b80f2a654","686509ecd852fdececfdbc73","5f2448855226b0000a8129e1","2025-07-02T10:37:05.668Z","","","","","","","","","","","","","","","","win-only","3","g1:SW,g2:NE","1","1","0","430663","1215.2","6216.2","33825.4","1","4","4","6","2","4","4","4","0","0.030303030303030304","1570.1","3000","995","[""up"",""right""]","{""num_key_presses"":6,""num_perfect"":6,""num_errors"":0,""num_randdir"":0,""num_randdir_good_moves"":0,""num_whilered"":0,""num_whileblue"":0,""num_blue"":3,""num_good_moves"":6}","[415.3214133126395,410.32142761775424,0,415.3214133126395,410.32142761775424,100.7,415.3214133126395,410.32142761775424,201.2,415.3214133126395,410.32142761775424,305.5,415.3214133126395,410.32142761775424,405.5,415.3214133126395,411.57142761775424,505.9,402.8214133126395,430.32142761775424,611.1,231.5714133126395,549.0714276177542,715.2,171.5714133126395,626.5714276177542,815.9,354.0714133126395,441.57142761775424,920.4,725.3214133126395,187.82142761775424,1020.8,719.0714133126395,176.57142761775424,1125.9,731.5714133126395,150.32142761775424,1227.2,770.3214133126395,91.57142761775425,1330.6,770.3214133126395,91.57142761775425,1431,770.3214133126395,91.57142761775425,1536.1,770.3214133126395,91.57142761775425,1641.2,1121.5714133126396,277.82142761775424,1745.5,1276.5714133126396,411.57142761775424,1846.1,1276.5714133126396,411.57142761775424,1950.8,1276.5714133126396,411.57142761775424,2050.9,1276.5714133126396,411.57142761775424,2155.5,1276.5714133126396,411.57142761775424,2260.3,1276.5714133126396,411.57142761775424,2361.3,1276.5714133126396,411.57142761775424,2465.7,1276.5714133126396,411.57142761775424,2565.8,1276.5714133126396,411.57142761775424,2672.1,1276.5714133126396,411.57142761775424,2775.8,1276.5714133126396,411.57142761775424,2876.2,1276.5714133126396,411.57142761775424,2980.9,1276.5714133126396,411.57142761775424,3086.1,1276.5714133126396,411.57142761775424,3191.1,1276.5714133126396,411.57142761775424,3296.2,1276.5714133126396,411.57142761775424,3400.6,1276.5714133126396,411.57142761775424,3501.1,1276.5714133126396,411.57142761775424,3601.4,1276.5714133126396,411.57142761775424,3705.2,1276.5714133126396,411.57142761775424,3810.8,1276.5714133126396,411.57142761775424,3911.4,1276.5714133126396,411.57142761775424,4016.1,1276.5714133126396,411.57142761775424,4120.6,1276.5714133126396,411.57142761775424,4220.6,1276.5714133126396,411.57142761775424,4320.9,1276.5714133126396,411.57142761775424,4425.1,1276.5714133126396,411.57142761775424,4525.9,1276.5714133126396,411.57142761775424,4626.4,1276.5714133126396,411.57142761775424,4731.1,1276.5714133126396,411.57142761775424,4835.7,1276.5714133126396,411.57142761775424,4940.5]","[1333.4,1333.4,1000,0,333.4,""smooth"",""right"",""right"",""good_move"",4235.2,2901.1,2545.5,1334.1,355.6,""smooth"",""right"",""right"",""good_move"",10687.3,6452,2705,7664.5,317.8,""smooth"",""up"",""up"",""good_move"",13730.5,3043,2714.5,10687.5,328.5,""smooth"",""up"",""up"",""good_move"",20533.9,6803.2,2746.4,17464.4,323.1,""smooth"",""right"",""right"",""good_move"",27511.1,6977.1,2823.8,24300.2,387.1,""smooth"",""up"",""up"",""good_move""]","",""
"3732","","<div style=""width:500px;"">
  <p>What determined the result of this run?</p>
  </div>","100","html-slider-response","39","458328","0.0-10.0-1.0","198","1","2025-07-02 10:29:19","80fe4187154257d5fb01684ea91b68b9","125.203.3.50","Mozilla/5.0 (Windows NT 10.0; Win64; x64) AppleWebKit/537.36 (KHTML, like Gecko) Chrome/137.0.0.0 Safari/537.36","WebKit","Chrome","137.0.0.0","Windows","10.0","https://app.prolific.com/","en-US,en;q=0.9","5f2448855226b0000a8129e1","683db6dfa200031b80f2a654","686509ecd852fdececfdbc73","5f2448855226b0000a8129e1","2025-07-02T10:37:09.401Z","","","","","","AttribQ","","","","","","","","","","","","","","","","","","","","","","","","","","","","","","","","","","","","","","50"
"3909","","<div style=""width:500px;"">
  <p>How much control did you have over the ball?</p>
  </div>","100","html-slider-response","40","462238","0.0-10.0-2.0","198","1","2025-07-02 10:29:19","80fe4187154257d5fb01684ea91b68b9","125.203.3.50","Mozilla/5.0 (Windows NT 10.0; Win64; x64) AppleWebKit/537.36 (KHTML, like Gecko) Chrome/137.0.0.0 Safari/537.36","WebKit","Chrome","137.0.0.0","Windows","10.0","https://app.prolific.com/","en-US,en;q=0.9","5f2448855226b0000a8129e1","683db6dfa200031b80f2a654","686509ecd852fdececfdbc73","5f2448855226b0000a8129e1","2025-07-02T10:37:13.311Z","","","","","","ControlQ","","","","","","","","","","","","","","","","","","","","","","","","","","","","","","","","","","","","","","50"
"6762","","<div style=""width:500px;"">
  <p>How would you describe your current emotional state?</p>
  </div>","0","html-slider-response","41","469002","0.0-10.0-3.0","198","1","2025-07-02 10:29:19","80fe4187154257d5fb01684ea91b68b9","125.203.3.50","Mozilla/5.0 (Windows NT 10.0; Win64; x64) AppleWebKit/537.36 (KHTML, like Gecko) Chrome/137.0.0.0 Safari/537.36","WebKit","Chrome","137.0.0.0","Windows","10.0","https://app.prolific.com/","en-US,en;q=0.9","5f2448855226b0000a8129e1","683db6dfa200031b80f2a654","686509ecd852fdececfdbc73","5f2448855226b0000a8129e1","2025-07-02T10:37:20.075Z","","","","","","StressQ","","","","","","","","","","","","","","","","","","","","","","","","","","","","","","","","","","","","","","50"
"2131","","<div style=""width:500px;"">
  <p>What best describes how you currently feel?</p>
  </div>","100","html-slider-response","42","471133","0.0-10.0-4.0","198","1","2025-07-02 10:29:19","80fe4187154257d5fb01684ea91b68b9","125.203.3.50","Mozilla/5.0 (Windows NT 10.0; Win64; x64) AppleWebKit/537.36 (KHTML, like Gecko) Chrome/137.0.0.0 Safari/537.36","WebKit","Chrome","137.0.0.0","Windows","10.0","https://app.prolific.com/","en-US,en;q=0.9","5f2448855226b0000a8129e1","683db6dfa200031b80f2a654","686509ecd852fdececfdbc73","5f2448855226b0000a8129e1","2025-07-02T10:37:22.206Z","","","","","","MotivationQ","","","","","","","","","","","","","","","","","","","","","","","","","","","","","","","","","","","","","","50"
"","","","","ctl-task-cpt","43","498075","0.0-10.0-0.1","198","1","2025-07-02 10:29:19","80fe4187154257d5fb01684ea91b68b9","125.203.3.50","Mozilla/5.0 (Windows NT 10.0; Win64; x64) AppleWebKit/537.36 (KHTML, like Gecko) Chrome/137.0.0.0 Safari/537.36","WebKit","Chrome","137.0.0.0","Windows","10.0","https://app.prolific.com/","en-US,en;q=0.9","5f2448855226b0000a8129e1","683db6dfa200031b80f2a654","686509ecd852fdececfdbc73","5f2448855226b0000a8129e1","2025-07-02T10:37:49.148Z","","","","","","","","","","","","","","","","win-only","1","g1:NE,g2:SW","0.9","2","0","484044","961","5965.5","23935.2","1","4","8","6","2","8","8","12","4","0.09090909090909091","950","3000","1105","[""down"",""left""]","{""num_key_presses"":6,""num_perfect"":5,""num_errors"":0,""num_randdir"":1,""num_randdir_good_moves"":1,""num_whilered"":0,""num_whileblue"":0,""num_blue"":0,""num_good_moves"":6}","[419.0714133126395,411.57142761775424,0.1,419.0714133126395,411.57142761775424,100.2,419.0714133126395,411.57142761775424,200.6,419.0714133126395,411.57142761775424,300.9,419.0714133126395,414.07142761775424,401,336.5714133126395,472.82142761775424,504.9,141.5714133126395,600.3214276177542,609.5,109.0714133126395,652.8214276177542,709.7,82.8214133126395,715.3214276177542,810.1,79.0714133126395,726.5714276177542,915.1,76.5714133126395,726.5714276177542,1016.4,399.0714133126395,749.0714276177542,1119.5,1070.3214133126396,712.8214276177542,1219.7,1119.0714133126396,701.5714276177542,1320.4,1119.0714133126396,701.5714276177542,1424.4,1119.0714133126396,701.5714276177542,1529.9,1119.0714133126396,701.5714276177542,1631.7,1119.0714133126396,701.5714276177542,1734.7,1119.0714133126396,701.5714276177542,1835.3,1119.0714133126396,701.5714276177542,1940,1119.0714133126396,701.5714276177542,2044.9,1119.0714133126396,701.5714276177542,2150.1,1119.0714133126396,701.5714276177542,2254.3,1119.0714133126396,701.5714276177542,2355.2,1119.0714133126396,701.5714276177542,2459.8,1119.0714133126396,701.5714276177542,2560,1119.0714133126396,701.5714276177542,2666.1,1119.0714133126396,701.5714276177542,2766.3,1119.0714133126396,701.5714276177542,2870,1119.0714133126396,701.5714276177542,2975.1,1119.0714133126396,701.5714276177542,3075.3,1119.0714133126396,701.5714276177542,3179.3,1119.0714133126396,701.5714276177542,3279.4,1119.0714133126396,701.5714276177542,3379.5,1119.0714133126396,701.5714276177542,3484.2,1119.0714133126396,701.5714276177542,3584.8,1119.0714133126396,701.5714276177542,3689.5,1119.0714133126396,701.5714276177542,3795,1119.0714133126396,701.5714276177542,3899.2,1119.0714133126396,701.5714276177542,3999.5,1119.0714133126396,701.5714276177542,4099.8,1119.0714133126396,701.5714276177542,4205.2,1119.0714133126396,701.5714276177542,4305.2,1119.0714133126396,701.5714276177542,4405.3,1119.0714133126396,701.5714276177542,4510.6,1119.0714133126396,701.5714276177542,4615.5,1119.0714133126396,701.5714276177542,4717.1,1119.0714133126396,701.5714276177542,4819.7,1119.0714133126396,701.5714276177542,4919.8]","[1373.6,1373.6,1000,0,373.6,""smooth"",""left"",""left"",""good_move"",4562.5,3188.3,2853.9,1374.2,334.4,""smooth"",""left"",""left"",""good_move"",7495.6,2933,2637.9,4562.7,295,""smooth"",""left"",""left"",""good_move"",10645.3,3149.4,2860.9,7495.9,288.5,""smooth"",""down"",""down"",""good_move"",14474.6,3829,3405.3,10645.6,423.7,""smooth"",""down"",""down"",""good_move"",17862.6,3387.9,3086.4,14474.7,301.5,""oops"",""down"",""down"",""good_move""]","",""
"2159","","<div style=""width:500px;"">
  <p>What determined the result of this run?</p>
  </div>","100","html-slider-response","44","500234","0.0-10.0-1.1","198","1","2025-07-02 10:29:19","80fe4187154257d5fb01684ea91b68b9","125.203.3.50","Mozilla/5.0 (Windows NT 10.0; Win64; x64) AppleWebKit/537.36 (KHTML, like Gecko) Chrome/137.0.0.0 Safari/537.36","WebKit","Chrome","137.0.0.0","Windows","10.0","https://app.prolific.com/","en-US,en;q=0.9","5f2448855226b0000a8129e1","683db6dfa200031b80f2a654","686509ecd852fdececfdbc73","5f2448855226b0000a8129e1","2025-07-02T10:37:51.307Z","","","","","","AttribQ","","","","","","","","","","","","","","","","","","","","","","","","","","","","","","","","","","","","","","50"
"1584","","<div style=""width:500px;"">
  <p>How much control did you have over the ball?</p>
  </div>","100","html-slider-response","45","501820","0.0-10.0-2.1","198","1","2025-07-02 10:29:19","80fe4187154257d5fb01684ea91b68b9","125.203.3.50","Mozilla/5.0 (Windows NT 10.0; Win64; x64) AppleWebKit/537.36 (KHTML, like Gecko) Chrome/137.0.0.0 Safari/537.36","WebKit","Chrome","137.0.0.0","Windows","10.0","https://app.prolific.com/","en-US,en;q=0.9","5f2448855226b0000a8129e1","683db6dfa200031b80f2a654","686509ecd852fdececfdbc73","5f2448855226b0000a8129e1","2025-07-02T10:37:52.893Z","","","","","","ControlQ","","","","","","","","","","","","","","","","","","","","","","","","","","","","","","","","","","","","","","50"
"1676","","<div style=""width:500px;"">
  <p>How would you describe your current emotional state?</p>
  </div>","0","html-slider-response","46","503496","0.0-10.0-3.1","198","1","2025-07-02 10:29:19","80fe4187154257d5fb01684ea91b68b9","125.203.3.50","Mozilla/5.0 (Windows NT 10.0; Win64; x64) AppleWebKit/537.36 (KHTML, like Gecko) Chrome/137.0.0.0 Safari/537.36","WebKit","Chrome","137.0.0.0","Windows","10.0","https://app.prolific.com/","en-US,en;q=0.9","5f2448855226b0000a8129e1","683db6dfa200031b80f2a654","686509ecd852fdececfdbc73","5f2448855226b0000a8129e1","2025-07-02T10:37:54.569Z","","","","","","StressQ","","","","","","","","","","","","","","","","","","","","","","","","","","","","","","","","","","","","","","50"
"1922","","<div style=""width:500px;"">
  <p>What best describes how you currently feel?</p>
  </div>","100","html-slider-response","47","505419","0.0-10.0-4.1","198","1","2025-07-02 10:29:19","80fe4187154257d5fb01684ea91b68b9","125.203.3.50","Mozilla/5.0 (Windows NT 10.0; Win64; x64) AppleWebKit/537.36 (KHTML, like Gecko) Chrome/137.0.0.0 Safari/537.36","WebKit","Chrome","137.0.0.0","Windows","10.0","https://app.prolific.com/","en-US,en;q=0.9","5f2448855226b0000a8129e1","683db6dfa200031b80f2a654","686509ecd852fdececfdbc73","5f2448855226b0000a8129e1","2025-07-02T10:37:56.492Z","","","","","","MotivationQ","","","","","","","","","","","","","","","","","","","","","","","","","","","","","","","","","","","","","","50"
"","","","","ctl-task-cpt","48","547083","0.0-10.0-0.2","198","1","2025-07-02 10:29:19","80fe4187154257d5fb01684ea91b68b9","125.203.3.50","Mozilla/5.0 (Windows NT 10.0; Win64; x64) AppleWebKit/537.36 (KHTML, like Gecko) Chrome/137.0.0.0 Safari/537.36","WebKit","Chrome","137.0.0.0","Windows","10.0","https://app.prolific.com/","en-US,en;q=0.9","5f2448855226b0000a8129e1","683db6dfa200031b80f2a654","686509ecd852fdececfdbc73","5f2448855226b0000a8129e1","2025-07-02T10:38:38.156Z","","","","","","","","","","","","","","","","win-only","0","g1:NW,g2:SE","0.8","3","0","518329.3","917.9","5921.1","38645.9","1","4","4","6","2","-4","-4","8","12","0.06060606060606061","987.9","3000","-3015","[""down"",""right""]","{""num_key_presses"":9,""num_perfect"":7,""num_errors"":0,""num_randdir"":2,""num_randdir_good_moves"":0,""num_whilered"":0,""num_whileblue"":0,""num_blue"":2,""num_good_moves"":7}","[409.0714133126395,417.82142761775424,0.1,409.0714133126395,417.82142761775424,102.6,409.0714133126395,417.82142761775424,202.7,409.0714133126395,417.82142761775424,303.3,404.0714133126395,426.57142761775424,407.7,422.8214133126395,462.82142761775424,513.2,611.5714133126395,631.5714276177542,617.5,714.0714133126395,716.5714276177542,717.8,739.0714133126395,744.0714276177542,823.2,780.3214133126395,771.5714276177542,923.5,780.3214133126395,771.5714276177542,1023.5,781.5714133126395,771.5714276177542,1127.8,1031.5714133126396,774.0714276177542,1229.1,1160.3214133126396,731.5714276177542,1332.9,1160.3214133126396,731.5714276177542,1437.4,1160.3214133126396,731.5714276177542,1538.6,1160.3214133126396,731.5714276177542,1644.5,1160.3214133126396,731.5714276177542,1747.4,1160.3214133126396,731.5714276177542,1847.9,1160.3214133126396,731.5714276177542,1953.4,1160.3214133126396,731.5714276177542,2053.6,1160.3214133126396,731.5714276177542,2153.7,1160.3214133126396,731.5714276177542,2257.8,1160.3214133126396,731.5714276177542,2359.5,1160.3214133126396,731.5714276177542,2463.4,1160.3214133126396,731.5714276177542,2563.6,1160.3214133126396,731.5714276177542,2668.5,1160.3214133126396,731.5714276177542,2772.4,1160.3214133126396,731.5714276177542,2872.4,1160.3214133126396,731.5714276177542,2972.6,1160.3214133126396,731.5714276177542,3078.4,1160.3214133126396,731.5714276177542,3182.6,1160.3214133126396,731.5714276177542,3287.9,1160.3214133126396,731.5714276177542,3387.9,1160.3214133126396,731.5714276177542,3493.8,1160.3214133126396,731.5714276177542,3598.3,1160.3214133126396,731.5714276177542,3702.3,1160.3214133126396,731.5714276177542,3802.6,1160.3214133126396,731.5714276177542,3903.7,1160.3214133126396,731.5714276177542,4007.5,1160.3214133126396,731.5714276177542,4109.6,1160.3214133126396,731.5714276177542,4210.4,1160.3214133126396,731.5714276177542,4312.6,1160.3214133126396,731.5714276177542,4412.8,1160.3214133126396,731.5714276177542,4517.5,1160.3214133126396,731.5714276177542,4617.7,1160.3214133126396,731.5714276177542,4718.1,1160.3214133126396,731.5714276177542,4824.4,1160.3214133126396,731.5714276177542,4924.5]","[5000.9,5000.9,2674.1,2011.7,315.1,""smooth"",""down"",""down"",""good_move"",7489.3,2488.1,2143.4,5001.2,344.7,""smooth"",""down"",""down"",""good_move"",10963.3,3473.8,3171,7489.5,302.8,""smooth"",""right"",""right"",""good_move"",13754.9,2791.4,2441.2,10963.5,350.2,""smooth"",""right"",""right"",""good_move"",16793.5,3038.5,2657.3,13755,381.2,""smooth"",""down"",""down"",""good_move"",19335.9,2542.3,2246,16793.6,296.3,""oops"",""right"",""left"",""bad_move"",22251.8,2915.6,2590.8,19336.2,324.8,""smooth"",""right"",""right"",""good_move"",28325.7,6073.6,1917.3,26045.4,363,""oops"",""right"",""up"",""bad_move"",30470.1,2144,1823.4,28326.1,320.6,""smooth"",""right"",""right"",""good_move""]","",""
"2296","","<div style=""width:500px;"">
  <p>What determined the result of this run?</p>
  </div>","0","html-slider-response","49","549381","0.0-10.0-1.2","198","1","2025-07-02 10:29:19","80fe4187154257d5fb01684ea91b68b9","125.203.3.50","Mozilla/5.0 (Windows NT 10.0; Win64; x64) AppleWebKit/537.36 (KHTML, like Gecko) Chrome/137.0.0.0 Safari/537.36","WebKit","Chrome","137.0.0.0","Windows","10.0","https://app.prolific.com/","en-US,en;q=0.9","5f2448855226b0000a8129e1","683db6dfa200031b80f2a654","686509ecd852fdececfdbc73","5f2448855226b0000a8129e1","2025-07-02T10:38:40.455Z","","","","","","AttribQ","","","","","","","","","","","","","","","","","","","","","","","","","","","","","","","","","","","","","","50"
"3284","","<div style=""width:500px;"">
  <p>How much control did you have over the ball?</p>
  </div>","0","html-slider-response","50","552669","0.0-10.0-2.2","198","1","2025-07-02 10:29:19","80fe4187154257d5fb01684ea91b68b9","125.203.3.50","Mozilla/5.0 (Windows NT 10.0; Win64; x64) AppleWebKit/537.36 (KHTML, like Gecko) Chrome/137.0.0.0 Safari/537.36","WebKit","Chrome","137.0.0.0","Windows","10.0","https://app.prolific.com/","en-US,en;q=0.9","5f2448855226b0000a8129e1","683db6dfa200031b80f2a654","686509ecd852fdececfdbc73","5f2448855226b0000a8129e1","2025-07-02T10:38:43.743Z","","","","","","ControlQ","","","","","","","","","","","","","","","","","","","","","","","","","","","","","","","","","","","","","","50"
"1785","","<div style=""width:500px;"">
  <p>How would you describe your current emotional state?</p>
  </div>","100","html-slider-response","51","554456","0.0-10.0-3.2","198","1","2025-07-02 10:29:19","80fe4187154257d5fb01684ea91b68b9","125.203.3.50","Mozilla/5.0 (Windows NT 10.0; Win64; x64) AppleWebKit/537.36 (KHTML, like Gecko) Chrome/137.0.0.0 Safari/537.36","WebKit","Chrome","137.0.0.0","Windows","10.0","https://app.prolific.com/","en-US,en;q=0.9","5f2448855226b0000a8129e1","683db6dfa200031b80f2a654","686509ecd852fdececfdbc73","5f2448855226b0000a8129e1","2025-07-02T10:38:45.529Z","","","","","","StressQ","","","","","","","","","","","","","","","","","","","","","","","","","","","","","","","","","","","","","","50"
"2309","","<div style=""width:500px;"">
  <p>What best describes how you currently feel?</p>
  </div>","54","html-slider-response","52","556766","0.0-10.0-4.2","198","1","2025-07-02 10:29:19","80fe4187154257d5fb01684ea91b68b9","125.203.3.50","Mozilla/5.0 (Windows NT 10.0; Win64; x64) AppleWebKit/537.36 (KHTML, like Gecko) Chrome/137.0.0.0 Safari/537.36","WebKit","Chrome","137.0.0.0","Windows","10.0","https://app.prolific.com/","en-US,en;q=0.9","5f2448855226b0000a8129e1","683db6dfa200031b80f2a654","686509ecd852fdececfdbc73","5f2448855226b0000a8129e1","2025-07-02T10:38:47.839Z","","","","","","MotivationQ","","","","","","","","","","","","","","","","","","","","","","","","","","","","","","","","","","","","","","50"
"","","","","ctl-task-cpt","53","602461","0.0-10.0-0.3","198","1","2025-07-02 10:29:19","80fe4187154257d5fb01684ea91b68b9","125.203.3.50","Mozilla/5.0 (Windows NT 10.0; Win64; x64) AppleWebKit/537.36 (KHTML, like Gecko) Chrome/137.0.0.0 Safari/537.36","WebKit","Chrome","137.0.0.0","Windows","10.0","https://app.prolific.com/","en-US,en;q=0.9","5f2448855226b0000a8129e1","683db6dfa200031b80f2a654","686509ecd852fdececfdbc73","5f2448855226b0000a8129e1","2025-07-02T10:39:33.534Z","","","","","","","","","","","","","","","","win-only","3","g1:SW,g2:NE","0.7","4","0","569677","966.1","5970.7","42686.3","1","4","8","6","2","8","6","14","8","0.10606060606060606","977","3000","100","[""up"",""right""]","{""num_key_presses"":12,""num_perfect"":7,""num_errors"":2,""num_randdir"":3,""num_randdir_good_moves"":1,""num_whilered"":0,""num_whileblue"":2,""num_blue"":3,""num_good_moves"":9}","[407.8214133126395,414.07142761775424,0.5,407.8214133126395,414.07142761775424,100,407.8214133126395,414.07142761775424,200.4,407.8214133126395,414.07142761775424,302.4,376.5714133126395,456.57142761775424,404.8,355.3214133126395,506.57142761775424,505,624.0714133126395,209.07142761775424,605.7,729.0714133126395,110.32142761775425,709.9,762.8214133126395,84.07142761775425,816.9,771.5714133126395,75.32142761775425,920.3,784.0714133126395,81.57142761775425,1025.3,821.5714133126395,104.07142761775425,1130.8,1170.3214133126396,300.32142761775424,1234.8,1196.5714133126396,325.32142761775424,1339.5,1196.5714133126396,325.32142761775424,1439.5,1196.5714133126396,325.32142761775424,1544.6,1196.5714133126396,325.32142761775424,1650.3,1196.5714133126396,325.32142761775424,1751.6,1196.5714133126396,325.32142761775424,1854.9,1196.5714133126396,325.32142761775424,1959.8,1196.5714133126396,325.32142761775424,2067.2,1196.5714133126396,325.32142761775424,2169.5,1196.5714133126396,325.32142761775424,2270,1196.5714133126396,325.32142761775424,2370.3,1196.5714133126396,325.32142761775424,2475.5,1196.5714133126396,325.32142761775424,2581.8,1196.5714133126396,325.32142761775424,2684.8,1196.5714133126396,325.32142761775424,2785.3,1196.5714133126396,325.32142761775424,2889.3,1196.5714133126396,325.32142761775424,2989.4,1196.5714133126396,325.32142761775424,3089.7,1196.5714133126396,325.32142761775424,3190.3,1196.5714133126396,325.32142761775424,3295.8,1196.5714133126396,325.32142761775424,3400.8,1196.5714133126396,325.32142761775424,3505.2,1196.5714133126396,325.32142761775424,3605.2,1196.5714133126396,325.32142761775424,3711,1196.5714133126396,325.32142761775424,3812.3,1196.5714133126396,325.32142761775424,3914.4,1196.5714133126396,325.32142761775424,4014.9,1196.5714133126396,325.32142761775424,4119.5,1196.5714133126396,325.32142761775424,4225.3,1196.5714133126396,325.32142761775424,4330.7,1196.5714133126396,325.32142761775424,4434.6,1196.5714133126396,325.32142761775424,4534.8,1196.5714133126396,325.32142761775424,4634.8,1196.5714133126396,325.32142761775424,4734.9,1196.5714133126396,325.32142761775424,4839.2,1196.5714133126396,325.32142761775424,4941.4]","[1343.2,1343.2,1000,0,343.2,""smooth"",""up"",""up"",""good_move"",4014.5,2671.1,2418.3,1343.4,252.8,""smooth"",""up"",""up"",""good_move"",7019.2,3004.6,2846.8,4014.6,157.8,""smooth"",""right"",""right"",""good_move"",10303.8,3284.2,2918.8,7019.6,365.4,""oops"",""right"",""up"",""good_move"",13780.3,3476.4,3196.7,10303.9,279.7,""oops"",""right"",""left"",""bad_move"",16491.1,2710.6,2408,13780.5,302.6,""smooth"",""right"",""right"",""good_move"",18820.2,2328.4,2025.5,16491.8,302.9,""smooth"",""right"",""right"",""good_move"",21788.4,2968,2643.8,18820.4,324.2,""oops"",""right"",""down"",""bad_move"",23565,1776.4,1436.4,21788.6,340,""while_blue"",""right"",""left"",""bad_move"",30405.7,6839.9,2650.8,27524.9,230,""while_blue"",""right"",""up"",""good_move"",33881.5,3475.3,3115,30406.2,360.3,""smooth"",""right"",""right"",""good_move"",36625,2743.2,2456.8,33881.8,286.4,""smooth"",""right"",""right"",""good_move""]","",""
"1376","","<div style=""width:500px;"">
  <p>What determined the result of this run?</p>
  </div>","55","html-slider-response","54","603838","0.0-10.0-1.3","198","1","2025-07-02 10:29:19","80fe4187154257d5fb01684ea91b68b9","125.203.3.50","Mozilla/5.0 (Windows NT 10.0; Win64; x64) AppleWebKit/537.36 (KHTML, like Gecko) Chrome/137.0.0.0 Safari/537.36","WebKit","Chrome","137.0.0.0","Windows","10.0","https://app.prolific.com/","en-US,en;q=0.9","5f2448855226b0000a8129e1","683db6dfa200031b80f2a654","686509ecd852fdececfdbc73","5f2448855226b0000a8129e1","2025-07-02T10:39:34.911Z","","","","","","AttribQ","","","","","","","","","","","","","","","","","","","","","","","","","","","","","","","","","","","","","","50"
"2392","","<div style=""width:500px;"">
  <p>How much control did you have over the ball?</p>
  </div>","54","html-slider-response","55","606232","0.0-10.0-2.3","198","1","2025-07-02 10:29:19","80fe4187154257d5fb01684ea91b68b9","125.203.3.50","Mozilla/5.0 (Windows NT 10.0; Win64; x64) AppleWebKit/537.36 (KHTML, like Gecko) Chrome/137.0.0.0 Safari/537.36","WebKit","Chrome","137.0.0.0","Windows","10.0","https://app.prolific.com/","en-US,en;q=0.9","5f2448855226b0000a8129e1","683db6dfa200031b80f2a654","686509ecd852fdececfdbc73","5f2448855226b0000a8129e1","2025-07-02T10:39:37.305Z","","","","","","ControlQ","","","","","","","","","","","","","","","","","","","","","","","","","","","","","","","","","","","","","","50"
"1388","","<div style=""width:500px;"">
  <p>How would you describe your current emotional state?</p>
  </div>","0","html-slider-response","56","607622","0.0-10.0-3.3","198","1","2025-07-02 10:29:19","80fe4187154257d5fb01684ea91b68b9","125.203.3.50","Mozilla/5.0 (Windows NT 10.0; Win64; x64) AppleWebKit/537.36 (KHTML, like Gecko) Chrome/137.0.0.0 Safari/537.36","WebKit","Chrome","137.0.0.0","Windows","10.0","https://app.prolific.com/","en-US,en;q=0.9","5f2448855226b0000a8129e1","683db6dfa200031b80f2a654","686509ecd852fdececfdbc73","5f2448855226b0000a8129e1","2025-07-02T10:39:38.695Z","","","","","","StressQ","","","","","","","","","","","","","","","","","","","","","","","","","","","","","","","","","","","","","","50"
"1993","","<div style=""width:500px;"">
  <p>What best describes how you currently feel?</p>
  </div>","80","html-slider-response","57","609616","0.0-10.0-4.3","198","1","2025-07-02 10:29:19","80fe4187154257d5fb01684ea91b68b9","125.203.3.50","Mozilla/5.0 (Windows NT 10.0; Win64; x64) AppleWebKit/537.36 (KHTML, like Gecko) Chrome/137.0.0.0 Safari/537.36","WebKit","Chrome","137.0.0.0","Windows","10.0","https://app.prolific.com/","en-US,en;q=0.9","5f2448855226b0000a8129e1","683db6dfa200031b80f2a654","686509ecd852fdececfdbc73","5f2448855226b0000a8129e1","2025-07-02T10:39:40.690Z","","","","","","MotivationQ","","","","","","","","","","","","","","","","","","","","","","","","","","","","","","","","","","","","","","50"
"","","","","ctl-task-cpt","58","657843","0.0-10.0-0.4","198","1","2025-07-02 10:29:19","80fe4187154257d5fb01684ea91b68b9","125.203.3.50","Mozilla/5.0 (Windows NT 10.0; Win64; x64) AppleWebKit/537.36 (KHTML, like Gecko) Chrome/137.0.0.0 Safari/537.36","WebKit","Chrome","137.0.0.0","Windows","10.0","https://app.prolific.com/","en-US,en;q=0.9","5f2448855226b0000a8129e1","683db6dfa200031b80f2a654","686509ecd852fdececfdbc73","5f2448855226b0000a8129e1","2025-07-02T10:40:28.916Z","","","","","","","","","","","","","","","","win-only","0","g1:NW,g2:SE","0.6","5","0","622531.4","1114.9","6115.7","45210.3","1","4","4","6","2","-4","-5","9","14","0.06818181818181818","3229.9","3000","-2540","[""down"",""right""]","{""num_key_presses"":12,""num_perfect"":7,""num_errors"":1,""num_randdir"":4,""num_randdir_good_moves"":1,""num_whilered"":0,""num_whileblue"":0,""num_blue"":2,""num_good_moves"":8}","[422.8214133126395,417.82142761775424,0.2,422.8214133126395,417.82142761775424,100.2,421.5714133126395,417.82142761775424,201.3,420.3214133126395,417.82142761775424,305.6,415.3214133126395,421.57142761775424,406,415.3214133126395,421.57142761775424,506.6,420.3214133126395,461.57142761775424,616.1,426.5714133126395,476.57142761775424,720.3,529.0714133126395,577.8214276177542,820.4,646.5714133126395,686.5714276177542,920.9,666.5714133126395,712.8214276177542,1021.2,675.3214133126395,724.0714276177542,1132.8,675.3214133126395,726.5714276177542,1235.8,687.8214133126395,741.5714276177542,1341.3,710.3214133126395,752.8214276177542,1447.3,710.3214133126395,752.8214276177542,1548.6,710.3214133126395,752.8214276177542,1650.3,710.3214133126395,752.8214276177542,1750.5,710.3214133126395,752.8214276177542,1850.9,710.3214133126395,752.8214276177542,1956.2,710.3214133126395,752.8214276177542,2065.8,710.3214133126395,752.8214276177542,2171.5,710.3214133126395,752.8214276177542,2271.7,710.3214133126395,752.8214276177542,2376.7,710.3214133126395,752.8214276177542,2481.7,710.3214133126395,752.8214276177542,2586.4,710.3214133126395,752.8214276177542,2690.5,710.3214133126395,752.8214276177542,2798.9,711.5714133126395,754.0714276177542,2900.4,711.5714133126395,754.0714276177542,3001,711.5714133126395,754.0714276177542,3106.2,712.8214133126395,754.0714276177542,3206.3,712.8214133126395,754.0714276177542,3315.4,791.5714133126395,751.5714276177542,3416.4,1137.8214133126396,717.8214276177542,3516.4,1146.5714133126396,711.5714276177542,3621,1146.5714133126396,711.5714276177542,3730.9,1146.5714133126396,711.5714276177542,3835.4,1146.5714133126396,711.5714276177542,3936.5,1146.5714133126396,711.5714276177542,4041.3,1146.5714133126396,711.5714276177542,4141.9,1146.5714133126396,711.5714276177542,4246.6,1146.5714133126396,711.5714276177542,4348.1,1146.5714133126396,711.5714276177542,4450.7,1146.5714133126396,711.5714276177542,4551.3,1146.5714133126396,711.5714276177542,4663.5,1146.5714133126396,711.5714276177542,4765.2,1146.5714133126396,711.5714276177542,4865.8,1146.5714133126396,711.5714276177542,4966.4]","[1327.4,1327.5,1000,0,327.5,""smooth"",""down"",""down"",""good_move"",4157,2829.3,2474,1327.7,355.3,""smooth"",""down"",""down"",""good_move"",7044.4,2887.2,2496,4157.2,391.2,""oops"",""down"",""up"",""bad_move"",9251.8,2207.1,1854.3,7044.8,352.7,""smooth"",""down"",""down"",""good_move"",11571.2,2319.2,1974.2,9252,345,""oops"",""down"",""right"",""good_move"",13631.4,2059.9,1733.6,11571.5,326.3,""smooth"",""down"",""down"",""good_move"",16078.6,2447,2163,13631.7,283.9,""oops"",""right"",""left"",""bad_move"",25474.7,9396,3074.6,22084.8,315.4,""smooth"",""right"",""right"",""good_move"",28068.3,2593.3,2279.5,25475,313.8,""oops"",""right"",""up"",""bad_move"",30939.2,2870.7,2592.4,28068.5,278.3,""smooth"",""right"",""right"",""good_move"",33570.8,2631.5,2305.5,30939.3,326,""smooth"",""down"",""down"",""good_move"",35946.2,2375.1,2714.5,33571.1,-339.4,""error"",""-"",""-"",""no_move""]","",""
"1801","","<div style=""width:500px;"">
  <p>What determined the result of this run?</p>
  </div>","0","html-slider-response","59","659647","0.0-10.0-1.4","198","1","2025-07-02 10:29:19","80fe4187154257d5fb01684ea91b68b9","125.203.3.50","Mozilla/5.0 (Windows NT 10.0; Win64; x64) AppleWebKit/537.36 (KHTML, like Gecko) Chrome/137.0.0.0 Safari/537.36","WebKit","Chrome","137.0.0.0","Windows","10.0","https://app.prolific.com/","en-US,en;q=0.9","5f2448855226b0000a8129e1","683db6dfa200031b80f2a654","686509ecd852fdececfdbc73","5f2448855226b0000a8129e1","2025-07-02T10:40:30.720Z","","","","","","AttribQ","","","","","","","","","","","","","","","","","","","","","","","","","","","","","","","","","","","","","","50"
"2421","","<div style=""width:500px;"">
  <p>How much control did you have over the ball?</p>
  </div>","2","html-slider-response","60","662072","0.0-10.0-2.4","198","1","2025-07-02 10:29:19","80fe4187154257d5fb01684ea91b68b9","125.203.3.50","Mozilla/5.0 (Windows NT 10.0; Win64; x64) AppleWebKit/537.36 (KHTML, like Gecko) Chrome/137.0.0.0 Safari/537.36","WebKit","Chrome","137.0.0.0","Windows","10.0","https://app.prolific.com/","en-US,en;q=0.9","5f2448855226b0000a8129e1","683db6dfa200031b80f2a654","686509ecd852fdececfdbc73","5f2448855226b0000a8129e1","2025-07-02T10:40:33.145Z","","","","","","ControlQ","","","","","","","","","","","","","","","","","","","","","","","","","","","","","","","","","","","","","","50"
"1540","","<div style=""width:500px;"">
  <p>How would you describe your current emotional state?</p>
  </div>","100","html-slider-response","61","663613","0.0-10.0-3.4","198","1","2025-07-02 10:29:19","80fe4187154257d5fb01684ea91b68b9","125.203.3.50","Mozilla/5.0 (Windows NT 10.0; Win64; x64) AppleWebKit/537.36 (KHTML, like Gecko) Chrome/137.0.0.0 Safari/537.36","WebKit","Chrome","137.0.0.0","Windows","10.0","https://app.prolific.com/","en-US,en;q=0.9","5f2448855226b0000a8129e1","683db6dfa200031b80f2a654","686509ecd852fdececfdbc73","5f2448855226b0000a8129e1","2025-07-02T10:40:34.686Z","","","","","","StressQ","","","","","","","","","","","","","","","","","","","","","","","","","","","","","","","","","","","","","","50"
"2778","","<div style=""width:500px;"">
  <p>What best describes how you currently feel?</p>
  </div>","1","html-slider-response","62","666392","0.0-10.0-4.4","198","1","2025-07-02 10:29:19","80fe4187154257d5fb01684ea91b68b9","125.203.3.50","Mozilla/5.0 (Windows NT 10.0; Win64; x64) AppleWebKit/537.36 (KHTML, like Gecko) Chrome/137.0.0.0 Safari/537.36","WebKit","Chrome","137.0.0.0","Windows","10.0","https://app.prolific.com/","en-US,en;q=0.9","5f2448855226b0000a8129e1","683db6dfa200031b80f2a654","686509ecd852fdececfdbc73","5f2448855226b0000a8129e1","2025-07-02T10:40:37.465Z","","","","","","MotivationQ","","","","","","","","","","","","","","","","","","","","","","","","","","","","","","","","","","","","","","50"
"","","","","ctl-task-cpt","63","712522","0.0-10.0-0.5","198","1","2025-07-02 10:29:19","80fe4187154257d5fb01684ea91b68b9","125.203.3.50","Mozilla/5.0 (Windows NT 10.0; Win64; x64) AppleWebKit/537.36 (KHTML, like Gecko) Chrome/137.0.0.0 Safari/537.36","WebKit","Chrome","137.0.0.0","Windows","10.0","https://app.prolific.com/","en-US,en;q=0.9","5f2448855226b0000a8129e1","683db6dfa200031b80f2a654","686509ecd852fdececfdbc73","5f2448855226b0000a8129e1","2025-07-02T10:41:23.595Z","","","","","","","","","","","","","","","","win-only","0","g1:NW,g2:SE","0.5","6","0","679302.8","901.2","5904.2","43111.7","1","4","8","6","2","-8","-10","0","9","0","690","3000","-2935","[""down"",""right""]","{""num_key_presses"":12,""num_perfect"":5,""num_errors"":2,""num_randdir"":5,""num_randdir_good_moves"":2,""num_whilered"":0,""num_whileblue"":1,""num_blue"":2,""num_good_moves"":8}","[421.5714133126395,415.32142761775424,0.4,421.5714133126395,415.32142761775424,108.4,421.5714133126395,415.32142761775424,208.6,421.5714133126395,415.32142761775424,310.2,427.8214133126395,421.57142761775424,425.5,626.5714133126395,626.5714276177542,529.4,700.3214133126395,710.3214276177542,640,700.3214133126395,710.3214276177542,744,741.5714133126395,727.8214276177542,844.6,1016.5714133126395,719.0714276177542,944.9,1100.3214133126396,691.5714276177542,1057.6,1100.3214133126396,691.5714276177542,1159.4,1100.3214133126396,691.5714276177542,1259.5,1100.3214133126396,691.5714276177542,1359.8,1100.3214133126396,691.5714276177542,1464.8,1100.3214133126396,691.5714276177542,1572.7,1100.3214133126396,691.5714276177542,1673.3,1100.3214133126396,691.5714276177542,1774.7,1100.3214133126396,691.5714276177542,1875.3,1100.3214133126396,691.5714276177542,1980.1,1100.3214133126396,691.5714276177542,2080.1,1100.3214133126396,691.5714276177542,2189,1100.3214133126396,691.5714276177542,2294.9,1100.3214133126396,691.5714276177542,2395.1,1100.3214133126396,691.5714276177542,2504.7,1100.3214133126396,691.5714276177542,2609.9,1100.3214133126396,691.5714276177542,2710.3,1100.3214133126396,691.5714276177542,2815.2,1100.3214133126396,691.5714276177542,2921.9,1100.3214133126396,691.5714276177542,3022.5,1100.3214133126396,691.5714276177542,3125.1,1100.3214133126396,691.5714276177542,3225.1,1100.3214133126396,691.5714276177542,3337.9,1100.3214133126396,691.5714276177542,3438.9,1100.3214133126396,691.5714276177542,3539.8,1100.3214133126396,691.5714276177542,3640,1100.3214133126396,691.5714276177542,3744.8,1100.3214133126396,691.5714276177542,3853.4,1100.3214133126396,691.5714276177542,3954.7,1100.3214133126396,691.5714276177542,4054.7,1100.3214133126396,691.5714276177542,4159.2,1100.3214133126396,691.5714276177542,4259.4,1100.3214133126396,691.5714276177542,4359.4,1100.3214133126396,691.5714276177542,4459.8,1100.3214133126396,691.5714276177542,4569.7,1100.3214133126396,691.5714276177542,4674.4,1100.3214133126396,691.5714276177542,4775.1,1100.3214133126396,691.5714276177542,4875.1,1100.3214133126396,691.5714276177542,4979.6]","[1282,1282.1,1000,0,282.1,""oops"",""down"",""left"",""bad_move"",6586.4,5304,2021.3,4202.2,362.9,""oops"",""right"",""right"",""good_move"",9275.1,2688.2,2397,6586.9,291.2,""smooth"",""right"",""right"",""good_move"",12702.6,3427.4,3141.1,9275.2,286.3,""oops"",""right"",""up"",""bad_move"",15152.4,2449.6,2050.3,12702.8,399.3,""smooth"",""right"",""right"",""good_move"",17849,2696.5,2434.9,15152.5,261.6,""oops"",""down"",""up"",""bad_move"",20695.7,2846.6,2520.6,17849.1,326,""smooth"",""right"",""right"",""good_move"",23543.8,2847.8,2621.7,20696,226.1,""while_blue"",""down"",""down"",""good_move"",25844,2299.9,1793.9,23544.1,506,""smooth"",""down"",""down"",""good_move"",29253.6,3409.5,3200.8,25844.1,208.7,""smooth"",""down"",""down"",""good_move"",31640.6,2386.9,2119.1,29253.7,267.8,""oops"",""down"",""down"",""good_move"",33822.9,2182,2726.2,31640.9,-544.2,""error"",""-"",""-"",""no_move""]","",""
"1904","","<div style=""width:500px;"">
  <p>What determined the result of this run?</p>
  </div>","0","html-slider-response","64","714427","0.0-10.0-1.5","198","1","2025-07-02 10:29:19","80fe4187154257d5fb01684ea91b68b9","125.203.3.50","Mozilla/5.0 (Windows NT 10.0; Win64; x64) AppleWebKit/537.36 (KHTML, like Gecko) Chrome/137.0.0.0 Safari/537.36","WebKit","Chrome","137.0.0.0","Windows","10.0","https://app.prolific.com/","en-US,en;q=0.9","5f2448855226b0000a8129e1","683db6dfa200031b80f2a654","686509ecd852fdececfdbc73","5f2448855226b0000a8129e1","2025-07-02T10:41:25.501Z","","","","","","AttribQ","","","","","","","","","","","","","","","","","","","","","","","","","","","","","","","","","","","","","","50"
"2297","","<div style=""width:500px;"">
  <p>How much control did you have over the ball?</p>
  </div>","0","html-slider-response","65","716725","0.0-10.0-2.5","198","1","2025-07-02 10:29:19","80fe4187154257d5fb01684ea91b68b9","125.203.3.50","Mozilla/5.0 (Windows NT 10.0; Win64; x64) AppleWebKit/537.36 (KHTML, like Gecko) Chrome/137.0.0.0 Safari/537.36","WebKit","Chrome","137.0.0.0","Windows","10.0","https://app.prolific.com/","en-US,en;q=0.9","5f2448855226b0000a8129e1","683db6dfa200031b80f2a654","686509ecd852fdececfdbc73","5f2448855226b0000a8129e1","2025-07-02T10:41:27.799Z","","","","","","ControlQ","","","","","","","","","","","","","","","","","","","","","","","","","","","","","","","","","","","","","","50"
"1793","","<div style=""width:500px;"">
  <p>How would you describe your current emotional state?</p>
  </div>","100","html-slider-response","66","718521","0.0-10.0-3.5","198","1","2025-07-02 10:29:19","80fe4187154257d5fb01684ea91b68b9","125.203.3.50","Mozilla/5.0 (Windows NT 10.0; Win64; x64) AppleWebKit/537.36 (KHTML, like Gecko) Chrome/137.0.0.0 Safari/537.36","WebKit","Chrome","137.0.0.0","Windows","10.0","https://app.prolific.com/","en-US,en;q=0.9","5f2448855226b0000a8129e1","683db6dfa200031b80f2a654","686509ecd852fdececfdbc73","5f2448855226b0000a8129e1","2025-07-02T10:41:29.595Z","","","","","","StressQ","","","","","","","","","","","","","","","","","","","","","","","","","","","","","","","","","","","","","","50"
"6735","","<div style=""width:500px;"">
  <p>What best describes how you currently feel?</p>
  </div>","0","html-slider-response","67","725259","0.0-10.0-4.5","198","1","2025-07-02 10:29:19","80fe4187154257d5fb01684ea91b68b9","125.203.3.50","Mozilla/5.0 (Windows NT 10.0; Win64; x64) AppleWebKit/537.36 (KHTML, like Gecko) Chrome/137.0.0.0 Safari/537.36","WebKit","Chrome","137.0.0.0","Windows","10.0","https://app.prolific.com/","en-US,en;q=0.9","5f2448855226b0000a8129e1","683db6dfa200031b80f2a654","686509ecd852fdececfdbc73","5f2448855226b0000a8129e1","2025-07-02T10:41:36.333Z","","","","","","MotivationQ","","","","","","","","","","","","","","","","","","","","","","","","","","","","","","","","","","","","","","50"
"","","","","ctl-task-cpt","68","771805","0.0-10.0-0.6","198","1","2025-07-02 10:29:19","80fe4187154257d5fb01684ea91b68b9","125.203.3.50","Mozilla/5.0 (Windows NT 10.0; Win64; x64) AppleWebKit/537.36 (KHTML, like Gecko) Chrome/137.0.0.0 Safari/537.36","WebKit","Chrome","137.0.0.0","Windows","10.0","https://app.prolific.com/","en-US,en;q=0.9","5f2448855226b0000a8129e1","683db6dfa200031b80f2a654","686509ecd852fdececfdbc73","5f2448855226b0000a8129e1","2025-07-02T10:42:22.878Z","","","","","","","","","","","","","","","","win-only","1","g1:NE,g2:SW","0.4","7","0","738170.3","1395.3","6396.1","43535.9","1","4","8","6","2","-8","-8","0","0","0","876","3000","-2440","[""down"",""left""]","{""num_key_presses"":9,""num_perfect"":4,""num_errors"":0,""num_randdir"":5,""num_randdir_good_moves"":2,""num_whilered"":0,""num_whileblue"":0,""num_blue"":3,""num_good_moves"":6}","[420.3214133126395,410.32142761775424,0.3,420.3214133126395,410.32142761775424,105.5,420.3214133126395,410.32142761775424,206,420.3214133126395,410.32142761775424,306.2,420.3214133126395,410.32142761775424,406.7,416.5714133126395,412.82142761775424,510.5,231.5714133126395,546.5714276177542,613,131.5714133126395,689.0714276177542,720.8,75.3214133126395,754.0714276177542,820.8,61.57141331263951,772.8214276177542,925.2,89.0714133126395,760.3214276177542,1026.3,532.8214133126395,704.0714276177542,1130.5,1244.0714133126396,611.5714276177542,1239.6,1244.0714133126396,609.0714276177542,1339.9,1244.0714133126396,609.0714276177542,1440,1244.0714133126396,609.0714276177542,1542.4,1244.0714133126396,609.0714276177542,1645.2,1244.0714133126396,609.0714276177542,1745.9,1244.0714133126396,609.0714276177542,1850.1,1244.0714133126396,609.0714276177542,1950.6,1244.0714133126396,609.0714276177542,2050.8,1244.0714133126396,609.0714276177542,2151.7,1244.0714133126396,609.0714276177542,2252.2,1244.0714133126396,609.0714276177542,2355.1,1244.0714133126396,609.0714276177542,2455.3,1244.0714133126396,609.0714276177542,2555.8,1244.0714133126396,609.0714276177542,2660.2,1244.0714133126396,609.0714276177542,2761.3,1244.0714133126396,609.0714276177542,2862.1,1244.0714133126396,609.0714276177542,2968.8,1244.0714133126396,609.0714276177542,3070.5,1244.0714133126396,609.0714276177542,3175.5,1244.0714133126396,609.0714276177542,3281.9,1244.0714133126396,609.0714276177542,3385.3,1244.0714133126396,609.0714276177542,3486.6,1244.0714133126396,609.0714276177542,3590,1244.0714133126396,609.0714276177542,3691.8,1244.0714133126396,609.0714276177542,3795.4,1244.0714133126396,609.0714276177542,3903.3,1244.0714133126396,609.0714276177542,4006,1244.0714133126396,609.0714276177542,4111.4,1244.0714133126396,609.0714276177542,4211.8,1244.0714133126396,609.0714276177542,4315.2,1244.0714133126396,609.0714276177542,4420.7,1244.0714133126396,609.0714276177542,4525.1,1244.0714133126396,609.0714276177542,4625.3,1244.0714133126396,609.0714276177542,4727.5,1244.0714133126396,609.0714276177542,4832.4,1244.0714133126396,609.0714276177542,4936.4]","[1384.2,1384.2,1000,0,384.2,""oops"",""left"",""right"",""bad_move"",4301.9,2917.4,2594.6,1384.5,322.8,""oops"",""left"",""right"",""bad_move"",10440.9,6138.8,1556.2,8489.9,394.8,""smooth"",""left"",""left"",""good_move"",13300.3,2859.2,2474.1,10441.1,385.1,""oops"",""left"",""down"",""good_move"",20493.7,7193.1,2605.7,17629.9,258.1,""oops"",""left"",""right"",""bad_move"",22906.2,2412.2,2046.9,20494,365.3,""smooth"",""left"",""left"",""good_move"",25746.5,2840,2523.8,22906.5,316.2,""oops"",""left"",""left"",""good_move"",28975,3228.4,2908.4,25746.7,319.9,""smooth"",""left"",""left"",""good_move"",31690.3,2714.9,2400.9,28975.4,314,""smooth"",""left"",""left"",""good_move""]","",""
"1931","","<div style=""width:500px;"">
  <p>What determined the result of this run?</p>
  </div>","0","html-slider-response","69","773738","0.0-10.0-1.6","198","1","2025-07-02 10:29:19","80fe4187154257d5fb01684ea91b68b9","125.203.3.50","Mozilla/5.0 (Windows NT 10.0; Win64; x64) AppleWebKit/537.36 (KHTML, like Gecko) Chrome/137.0.0.0 Safari/537.36","WebKit","Chrome","137.0.0.0","Windows","10.0","https://app.prolific.com/","en-US,en;q=0.9","5f2448855226b0000a8129e1","683db6dfa200031b80f2a654","686509ecd852fdececfdbc73","5f2448855226b0000a8129e1","2025-07-02T10:42:24.811Z","","","","","","AttribQ","","","","","","","","","","","","","","","","","","","","","","","","","","","","","","","","","","","","","","50"
"2040","","<div style=""width:500px;"">
  <p>How much control did you have over the ball?</p>
  </div>","0","html-slider-response","70","775782","0.0-10.0-2.6","198","1","2025-07-02 10:29:19","80fe4187154257d5fb01684ea91b68b9","125.203.3.50","Mozilla/5.0 (Windows NT 10.0; Win64; x64) AppleWebKit/537.36 (KHTML, like Gecko) Chrome/137.0.0.0 Safari/537.36","WebKit","Chrome","137.0.0.0","Windows","10.0","https://app.prolific.com/","en-US,en;q=0.9","5f2448855226b0000a8129e1","683db6dfa200031b80f2a654","686509ecd852fdececfdbc73","5f2448855226b0000a8129e1","2025-07-02T10:42:26.855Z","","","","","","ControlQ","","","","","","","","","","","","","","","","","","","","","","","","","","","","","","","","","","","","","","50"
"1437","","<div style=""width:500px;"">
  <p>How would you describe your current emotional state?</p>
  </div>","100","html-slider-response","71","777221","0.0-10.0-3.6","198","1","2025-07-02 10:29:19","80fe4187154257d5fb01684ea91b68b9","125.203.3.50","Mozilla/5.0 (Windows NT 10.0; Win64; x64) AppleWebKit/537.36 (KHTML, like Gecko) Chrome/137.0.0.0 Safari/537.36","WebKit","Chrome","137.0.0.0","Windows","10.0","https://app.prolific.com/","en-US,en;q=0.9","5f2448855226b0000a8129e1","683db6dfa200031b80f2a654","686509ecd852fdececfdbc73","5f2448855226b0000a8129e1","2025-07-02T10:42:28.295Z","","","","","","StressQ","","","","","","","","","","","","","","","","","","","","","","","","","","","","","","","","","","","","","","50"
"1909","","<div style=""width:500px;"">
  <p>What best describes how you currently feel?</p>
  </div>","0","html-slider-response","72","779133","0.0-10.0-4.6","198","1","2025-07-02 10:29:19","80fe4187154257d5fb01684ea91b68b9","125.203.3.50","Mozilla/5.0 (Windows NT 10.0; Win64; x64) AppleWebKit/537.36 (KHTML, like Gecko) Chrome/137.0.0.0 Safari/537.36","WebKit","Chrome","137.0.0.0","Windows","10.0","https://app.prolific.com/","en-US,en;q=0.9","5f2448855226b0000a8129e1","683db6dfa200031b80f2a654","686509ecd852fdececfdbc73","5f2448855226b0000a8129e1","2025-07-02T10:42:30.206Z","","","","","","MotivationQ","","","","","","","","","","","","","","","","","","","","","","","","","","","","","","","","","","","","","","50"
"","","","","ctl-task-cpt","73","836181","0.0-10.0-0.7","198","1","2025-07-02 10:29:19","80fe4187154257d5fb01684ea91b68b9","125.203.3.50","Mozilla/5.0 (Windows NT 10.0; Win64; x64) AppleWebKit/537.36 (KHTML, like Gecko) Chrome/137.0.0.0 Safari/537.36","WebKit","Chrome","137.0.0.0","Windows","10.0","https://app.prolific.com/","en-US,en;q=0.9","5f2448855226b0000a8129e1","683db6dfa200031b80f2a654","686509ecd852fdececfdbc73","5f2448855226b0000a8129e1","2025-07-02T10:43:27.254Z","","","","","","","","","","","","","","","","win-only","2","g1:SE,g2:NW","0.3","8","0","792046.9","735.4","5736.4","54020.3","1","4","4","6","2","-4","-5","0","0","0","892.5","3000","-2290","[""left"",""up""]","{""num_key_presses"":12,""num_perfect"":3,""num_errors"":1,""num_randdir"":8,""num_randdir_good_moves"":4,""num_whilered"":0,""num_whileblue"":1,""num_blue"":5,""num_good_moves"":8}","[416.5714133126395,417.82142761775424,0.2,417.8214133126395,417.82142761775424,107.4,417.8214133126395,417.82142761775424,210.7,417.8214133126395,420.32142761775424,316.4,419.0714133126395,444.07142761775424,420,291.5714133126395,399.07142761775424,522.3,15.321413312639507,211.57142761775424,625.5,-9.678586687360493,82.82142761775425,730.7,7.821413312639507,52.82142761775425,830.7,61.57141331263951,46.57142761775425,931.8,76.5714133126395,61.57142761775425,1039,416.5714133126395,190.32142761775424,1141.7,992.8214133126395,470.32142761775424,1245.5,1069.0714133126396,519.0714276177542,1352.1,1069.0714133126396,519.0714276177542,1453,1069.0714133126396,519.0714276177542,1556.1,1069.0714133126396,519.0714276177542,1660.3,1069.0714133126396,519.0714276177542,1761.2,1069.0714133126396,519.0714276177542,1869.6,1069.0714133126396,519.0714276177542,1970.9,1069.0714133126396,519.0714276177542,2071.8,1069.0714133126396,519.0714276177542,2175.4,1069.0714133126396,519.0714276177542,2275.4,1069.0714133126396,519.0714276177542,2375.9,1069.0714133126396,519.0714276177542,2476,1069.0714133126396,519.0714276177542,2583,1069.0714133126396,519.0714276177542,2685.8,1069.0714133126396,519.0714276177542,2786.9,1069.0714133126396,519.0714276177542,2890.1,1069.0714133126396,519.0714276177542,2990.7,1069.0714133126396,519.0714276177542,3098.7,1069.0714133126396,519.0714276177542,3201.7,1069.0714133126396,519.0714276177542,3305.5,1069.0714133126396,519.0714276177542,3405.7,1069.0714133126396,519.0714276177542,3506.9,1069.0714133126396,519.0714276177542,3611.9,1069.0714133126396,519.0714276177542,3717.8,1069.0714133126396,519.0714276177542,3821.3,1069.0714133126396,519.0714276177542,3926.2,1069.0714133126396,519.0714276177542,4034,1069.0714133126396,519.0714276177542,4135.3,1069.0714133126396,519.0714276177542,4236.7,1069.0714133126396,519.0714276177542,4340,1069.0714133126396,519.0714276177542,4440.8,1069.0714133126396,519.0714276177542,4540.9,1069.0714133126396,519.0714276177542,4645.5,1069.0714133126396,519.0714276177542,4747.6,1069.0714133126396,519.0714276177542,4850.5,1069.0714133126396,519.0714276177542,4955.8]","[1283,1283,1000,0,283,""oops"",""up"",""right"",""bad_move"",3798.7,2515.4,2252.5,1283.3,262.9,""oops"",""left"",""down"",""bad_move"",10055.2,6256.2,2197.8,7529.6,327.8,""oops"",""left"",""right"",""bad_move"",12870.9,2814.7,2471.7,10056.3,343,""oops"",""left"",""left"",""good_move"",15110.7,2239.3,1943.4,12871.5,295.8,""smooth"",""left"",""left"",""good_move"",18188.4,3077.5,2721.5,15110.9,356,""smooth"",""left"",""left"",""good_move"",21156.4,2967.8,2601.9,18188.6,365.9,""smooth"",""up"",""up"",""good_move"",23912.6,2755.9,2433.5,21156.7,322.4,""oops"",""up"",""up"",""good_move"",30695.7,6783,3193.7,27244.6,257.4,""while_blue"",""up"",""left"",""good_move"",33468.5,2772.5,2476,30696,296.5,""oops"",""up"",""up"",""good_move"",36654.2,3185.4,2932.7,33468.8,252.7,""oops"",""up"",""up"",""good_move"",41821.4,5167,2050.2,39526.7,244.5,""oops"",""left"",""down"",""bad_move""]","",""
"3112","","<div style=""width:500px;"">
  <p>What determined the result of this run?</p>
  </div>","0","html-slider-response","74","839295","0.0-10.0-1.7","198","1","2025-07-02 10:29:19","80fe4187154257d5fb01684ea91b68b9","125.203.3.50","Mozilla/5.0 (Windows NT 10.0; Win64; x64) AppleWebKit/537.36 (KHTML, like Gecko) Chrome/137.0.0.0 Safari/537.36","WebKit","Chrome","137.0.0.0","Windows","10.0","https://app.prolific.com/","en-US,en;q=0.9","5f2448855226b0000a8129e1","683db6dfa200031b80f2a654","686509ecd852fdececfdbc73","5f2448855226b0000a8129e1","2025-07-02T10:43:30.368Z","","","","","","AttribQ","","","","","","","","","","","","","","","","","","","","","","","","","","","","","","","","","","","","","","50"
"2021","","<div style=""width:500px;"">
  <p>How much control did you have over the ball?</p>
  </div>","0","html-slider-response","75","841318","0.0-10.0-2.7","198","1","2025-07-02 10:29:19","80fe4187154257d5fb01684ea91b68b9","125.203.3.50","Mozilla/5.0 (Windows NT 10.0; Win64; x64) AppleWebKit/537.36 (KHTML, like Gecko) Chrome/137.0.0.0 Safari/537.36","WebKit","Chrome","137.0.0.0","Windows","10.0","https://app.prolific.com/","en-US,en;q=0.9","5f2448855226b0000a8129e1","683db6dfa200031b80f2a654","686509ecd852fdececfdbc73","5f2448855226b0000a8129e1","2025-07-02T10:43:32.392Z","","","","","","ControlQ","","","","","","","","","","","","","","","","","","","","","","","","","","","","","","","","","","","","","","50"
"1710","","<div style=""width:500px;"">
  <p>How would you describe your current emotional state?</p>
  </div>","100","html-slider-response","76","843030","0.0-10.0-3.7","198","1","2025-07-02 10:29:19","80fe4187154257d5fb01684ea91b68b9","125.203.3.50","Mozilla/5.0 (Windows NT 10.0; Win64; x64) AppleWebKit/537.36 (KHTML, like Gecko) Chrome/137.0.0.0 Safari/537.36","WebKit","Chrome","137.0.0.0","Windows","10.0","https://app.prolific.com/","en-US,en;q=0.9","5f2448855226b0000a8129e1","683db6dfa200031b80f2a654","686509ecd852fdececfdbc73","5f2448855226b0000a8129e1","2025-07-02T10:43:34.103Z","","","","","","StressQ","","","","","","","","","","","","","","","","","","","","","","","","","","","","","","","","","","","","","","50"
"1981","","<div style=""width:500px;"">
  <p>What best describes how you currently feel?</p>
  </div>","0","html-slider-response","77","845015","0.0-10.0-4.7","198","1","2025-07-02 10:29:19","80fe4187154257d5fb01684ea91b68b9","125.203.3.50","Mozilla/5.0 (Windows NT 10.0; Win64; x64) AppleWebKit/537.36 (KHTML, like Gecko) Chrome/137.0.0.0 Safari/537.36","WebKit","Chrome","137.0.0.0","Windows","10.0","https://app.prolific.com/","en-US,en;q=0.9","5f2448855226b0000a8129e1","683db6dfa200031b80f2a654","686509ecd852fdececfdbc73","5f2448855226b0000a8129e1","2025-07-02T10:43:36.089Z","","","","","","MotivationQ","","","","","","","","","","","","","","","","","","","","","","","","","","","","","","","","","","","","","","50"
"","","","","ctl-task-cpt","78","892046","0.0-10.0-0.8","198","1","2025-07-02 10:29:19","80fe4187154257d5fb01684ea91b68b9","125.203.3.50","Mozilla/5.0 (Windows NT 10.0; Win64; x64) AppleWebKit/537.36 (KHTML, like Gecko) Chrome/137.0.0.0 Safari/537.36","WebKit","Chrome","137.0.0.0","Windows","10.0","https://app.prolific.com/","en-US,en;q=0.9","5f2448855226b0000a8129e1","683db6dfa200031b80f2a654","686509ecd852fdececfdbc73","5f2448855226b0000a8129e1","2025-07-02T10:44:23.119Z","","","","","","","","","","","","","","","","win-only","3","g1:SW,g2:NE","0.4","9","0","857929.2","919.7","5929.4","44001.3","1","4","4","6","2","-4","-6","0","0","0","950.5","3000","-2255","[""up"",""right""]","{""num_key_presses"":13,""num_perfect"":4,""num_errors"":2,""num_randdir"":7,""num_randdir_good_moves"":3,""num_whilered"":0,""num_whileblue"":1,""num_blue"":1,""num_good_moves"":8}","[421.5714133126395,414.07142761775424,0.2,421.5714133126395,414.07142761775424,101,421.5714133126395,415.32142761775424,206.6,397.8214133126395,435.32142761775424,309.9,331.5714133126395,471.57142761775424,412.3,202.8214133126395,586.5714276177542,515.6,279.0714133126395,542.8214276177542,622.1,591.5714133126395,239.07142761775424,722.1,690.3214133126395,146.57142761775424,826.5,736.5714133126395,89.07142761775425,931.6,781.5714133126395,71.57142761775425,1035.8,951.5714133126395,155.32142761775424,1136.4,1166.5714133126396,366.57142761775424,1240.8,1184.0714133126396,451.57142761775424,1343.5,1182.8214133126396,452.82142761775424,1446.6,1182.8214133126396,452.82142761775424,1551.8,1182.8214133126396,451.57142761775424,1657,1182.8214133126396,451.57142761775424,1764.9,1182.8214133126396,451.57142761775424,1866.8,1182.8214133126396,451.57142761775424,1980.1,1182.8214133126396,451.57142761775424,2080.8,1182.8214133126396,451.57142761775424,2196.5,1182.8214133126396,451.57142761775424,2302.1,1182.8214133126396,451.57142761775424,2413.7,1182.8214133126396,451.57142761775424,2516.7,1182.8214133126396,451.57142761775424,2621,1182.8214133126396,451.57142761775424,2721.8,1182.8214133126396,451.57142761775424,2822.3,1182.8214133126396,451.57142761775424,2926.8,1182.8214133126396,451.57142761775424,3028,1182.8214133126396,451.57142761775424,3131.6,1182.8214133126396,451.57142761775424,3244.8,1182.8214133126396,451.57142761775424,3346,1182.8214133126396,451.57142761775424,3446.2,1182.8214133126396,451.57142761775424,3546.9,1182.8214133126396,451.57142761775424,3660.4,1182.8214133126396,451.57142761775424,3761.4,1182.8214133126396,451.57142761775424,3865.6,1182.8214133126396,451.57142761775424,3965.8,1182.8214133126396,451.57142761775424,4065.9,1182.8214133126396,451.57142761775424,4175.7,1182.8214133126396,451.57142761775424,4277.8,1182.8214133126396,451.57142761775424,4380.5,1182.8214133126396,451.57142761775424,4481,1182.8214133126396,451.57142761775424,4581.9,1182.8214133126396,451.57142761775424,4686,1182.8214133126396,451.57142761775424,4787.8,1182.8214133126396,451.57142761775424,4892.1,1182.8214133126396,451.57142761775424,4995.9]","[1364.9,1364.9,1000,0,364.9,""oops"",""up"",""down"",""bad_move"",4574.5,3209.4,2866,1365.1,343.4,""oops"",""right"",""right"",""good_move"",7144.4,2569.1,2103.7,4575.3,465.4,""oops"",""right"",""down"",""bad_move"",10119.4,2974.8,2659.8,7144.6,315,""oops"",""right"",""left"",""bad_move"",13169.3,3049,2702,10120.3,347,""while_blue"",""right"",""right"",""good_move"",13353.9,184.3,2388.6,13169.6,-2204.3,""error"",""-"",""-"",""no_move"",17099.5,3745.6,2332.1,14354.8,412.6,""oops"",""right"",""up"",""good_move"",20141,3041.3,2727,17099.7,314.3,""smooth"",""right"",""right"",""good_move"",23199.9,3058.5,2688.9,20141.4,369.6,""oops"",""up"",""up"",""good_move"",26440.2,3240.2,2909.8,23200,330.4,""smooth"",""up"",""up"",""good_move"",29149.7,2709.3,2404.3,26440.4,305,""smooth"",""up"",""up"",""good_move"",32468.1,3318,2925.9,29150.1,392.1,""smooth"",""up"",""up"",""good_move"",35468.6,2999.8,2734.7,32468.8,265.1,""oops"",""right"",""left"",""bad_move""]","",""
"2727","","<div style=""width:500px;"">
  <p>What determined the result of this run?</p>
  </div>","0","html-slider-response","79","894773","0.0-10.0-1.8","198","1","2025-07-02 10:29:19","80fe4187154257d5fb01684ea91b68b9","125.203.3.50","Mozilla/5.0 (Windows NT 10.0; Win64; x64) AppleWebKit/537.36 (KHTML, like Gecko) Chrome/137.0.0.0 Safari/537.36","WebKit","Chrome","137.0.0.0","Windows","10.0","https://app.prolific.com/","en-US,en;q=0.9","5f2448855226b0000a8129e1","683db6dfa200031b80f2a654","686509ecd852fdececfdbc73","5f2448855226b0000a8129e1","2025-07-02T10:44:25.846Z","","","","","","AttribQ","","","","","","","","","","","","","","","","","","","","","","","","","","","","","","","","","","","","","","50"
"1726","","<div style=""width:500px;"">
  <p>How much control did you have over the ball?</p>
  </div>","0","html-slider-response","80","896501","0.0-10.0-2.8","198","1","2025-07-02 10:29:19","80fe4187154257d5fb01684ea91b68b9","125.203.3.50","Mozilla/5.0 (Windows NT 10.0; Win64; x64) AppleWebKit/537.36 (KHTML, like Gecko) Chrome/137.0.0.0 Safari/537.36","WebKit","Chrome","137.0.0.0","Windows","10.0","https://app.prolific.com/","en-US,en;q=0.9","5f2448855226b0000a8129e1","683db6dfa200031b80f2a654","686509ecd852fdececfdbc73","5f2448855226b0000a8129e1","2025-07-02T10:44:27.574Z","","","","","","ControlQ","","","","","","","","","","","","","","","","","","","","","","","","","","","","","","","","","","","","","","50"
"1554","","<div style=""width:500px;"">
  <p>How would you describe your current emotional state?</p>
  </div>","100","html-slider-response","81","898058","0.0-10.0-3.8","198","1","2025-07-02 10:29:19","80fe4187154257d5fb01684ea91b68b9","125.203.3.50","Mozilla/5.0 (Windows NT 10.0; Win64; x64) AppleWebKit/537.36 (KHTML, like Gecko) Chrome/137.0.0.0 Safari/537.36","WebKit","Chrome","137.0.0.0","Windows","10.0","https://app.prolific.com/","en-US,en;q=0.9","5f2448855226b0000a8129e1","683db6dfa200031b80f2a654","686509ecd852fdececfdbc73","5f2448855226b0000a8129e1","2025-07-02T10:44:29.132Z","","","","","","StressQ","","","","","","","","","","","","","","","","","","","","","","","","","","","","","","","","","","","","","","50"
"1875","","<div style=""width:500px;"">
  <p>What best describes how you currently feel?</p>
  </div>","0","html-slider-response","82","899936","0.0-10.0-4.8","198","1","2025-07-02 10:29:19","80fe4187154257d5fb01684ea91b68b9","125.203.3.50","Mozilla/5.0 (Windows NT 10.0; Win64; x64) AppleWebKit/537.36 (KHTML, like Gecko) Chrome/137.0.0.0 Safari/537.36","WebKit","Chrome","137.0.0.0","Windows","10.0","https://app.prolific.com/","en-US,en;q=0.9","5f2448855226b0000a8129e1","683db6dfa200031b80f2a654","686509ecd852fdececfdbc73","5f2448855226b0000a8129e1","2025-07-02T10:44:31.010Z","","","","","","MotivationQ","","","","","","","","","","","","","","","","","","","","","","","","","","","","","","","","","","","","","","50"
