"rt","response_timestamp","stimulus","response","trial_type","trial_index","time_elapsed","internal_node_id","run_id","condition","recorded_at","source_code_version","ip","user_agent","device","browser","browser_version","platform","platform_version","referer","accept_language","PROLIFIC_PID","STUDY_ID","SESSION_ID","prolific_id","realtime","view_history","question_order","consent","success","question_id","eventType","responses","item_order","radio_event_ids","radio_event_times","key_event_times","mouse_event_times","straightlining","zigzagging","honeypot","which_type","canvas_config","goals_layout","control_level","trial_number","tutorial_trial_number","trial_start_time","phase1_start_time","phase2_start_time","phase3_start_time","goal_1_value","goal_1_distance","goal_2_value","goal_2_distance","goal_selected","outcome","outcome_total","participant_final_score","participant_initial_score","participant_final_score_prop","goal_choice_rt","allocated_time","allocated_time_remaining","goal_direction","counts","mouse_movements","key_presses","correct","slider_start"
"73565","1751451572181","<p style='font-size:40px;line-height:1.25'><strong>Welcome to the experiment!</strong></p><p style='font-size:1.1em;line-height:1.25'>Thank you for your interest in our experiment! Before you begin, it is important that we obtain your informed consent to participate in the study.</p><p style='font-size:1.1em;line-height:1.25'>On the next screen will be an <strong>information sheet</strong> for you to read. To participate in the study we need you to read this information sheet and the following consent form carefully. If you agree with all the statements, please click the <strong>I agree</strong> button.</p><p style='font-size:1.1em;line-height:1.25'>Press <strong>Next</strong> to read the information sheet.</p>","0","custom-html-button-response","0","73569","0.0-0.0","6","1","2025-07-02 10:18:18","80fe4187154257d5fb01684ea91b68b9","92.19.67.158","Mozilla/5.0 (Windows NT 10.0; Win64; x64) AppleWebKit/537.36 (KHTML, like Gecko) Chrome/137.0.0.0 Safari/537.36","WebKit","Chrome","137.0.0.0","Windows","10.0","https://app.prolific.com/","en-US,en;q=0.9","5f2fc4d70200693ce9315c91","683db6dfa200031b80f2a654","6865075bd43333e2bdcb48d6","5f2fc4d70200693ce9315c91","2025-07-02T10:19:32.183Z","","","","","","","","","","","","","","","","","","","","","","","","","","","","","","","","","","","","","","","","","","","",""
"23217","","","","instructions","1","96787","0.0-1.0","6","1","2025-07-02 10:18:18","80fe4187154257d5fb01684ea91b68b9","92.19.67.158","Mozilla/5.0 (Windows NT 10.0; Win64; x64) AppleWebKit/537.36 (KHTML, like Gecko) Chrome/137.0.0.0 Safari/537.36","WebKit","Chrome","137.0.0.0","Windows","10.0","https://app.prolific.com/","en-US,en;q=0.9","5f2fc4d70200693ce9315c91","683db6dfa200031b80f2a654","6865075bd43333e2bdcb48d6","5f2fc4d70200693ce9315c91","","[{""page_index"":0,""viewing_time"":21694},{""page_index"":1,""viewing_time"":1522}]","","","","","","","","","","","","","","","","","","","","","","","","","","","","","","","","","","","","","","","","","","",""
"3111","","","{""Q0"":"""",""Q1"":"""",""Q2"":"""",""Q3"":"""",""Q4"":"""",""Q5"":"""",""Q6"":""I agree""}","survey-multi-choice","2","99906","0.0-2.0","6","1","2025-07-02 10:18:18","80fe4187154257d5fb01684ea91b68b9","92.19.67.158","Mozilla/5.0 (Windows NT 10.0; Win64; x64) AppleWebKit/537.36 (KHTML, like Gecko) Chrome/137.0.0.0 Safari/537.36","WebKit","Chrome","137.0.0.0","Windows","10.0","https://app.prolific.com/","en-US,en;q=0.9","5f2fc4d70200693ce9315c91","683db6dfa200031b80f2a654","6865075bd43333e2bdcb48d6","5f2fc4d70200693ce9315c91","","","[0,1,2,3,4,5,6]","true","","","","","","","","","","","","","","","","","","","","","","","","","","","","","","","","","","","","","","","","",""
"6300","","","","fullscreen","3","107228","0.0-4.0","6","1","2025-07-02 10:18:18","80fe4187154257d5fb01684ea91b68b9","92.19.67.158","Mozilla/5.0 (Windows NT 10.0; Win64; x64) AppleWebKit/537.36 (KHTML, like Gecko) Chrome/137.0.0.0 Safari/537.36","WebKit","Chrome","137.0.0.0","Windows","10.0","https://app.prolific.com/","en-US,en;q=0.9","5f2fc4d70200693ce9315c91","683db6dfa200031b80f2a654","6865075bd43333e2bdcb48d6","5f2fc4d70200693ce9315c91","","","","","true","","","","","","","","","","","","","","","","","","","","","","","","","","","","","","","","","","","","","","","",""
"10524","1751451616367"," <p style='font-size:1.1em;line-height:1.25'>Thank you for completing the consent form and closing all other tabs.</p><p style='font-size:1.1em;line-height:1.25'>We will now invite you to fill in some demographic information and questionnaires, before starting the game.<br>This will take about 5 minutes.<br></p><p style='font-size:1.1em;line-height:1.25'>Press the <strong>Next</strong> button to continue.</p>","0","custom-html-button-response","4","117754","0.0-5.0","6","1","2025-07-02 10:18:18","80fe4187154257d5fb01684ea91b68b9","92.19.67.158","Mozilla/5.0 (Windows NT 10.0; Win64; x64) AppleWebKit/537.36 (KHTML, like Gecko) Chrome/137.0.0.0 Safari/537.36","WebKit","Chrome","137.0.0.0","Windows","10.0","https://app.prolific.com/","en-US,en;q=0.9","5f2fc4d70200693ce9315c91","683db6dfa200031b80f2a654","6865075bd43333e2bdcb48d6","5f2fc4d70200693ce9315c91","2025-07-02T10:20:16.368Z","","","","","","","","","","","","","","","","","","","","","","","","","","","","","","","","","","","","","","","","","","","",""
"3078","","","{""age"":""33""}","survey-text","5","120837","0.0-6.0-0.0","6","1","2025-07-02 10:18:18","80fe4187154257d5fb01684ea91b68b9","92.19.67.158","Mozilla/5.0 (Windows NT 10.0; Win64; x64) AppleWebKit/537.36 (KHTML, like Gecko) Chrome/137.0.0.0 Safari/537.36","WebKit","Chrome","137.0.0.0","Windows","10.0","https://app.prolific.com/","en-US,en;q=0.9","5f2fc4d70200693ce9315c91","683db6dfa200031b80f2a654","6865075bd43333e2bdcb48d6","5f2fc4d70200693ce9315c91","","","","","","0","demographics","","","","","","","","","","","","","","","","","","","","","","","","","","","","","","","","","","","","","",""
"2441","","","{""gender_identity"":""male/man""}","survey-multi-choice","6","123280","0.0-6.0-1.0","6","1","2025-07-02 10:18:18","80fe4187154257d5fb01684ea91b68b9","92.19.67.158","Mozilla/5.0 (Windows NT 10.0; Win64; x64) AppleWebKit/537.36 (KHTML, like Gecko) Chrome/137.0.0.0 Safari/537.36","WebKit","Chrome","137.0.0.0","Windows","10.0","https://app.prolific.com/","en-US,en;q=0.9","5f2fc4d70200693ce9315c91","683db6dfa200031b80f2a654","6865075bd43333e2bdcb48d6","5f2fc4d70200693ce9315c91","","","[0]","","","1","demographics","","","","","","","","","","","","","","","","","","","","","","","","","","","","","","","","","","","","","",""
"2784","","","{""assigned_sex"":""male""}","survey-multi-choice","7","126066","0.0-6.0-2.0","6","1","2025-07-02 10:18:18","80fe4187154257d5fb01684ea91b68b9","92.19.67.158","Mozilla/5.0 (Windows NT 10.0; Win64; x64) AppleWebKit/537.36 (KHTML, like Gecko) Chrome/137.0.0.0 Safari/537.36","WebKit","Chrome","137.0.0.0","Windows","10.0","https://app.prolific.com/","en-US,en;q=0.9","5f2fc4d70200693ce9315c91","683db6dfa200031b80f2a654","6865075bd43333e2bdcb48d6","5f2fc4d70200693ce9315c91","","","[0]","","","2","demographics","","","","","","","","","","","","","","","","","","","","","","","","","","","","","","","","","","","","","",""
"2861","","","{""menstrual_cycle"":""No""}","survey-multi-choice","8","128930","0.0-6.0-3.0","6","1","2025-07-02 10:18:18","80fe4187154257d5fb01684ea91b68b9","92.19.67.158","Mozilla/5.0 (Windows NT 10.0; Win64; x64) AppleWebKit/537.36 (KHTML, like Gecko) Chrome/137.0.0.0 Safari/537.36","WebKit","Chrome","137.0.0.0","Windows","10.0","https://app.prolific.com/","en-US,en;q=0.9","5f2fc4d70200693ce9315c91","683db6dfa200031b80f2a654","6865075bd43333e2bdcb48d6","5f2fc4d70200693ce9315c91","","","[0]","","","4","demographics","","","","","","","","","","","","","","","","","","","","","","","","","","","","","","","","","","","","","",""
"4380","","","{""education"":""Master's Degree (e.g., MSc)""}","survey-multi-choice","9","133312","0.0-6.0-4.0","6","1","2025-07-02 10:18:18","80fe4187154257d5fb01684ea91b68b9","92.19.67.158","Mozilla/5.0 (Windows NT 10.0; Win64; x64) AppleWebKit/537.36 (KHTML, like Gecko) Chrome/137.0.0.0 Safari/537.36","WebKit","Chrome","137.0.0.0","Windows","10.0","https://app.prolific.com/","en-US,en;q=0.9","5f2fc4d70200693ce9315c91","683db6dfa200031b80f2a654","6865075bd43333e2bdcb48d6","5f2fc4d70200693ce9315c91","","","[0]","","","5","demographics","","","","","","","","","","","","","","","","","","","","","","","","","","","","","","","","","","","","","",""
"3487","","","{""education"":""Master's Degree (e.g., MSc)""}","survey-multi-choice","10","136800","0.0-6.0-5.0","6","1","2025-07-02 10:18:18","80fe4187154257d5fb01684ea91b68b9","92.19.67.158","Mozilla/5.0 (Windows NT 10.0; Win64; x64) AppleWebKit/537.36 (KHTML, like Gecko) Chrome/137.0.0.0 Safari/537.36","WebKit","Chrome","137.0.0.0","Windows","10.0","https://app.prolific.com/","en-US,en;q=0.9","5f2fc4d70200693ce9315c91","683db6dfa200031b80f2a654","6865075bd43333e2bdcb48d6","5f2fc4d70200693ce9315c91","2025-07-02T10:20:35.414Z","","[0]","","","6","demographics","","","","","","","","","","","","","","","","","","","","","","","","","","","","","","","","","","","","","",""
"17866","","","{""mental_health_condition"":""Anxiety"",""mental_health_treatment"":""CBT"",""psychiatric_medication"":""NA""}","survey-text","11","154670","0.0-7.0-0.0","6","1","2025-07-02 10:18:18","80fe4187154257d5fb01684ea91b68b9","92.19.67.158","Mozilla/5.0 (Windows NT 10.0; Win64; x64) AppleWebKit/537.36 (KHTML, like Gecko) Chrome/137.0.0.0 Safari/537.36","WebKit","Chrome","137.0.0.0","Windows","10.0","https://app.prolific.com/","en-US,en;q=0.9","5f2fc4d70200693ce9315c91","683db6dfa200031b80f2a654","6865075bd43333e2bdcb48d6","5f2fc4d70200693ce9315c91","2025-07-02T10:20:53.284Z","","","","","1","mental_health","","","","","","","","","","","","","","","","","","","","","","","","","","","","","","","","","","","","","",""
"5788","","","{""depression_history"":[""Yes""]}","survey-multi-select","12","160470","0.0-7.0-1.0","6","1","2025-07-02 10:18:18","80fe4187154257d5fb01684ea91b68b9","92.19.67.158","Mozilla/5.0 (Windows NT 10.0; Win64; x64) AppleWebKit/537.36 (KHTML, like Gecko) Chrome/137.0.0.0 Safari/537.36","WebKit","Chrome","137.0.0.0","Windows","10.0","https://app.prolific.com/","en-US,en;q=0.9","5f2fc4d70200693ce9315c91","683db6dfa200031b80f2a654","6865075bd43333e2bdcb48d6","5f2fc4d70200693ce9315c91","","","[0]","","","","mental_health","","","","","","","","","","","","","","","","","","","","","","","","","","","","","","","","","","","","","",""
"6168","","","{""depression_episodes"":""more than 5"",""depression_recent"":""Currently experiencing an episode""}","survey-multi-choice","13","166639","0.0-7.0-2.0-0.0","6","1","2025-07-02 10:18:18","80fe4187154257d5fb01684ea91b68b9","92.19.67.158","Mozilla/5.0 (Windows NT 10.0; Win64; x64) AppleWebKit/537.36 (KHTML, like Gecko) Chrome/137.0.0.0 Safari/537.36","WebKit","Chrome","137.0.0.0","Windows","10.0","https://app.prolific.com/","en-US,en;q=0.9","5f2fc4d70200693ce9315c91","683db6dfa200031b80f2a654","6865075bd43333e2bdcb48d6","5f2fc4d70200693ce9315c91","2025-07-02T10:21:05.253Z","","[0,1]","","","3","mental_health","","","","","","","","","","","","","","","","","","","","","","","","","","","","","","","","","","","","","",""
"56767.80000000447","","","","survey-template","14","223411","0.0-7.0-3.0","6","1","2025-07-02 10:18:18","80fe4187154257d5fb01684ea91b68b9","92.19.67.158","Mozilla/5.0 (Windows NT 10.0; Win64; x64) AppleWebKit/537.36 (KHTML, like Gecko) Chrome/137.0.0.0 Safari/537.36","WebKit","Chrome","137.0.0.0","Windows","10.0","https://app.prolific.com/","en-US,en;q=0.9","5f2fc4d70200693ce9315c91","683db6dfa200031b80f2a654","6865075bd43333e2bdcb48d6","5f2fc4d70200693ce9315c91","2025-07-02T10:22:02.025Z","","","","","","ius","{""Q01"":""4"",""Q02"":""4"",""Q03"":""4"",""Q04"":""4"",""Q05"":""4"",""Q06"":""3"",""Q07"":""3"",""Q08"":""0"",""Q09"":""4"",""Q10"":""4"",""Q11"":""3"",""Q12"":""3"",""Q13"":""4""}","[0,1,2,3,4,5,6,7,8,9,10,11,12]","[""Q01"",""Q02"",""Q03"",""Q04"",""Q05"",""Q06"",""Q07"",""Q08"",""Q09"",""Q10"",""Q11"",""Q12"",""Q13""]","[2857.60000000149,7039.60000000149,8777.40000000596,10692.60000000149,11963.70000000298,14904.60000000149,20632.70000000298,22634.20000000298,47454.80000000447,48986.90000000596,50781.5,53605.90000000596,56035.10000000149]","[]","[2857.60000000149,7039.60000000149,8777.40000000596,10692.60000000149,11963.70000000298,14904.60000000149,20632.70000000298,22634.20000000298,47454.80000000447,48986.90000000596,50781.5,53605.90000000596,56035.10000000149,56764.60000000149]","0.6153846153846154","0.3333333333333333","0","","","","","","","","","","","","","","","","","","","","","","","","","","","","",""
"2091","1751451724117","<p style='font-size:1.1em;line-height:1.25'>In the following, we will ask you a few questions relating to your experiences over the past month.<br></p><p style='font-size:1.1em;line-height:1.25'>Press the <strong>Next</strong> button to continue.</p>","0","custom-html-button-response","15","225505","0.0-7.0-4.0","6","1","2025-07-02 10:18:18","80fe4187154257d5fb01684ea91b68b9","92.19.67.158","Mozilla/5.0 (Windows NT 10.0; Win64; x64) AppleWebKit/537.36 (KHTML, like Gecko) Chrome/137.0.0.0 Safari/537.36","WebKit","Chrome","137.0.0.0","Windows","10.0","https://app.prolific.com/","en-US,en;q=0.9","5f2fc4d70200693ce9315c91","683db6dfa200031b80f2a654","6865075bd43333e2bdcb48d6","5f2fc4d70200693ce9315c91","2025-07-02T10:22:04.119Z","","","","","","","","","","","","","","","","","","","","","","","","","","","","","","","","","","","","","","","","","","","",""
"47904.60000000149","","","","survey-template","16","273412","0.0-7.0-5.0","6","1","2025-07-02 10:18:18","80fe4187154257d5fb01684ea91b68b9","92.19.67.158","Mozilla/5.0 (Windows NT 10.0; Win64; x64) AppleWebKit/537.36 (KHTML, like Gecko) Chrome/137.0.0.0 Safari/537.36","WebKit","Chrome","137.0.0.0","Windows","10.0","https://app.prolific.com/","en-US,en;q=0.9","5f2fc4d70200693ce9315c91","683db6dfa200031b80f2a654","6865075bd43333e2bdcb48d6","5f2fc4d70200693ce9315c91","2025-07-02T10:22:52.026Z","","","","","","pss","{""Q01"":""4"",""Q02"":""4"",""Q03"":""4"",""Q04"":""2"",""Q05"":""4"",""Q06"":""4"",""Q07"":""3"",""Q08"":""3"",""Q09"":""3"",""Q10"":""4""}","[0,1,2,3,4,5,6,7,8,9]","[""Q01"",""Q02"",""Q03"",""Q04"",""Q05"",""Q06"",""Q07"",""Q08"",""Q09"",""Q10""]","[4481.29999999702,6397.89999999851,7853.10000000149,15081.69999999553,23399.79999999702,30560.69999999553,33315,36002.29999999702,40328.5,46148.60000000149]","[]","[0,4481.29999999702,6397.89999999851,7853.10000000149,15081.69999999553,23399.79999999702,30560.69999999553,33315,36002.29999999702,40328.5,46148.60000000149,47902.60000000149]","0.5","0.2222222222222222","0","","","","","","","","","","","","","","","","","","","","","","","","","","","","",""
"1689","1751451773716","<p style='font-size:1.1em;line-height:1.25'>Thank you for your answers! Now we will ask you a few more questions relating to your feelings in the last 24 hours.<br></p><p style='font-size:1.1em;line-height:1.25'>Press the <strong>Next</strong> button to continue.</p>","0","custom-html-button-response","17","275103","0.0-7.0-6.0","6","1","2025-07-02 10:18:18","80fe4187154257d5fb01684ea91b68b9","92.19.67.158","Mozilla/5.0 (Windows NT 10.0; Win64; x64) AppleWebKit/537.36 (KHTML, like Gecko) Chrome/137.0.0.0 Safari/537.36","WebKit","Chrome","137.0.0.0","Windows","10.0","https://app.prolific.com/","en-US,en;q=0.9","5f2fc4d70200693ce9315c91","683db6dfa200031b80f2a654","6865075bd43333e2bdcb48d6","5f2fc4d70200693ce9315c91","2025-07-02T10:22:53.718Z","","","","","","","","","","","","","","","","","","","","","","","","","","","","","","","","","","","","","","","","","","","",""
"76601.39999999851","","","","survey-template","18","351709","0.0-7.0-7.0","6","1","2025-07-02 10:18:18","80fe4187154257d5fb01684ea91b68b9","92.19.67.158","Mozilla/5.0 (Windows NT 10.0; Win64; x64) AppleWebKit/537.36 (KHTML, like Gecko) Chrome/137.0.0.0 Safari/537.36","WebKit","Chrome","137.0.0.0","Windows","10.0","https://app.prolific.com/","en-US,en;q=0.9","5f2fc4d70200693ce9315c91","683db6dfa200031b80f2a654","6865075bd43333e2bdcb48d6","5f2fc4d70200693ce9315c91","2025-07-02T10:24:10.323Z","","","","","","drsp","{""Q01"":""5"",""Q02"":""5"",""Q03"":""3"",""Q04"":""5"",""Q05"":""1"",""Q06"":""3"",""Q07"":""2"",""Q08"":""2"",""Q09"":""5"",""Q10"":""5"",""Q11"":""5"",""Q12"":""1"",""Q13"":""2"",""Q14"":""0"",""Q15"":""0"",""Q16"":""5"",""Q17"":""5"",""Q18"":""0"",""Q19"":""5"",""Q20"":""5"",""Q21"":""5""}","[0,1,2,3,4,5,6,7,8,9,10,11,12,13,14,15,16,17,18,19,20]","[""Q01"",""Q02"",""Q03"",""Q04"",""Q06"",""Q08"",""Q09"",""Q10"",""Q11"",""Q12"",""Q13"",""Q12"",""Q14"",""Q15"",""Q16"",""Q17"",""Q18"",""Q19"",""Q20"",""Q21"",""Q05"",""Q07""]","[3667.1999999955297,4637.5999999940395,6630.89999999851,8878.79999999702,13493,16625.79999999702,18944.39999999851,20565,21894.79999999702,24908.59999999404,27637.39999999851,30030.19999999553,32400.39999999851,34368.5,36283.79999999702,37817.5,40858.69999999553,59192.89999999851,61015.79999999702,62680.89999999851,68082.59999999404,74450.19999999553]","[]","[0,3667.1999999955297,4637.5999999940395,6630.89999999851,7759.79999999702,8878.79999999702,10310.89999999851,13493,14565.39999999851,16625.79999999702,18944.39999999851,20565,21894.79999999702,23890.69999999553,24908.59999999404,27637.39999999851,30030.19999999553,32400.39999999851,34368.5,36283.79999999702,37817.5,40858.69999999553,59192.89999999851,61015.79999999702,62680.89999999851,63449,68082.59999999404,69867.39999999851,70890.59999999404,74450.19999999553,76596.09999999404]","0.5238095238095238","0.25","0","","","","","","","","","","","","","","","","","","","","","","","","","","","","",""
"10734.20000000298","","","","survey-template","19","362446","0.0-7.0-8.0","6","1","2025-07-02 10:18:18","80fe4187154257d5fb01684ea91b68b9","92.19.67.158","Mozilla/5.0 (Windows NT 10.0; Win64; x64) AppleWebKit/537.36 (KHTML, like Gecko) Chrome/137.0.0.0 Safari/537.36","WebKit","Chrome","137.0.0.0","Windows","10.0","https://app.prolific.com/","en-US,en;q=0.9","5f2fc4d70200693ce9315c91","683db6dfa200031b80f2a654","6865075bd43333e2bdcb48d6","5f2fc4d70200693ce9315c91","2025-07-02T10:24:21.060Z","","","","","","stress","{""Q01"":""5"",""Q02"":""5"",""Q03"":""5""}","[0,1,2]","[""Q01"",""Q02"",""Q03""]","[2301.8000000044703,4860,9962.90000000596]","[]","[2301.8000000044703,4860,9962.90000000596,10732.70000000298]","0.6666666666666666","1","0","","","","","","","","","","","","","","","","","","","","","","","","","","","","",""
"57962","","","","instructions","20","420409","0.0-8.0-0.0","6","1","2025-07-02 10:18:18","80fe4187154257d5fb01684ea91b68b9","92.19.67.158","Mozilla/5.0 (Windows NT 10.0; Win64; x64) AppleWebKit/537.36 (KHTML, like Gecko) Chrome/137.0.0.0 Safari/537.36","WebKit","Chrome","137.0.0.0","Windows","10.0","https://app.prolific.com/","en-US,en;q=0.9","5f2fc4d70200693ce9315c91","683db6dfa200031b80f2a654","6865075bd43333e2bdcb48d6","5f2fc4d70200693ce9315c91","","[{""page_index"":0,""viewing_time"":12906},{""page_index"":1,""viewing_time"":18448},{""page_index"":2,""viewing_time"":9435},{""page_index"":3,""viewing_time"":17173}]","","","","","","","","","","","","","","","","","","","","","","","","","","","","","","","","","","","","","","","","","","",""
"","","","","ctl-task-cpt","21","461244","0.0-8.0-1.0","6","1","2025-07-02 10:18:18","80fe4187154257d5fb01684ea91b68b9","92.19.67.158","Mozilla/5.0 (Windows NT 10.0; Win64; x64) AppleWebKit/537.36 (KHTML, like Gecko) Chrome/137.0.0.0 Safari/537.36","WebKit","Chrome","137.0.0.0","Windows","10.0","https://app.prolific.com/","en-US,en;q=0.9","5f2fc4d70200693ce9315c91","683db6dfa200031b80f2a654","6865075bd43333e2bdcb48d6","5f2fc4d70200693ce9315c91","","","","","","","","","","","","","","","","","win-only","0","g1:NW,g2:SE","1","0","1","422627.7","2106.1","6111.2","37823.7","2","4","4","6","1","-2","-3","0","0","0","4005","4000","-2295","[""left"",""up""]","{""num_key_presses"":9,""num_perfect"":8,""num_errors"":1,""num_randdir"":0,""num_randdir_good_moves"":0,""num_whilered"":0,""num_whileblue"":0,""num_blue"":2,""num_good_moves"":1}","[350.7142857142857,357.21428666796004,0.4,350.7142857142857,357.21428666796004,112.8,350.7142857142857,357.21428666796004,220.3,350.7142857142857,357.21428666796004,321.5,350.7142857142857,357.21428666796004,421.7,350.7142857142857,357.21428666796004,522.5,350.7142857142857,357.21428666796004,626.1,350.7142857142857,357.21428666796004,729.8,350.7142857142857,357.21428666796004,830.7,350.7142857142857,357.21428666796004,938.3,350.7142857142857,357.21428666796004,1040.1,350.7142857142857,357.21428666796004,1141.8,350.7142857142857,354.71428666796004,1247.9,361.9642857142857,342.21428666796004,1350,375.7142857142857,334.71428666796004,1456,391.9642857142857,318.46428666796004,1557.1,396.9642857142857,317.21428666796004,1659.5,396.9642857142857,317.21428666796004,1760,396.9642857142857,317.21428666796004,1861.9,396.9642857142857,317.21428666796004,1966.1,396.9642857142857,317.21428666796004,2066.9,396.9642857142857,317.21428666796004,2173.1,396.9642857142857,317.21428666796004,2274.8,396.9642857142857,317.21428666796004,2375.4,396.9642857142857,317.21428666796004,2485,589.4642857142857,354.71428666796004,2590.5,896.9642857142857,465.96428666796004,2691.8,896.9642857142857,465.96428666796004,2799,896.9642857142857,465.96428666796004,2904.2,896.9642857142857,465.96428666796004,3007.8,896.9642857142857,465.96428666796004,3110.4,896.9642857142857,465.96428666796004,3212.5,896.9642857142857,465.96428666796004,3314.1,896.9642857142857,465.96428666796004,3420.6,896.9642857142857,465.96428666796004,3524.4,896.9642857142857,465.96428666796004,3624.7,896.9642857142857,465.96428666796004,3725.1,896.9642857142857,465.96428666796004,3829.2,715.7142857142857,452.21428666796004,3930.7]","[1851.6,1851.6,1000,0,851.6,""smooth"",""down"",""down"",""bad_move"",2321.8,469,2763.3,1852.9,-2294.4,""error"",""-"",""-"",""no_move"",9643.1,7320.8,2461.3,6641.7,540.1,""smooth"",""right"",""right"",""bad_move"",15550.4,5906.7,1289.5,13565.6,695.3,""smooth"",""down"",""down"",""bad_move"",17830.4,2279.5,1817.2,15550.9,462.3,""smooth"",""right"",""right"",""bad_move"",20102.7,2271.9,1927.3,17830.8,344.6,""smooth"",""right"",""right"",""bad_move"",23522.3,3419.3,3090,20103,329.3,""smooth"",""down"",""down"",""bad_move"",27315.5,3792.8,2245.4,23522.8,1547.4,""smooth"",""left"",""left"",""good_move"",29497.9,2181.6,1514,27316.3,667.6,""smooth"",""right"",""right"",""bad_move""]","",""
"12486","","","","instructions","22","473730","0.0-8.0-2.0","6","1","2025-07-02 10:18:18","80fe4187154257d5fb01684ea91b68b9","92.19.67.158","Mozilla/5.0 (Windows NT 10.0; Win64; x64) AppleWebKit/537.36 (KHTML, like Gecko) Chrome/137.0.0.0 Safari/537.36","WebKit","Chrome","137.0.0.0","Windows","10.0","https://app.prolific.com/","en-US,en;q=0.9","5f2fc4d70200693ce9315c91","683db6dfa200031b80f2a654","6865075bd43333e2bdcb48d6","5f2fc4d70200693ce9315c91","","[{""page_index"":0,""viewing_time"":12486}]","","","","","","","","","","","","","","","","","","","","","","","","","","","","","","","","","","","","","","","","","","",""
"","","","","ctl-task-cpt","23","520966","0.0-8.0-3.0","6","1","2025-07-02 10:18:18","80fe4187154257d5fb01684ea91b68b9","92.19.67.158","Mozilla/5.0 (Windows NT 10.0; Win64; x64) AppleWebKit/537.36 (KHTML, like Gecko) Chrome/137.0.0.0 Safari/537.36","WebKit","Chrome","137.0.0.0","Windows","10.0","https://app.prolific.com/","en-US,en;q=0.9","5f2fc4d70200693ce9315c91","683db6dfa200031b80f2a654","6865075bd43333e2bdcb48d6","5f2fc4d70200693ce9315c91","","","","","","","","","","","","","","","","","win-only","0","g1:NW,g2:SE","0.35","0","3","475947.8","4537.3","8543","44223.2","2","4","8","6","1","2","0","0","0","0","4005.7","4000","1400","[""left"",""up""]","{""num_key_presses"":10,""num_perfect"":3,""num_errors"":2,""num_randdir"":5,""num_randdir_good_moves"":3,""num_whilered"":0,""num_whileblue"":2,""num_blue"":4,""num_good_moves"":7}","[349.4642857142857,349.71428666796004,0.3,349.4642857142857,349.71428666796004,105.3,349.4642857142857,349.71428666796004,205.7,349.4642857142857,349.71428666796004,307.9,349.4642857142857,349.71428666796004,415.7,349.4642857142857,349.71428666796004,524.7,349.4642857142857,349.71428666796004,625,349.4642857142857,349.71428666796004,729.6,349.4642857142857,349.71428666796004,837.1,349.4642857142857,349.71428666796004,938.3,349.4642857142857,349.71428666796004,1040.3,349.4642857142857,349.71428666796004,1140.6,349.4642857142857,349.71428666796004,1244.1,349.4642857142857,349.71428666796004,1353.9,436.9642857142857,329.71428666796004,1454.6,686.9642857142857,270.96428666796004,1557.4,710.7142857142857,262.21428666796004,1659.3,710.7142857142857,262.21428666796004,1768.5,710.7142857142857,262.21428666796004,1871,710.7142857142857,262.21428666796004,1973.5,710.7142857142857,262.21428666796004,2076.9,710.7142857142857,262.21428666796004,2188.6,710.7142857142857,262.21428666796004,2289,710.7142857142857,262.21428666796004,2398.1,710.7142857142857,262.21428666796004,2500,710.7142857142857,262.21428666796004,2605.3,710.7142857142857,262.21428666796004,2706.8,710.7142857142857,262.21428666796004,2807.7,710.7142857142857,262.21428666796004,2910.1,710.7142857142857,262.21428666796004,3011.1,710.7142857142857,262.21428666796004,3113.4,710.7142857142857,262.21428666796004,3213.7,710.7142857142857,262.21428666796004,3314.7,710.7142857142857,262.21428666796004,3422,710.7142857142857,262.21428666796004,3527.9,710.7142857142857,262.21428666796004,3633.7,710.7142857142857,262.21428666796004,3737,710.7142857142857,262.21428666796004,3838.7,710.7142857142857,262.21428666796004,3939]","[1392,1392.1,1000,0,392.1,""oops"",""up"",""right"",""bad_move"",4118.3,2725.7,2398.2,1392.6,327.5,""while_blue"",""left"",""right"",""bad_move"",7617.8,3498.7,2683.9,4119.1,814.8,""smooth"",""left"",""left"",""good_move"",11776.7,4158.5,3645.2,7618.2,513.3,""oops"",""left"",""down"",""bad_move"",14505.1,2728.1,2286.2,11777,442,""smooth"",""left"",""left"",""good_move"",18071.5,3566,3046.5,14505.5,519.5,""while_blue"",""down"",""up"",""good_move"",20707.2,2635.3,2278.3,18071.9,357,""oops"",""up"",""left"",""good_move"",23028.7,2321.1,1926.8,20707.7,394.3,""oops"",""up"",""up"",""good_move"",32499.1,9469.8,2435,29685.9,378.2,""oops"",""up"",""up"",""good_move"",35558.3,3058.8,2640.2,32499.6,418.5,""smooth"",""left"",""left"",""good_move""]","",""
"59440","","","","instructions","24","580407","0.0-8.0-4.0","6","1","2025-07-02 10:18:18","80fe4187154257d5fb01684ea91b68b9","92.19.67.158","Mozilla/5.0 (Windows NT 10.0; Win64; x64) AppleWebKit/537.36 (KHTML, like Gecko) Chrome/137.0.0.0 Safari/537.36","WebKit","Chrome","137.0.0.0","Windows","10.0","https://app.prolific.com/","en-US,en;q=0.9","5f2fc4d70200693ce9315c91","683db6dfa200031b80f2a654","6865075bd43333e2bdcb48d6","5f2fc4d70200693ce9315c91","","[{""page_index"":0,""viewing_time"":16855},{""page_index"":1,""viewing_time"":42585}]","","","","","","","","","","","","","","","","","","","","","","","","","","","","","","","","","","","","","","","","","","",""
"12713","","","{""green_ball"":[""Ball sometimes shakes and moves in a random direction""]}","survey-multi-select","25","593124","0.0-8.0-5.0-0.0","6","1","2025-07-02 10:18:18","80fe4187154257d5fb01684ea91b68b9","92.19.67.158","Mozilla/5.0 (Windows NT 10.0; Win64; x64) AppleWebKit/537.36 (KHTML, like Gecko) Chrome/137.0.0.0 Safari/537.36","WebKit","Chrome","137.0.0.0","Windows","10.0","https://app.prolific.com/","en-US,en;q=0.9","5f2fc4d70200693ce9315c91","683db6dfa200031b80f2a654","6865075bd43333e2bdcb48d6","5f2fc4d70200693ce9315c91","","","[0]","","","","quiz","","","","","","","","","","","","","","","","","","","","","","","","","","","","","","","","","","","","","true",""
"2252","","<p align='center'><b>CORRECT!</b> Indeed, the green ball may sometimes shake and move in a random direction.</p>","0","html-button-response","26","595378","0.0-8.0-5.0-1.0","6","1","2025-07-02 10:18:18","80fe4187154257d5fb01684ea91b68b9","92.19.67.158","Mozilla/5.0 (Windows NT 10.0; Win64; x64) AppleWebKit/537.36 (KHTML, like Gecko) Chrome/137.0.0.0 Safari/537.36","WebKit","Chrome","137.0.0.0","Windows","10.0","https://app.prolific.com/","en-US,en;q=0.9","5f2fc4d70200693ce9315c91","683db6dfa200031b80f2a654","6865075bd43333e2bdcb48d6","5f2fc4d70200693ce9315c91","","","","","","","","","","","","","","","","","","","","","","","","","","","","","","","","","","","","","","","","","","","","",""
"5594","","","{""yellow_ball"":[""Ball doesn‘t move and I get -1 penalty point""]}","survey-multi-select","27","600983","0.0-8.0-6.0-0.0","6","1","2025-07-02 10:18:18","80fe4187154257d5fb01684ea91b68b9","92.19.67.158","Mozilla/5.0 (Windows NT 10.0; Win64; x64) AppleWebKit/537.36 (KHTML, like Gecko) Chrome/137.0.0.0 Safari/537.36","WebKit","Chrome","137.0.0.0","Windows","10.0","https://app.prolific.com/","en-US,en;q=0.9","5f2fc4d70200693ce9315c91","683db6dfa200031b80f2a654","6865075bd43333e2bdcb48d6","5f2fc4d70200693ce9315c91","","","[0]","","","","quiz","","","","","","","","","","","","","","","","","","","","","","","","","","","","","","","","","","","","","true",""
"1259","","<p align='center'><b>CORRECT!</b> Indeed, the yellow ball never moves and you receive a penalty.</p>","0","html-button-response","28","602243","0.0-8.0-6.0-1.0","6","1","2025-07-02 10:18:18","80fe4187154257d5fb01684ea91b68b9","92.19.67.158","Mozilla/5.0 (Windows NT 10.0; Win64; x64) AppleWebKit/537.36 (KHTML, like Gecko) Chrome/137.0.0.0 Safari/537.36","WebKit","Chrome","137.0.0.0","Windows","10.0","https://app.prolific.com/","en-US,en;q=0.9","5f2fc4d70200693ce9315c91","683db6dfa200031b80f2a654","6865075bd43333e2bdcb48d6","5f2fc4d70200693ce9315c91","","","","","","","","","","","","","","","","","","","","","","","","","","","","","","","","","","","","","","","","","","","","",""
"6921","","","{""blue_ball"":[""Ball doesn‘t move and I get -1 penalty point""]}","survey-multi-select","29","609166","0.0-8.0-7.0-0.0","6","1","2025-07-02 10:18:18","80fe4187154257d5fb01684ea91b68b9","92.19.67.158","Mozilla/5.0 (Windows NT 10.0; Win64; x64) AppleWebKit/537.36 (KHTML, like Gecko) Chrome/137.0.0.0 Safari/537.36","WebKit","Chrome","137.0.0.0","Windows","10.0","https://app.prolific.com/","en-US,en;q=0.9","5f2fc4d70200693ce9315c91","683db6dfa200031b80f2a654","6865075bd43333e2bdcb48d6","5f2fc4d70200693ce9315c91","","","[0]","","","","quiz","","","","","","","","","","","","","","","","","","","","","","","","","","","","","","","","","","","","","false",""
"3382","","<p align='center'><b>INCORRECT.</b> The blue ball always shakes and moves randomly.</p>","0","html-button-response","30","612551","0.0-8.0-7.0-1.0","6","1","2025-07-02 10:18:18","80fe4187154257d5fb01684ea91b68b9","92.19.67.158","Mozilla/5.0 (Windows NT 10.0; Win64; x64) AppleWebKit/537.36 (KHTML, like Gecko) Chrome/137.0.0.0 Safari/537.36","WebKit","Chrome","137.0.0.0","Windows","10.0","https://app.prolific.com/","en-US,en;q=0.9","5f2fc4d70200693ce9315c91","683db6dfa200031b80f2a654","6865075bd43333e2bdcb48d6","5f2fc4d70200693ce9315c91","","","","","","","","","","","","","","","","","","","","","","","","","","","","","","","","","","","","","","","","","","","","",""
"5596","","","{""blue_ball"":[""Ball always shakes and moves in a random direction""]}","survey-multi-select","31","618149","0.0-8.0-7.1-0.1","6","1","2025-07-02 10:18:18","80fe4187154257d5fb01684ea91b68b9","92.19.67.158","Mozilla/5.0 (Windows NT 10.0; Win64; x64) AppleWebKit/537.36 (KHTML, like Gecko) Chrome/137.0.0.0 Safari/537.36","WebKit","Chrome","137.0.0.0","Windows","10.0","https://app.prolific.com/","en-US,en;q=0.9","5f2fc4d70200693ce9315c91","683db6dfa200031b80f2a654","6865075bd43333e2bdcb48d6","5f2fc4d70200693ce9315c91","","","[0]","","","","quiz","","","","","","","","","","","","","","","","","","","","","","","","","","","","","","","","","","","","","true",""
"1661","","<p align='center'><b>CORRECT!</b> Indeed, the blue ball always shakes and moves in a random direction. Also there is a penalty of -1 point.</p>","0","html-button-response","32","619812","0.0-8.0-7.1-1.1","6","1","2025-07-02 10:18:18","80fe4187154257d5fb01684ea91b68b9","92.19.67.158","Mozilla/5.0 (Windows NT 10.0; Win64; x64) AppleWebKit/537.36 (KHTML, like Gecko) Chrome/137.0.0.0 Safari/537.36","WebKit","Chrome","137.0.0.0","Windows","10.0","https://app.prolific.com/","en-US,en;q=0.9","5f2fc4d70200693ce9315c91","683db6dfa200031b80f2a654","6865075bd43333e2bdcb48d6","5f2fc4d70200693ce9315c91","","","","","","","","","","","","","","","","","","","","","","","","","","","","","","","","","","","","","","","","","","","","",""
"4452","","","{""bonus"":[""When I reach 50% of points""]}","survey-multi-select","33","624267","0.0-8.0-8.0-0.0","6","1","2025-07-02 10:18:18","80fe4187154257d5fb01684ea91b68b9","92.19.67.158","Mozilla/5.0 (Windows NT 10.0; Win64; x64) AppleWebKit/537.36 (KHTML, like Gecko) Chrome/137.0.0.0 Safari/537.36","WebKit","Chrome","137.0.0.0","Windows","10.0","https://app.prolific.com/","en-US,en;q=0.9","5f2fc4d70200693ce9315c91","683db6dfa200031b80f2a654","6865075bd43333e2bdcb48d6","5f2fc4d70200693ce9315c91","","","[0]","","","","quiz","","","","","","","","","","","","","","","","","","","","","","","","","","","","","","","","","","","","","true",""
"1506","","<p align='center'><b>CORRECT!</b> Indeed, you receive 2 pounds extra when you reach 50% of points.</p>","0","html-button-response","34","625774","0.0-8.0-8.0-1.0","6","1","2025-07-02 10:18:18","80fe4187154257d5fb01684ea91b68b9","92.19.67.158","Mozilla/5.0 (Windows NT 10.0; Win64; x64) AppleWebKit/537.36 (KHTML, like Gecko) Chrome/137.0.0.0 Safari/537.36","WebKit","Chrome","137.0.0.0","Windows","10.0","https://app.prolific.com/","en-US,en;q=0.9","5f2fc4d70200693ce9315c91","683db6dfa200031b80f2a654","6865075bd43333e2bdcb48d6","5f2fc4d70200693ce9315c91","","","","","","","","","","","","","","","","","","","","","","","","","","","","","","","","","","","","","","","","","","","","",""
"17791","","","","instructions","35","643566","0.0-8.0-9.0","6","1","2025-07-02 10:18:18","80fe4187154257d5fb01684ea91b68b9","92.19.67.158","Mozilla/5.0 (Windows NT 10.0; Win64; x64) AppleWebKit/537.36 (KHTML, like Gecko) Chrome/137.0.0.0 Safari/537.36","WebKit","Chrome","137.0.0.0","Windows","10.0","https://app.prolific.com/","en-US,en;q=0.9","5f2fc4d70200693ce9315c91","683db6dfa200031b80f2a654","6865075bd43333e2bdcb48d6","5f2fc4d70200693ce9315c91","","[{""page_index"":0,""viewing_time"":17790}]","","","","","","","","","","","","","","","","","","","","","","","","","","","","","","","","","","","","","","","","","","",""
"7760","","<p>Before you start with this game please answer the following three questions yourself. </p>
  <p>Through this game, we measure several aspects of your cognitive performance, such as reaction times, multi-tasking capabilities </p>
  <p>and the ability to assess the situation you are in.</p>
  <p></p>
  <p><b>How good do you usually are in such tasks?</b></p>","61","html-slider-response","36","651336","0.0-9.0-0.0","6","1","2025-07-02 10:18:18","80fe4187154257d5fb01684ea91b68b9","92.19.67.158","Mozilla/5.0 (Windows NT 10.0; Win64; x64) AppleWebKit/537.36 (KHTML, like Gecko) Chrome/137.0.0.0 Safari/537.36","WebKit","Chrome","137.0.0.0","Windows","10.0","https://app.prolific.com/","en-US,en;q=0.9","5f2fc4d70200693ce9315c91","683db6dfa200031b80f2a654","6865075bd43333e2bdcb48d6","5f2fc4d70200693ce9315c91","2025-07-02T10:29:09.950Z","","","","","","PreSkillQ","","","","","","","","","","","","","","","","","","","","","","","","","","","","","","","","","","","","","","50"
"3955","","<div style=""width:500px;"">
  <p>How well do you think you will perform in this task compared to other participants?</p>
  </div>","53","html-slider-response","37","655293","0.0-9.0-1.0","6","1","2025-07-02 10:18:18","80fe4187154257d5fb01684ea91b68b9","92.19.67.158","Mozilla/5.0 (Windows NT 10.0; Win64; x64) AppleWebKit/537.36 (KHTML, like Gecko) Chrome/137.0.0.0 Safari/537.36","WebKit","Chrome","137.0.0.0","Windows","10.0","https://app.prolific.com/","en-US,en;q=0.9","5f2fc4d70200693ce9315c91","683db6dfa200031b80f2a654","6865075bd43333e2bdcb48d6","5f2fc4d70200693ce9315c91","2025-07-02T10:29:13.907Z","","","","","","PrePerfQ","","","","","","","","","","","","","","","","","","","","","","","","","","","","","","","","","","","","","","50"
"5009","","<div style=""width:500px;"">
  <p>What best describes how you currently feel?</p>
  </div>","51","html-slider-response","38","660303","0.0-9.0-2.0","6","1","2025-07-02 10:18:18","80fe4187154257d5fb01684ea91b68b9","92.19.67.158","Mozilla/5.0 (Windows NT 10.0; Win64; x64) AppleWebKit/537.36 (KHTML, like Gecko) Chrome/137.0.0.0 Safari/537.36","WebKit","Chrome","137.0.0.0","Windows","10.0","https://app.prolific.com/","en-US,en;q=0.9","5f2fc4d70200693ce9315c91","683db6dfa200031b80f2a654","6865075bd43333e2bdcb48d6","5f2fc4d70200693ce9315c91","2025-07-02T10:29:18.917Z","","","","","","PreMotivationQ","","","","","","","","","","","","","","","","","","","","","","","","","","","","","","","","","","","","","","50"
"","","","","ctl-task-cpt","39","681595","0.0-10.0-0.0","6","1","2025-07-02 10:18:18","80fe4187154257d5fb01684ea91b68b9","92.19.67.158","Mozilla/5.0 (Windows NT 10.0; Win64; x64) AppleWebKit/537.36 (KHTML, like Gecko) Chrome/137.0.0.0 Safari/537.36","WebKit","Chrome","137.0.0.0","Windows","10.0","https://app.prolific.com/","en-US,en;q=0.9","5f2fc4d70200693ce9315c91","683db6dfa200031b80f2a654","6865075bd43333e2bdcb48d6","5f2fc4d70200693ce9315c91","2025-07-02T10:29:40.209Z","","","","","","","","","","","","","","","","win-only","2","g1:SE,g2:NW","1","1","0","662521.3","2372.7","7379.6","18284.4","1","4","4","6","1","1","1","1","0","0.007575757575757576","1734.2","3000","1795","[""down"",""right""]","{""num_key_presses"":4,""num_perfect"":4,""num_errors"":0,""num_randdir"":0,""num_randdir_good_moves"":0,""num_whilered"":0,""num_whileblue"":0,""num_blue"":0,""num_good_moves"":4}","[351.9642857142857,353.46428666796004,0.4,351.9642857142857,353.46428666796004,106.8,351.9642857142857,353.46428666796004,207.2,351.9642857142857,353.46428666796004,307.5,351.9642857142857,353.46428666796004,412.3,351.9642857142857,353.46428666796004,512.8,351.9642857142857,353.46428666796004,614,351.9642857142857,353.46428666796004,720.9,351.9642857142857,353.46428666796004,830.4,351.9642857142857,353.46428666796004,938.3,551.9642857142857,552.21428666796,1046.8,591.9642857142857,622.21428666796,1148,599.4642857142857,629.71428666796,1254.5,599.4642857142857,629.71428666796,1363.5,599.4642857142857,629.71428666796,1471.3,643.2142857142857,638.46428666796,1579.3,643.2142857142857,638.46428666796,1684.4,643.2142857142857,638.46428666796,1792.9,643.2142857142857,638.46428666796,1897.8,643.2142857142857,638.46428666796,2004.1,643.2142857142857,638.46428666796,2107.5,643.2142857142857,638.46428666796,2209.2,1061.9642857142858,453.46428666796004,2313.3,1061.9642857142858,453.46428666796004,2423.9,1061.9642857142858,453.46428666796004,2525.2,1061.9642857142858,453.46428666796004,2625.3,1061.9642857142858,453.46428666796004,2728.9,1061.9642857142858,453.46428666796004,2830.8,1061.9642857142858,453.46428666796004,2933.6,1061.9642857142858,453.46428666796004,3033.7,1061.9642857142858,453.46428666796004,3142.7,1061.9642857142858,453.46428666796004,3242.8,1061.9642857142858,453.46428666796004,3343.7,1061.9642857142858,453.46428666796004,3445,1061.9642857142858,453.46428666796004,3549,1061.9642857142858,453.46428666796004,3658.2,1061.9642857142858,453.46428666796004,3759,1061.9642857142858,453.46428666796004,3862,1061.9642857142858,453.46428666796004,3964.6,1061.9642857142858,453.46428666796004,4071.8,1061.9642857142858,453.46428666796004,4173.1,1061.9642857142858,453.46428666796004,4274.9,1061.9642857142858,453.46428666796004,4375.2,1061.9642857142858,453.46428666796004,4478.7,1061.9642857142858,453.46428666796004,4587.2,1061.9642857142858,453.46428666796004,4691.5,1061.9642857142858,453.46428666796004,4796.9,1061.9642857142858,453.46428666796004,4897.4,1061.9642857142858,453.46428666796004,4997.6]","[1515.5,1515.5,1000,0,515.5,""smooth"",""down"",""down"",""good_move"",4277.7,2760.9,2411.3,1516.8,349.6,""smooth"",""down"",""down"",""good_move"",7278.8,3000.6,2593.6,4278.2,407,""smooth"",""right"",""right"",""good_move"",10787.2,3507.9,3133.5,7279.3,374.4,""smooth"",""right"",""right"",""good_move""]","",""
"51526","","<div style=""width:500px;"">
  <p>What determined the result of this run?</p>
  </div>","100","html-slider-response","40","733123","0.0-10.0-1.0","6","1","2025-07-02 10:18:18","80fe4187154257d5fb01684ea91b68b9","92.19.67.158","Mozilla/5.0 (Windows NT 10.0; Win64; x64) AppleWebKit/537.36 (KHTML, like Gecko) Chrome/137.0.0.0 Safari/537.36","WebKit","Chrome","137.0.0.0","Windows","10.0","https://app.prolific.com/","en-US,en;q=0.9","5f2fc4d70200693ce9315c91","683db6dfa200031b80f2a654","6865075bd43333e2bdcb48d6","5f2fc4d70200693ce9315c91","2025-07-02T10:30:31.737Z","","","","","","AttribQ","","","","","","","","","","","","","","","","","","","","","","","","","","","","","","","","","","","","","","50"
"23755","","<div style=""width:500px;"">
  <p>How much control did you have over the ball?</p>
  </div>","100","html-slider-response","41","756881","0.0-10.0-2.0","6","1","2025-07-02 10:18:18","80fe4187154257d5fb01684ea91b68b9","92.19.67.158","Mozilla/5.0 (Windows NT 10.0; Win64; x64) AppleWebKit/537.36 (KHTML, like Gecko) Chrome/137.0.0.0 Safari/537.36","WebKit","Chrome","137.0.0.0","Windows","10.0","https://app.prolific.com/","en-US,en;q=0.9","5f2fc4d70200693ce9315c91","683db6dfa200031b80f2a654","6865075bd43333e2bdcb48d6","5f2fc4d70200693ce9315c91","2025-07-02T10:30:55.495Z","","","","","","ControlQ","","","","","","","","","","","","","","","","","","","","","","","","","","","","","","","","","","","","","","50"
"12365","","<div style=""width:500px;"">
  <p>How would you describe your current emotional state?</p>
  </div>","62","html-slider-response","42","769253","0.0-10.0-3.0","6","1","2025-07-02 10:18:18","80fe4187154257d5fb01684ea91b68b9","92.19.67.158","Mozilla/5.0 (Windows NT 10.0; Win64; x64) AppleWebKit/537.36 (KHTML, like Gecko) Chrome/137.0.0.0 Safari/537.36","WebKit","Chrome","137.0.0.0","Windows","10.0","https://app.prolific.com/","en-US,en;q=0.9","5f2fc4d70200693ce9315c91","683db6dfa200031b80f2a654","6865075bd43333e2bdcb48d6","5f2fc4d70200693ce9315c91","2025-07-02T10:31:07.867Z","","","","","","StressQ","","","","","","","","","","","","","","","","","","","","","","","","","","","","","","","","","","","","","","50"
"4442","","<div style=""width:500px;"">
  <p>What best describes how you currently feel?</p>
  </div>","66","html-slider-response","43","773698","0.0-10.0-4.0","6","1","2025-07-02 10:18:18","80fe4187154257d5fb01684ea91b68b9","92.19.67.158","Mozilla/5.0 (Windows NT 10.0; Win64; x64) AppleWebKit/537.36 (KHTML, like Gecko) Chrome/137.0.0.0 Safari/537.36","WebKit","Chrome","137.0.0.0","Windows","10.0","https://app.prolific.com/","en-US,en;q=0.9","5f2fc4d70200693ce9315c91","683db6dfa200031b80f2a654","6865075bd43333e2bdcb48d6","5f2fc4d70200693ce9315c91","2025-07-02T10:31:12.312Z","","","","","","MotivationQ","","","","","","","","","","","","","","","","","","","","","","","","","","","","","","","","","","","","","","50"
"","","","","ctl-task-cpt","44","794337","0.0-10.0-0.1","6","1","2025-07-02 10:18:18","80fe4187154257d5fb01684ea91b68b9","92.19.67.158","Mozilla/5.0 (Windows NT 10.0; Win64; x64) AppleWebKit/537.36 (KHTML, like Gecko) Chrome/137.0.0.0 Safari/537.36","WebKit","Chrome","137.0.0.0","Windows","10.0","https://app.prolific.com/","en-US,en;q=0.9","5f2fc4d70200693ce9315c91","683db6dfa200031b80f2a654","6865075bd43333e2bdcb48d6","5f2fc4d70200693ce9315c91","2025-07-02T10:31:32.951Z","","","","","","","","","","","","","","","","win-only","2","g1:SE,g2:NW","0.9","2","0","775916.7","1907.1","6907.8","17629.2","1","4","8","6","1","1","1","2","1","0.015151515151515152","2988","3000","1840","[""down"",""right""]","{""num_key_presses"":4,""num_perfect"":4,""num_errors"":0,""num_randdir"":0,""num_randdir_good_moves"":0,""num_whilered"":0,""num_whileblue"":0,""num_blue"":0,""num_good_moves"":4}","[351.9642857142857,352.21428666796004,0.3,351.9642857142857,352.21428666796004,101,351.9642857142857,352.21428666796004,201.9,351.9642857142857,352.21428666796004,306,351.9642857142857,352.21428666796004,415.6,351.9642857142857,352.21428666796004,517.4,351.9642857142857,352.21428666796004,624.1,351.9642857142857,352.21428666796004,731,489.4642857142857,419.71428666796004,831.1,650.7142857142857,613.46428666796,935.1,656.9642857142857,623.46428666796,1041,658.2142857142857,627.21428666796,1142.3,658.2142857142857,627.21428666796,1244.5,654.4642857142857,629.71428666796,1352.3,651.9642857142857,630.96428666796,1455.2,651.9642857142857,632.21428666796,1557.4,651.9642857142857,632.21428666796,1665.7,651.9642857142857,632.21428666796,1771.8,651.9642857142857,632.21428666796,1878.2,651.9642857142857,632.21428666796,1981.6,651.9642857142857,632.21428666796,2084.6,651.9642857142857,632.21428666796,2190.8,651.9642857142857,632.21428666796,2290.8,651.9642857142857,632.21428666796,2398.5,651.9642857142857,632.21428666796,2501.6,651.9642857142857,632.21428666796,2601.6,651.9642857142857,632.21428666796,2707.7,651.9642857142857,632.21428666796,2809.5,651.9642857142857,632.21428666796,2915.9,651.9642857142857,632.21428666796,3023.4,651.9642857142857,632.21428666796,3124.8,651.9642857142857,632.21428666796,3229.6,651.9642857142857,632.21428666796,3331.8,651.9642857142857,632.21428666796,3431.8,673.2142857142857,617.21428666796,3532,881.9642857142857,430.96428666796004,3635.3,881.9642857142857,430.96428666796004,3741.7,881.9642857142857,430.96428666796004,3846.2,881.9642857142857,430.96428666796004,3952.5,881.9642857142857,430.96428666796004,4056.7,881.9642857142857,430.96428666796004,4160.3,881.9642857142857,430.96428666796004,4261.7,881.9642857142857,430.96428666796004,4370.6,881.9642857142857,430.96428666796004,4470.6,881.9642857142857,430.96428666796004,4573.5,881.9642857142857,430.96428666796004,4684,881.9642857142857,430.96428666796004,4791.1,881.9642857142857,430.96428666796004,4898.5]","[1449.3,1449.3,1000,0,449.3,""smooth"",""down"",""down"",""good_move"",4143.2,2692.9,2333.7,1450.3,359.2,""smooth"",""down"",""down"",""good_move"",7356.3,3212.7,2742.6,4143.6,470.1,""smooth"",""right"",""right"",""good_move"",10586.5,3229.7,2854.4,7356.9,375.3,""smooth"",""right"",""right"",""good_move""]","",""
"3880","","<div style=""width:500px;"">
  <p>What determined the result of this run?</p>
  </div>","100","html-slider-response","45","798219","0.0-10.0-1.1","6","1","2025-07-02 10:18:18","80fe4187154257d5fb01684ea91b68b9","92.19.67.158","Mozilla/5.0 (Windows NT 10.0; Win64; x64) AppleWebKit/537.36 (KHTML, like Gecko) Chrome/137.0.0.0 Safari/537.36","WebKit","Chrome","137.0.0.0","Windows","10.0","https://app.prolific.com/","en-US,en;q=0.9","5f2fc4d70200693ce9315c91","683db6dfa200031b80f2a654","6865075bd43333e2bdcb48d6","5f2fc4d70200693ce9315c91","2025-07-02T10:31:36.833Z","","","","","","AttribQ","","","","","","","","","","","","","","","","","","","","","","","","","","","","","","","","","","","","","","50"
"2922","","<div style=""width:500px;"">
  <p>How much control did you have over the ball?</p>
  </div>","100","html-slider-response","46","801142","0.0-10.0-2.1","6","1","2025-07-02 10:18:18","80fe4187154257d5fb01684ea91b68b9","92.19.67.158","Mozilla/5.0 (Windows NT 10.0; Win64; x64) AppleWebKit/537.36 (KHTML, like Gecko) Chrome/137.0.0.0 Safari/537.36","WebKit","Chrome","137.0.0.0","Windows","10.0","https://app.prolific.com/","en-US,en;q=0.9","5f2fc4d70200693ce9315c91","683db6dfa200031b80f2a654","6865075bd43333e2bdcb48d6","5f2fc4d70200693ce9315c91","2025-07-02T10:31:39.756Z","","","","","","ControlQ","","","","","","","","","","","","","","","","","","","","","","","","","","","","","","","","","","","","","","50"
"3883","","<div style=""width:500px;"">
  <p>How would you describe your current emotional state?</p>
  </div>","40","html-slider-response","47","805026","0.0-10.0-3.1","6","1","2025-07-02 10:18:18","80fe4187154257d5fb01684ea91b68b9","92.19.67.158","Mozilla/5.0 (Windows NT 10.0; Win64; x64) AppleWebKit/537.36 (KHTML, like Gecko) Chrome/137.0.0.0 Safari/537.36","WebKit","Chrome","137.0.0.0","Windows","10.0","https://app.prolific.com/","en-US,en;q=0.9","5f2fc4d70200693ce9315c91","683db6dfa200031b80f2a654","6865075bd43333e2bdcb48d6","5f2fc4d70200693ce9315c91","2025-07-02T10:31:43.640Z","","","","","","StressQ","","","","","","","","","","","","","","","","","","","","","","","","","","","","","","","","","","","","","","50"
"3072","","<div style=""width:500px;"">
  <p>What best describes how you currently feel?</p>
  </div>","65","html-slider-response","48","808099","0.0-10.0-4.1","6","1","2025-07-02 10:18:18","80fe4187154257d5fb01684ea91b68b9","92.19.67.158","Mozilla/5.0 (Windows NT 10.0; Win64; x64) AppleWebKit/537.36 (KHTML, like Gecko) Chrome/137.0.0.0 Safari/537.36","WebKit","Chrome","137.0.0.0","Windows","10.0","https://app.prolific.com/","en-US,en;q=0.9","5f2fc4d70200693ce9315c91","683db6dfa200031b80f2a654","6865075bd43333e2bdcb48d6","5f2fc4d70200693ce9315c91","2025-07-02T10:31:46.713Z","","","","","","MotivationQ","","","","","","","","","","","","","","","","","","","","","","","","","","","","","","","","","","","","","","50"
"","","","","ctl-task-cpt","49","841799","0.0-10.0-0.2","6","1","2025-07-02 10:18:18","80fe4187154257d5fb01684ea91b68b9","92.19.67.158","Mozilla/5.0 (Windows NT 10.0; Win64; x64) AppleWebKit/537.36 (KHTML, like Gecko) Chrome/137.0.0.0 Safari/537.36","WebKit","Chrome","137.0.0.0","Windows","10.0","https://app.prolific.com/","en-US,en;q=0.9","5f2fc4d70200693ce9315c91","683db6dfa200031b80f2a654","6865075bd43333e2bdcb48d6","5f2fc4d70200693ce9315c91","2025-07-02T10:32:20.413Z","","","","","","","","","","","","","","","","win-only","2","g1:SE,g2:NW","0.8","3","0","810317.9","1501.1","6505.3","30682.1","1","4","8","6","2","8","8","10","2","0.07575757575757576","1686.9","3000","1450","[""left"",""up""]","{""num_key_presses"":6,""num_perfect"":5,""num_errors"":0,""num_randdir"":1,""num_randdir_good_moves"":1,""num_whilered"":0,""num_whileblue"":0,""num_blue"":2,""num_good_moves"":6}","[353.2142857142857,354.71428666796004,0.3,353.2142857142857,354.71428666796004,106.2,353.2142857142857,354.71428666796004,212.8,353.2142857142857,354.71428666796004,320.5,353.2142857142857,354.71428666796004,421.1,353.2142857142857,354.71428666796004,524.9,353.2142857142857,354.71428666796004,628.6,353.2142857142857,354.71428666796004,733.1,353.2142857142857,354.71428666796004,833.4,353.2142857142857,354.71428666796004,934.7,143.21428571428572,192.21428666796004,1041,51.964285714285715,98.46428666796004,1141.9,28.214285714285715,77.21428666796004,1246.4,23.214285714285715,68.46428666796004,1354.7,50.714285714285715,70.96428666796004,1475.2,55.714285714285715,70.96428666796004,1583.2,55.714285714285715,70.96428666796004,1691.5,55.714285714285715,70.96428666796004,1794.2,55.714285714285715,70.96428666796004,1901.8,55.714285714285715,70.96428666796004,2025.7,55.714285714285715,70.96428666796004,2129.3,55.714285714285715,70.96428666796004,2234.2,708.2142857142857,274.71428666796004,2340.7,801.9642857142857,342.21428666796004,2445.4,801.9642857142857,342.21428666796004,2546.4,801.9642857142857,342.21428666796004,2650.9,801.9642857142857,342.21428666796004,2751.8,801.9642857142857,342.21428666796004,2862.8,801.9642857142857,342.21428666796004,2973.4,801.9642857142857,342.21428666796004,3077,801.9642857142857,342.21428666796004,3188.8,801.9642857142857,342.21428666796004,3289.5,801.9642857142857,342.21428666796004,3390.3,801.9642857142857,342.21428666796004,3502.2,801.9642857142857,342.21428666796004,3606.2,801.9642857142857,342.21428666796004,3708.4,801.9642857142857,342.21428666796004,3820.1,801.9642857142857,342.21428666796004,3922.8,801.9642857142857,342.21428666796004,4025.9,801.9642857142857,342.21428666796004,4137.1,801.9642857142857,342.21428666796004,4239.9,801.9642857142857,342.21428666796004,4341,801.9642857142857,342.21428666796004,4454,801.9642857142857,342.21428666796004,4558,801.9642857142857,342.21428666796004,4658,801.9642857142857,342.21428666796004,4759.1,801.9642857142857,342.21428666796004,4860.3,801.9642857142857,342.21428666796004,4960.8]","[1372.7,1372.7,1000,0,372.7,""smooth"",""up"",""up"",""good_move"",4459.6,3085.4,2736.9,1374.2,348.5,""oops"",""up"",""up"",""good_move"",7174.6,2714.3,2181.4,4460.3,532.9,""smooth"",""up"",""up"",""good_move"",9725,2549.2,2162,7175.8,387.2,""smooth"",""left"",""left"",""good_move"",12373.3,2647.8,2191.3,9725.5,456.5,""smooth"",""left"",""left"",""good_move"",24011.9,11637.6,3435.1,20158.4,418.4,""smooth"",""left"",""left"",""good_move""]","",""
"6951","","<div style=""width:500px;"">
  <p>What determined the result of this run?</p>
  </div>","100","html-slider-response","50","848753","0.0-10.0-1.2","6","1","2025-07-02 10:18:18","80fe4187154257d5fb01684ea91b68b9","92.19.67.158","Mozilla/5.0 (Windows NT 10.0; Win64; x64) AppleWebKit/537.36 (KHTML, like Gecko) Chrome/137.0.0.0 Safari/537.36","WebKit","Chrome","137.0.0.0","Windows","10.0","https://app.prolific.com/","en-US,en;q=0.9","5f2fc4d70200693ce9315c91","683db6dfa200031b80f2a654","6865075bd43333e2bdcb48d6","5f2fc4d70200693ce9315c91","2025-07-02T10:32:27.367Z","","","","","","AttribQ","","","","","","","","","","","","","","","","","","","","","","","","","","","","","","","","","","","","","","50"
"5312","","<div style=""width:500px;"">
  <p>How much control did you have over the ball?</p>
  </div>","100","html-slider-response","51","854066","0.0-10.0-2.2","6","1","2025-07-02 10:18:18","80fe4187154257d5fb01684ea91b68b9","92.19.67.158","Mozilla/5.0 (Windows NT 10.0; Win64; x64) AppleWebKit/537.36 (KHTML, like Gecko) Chrome/137.0.0.0 Safari/537.36","WebKit","Chrome","137.0.0.0","Windows","10.0","https://app.prolific.com/","en-US,en;q=0.9","5f2fc4d70200693ce9315c91","683db6dfa200031b80f2a654","6865075bd43333e2bdcb48d6","5f2fc4d70200693ce9315c91","2025-07-02T10:32:32.680Z","","","","","","ControlQ","","","","","","","","","","","","","","","","","","","","","","","","","","","","","","","","","","","","","","50"
"3271","","<div style=""width:500px;"">
  <p>How would you describe your current emotional state?</p>
  </div>","57","html-slider-response","52","857339","0.0-10.0-3.2","6","1","2025-07-02 10:18:18","80fe4187154257d5fb01684ea91b68b9","92.19.67.158","Mozilla/5.0 (Windows NT 10.0; Win64; x64) AppleWebKit/537.36 (KHTML, like Gecko) Chrome/137.0.0.0 Safari/537.36","WebKit","Chrome","137.0.0.0","Windows","10.0","https://app.prolific.com/","en-US,en;q=0.9","5f2fc4d70200693ce9315c91","683db6dfa200031b80f2a654","6865075bd43333e2bdcb48d6","5f2fc4d70200693ce9315c91","2025-07-02T10:32:35.953Z","","","","","","StressQ","","","","","","","","","","","","","","","","","","","","","","","","","","","","","","","","","","","","","","50"
"117722","","<div style=""width:500px;"">
  <p>What best describes how you currently feel?</p>
  </div>","72","html-slider-response","53","975063","0.0-10.0-4.2","6","1","2025-07-02 10:18:18","80fe4187154257d5fb01684ea91b68b9","92.19.67.158","Mozilla/5.0 (Windows NT 10.0; Win64; x64) AppleWebKit/537.36 (KHTML, like Gecko) Chrome/137.0.0.0 Safari/537.36","WebKit","Chrome","137.0.0.0","Windows","10.0","https://app.prolific.com/","en-US,en;q=0.9","5f2fc4d70200693ce9315c91","683db6dfa200031b80f2a654","6865075bd43333e2bdcb48d6","5f2fc4d70200693ce9315c91","2025-07-02T10:34:33.677Z","","","","","","MotivationQ","","","","","","","","","","","","","","","","","","","","","","","","","","","","","","","","","","","","","","50"
"","","","","ctl-task-cpt","54","1030736","0.0-10.0-0.3","6","1","2025-07-02 10:18:18","80fe4187154257d5fb01684ea91b68b9","92.19.67.158","Mozilla/5.0 (Windows NT 10.0; Win64; x64) AppleWebKit/537.36 (KHTML, like Gecko) Chrome/137.0.0.0 Safari/537.36","WebKit","Chrome","137.0.0.0","Windows","10.0","https://app.prolific.com/","en-US,en;q=0.9","5f2fc4d70200693ce9315c91","683db6dfa200031b80f2a654","6865075bd43333e2bdcb48d6","5f2fc4d70200693ce9315c91","2025-07-02T10:35:29.350Z","","","","","","","","","","","","","","","","win-only","1","g1:NE,g2:SW","0.7","4","0","977279.8","22487.6","27490.7","52645.8","1","4","4","6","2","4","4","14","10","0.10606060606060606","1837.9","3000","800","[""down"",""left""]","{""num_key_presses"":6,""num_perfect"":4,""num_errors"":0,""num_randdir"":2,""num_randdir_good_moves"":2,""num_whilered"":0,""num_whileblue"":0,""num_blue"":3,""num_good_moves"":6}","[349.4642857142857,353.46428666796004,0.6,349.4642857142857,353.46428666796004,106.8,349.4642857142857,353.46428666796004,208.3,349.4642857142857,353.46428666796004,308.9,349.4642857142857,353.46428666796004,412.8,349.4642857142857,353.46428666796004,522.1,349.4642857142857,353.46428666796004,623.6,351.9642857142857,352.21428666796004,723.8,420.7142857142857,292.21428666796004,828.7,431.9642857142857,285.96428666796004,939.5,431.9642857142857,285.96428666796004,1043.1,431.9642857142857,285.96428666796004,1143.6,226.96428571428572,482.21428666796004,1244.6,118.21428571428572,612.21428666796,1347.9,106.96428571428572,648.46428666796,1448.2,88.21428571428572,675.96428666796,1550.4,61.964285714285715,669.71428666796,1653.7,61.964285714285715,668.46428666796,1755.3,61.964285714285715,668.46428666796,1856.1,61.964285714285715,668.46428666796,1958.4,61.964285714285715,668.46428666796,2058.7,61.964285714285715,668.46428666796,2158.7,61.964285714285715,668.46428666796,2270.9,61.964285714285715,668.46428666796,2372.2,61.964285714285715,668.46428666796,2473.1,61.964285714285715,668.46428666796,2573.3,883.2142857142857,410.96428666796004,2673.4,923.2142857142857,389.71428666796004,2774.5,923.2142857142857,388.46428666796004,2878.4,923.2142857142857,388.46428666796004,2986.8,923.2142857142857,388.46428666796004,3087.1,923.2142857142857,388.46428666796004,3187.1,923.2142857142857,388.46428666796004,3287.4,923.2142857142857,388.46428666796004,3387.4,923.2142857142857,388.46428666796004,3487.6,923.2142857142857,388.46428666796004,3587.7,923.2142857142857,388.46428666796004,3687.8,923.2142857142857,388.46428666796004,3788.6,923.2142857142857,388.46428666796004,3893,923.2142857142857,388.46428666796004,3993.4,923.2142857142857,388.46428666796004,4094.1,923.2142857142857,388.46428666796004,4202.9,923.2142857142857,388.46428666796004,4304.4,923.2142857142857,388.46428666796004,4408.1,923.2142857142857,388.46428666796004,4508.5,923.2142857142857,388.46428666796004,4608.6,923.2142857142857,388.46428666796004,4708.7,923.2142857142857,388.46428666796004,4808.8,923.2142857142857,388.46428666796004,4921.5]","[4933.6,4933.6,2604.5,2005.1,324,""smooth"",""down"",""down"",""good_move"",7732.8,2798.7,2268.6,4934.1,530.1,""smooth"",""down"",""down"",""good_move"",17300.4,9567.4,2789.2,14100.5,410.7,""oops"",""left"",""down"",""good_move"",19798.4,2497.9,1908.3,17300.5,589.6,""smooth"",""left"",""left"",""good_move"",22362,2562.3,2116.7,19799.7,445.6,""smooth"",""left"",""left"",""good_move"",25023,2660.9,2100.9,22362.1,560,""oops"",""left"",""left"",""good_move""]","",""
"12794","","<div style=""width:500px;"">
  <p>What determined the result of this run?</p>
  </div>","100","html-slider-response","55","1043531","0.0-10.0-1.3","6","1","2025-07-02 10:18:18","80fe4187154257d5fb01684ea91b68b9","92.19.67.158","Mozilla/5.0 (Windows NT 10.0; Win64; x64) AppleWebKit/537.36 (KHTML, like Gecko) Chrome/137.0.0.0 Safari/537.36","WebKit","Chrome","137.0.0.0","Windows","10.0","https://app.prolific.com/","en-US,en;q=0.9","5f2fc4d70200693ce9315c91","683db6dfa200031b80f2a654","6865075bd43333e2bdcb48d6","5f2fc4d70200693ce9315c91","2025-07-02T10:35:42.145Z","","","","","","AttribQ","","","","","","","","","","","","","","","","","","","","","","","","","","","","","","","","","","","","","","50"
"3852","","<div style=""width:500px;"">
  <p>How much control did you have over the ball?</p>
  </div>","100","html-slider-response","56","1047387","0.0-10.0-2.3","6","1","2025-07-02 10:18:18","80fe4187154257d5fb01684ea91b68b9","92.19.67.158","Mozilla/5.0 (Windows NT 10.0; Win64; x64) AppleWebKit/537.36 (KHTML, like Gecko) Chrome/137.0.0.0 Safari/537.36","WebKit","Chrome","137.0.0.0","Windows","10.0","https://app.prolific.com/","en-US,en;q=0.9","5f2fc4d70200693ce9315c91","683db6dfa200031b80f2a654","6865075bd43333e2bdcb48d6","5f2fc4d70200693ce9315c91","2025-07-02T10:35:46.002Z","","","","","","ControlQ","","","","","","","","","","","","","","","","","","","","","","","","","","","","","","","","","","","","","","50"
"5085","","<div style=""width:500px;"">
  <p>How would you describe your current emotional state?</p>
  </div>","54","html-slider-response","57","1052483","0.0-10.0-3.3","6","1","2025-07-02 10:18:18","80fe4187154257d5fb01684ea91b68b9","92.19.67.158","Mozilla/5.0 (Windows NT 10.0; Win64; x64) AppleWebKit/537.36 (KHTML, like Gecko) Chrome/137.0.0.0 Safari/537.36","WebKit","Chrome","137.0.0.0","Windows","10.0","https://app.prolific.com/","en-US,en;q=0.9","5f2fc4d70200693ce9315c91","683db6dfa200031b80f2a654","6865075bd43333e2bdcb48d6","5f2fc4d70200693ce9315c91","2025-07-02T10:35:51.098Z","","","","","","StressQ","","","","","","","","","","","","","","","","","","","","","","","","","","","","","","","","","","","","","","50"
"4943","","<div style=""width:500px;"">
  <p>What best describes how you currently feel?</p>
  </div>","71","html-slider-response","58","1057435","0.0-10.0-4.3","6","1","2025-07-02 10:18:18","80fe4187154257d5fb01684ea91b68b9","92.19.67.158","Mozilla/5.0 (Windows NT 10.0; Win64; x64) AppleWebKit/537.36 (KHTML, like Gecko) Chrome/137.0.0.0 Safari/537.36","WebKit","Chrome","137.0.0.0","Windows","10.0","https://app.prolific.com/","en-US,en;q=0.9","5f2fc4d70200693ce9315c91","683db6dfa200031b80f2a654","6865075bd43333e2bdcb48d6","5f2fc4d70200693ce9315c91","2025-07-02T10:35:56.050Z","","","","","","MotivationQ","","","","","","","","","","","","","","","","","","","","","","","","","","","","","","","","","","","","","","50"
"","","","","ctl-task-cpt","59","1101612","0.0-10.0-0.4","6","1","2025-07-02 10:18:18","80fe4187154257d5fb01684ea91b68b9","92.19.67.158","Mozilla/5.0 (Windows NT 10.0; Win64; x64) AppleWebKit/537.36 (KHTML, like Gecko) Chrome/137.0.0.0 Safari/537.36","WebKit","Chrome","137.0.0.0","Windows","10.0","https://app.prolific.com/","en-US,en;q=0.9","5f2fc4d70200693ce9315c91","683db6dfa200031b80f2a654","6865075bd43333e2bdcb48d6","5f2fc4d70200693ce9315c91","2025-07-02T10:36:40.226Z","","","","","","","","","","","","","","","","win-only","1","g1:NE,g2:SW","0.6","5","0","1059660.3","3257.4","8260.5","41151","1","4","8","6","2","-8","-8","6","14","0.045454545454545456","1402.2","3000","-2255","[""down"",""left""]","{""num_key_presses"":9,""num_perfect"":5,""num_errors"":0,""num_randdir"":4,""num_randdir_good_moves"":1,""num_whilered"":0,""num_whileblue"":0,""num_blue"":2,""num_good_moves"":6}","[354.4642857142857,355.96428666796004,0.4,354.4642857142857,355.96428666796004,103.2,354.4642857142857,355.96428666796004,204.1,354.4642857142857,355.96428666796004,308.7,354.4642857142857,355.96428666796004,415,354.4642857142857,355.96428666796004,519.1,354.4642857142857,355.96428666796004,633.7,354.4642857142857,355.96428666796004,738.4,154.46428571428572,583.46428666796,846.7,121.96428571428572,629.71428666796,948.6,106.96428571428572,645.96428666796,1066.1,78.21428571428572,652.21428666796,1168.1,70.71428571428572,652.21428666796,1269.1,70.71428571428572,652.21428666796,1373.2,70.71428571428572,652.21428666796,1483.6,70.71428571428572,652.21428666796,1588.6,70.71428571428572,652.21428666796,1689.3,70.71428571428572,652.21428666796,1796.5,70.71428571428572,652.21428666796,1899.5,431.9642857142857,529.71428666796,2003.4,811.9642857142857,422.21428666796004,2111.2,815.7142857142857,420.96428666796004,2214.7,815.7142857142857,420.96428666796004,2318,815.7142857142857,420.96428666796004,2418.4,815.7142857142857,420.96428666796004,2519.5,815.7142857142857,420.96428666796004,2633.7,815.7142857142857,420.96428666796004,2738.2,815.7142857142857,420.96428666796004,2838.5,815.7142857142857,420.96428666796004,2949.1,815.7142857142857,420.96428666796004,3050.2,815.7142857142857,420.96428666796004,3153,815.7142857142857,420.96428666796004,3253.6,815.7142857142857,420.96428666796004,3353.8,815.7142857142857,420.96428666796004,3454.2,815.7142857142857,420.96428666796004,3561.2,815.7142857142857,420.96428666796004,3663.1,815.7142857142857,420.96428666796004,3763.5,815.7142857142857,420.96428666796004,3864.4,815.7142857142857,420.96428666796004,3968.1,815.7142857142857,420.96428666796004,4083.9,815.7142857142857,420.96428666796004,4189,815.7142857142857,420.96428666796004,4300,815.7142857142857,420.96428666796004,4403.3,815.7142857142857,420.96428666796004,4503.5,815.7142857142857,420.96428666796004,4608.9,815.7142857142857,420.96428666796004,4709.2,815.7142857142857,420.96428666796004,4811.1,815.7142857142857,420.96428666796004,4914.2]","[1472.6,1472.6,1000,0,472.6,""oops"",""left"",""up"",""bad_move"",6827.2,5354.1,2194.7,4195.9,436.7,""smooth"",""left"",""left"",""good_move"",9907.9,3080.2,2636.6,6827.7,443.6,""oops"",""down"",""down"",""good_move"",12431.8,2523.4,2038.6,9908.4,484.8,""smooth"",""down"",""down"",""good_move"",15494.9,3063,2649.2,12431.9,413.8,""smooth"",""left"",""left"",""good_move"",18510.8,3015.7,2645.5,15495.1,370.2,""smooth"",""down"",""down"",""good_move"",21190.5,2679.6,2109.1,18510.9,570.5,""oops"",""left"",""up"",""bad_move"",23340.7,2150,1718.9,21190.7,431.1,""oops"",""down"",""up"",""bad_move"",29704.2,6363,3008,26257,439.2,""smooth"",""down"",""down"",""good_move""]","",""
"43405","","<div style=""width:500px;"">
  <p>What determined the result of this run?</p>
  </div>","7","html-slider-response","60","1145018","0.0-10.0-1.4","6","1","2025-07-02 10:18:18","80fe4187154257d5fb01684ea91b68b9","92.19.67.158","Mozilla/5.0 (Windows NT 10.0; Win64; x64) AppleWebKit/537.36 (KHTML, like Gecko) Chrome/137.0.0.0 Safari/537.36","WebKit","Chrome","137.0.0.0","Windows","10.0","https://app.prolific.com/","en-US,en;q=0.9","5f2fc4d70200693ce9315c91","683db6dfa200031b80f2a654","6865075bd43333e2bdcb48d6","5f2fc4d70200693ce9315c91","2025-07-02T10:37:23.632Z","","","","","","AttribQ","","","","","","","","","","","","","","","","","","","","","","","","","","","","","","","","","","","","","","50"
"64142","","<div style=""width:500px;"">
  <p>How much control did you have over the ball?</p>
  </div>","5","html-slider-response","61","1209161","0.0-10.0-2.4","6","1","2025-07-02 10:18:18","80fe4187154257d5fb01684ea91b68b9","92.19.67.158","Mozilla/5.0 (Windows NT 10.0; Win64; x64) AppleWebKit/537.36 (KHTML, like Gecko) Chrome/137.0.0.0 Safari/537.36","WebKit","Chrome","137.0.0.0","Windows","10.0","https://app.prolific.com/","en-US,en;q=0.9","5f2fc4d70200693ce9315c91","683db6dfa200031b80f2a654","6865075bd43333e2bdcb48d6","5f2fc4d70200693ce9315c91","2025-07-02T10:38:27.775Z","","","","","","ControlQ","","","","","","","","","","","","","","","","","","","","","","","","","","","","","","","","","","","","","","50"
"3253","","<div style=""width:500px;"">
  <p>How would you describe your current emotional state?</p>
  </div>","62","html-slider-response","62","1212415","0.0-10.0-3.4","6","1","2025-07-02 10:18:18","80fe4187154257d5fb01684ea91b68b9","92.19.67.158","Mozilla/5.0 (Windows NT 10.0; Win64; x64) AppleWebKit/537.36 (KHTML, like Gecko) Chrome/137.0.0.0 Safari/537.36","WebKit","Chrome","137.0.0.0","Windows","10.0","https://app.prolific.com/","en-US,en;q=0.9","5f2fc4d70200693ce9315c91","683db6dfa200031b80f2a654","6865075bd43333e2bdcb48d6","5f2fc4d70200693ce9315c91","2025-07-02T10:38:31.029Z","","","","","","StressQ","","","","","","","","","","","","","","","","","","","","","","","","","","","","","","","","","","","","","","50"
"3932","","<div style=""width:500px;"">
  <p>What best describes how you currently feel?</p>
  </div>","72","html-slider-response","63","1216348","0.0-10.0-4.4","6","1","2025-07-02 10:18:18","80fe4187154257d5fb01684ea91b68b9","92.19.67.158","Mozilla/5.0 (Windows NT 10.0; Win64; x64) AppleWebKit/537.36 (KHTML, like Gecko) Chrome/137.0.0.0 Safari/537.36","WebKit","Chrome","137.0.0.0","Windows","10.0","https://app.prolific.com/","en-US,en;q=0.9","5f2fc4d70200693ce9315c91","683db6dfa200031b80f2a654","6865075bd43333e2bdcb48d6","5f2fc4d70200693ce9315c91","2025-07-02T10:38:34.962Z","","","","","","MotivationQ","","","","","","","","","","","","","","","","","","","","","","","","","","","","","","","","","","","","","","50"
"","","","","ctl-task-cpt","64","1263001","0.0-10.0-0.5","6","1","2025-07-02 10:18:18","80fe4187154257d5fb01684ea91b68b9","92.19.67.158","Mozilla/5.0 (Windows NT 10.0; Win64; x64) AppleWebKit/537.36 (KHTML, like Gecko) Chrome/137.0.0.0 Safari/537.36","WebKit","Chrome","137.0.0.0","Windows","10.0","https://app.prolific.com/","en-US,en;q=0.9","5f2fc4d70200693ce9315c91","683db6dfa200031b80f2a654","6865075bd43333e2bdcb48d6","5f2fc4d70200693ce9315c91","2025-07-02T10:39:21.615Z","","","","","","","","","","","","","","","","win-only","0","g1:NW,g2:SE","0.5","6","0","1218564.8","1917.3","6919.4","43631.8","1","4","4","6","2","-4","-8","0","6","0","1412.5","3000","-2590","[""down"",""right""]","{""num_key_presses"":15,""num_perfect"":4,""num_errors"":4,""num_randdir"":5,""num_randdir_good_moves"":2,""num_whilered"":2,""num_whileblue"":2,""num_blue"":2,""num_good_moves"":8}","[346.9642857142857,352.21428666796004,0.4,346.9642857142857,352.21428666796004,107.7,346.9642857142857,352.21428666796004,208.7,346.9642857142857,352.21428666796004,313.6,346.9642857142857,352.21428666796004,413.8,346.9642857142857,352.21428666796004,522,346.9642857142857,352.21428666796004,626.6,346.9642857142857,352.21428666796004,729.5,521.9642857142857,503.46428666796004,829.6,548.2142857142857,542.21428666796,932.7,576.9642857142857,584.71428666796,1040.3,609.4642857142857,620.96428666796,1144,621.9642857142857,630.96428666796,1246.3,621.9642857142857,630.96428666796,1350.1,621.9642857142857,630.96428666796,1451.9,621.9642857142857,630.96428666796,1552.4,621.9642857142857,630.96428666796,1657,621.9642857142857,630.96428666796,1758,668.2142857142857,604.71428666796,1859.4,929.4642857142857,382.21428666796004,1960,970.7142857142857,349.71428666796004,2063,970.7142857142857,349.71428666796004,2164.5,970.7142857142857,349.71428666796004,2271.7,970.7142857142857,349.71428666796004,2372.5,970.7142857142857,349.71428666796004,2477.2,970.7142857142857,349.71428666796004,2579.6,970.7142857142857,349.71428666796004,2679.6,970.7142857142857,349.71428666796004,2786.6,970.7142857142857,349.71428666796004,2888.2,970.7142857142857,349.71428666796004,2992.9,970.7142857142857,349.71428666796004,3093.4,970.7142857142857,349.71428666796004,3194.2,970.7142857142857,349.71428666796004,3301.3,970.7142857142857,349.71428666796004,3402.1,970.7142857142857,349.71428666796004,3507.1,970.7142857142857,349.71428666796004,3610.1,970.7142857142857,349.71428666796004,3714.5,970.7142857142857,349.71428666796004,3815.7,970.7142857142857,349.71428666796004,3922.1,970.7142857142857,349.71428666796004,4022.7,970.7142857142857,349.71428666796004,4126.3,970.7142857142857,349.71428666796004,4229.4,970.7142857142857,349.71428666796004,4337.6,970.7142857142857,349.71428666796004,4437.9,970.7142857142857,349.71428666796004,4541.2,970.7142857142857,349.71428666796004,4645.3,970.7142857142857,349.71428666796004,4751.8,970.7142857142857,349.71428666796004,4857.1,970.7142857142857,349.71428666796004,4959]","[1491.9,1492,1000,0,492,""oops"",""down"",""up"",""bad_move"",4717.5,3225.2,2811.6,1492.3,413.6,""smooth"",""right"",""right"",""good_move"",7481.1,2763.1,2327.7,4718,435.4,""oops"",""right"",""down"",""good_move"",10614,3132.2,2764.1,7481.8,368.1,""smooth"",""right"",""right"",""good_move"",13426.5,2812.4,2505.8,10614.1,306.6,""smooth"",""down"",""down"",""good_move"",16446.6,3019.7,2683.4,13426.9,336.3,""oops"",""right"",""down"",""good_move"",19226.1,2779.4,2413.4,16446.7,366,""smooth"",""right"",""right"",""good_move"",22211.2,2984.4,2649,19226.9,335.4,""oops"",""down"",""up"",""bad_move"",25018.1,2806.4,2507.5,22211.7,298.9,""while_blue"",""down"",""down"",""good_move"",28147.1,3128.5,2668.3,25018.6,460.2,""oops"",""down"",""up"",""bad_move"",30698.7,2551.3,2102,28147.4,449.3,""while_blue"",""down"",""down"",""good_move"",31220.2,521.2,2899.9,30699,-2378.7,""error"",""-"",""-"",""no_move"",31620.1,399.7,2899.9,30699,-1978.8,""while_red"",""-"",""-"",""no_move"",32479.3,1258.9,2634.9,32225.4,-2381,""error"",""-"",""-"",""no_move"",32894.8,415.4,2634.9,32225.4,-1965.5,""while_red"",""-"",""-"",""no_move""]","",""
"3950","","<div style=""width:500px;"">
  <p>What determined the result of this run?</p>
  </div>","0","html-slider-response","65","1266952","0.0-10.0-1.5","6","1","2025-07-02 10:18:18","80fe4187154257d5fb01684ea91b68b9","92.19.67.158","Mozilla/5.0 (Windows NT 10.0; Win64; x64) AppleWebKit/537.36 (KHTML, like Gecko) Chrome/137.0.0.0 Safari/537.36","WebKit","Chrome","137.0.0.0","Windows","10.0","https://app.prolific.com/","en-US,en;q=0.9","5f2fc4d70200693ce9315c91","683db6dfa200031b80f2a654","6865075bd43333e2bdcb48d6","5f2fc4d70200693ce9315c91","2025-07-02T10:39:25.566Z","","","","","","AttribQ","","","","","","","","","","","","","","","","","","","","","","","","","","","","","","","","","","","","","","50"
"4095","","<div style=""width:500px;"">
  <p>How much control did you have over the ball?</p>
  </div>","12","html-slider-response","66","1271049","0.0-10.0-2.5","6","1","2025-07-02 10:18:18","80fe4187154257d5fb01684ea91b68b9","92.19.67.158","Mozilla/5.0 (Windows NT 10.0; Win64; x64) AppleWebKit/537.36 (KHTML, like Gecko) Chrome/137.0.0.0 Safari/537.36","WebKit","Chrome","137.0.0.0","Windows","10.0","https://app.prolific.com/","en-US,en;q=0.9","5f2fc4d70200693ce9315c91","683db6dfa200031b80f2a654","6865075bd43333e2bdcb48d6","5f2fc4d70200693ce9315c91","2025-07-02T10:39:29.663Z","","","","","","ControlQ","","","","","","","","","","","","","","","","","","","","","","","","","","","","","","","","","","","","","","50"
"3031","","<div style=""width:500px;"">
  <p>How would you describe your current emotional state?</p>
  </div>","88","html-slider-response","67","1274081","0.0-10.0-3.5","6","1","2025-07-02 10:18:18","80fe4187154257d5fb01684ea91b68b9","92.19.67.158","Mozilla/5.0 (Windows NT 10.0; Win64; x64) AppleWebKit/537.36 (KHTML, like Gecko) Chrome/137.0.0.0 Safari/537.36","WebKit","Chrome","137.0.0.0","Windows","10.0","https://app.prolific.com/","en-US,en;q=0.9","5f2fc4d70200693ce9315c91","683db6dfa200031b80f2a654","6865075bd43333e2bdcb48d6","5f2fc4d70200693ce9315c91","2025-07-02T10:39:32.695Z","","","","","","StressQ","","","","","","","","","","","","","","","","","","","","","","","","","","","","","","","","","","","","","","50"
"2620","","<div style=""width:500px;"">
  <p>What best describes how you currently feel?</p>
  </div>","71","html-slider-response","68","1276703","0.0-10.0-4.5","6","1","2025-07-02 10:18:18","80fe4187154257d5fb01684ea91b68b9","92.19.67.158","Mozilla/5.0 (Windows NT 10.0; Win64; x64) AppleWebKit/537.36 (KHTML, like Gecko) Chrome/137.0.0.0 Safari/537.36","WebKit","Chrome","137.0.0.0","Windows","10.0","https://app.prolific.com/","en-US,en;q=0.9","5f2fc4d70200693ce9315c91","683db6dfa200031b80f2a654","6865075bd43333e2bdcb48d6","5f2fc4d70200693ce9315c91","2025-07-02T10:39:35.317Z","","","","","","MotivationQ","","","","","","","","","","","","","","","","","","","","","","","","","","","","","","","","","","","","","","50"
"","","","","ctl-task-cpt","69","1325969","0.0-10.0-0.6","6","1","2025-07-02 10:18:18","80fe4187154257d5fb01684ea91b68b9","92.19.67.158","Mozilla/5.0 (Windows NT 10.0; Win64; x64) AppleWebKit/537.36 (KHTML, like Gecko) Chrome/137.0.0.0 Safari/537.36","WebKit","Chrome","137.0.0.0","Windows","10.0","https://app.prolific.com/","en-US,en;q=0.9","5f2fc4d70200693ce9315c91","683db6dfa200031b80f2a654","6865075bd43333e2bdcb48d6","5f2fc4d70200693ce9315c91","2025-07-02T10:40:24.583Z","","","","","","","","","","","","","","","","win-only","0","g1:NW,g2:SE","0.4","7","0","1278919.5","1204.8","6209","46233.6","1","4","8","6","2","-8","-9","0","0","0","1180.5","3000","-1090","[""down"",""right""]","{""num_key_presses"":11,""num_perfect"":4,""num_errors"":1,""num_randdir"":6,""num_randdir_good_moves"":1,""num_whilered"":0,""num_whileblue"":1,""num_blue"":3,""num_good_moves"":4}","[353.2142857142857,352.21428666796004,0.7,353.2142857142857,352.21428666796004,100.2,353.2142857142857,352.21428666796004,202.2,353.2142857142857,352.21428666796004,302.4,353.2142857142857,352.21428666796004,407.7,353.2142857142857,352.21428666796004,516.3,511.9642857142857,465.96428666796004,616.9,651.9642857142857,643.46428666796,722.3,651.9642857142857,649.71428666796,827.7,651.9642857142857,655.96428666796,937.1,653.2142857142857,655.96428666796,1040.5,653.2142857142857,655.96428666796,1142.8,653.2142857142857,655.96428666796,1243.1,653.2142857142857,655.96428666796,1349.8,653.2142857142857,655.96428666796,1453.7,653.2142857142857,655.96428666796,1559.2,835.7142857142857,523.46428666796,1664.1,954.4642857142857,410.96428666796004,1764.2,954.4642857142857,410.96428666796004,1870.1,954.4642857142857,410.96428666796004,1971.5,954.4642857142857,410.96428666796004,2072.9,954.4642857142857,410.96428666796004,2176.3,954.4642857142857,410.96428666796004,2277.9,954.4642857142857,410.96428666796004,2384,954.4642857142857,410.96428666796004,2487,954.4642857142857,410.96428666796004,2592,954.4642857142857,410.96428666796004,2699.8,954.4642857142857,410.96428666796004,2800.8,954.4642857142857,410.96428666796004,2905.3,954.4642857142857,410.96428666796004,3006.8,954.4642857142857,410.96428666796004,3114,954.4642857142857,410.96428666796004,3216.2,954.4642857142857,410.96428666796004,3322.6,954.4642857142857,410.96428666796004,3429.9,954.4642857142857,410.96428666796004,3537.1,954.4642857142857,410.96428666796004,3638.8,954.4642857142857,410.96428666796004,3741.5,954.4642857142857,410.96428666796004,3849.2,954.4642857142857,410.96428666796004,3951,954.4642857142857,410.96428666796004,4056.1,954.4642857142857,410.96428666796004,4156.5,954.4642857142857,410.96428666796004,4257.7,954.4642857142857,410.96428666796004,4359.4,954.4642857142857,410.96428666796004,4464.8,954.4642857142857,410.96428666796004,4566.5,954.4642857142857,410.96428666796004,4667.1,954.4642857142857,410.96428666796004,4768.3,954.4642857142857,410.96428666796004,4871.2,954.4642857142857,410.96428666796004,4973.8]","[1375.7,1375.7,1000,0,375.7,""smooth"",""down"",""down"",""good_move"",6834.3,5458.2,2077.6,4381.7,375,""oops"",""right"",""up"",""bad_move"",9948.2,3113.6,2753.3,6834.6,360.3,""oops"",""right"",""up"",""bad_move"",13182.5,3234.2,2841.2,9948.3,393,""smooth"",""right"",""right"",""good_move"",15774.9,2592.1,2064.2,13182.8,527.9,""oops"",""right"",""up"",""bad_move"",18025.1,2250,1830,15775.1,420,""oops"",""left"",""left"",""bad_move"",21209.6,3184,2806.4,18025.6,377.6,""smooth"",""left"",""left"",""bad_move"",24221.6,3011.8,2589.5,21209.8,422.3,""oops"",""left"",""down"",""good_move"",27699.2,3477.2,3186.3,24222,290.9,""while_blue"",""left"",""down"",""good_move"",30550,2850.3,2336.4,27699.7,513.9,""smooth"",""up"",""up"",""bad_move"",36957.2,6406,2687.3,33830.1,439.8,""oops"",""up"",""left"",""bad_move""]","",""
"4966","","<div style=""width:500px;"">
  <p>What determined the result of this run?</p>
  </div>","0","html-slider-response","70","1330937","0.0-10.0-1.6","6","1","2025-07-02 10:18:18","80fe4187154257d5fb01684ea91b68b9","92.19.67.158","Mozilla/5.0 (Windows NT 10.0; Win64; x64) AppleWebKit/537.36 (KHTML, like Gecko) Chrome/137.0.0.0 Safari/537.36","WebKit","Chrome","137.0.0.0","Windows","10.0","https://app.prolific.com/","en-US,en;q=0.9","5f2fc4d70200693ce9315c91","683db6dfa200031b80f2a654","6865075bd43333e2bdcb48d6","5f2fc4d70200693ce9315c91","2025-07-02T10:40:29.551Z","","","","","","AttribQ","","","","","","","","","","","","","","","","","","","","","","","","","","","","","","","","","","","","","","50"
"3244","","<div style=""width:500px;"">
  <p>How much control did you have over the ball?</p>
  </div>","0","html-slider-response","71","1334182","0.0-10.0-2.6","6","1","2025-07-02 10:18:18","80fe4187154257d5fb01684ea91b68b9","92.19.67.158","Mozilla/5.0 (Windows NT 10.0; Win64; x64) AppleWebKit/537.36 (KHTML, like Gecko) Chrome/137.0.0.0 Safari/537.36","WebKit","Chrome","137.0.0.0","Windows","10.0","https://app.prolific.com/","en-US,en;q=0.9","5f2fc4d70200693ce9315c91","683db6dfa200031b80f2a654","6865075bd43333e2bdcb48d6","5f2fc4d70200693ce9315c91","2025-07-02T10:40:32.796Z","","","","","","ControlQ","","","","","","","","","","","","","","","","","","","","","","","","","","","","","","","","","","","","","","50"
"2921","","<div style=""width:500px;"">
  <p>How would you describe your current emotional state?</p>
  </div>","82","html-slider-response","72","1337105","0.0-10.0-3.6","6","1","2025-07-02 10:18:18","80fe4187154257d5fb01684ea91b68b9","92.19.67.158","Mozilla/5.0 (Windows NT 10.0; Win64; x64) AppleWebKit/537.36 (KHTML, like Gecko) Chrome/137.0.0.0 Safari/537.36","WebKit","Chrome","137.0.0.0","Windows","10.0","https://app.prolific.com/","en-US,en;q=0.9","5f2fc4d70200693ce9315c91","683db6dfa200031b80f2a654","6865075bd43333e2bdcb48d6","5f2fc4d70200693ce9315c91","2025-07-02T10:40:35.719Z","","","","","","StressQ","","","","","","","","","","","","","","","","","","","","","","","","","","","","","","","","","","","","","","50"
"2393","","<div style=""width:500px;"">
  <p>What best describes how you currently feel?</p>
  </div>","77","html-slider-response","73","1339500","0.0-10.0-4.6","6","1","2025-07-02 10:18:18","80fe4187154257d5fb01684ea91b68b9","92.19.67.158","Mozilla/5.0 (Windows NT 10.0; Win64; x64) AppleWebKit/537.36 (KHTML, like Gecko) Chrome/137.0.0.0 Safari/537.36","WebKit","Chrome","137.0.0.0","Windows","10.0","https://app.prolific.com/","en-US,en;q=0.9","5f2fc4d70200693ce9315c91","683db6dfa200031b80f2a654","6865075bd43333e2bdcb48d6","5f2fc4d70200693ce9315c91","2025-07-02T10:40:38.114Z","","","","","","MotivationQ","","","","","","","","","","","","","","","","","","","","","","","","","","","","","","","","","","","","","","50"
"","","","","ctl-task-cpt","74","1373992","0.0-10.0-0.7","6","1","2025-07-02 10:18:18","80fe4187154257d5fb01684ea91b68b9","92.19.67.158","Mozilla/5.0 (Windows NT 10.0; Win64; x64) AppleWebKit/537.36 (KHTML, like Gecko) Chrome/137.0.0.0 Safari/537.36","WebKit","Chrome","137.0.0.0","Windows","10.0","https://app.prolific.com/","en-US,en;q=0.9","5f2fc4d70200693ce9315c91","683db6dfa200031b80f2a654","6865075bd43333e2bdcb48d6","5f2fc4d70200693ce9315c91","2025-07-02T10:41:12.606Z","","","","","","","","","","","","","","","","win-only","2","g1:SE,g2:NW","0.3","8","0","1341717.8","1253.5","6271.3","31468.8","1","4","4","6","1","1","1","1","0","0.007575757575757576","2841.3","3000","2470","[""down"",""right""]","{""num_key_presses"":6,""num_perfect"":3,""num_errors"":0,""num_randdir"":3,""num_randdir_good_moves"":2,""num_whilered"":0,""num_whileblue"":0,""num_blue"":1,""num_good_moves"":5}","[351.9642857142857,354.71428666796004,0.1,351.9642857142857,354.71428666796004,110.9,351.9642857142857,354.71428666796004,213.4,351.9642857142857,354.71428666796004,328.8,351.9642857142857,354.71428666796004,443.1,351.9642857142857,354.71428666796004,548.7,351.9642857142857,354.71428666796004,661.6,351.9642857142857,354.71428666796004,766.1,330.7142857142857,337.21428666796004,868.5,113.21428571428572,109.71428666796004,985.9,94.46428571428572,84.71428666796004,1099.6,84.46428571428572,68.46428666796004,1208.7,75.71428571428572,57.21428666796003,1322.8,75.71428571428572,55.96428666796003,1434.1,485.7142857142857,417.21428666796004,1543.9,603.2142857142857,569.71428666796,1650.4,603.2142857142857,569.71428666796,1759.9,603.2142857142857,569.71428666796,1879.4,603.2142857142857,569.71428666796,1998.6,603.2142857142857,569.71428666796,2099.6,603.2142857142857,569.71428666796,2203.8,621.9642857142857,599.71428666796,2310.1,636.9642857142857,630.96428666796,2414.8,644.4642857142857,643.46428666796,2515.4,644.4642857142857,645.96428666796,2642.9,644.4642857142857,645.96428666796,2757.8,644.4642857142857,645.96428666796,2864.1,644.4642857142857,645.96428666796,2968.7,644.4642857142857,645.96428666796,3078.7,644.4642857142857,645.96428666796,3192.2,644.4642857142857,645.96428666796,3296.4,814.4642857142857,459.71428666796004,3405,818.2142857142857,453.46428666796004,3521.1,818.2142857142857,453.46428666796004,3635.4,818.2142857142857,453.46428666796004,3745.7,818.2142857142857,453.46428666796004,3860.2,818.2142857142857,453.46428666796004,3972.3,818.2142857142857,453.46428666796004,4073.7,818.2142857142857,453.46428666796004,4175.4,818.2142857142857,453.46428666796004,4293.7,818.2142857142857,453.46428666796004,4414.7,818.2142857142857,453.46428666796004,4515.1,818.2142857142857,453.46428666796004,4633.3,818.2142857142857,453.46428666796004,4740.8,818.2142857142857,453.46428666796004,4841.6,818.2142857142857,453.46428666796004,4957.2]","[1502,1502,1000,0,502,""oops"",""right"",""down"",""good_move"",5238,3735.8,3180.6,1502.2,555.2,""oops"",""right"",""right"",""good_move"",8833.7,3595.4,3080.3,5238.3,515.1,""oops"",""right"",""left"",""bad_move"",14100.8,5266.8,2061.5,8834,3205.3,""smooth"",""right"",""right"",""good_move"",17539,3438.1,2988.6,14100.9,449.5,""smooth"",""down"",""down"",""good_move"",24661.5,7122.4,2657.7,21477.1,526.7,""smooth"",""right"",""right"",""good_move""]","",""
"4269","","<div style=""width:500px;"">
  <p>What determined the result of this run?</p>
  </div>","82","html-slider-response","75","1378263","0.0-10.0-1.7","6","1","2025-07-02 10:18:18","80fe4187154257d5fb01684ea91b68b9","92.19.67.158","Mozilla/5.0 (Windows NT 10.0; Win64; x64) AppleWebKit/537.36 (KHTML, like Gecko) Chrome/137.0.0.0 Safari/537.36","WebKit","Chrome","137.0.0.0","Windows","10.0","https://app.prolific.com/","en-US,en;q=0.9","5f2fc4d70200693ce9315c91","683db6dfa200031b80f2a654","6865075bd43333e2bdcb48d6","5f2fc4d70200693ce9315c91","2025-07-02T10:41:16.877Z","","","","","","AttribQ","","","","","","","","","","","","","","","","","","","","","","","","","","","","","","","","","","","","","","50"
"2760","","<div style=""width:500px;"">
  <p>How much control did you have over the ball?</p>
  </div>","82","html-slider-response","76","1381024","0.0-10.0-2.7","6","1","2025-07-02 10:18:18","80fe4187154257d5fb01684ea91b68b9","92.19.67.158","Mozilla/5.0 (Windows NT 10.0; Win64; x64) AppleWebKit/537.36 (KHTML, like Gecko) Chrome/137.0.0.0 Safari/537.36","WebKit","Chrome","137.0.0.0","Windows","10.0","https://app.prolific.com/","en-US,en;q=0.9","5f2fc4d70200693ce9315c91","683db6dfa200031b80f2a654","6865075bd43333e2bdcb48d6","5f2fc4d70200693ce9315c91","2025-07-02T10:41:19.638Z","","","","","","ControlQ","","","","","","","","","","","","","","","","","","","","","","","","","","","","","","","","","","","","","","50"
"2839","","<div style=""width:500px;"">
  <p>How would you describe your current emotional state?</p>
  </div>","70","html-slider-response","77","1383864","0.0-10.0-3.7","6","1","2025-07-02 10:18:18","80fe4187154257d5fb01684ea91b68b9","92.19.67.158","Mozilla/5.0 (Windows NT 10.0; Win64; x64) AppleWebKit/537.36 (KHTML, like Gecko) Chrome/137.0.0.0 Safari/537.36","WebKit","Chrome","137.0.0.0","Windows","10.0","https://app.prolific.com/","en-US,en;q=0.9","5f2fc4d70200693ce9315c91","683db6dfa200031b80f2a654","6865075bd43333e2bdcb48d6","5f2fc4d70200693ce9315c91","2025-07-02T10:41:22.478Z","","","","","","StressQ","","","","","","","","","","","","","","","","","","","","","","","","","","","","","","","","","","","","","","50"
"4062","","<div style=""width:500px;"">
  <p>What best describes how you currently feel?</p>
  </div>","74","html-slider-response","78","1387927","0.0-10.0-4.7","6","1","2025-07-02 10:18:18","80fe4187154257d5fb01684ea91b68b9","92.19.67.158","Mozilla/5.0 (Windows NT 10.0; Win64; x64) AppleWebKit/537.36 (KHTML, like Gecko) Chrome/137.0.0.0 Safari/537.36","WebKit","Chrome","137.0.0.0","Windows","10.0","https://app.prolific.com/","en-US,en;q=0.9","5f2fc4d70200693ce9315c91","683db6dfa200031b80f2a654","6865075bd43333e2bdcb48d6","5f2fc4d70200693ce9315c91","2025-07-02T10:41:26.541Z","","","","","","MotivationQ","","","","","","","","","","","","","","","","","","","","","","","","","","","","","","","","","","","","","","50"
"","","","","ctl-task-cpt","79","1453931","0.0-10.0-0.8","6","1","2025-07-02 10:18:18","80fe4187154257d5fb01684ea91b68b9","92.19.67.158","Mozilla/5.0 (Windows NT 10.0; Win64; x64) AppleWebKit/537.36 (KHTML, like Gecko) Chrome/137.0.0.0 Safari/537.36","WebKit","Chrome","137.0.0.0","Windows","10.0","https://app.prolific.com/","en-US,en;q=0.9","5f2fc4d70200693ce9315c91","683db6dfa200031b80f2a654","6865075bd43333e2bdcb48d6","5f2fc4d70200693ce9315c91","2025-07-02T10:42:32.545Z","","","","","","","","","","","","","","","","win-only","1","g1:NE,g2:SW","0.4","9","0","1390144.2","1390.5","6398.2","62978.8","1","4","4","6","2","4","4","5","1","0.03787878787878788","1544.9","3000","155","[""down"",""left""]","{""num_key_presses"":14,""num_perfect"":8,""num_errors"":0,""num_randdir"":6,""num_randdir_good_moves"":2,""num_whilered"":0,""num_whileblue"":0,""num_blue"":4,""num_good_moves"":10}","[351.9642857142857,350.96428666796004,0.1,351.9642857142857,350.96428666796004,109.2,351.9642857142857,350.96428666796004,212.4,351.9642857142857,350.96428666796004,322.8,351.9642857142857,350.96428666796004,423,351.9642857142857,350.96428666796004,526.4,351.9642857142857,350.96428666796004,636.7,351.9642857142857,350.96428666796004,739.5,251.96428571428572,439.71428666796004,857.7,90.71428571428572,599.71428666796,969.2,60.714285714285715,635.96428666796,1083.1,50.714285714285715,649.71428666796,1194.1,50.714285714285715,649.71428666796,1299.8,50.714285714285715,649.71428666796,1400.6,50.714285714285715,649.71428666796,1517.2,50.714285714285715,649.71428666796,1624.6,50.714285714285715,649.71428666796,1735.4,50.714285714285715,649.71428666796,1847.2,50.714285714285715,649.71428666796,1947.2,129.46428571428572,618.46428666796,2052.8,731.9642857142857,437.21428666796004,2156.4,755.7142857142857,423.46428666796004,2271.2,755.7142857142857,423.46428666796004,2381.4,755.7142857142857,423.46428666796004,2482.6,755.7142857142857,423.46428666796004,2586.5,755.7142857142857,423.46428666796004,2688.6,755.7142857142857,423.46428666796004,2793.7,755.7142857142857,423.46428666796004,2902,755.7142857142857,423.46428666796004,3002.5,755.7142857142857,423.46428666796004,3113,755.7142857142857,423.46428666796004,3221.4,755.7142857142857,423.46428666796004,3325.8,755.7142857142857,423.46428666796004,3427.3,755.7142857142857,423.46428666796004,3534,755.7142857142857,423.46428666796004,3637.6,755.7142857142857,423.46428666796004,3741.9,755.7142857142857,423.46428666796004,3849.1,755.7142857142857,423.46428666796004,3964.6,755.7142857142857,423.46428666796004,4070,755.7142857142857,423.46428666796004,4183.5,755.7142857142857,423.46428666796004,4285.5,755.7142857142857,423.46428666796004,4387.8,755.7142857142857,423.46428666796004,4497.1,755.7142857142857,423.46428666796004,4598.2,755.7142857142857,423.46428666796004,4713.7,755.7142857142857,423.46428666796004,4830.7,755.7142857142857,423.46428666796004,4937.7]","[1406.1,1406.1,1000,0,406.2,""smooth"",""down"",""down"",""good_move"",4428,3021.6,2649.4,1406.4,372.2,""smooth"",""down"",""down"",""good_move"",11496.2,7068,3037.4,8073.1,385.7,""oops"",""left"",""right"",""bad_move"",14383.3,2886.7,1817.3,11496.7,1069.4,""oops"",""left"",""right"",""bad_move"",24633,10249.5,2670,21506.1,456.9,""smooth"",""left"",""left"",""good_move"",28151.8,3518.5,3070.7,24633.4,447.8,""oops"",""left"",""right"",""bad_move"",31094.8,2942.6,2307.9,28152.2,634.7,""oops"",""left"",""down"",""good_move"",37182.1,6086.8,2305.1,34450.4,426.6,""oops"",""left"",""up"",""bad_move"",39981.1,2798.7,1906.5,37182.4,892.2,""oops"",""left"",""left"",""good_move"",42572.9,2591.6,2172.2,39981.3,419.4,""smooth"",""left"",""left"",""good_move"",45731.8,3158.8,2763,42573.1,395.8,""smooth"",""left"",""left"",""good_move"",48947.9,3215.9,2857.4,45732,358.5,""smooth"",""left"",""left"",""good_move"",52761.3,3813.3,3409.6,48948,403.7,""smooth"",""down"",""down"",""good_move"",56262.7,3501,3184.7,52761.7,316.3,""smooth"",""left"",""left"",""good_move""]","",""
"3543","","<div style=""width:500px;"">
  <p>What determined the result of this run?</p>
  </div>","68","html-slider-response","80","1457477","0.0-10.0-1.8","6","1","2025-07-02 10:18:18","80fe4187154257d5fb01684ea91b68b9","92.19.67.158","Mozilla/5.0 (Windows NT 10.0; Win64; x64) AppleWebKit/537.36 (KHTML, like Gecko) Chrome/137.0.0.0 Safari/537.36","WebKit","Chrome","137.0.0.0","Windows","10.0","https://app.prolific.com/","en-US,en;q=0.9","5f2fc4d70200693ce9315c91","683db6dfa200031b80f2a654","6865075bd43333e2bdcb48d6","5f2fc4d70200693ce9315c91","2025-07-02T10:42:36.091Z","","","","","","AttribQ","","","","","","","","","","","","","","","","","","","","","","","","","","","","","","","","","","","","","","50"
"2891","","<div style=""width:500px;"">
  <p>How much control did you have over the ball?</p>
  </div>","40","html-slider-response","81","1460369","0.0-10.0-2.8","6","1","2025-07-02 10:18:18","80fe4187154257d5fb01684ea91b68b9","92.19.67.158","Mozilla/5.0 (Windows NT 10.0; Win64; x64) AppleWebKit/537.36 (KHTML, like Gecko) Chrome/137.0.0.0 Safari/537.36","WebKit","Chrome","137.0.0.0","Windows","10.0","https://app.prolific.com/","en-US,en;q=0.9","5f2fc4d70200693ce9315c91","683db6dfa200031b80f2a654","6865075bd43333e2bdcb48d6","5f2fc4d70200693ce9315c91","2025-07-02T10:42:38.983Z","","","","","","ControlQ","","","","","","","","","","","","","","","","","","","","","","","","","","","","","","","","","","","","","","50"
"2875","","<div style=""width:500px;"">
  <p>How would you describe your current emotional state?</p>
  </div>","66","html-slider-response","82","1463246","0.0-10.0-3.8","6","1","2025-07-02 10:18:18","80fe4187154257d5fb01684ea91b68b9","92.19.67.158","Mozilla/5.0 (Windows NT 10.0; Win64; x64) AppleWebKit/537.36 (KHTML, like Gecko) Chrome/137.0.0.0 Safari/537.36","WebKit","Chrome","137.0.0.0","Windows","10.0","https://app.prolific.com/","en-US,en;q=0.9","5f2fc4d70200693ce9315c91","683db6dfa200031b80f2a654","6865075bd43333e2bdcb48d6","5f2fc4d70200693ce9315c91","2025-07-02T10:42:41.860Z","","","","","","StressQ","","","","","","","","","","","","","","","","","","","","","","","","","","","","","","","","","","","","","","50"
"3027","","<div style=""width:500px;"">
  <p>What best describes how you currently feel?</p>
  </div>","82","html-slider-response","83","1466275","0.0-10.0-4.8","6","1","2025-07-02 10:18:18","80fe4187154257d5fb01684ea91b68b9","92.19.67.158","Mozilla/5.0 (Windows NT 10.0; Win64; x64) AppleWebKit/537.36 (KHTML, like Gecko) Chrome/137.0.0.0 Safari/537.36","WebKit","Chrome","137.0.0.0","Windows","10.0","https://app.prolific.com/","en-US,en;q=0.9","5f2fc4d70200693ce9315c91","683db6dfa200031b80f2a654","6865075bd43333e2bdcb48d6","5f2fc4d70200693ce9315c91","2025-07-02T10:42:44.889Z","","","","","","MotivationQ","","","","","","","","","","","","","","","","","","","","","","","","","","","","","","","","","","","","","","50"
"","","","","ctl-task-cpt","84","1523078","0.0-10.0-0.9","6","1","2025-07-02 10:18:18","80fe4187154257d5fb01684ea91b68b9","92.19.67.158","Mozilla/5.0 (Windows NT 10.0; Win64; x64) AppleWebKit/537.36 (KHTML, like Gecko) Chrome/137.0.0.0 Safari/537.36","WebKit","Chrome","137.0.0.0","Windows","10.0","https://app.prolific.com/","en-US,en;q=0.9","5f2fc4d70200693ce9315c91","683db6dfa200031b80f2a654","6865075bd43333e2bdcb48d6","5f2fc4d70200693ce9315c91","2025-07-02T10:43:41.692Z","","","","","","","","","","","","","","","","win-only","3","g1:SW,g2:NE","0.5","10","0","1468492.9","1349.4","6354.3","53783.3","1","4","8","6","2","8","8","13","5","0.09848484848484848","1235.4","3000","950","[""up"",""right""]","{""num_key_presses"":12,""num_perfect"":6,""num_errors"":0,""num_randdir"":6,""num_randdir_good_moves"":3,""num_whilered"":0,""num_whileblue"":0,""num_blue"":4,""num_good_moves"":9}","[353.2142857142857,355.96428666796004,0.2,353.2142857142857,355.96428666796004,108,353.2142857142857,355.96428666796004,211.6,353.2142857142857,355.96428666796004,322.4,353.2142857142857,355.96428666796004,446,353.2142857142857,355.96428666796004,557.6,353.2142857142857,355.96428666796004,664.3,619.4642857142857,124.71428666796004,779.4,621.9642857142857,115.96428666796004,894.6,626.9642857142857,93.46428666796004,1016.3,626.9642857142857,88.46428666796004,1130.5,626.9642857142857,88.46428666796004,1259.5,626.9642857142857,88.46428666796004,1378.7,626.9642857142857,88.46428666796004,1494.8,626.9642857142857,88.46428666796004,1604.7,824.4642857142857,262.21428666796004,1722.2,831.9642857142857,270.96428666796004,1830.1,831.9642857142857,270.96428666796004,1936.6,831.9642857142857,270.96428666796004,2037.2,831.9642857142857,270.96428666796004,2144.8,831.9642857142857,270.96428666796004,2253.2,831.9642857142857,270.96428666796004,2359.9,831.9642857142857,270.96428666796004,2470,831.9642857142857,270.96428666796004,2574.1,831.9642857142857,270.96428666796004,2679.4,831.9642857142857,270.96428666796004,2783.3,831.9642857142857,270.96428666796004,2887.8,831.9642857142857,270.96428666796004,2992.7,831.9642857142857,270.96428666796004,3092.9,831.9642857142857,270.96428666796004,3197.3,831.9642857142857,270.96428666796004,3299.9,831.9642857142857,270.96428666796004,3407.2,831.9642857142857,270.96428666796004,3516.5,831.9642857142857,270.96428666796004,3626.4,831.9642857142857,270.96428666796004,3734.5,831.9642857142857,270.96428666796004,3841.1,831.9642857142857,270.96428666796004,3944.2,831.9642857142857,270.96428666796004,4047.7,831.9642857142857,270.96428666796004,4157.6,831.9642857142857,270.96428666796004,4261.3,831.9642857142857,270.96428666796004,4366.8,831.9642857142857,270.96428666796004,4476.9,831.9642857142857,270.96428666796004,4583.3,831.9642857142857,270.96428666796004,4691.2,831.9642857142857,270.96428666796004,4793.1,831.9642857142857,270.96428666796004,4895.1]","[1477.7,1477.7,1000,0,477.7,""smooth"",""right"",""right"",""good_move"",4795.5,3317.4,2921.5,1478.1,395.9,""oops"",""right"",""right"",""good_move"",7169.2,2373.5,1996.8,4795.7,376.7,""oops"",""up"",""up"",""good_move"",14163.1,6993.6,2822.7,10905,435.4,""oops"",""up"",""down"",""bad_move"",16838.9,2675.3,2119.6,14163.6,555.7,""oops"",""right"",""down"",""bad_move"",19883.6,3044.5,2518.9,16839.2,525.6,""smooth"",""up"",""up"",""good_move"",25382.9,5499,2165.6,22839.7,377.6,""oops"",""up"",""down"",""bad_move"",28493.4,3110.3,2612.7,25383.1,497.6,""smooth"",""up"",""up"",""good_move"",31306.1,2812.5,1579,28493.6,1233.5,""smooth"",""right"",""right"",""good_move"",33946.9,2640.5,2245.7,31306.4,394.8,""smooth"",""up"",""up"",""good_move"",43352.4,9405.3,2350.4,40611.9,390.1,""oops"",""up"",""up"",""good_move"",47071.7,3719,2139.5,43352.7,1579.5,""smooth"",""up"",""up"",""good_move""]","",""
"5623","","<div style=""width:500px;"">
  <p>What determined the result of this run?</p>
