"rt","response_timestamp","stimulus","response","trial_type","trial_index","time_elapsed","internal_node_id","run_id","condition","recorded_at","source_code_version","ip","user_agent","device","browser","browser_version","platform","platform_version","referer","accept_language","PROLIFIC_PID","STUDY_ID","SESSION_ID","prolific_id","realtime","view_history","question_order","consent","success","question_id","eventType","responses","item_order","radio_event_ids","radio_event_times","key_event_times","mouse_event_times","straightlining","zigzagging","honeypot","which_type","canvas_config","goals_layout","control_level","trial_number","tutorial_trial_number","trial_start_time","phase1_start_time","phase2_start_time","phase3_start_time","goal_1_value","goal_1_distance","goal_2_value","goal_2_distance","goal_selected","outcome","outcome_total","participant_final_score","participant_initial_score","participant_final_score_prop","goal_choice_rt","allocated_time","allocated_time_remaining","goal_direction","counts","mouse_movements","key_presses","correct","slider_start"
"75147","1751451621218","<p style='font-size:40px;line-height:1.25'><strong>Welcome to the experiment!</strong></p><p style='font-size:1.1em;line-height:1.25'>Thank you for your interest in our experiment! Before you begin, it is important that we obtain your informed consent to participate in the study.</p><p style='font-size:1.1em;line-height:1.25'>On the next screen will be an <strong>information sheet</strong> for you to read. To participate in the study we need you to read this information sheet and the following consent form carefully. If you agree with all the statements, please click the <strong>I agree</strong> button.</p><p style='font-size:1.1em;line-height:1.25'>Press <strong>Next</strong> to read the information sheet.</p>","0","custom-html-button-response","0","75156","0.0-0.0","60","1","2025-07-02 10:18:57","80fe4187154257d5fb01684ea91b68b9","105.245.28.11","Mozilla/5.0 (Windows NT 10.0; Win64; x64) AppleWebKit/537.36 (KHTML, like Gecko) Chrome/137.0.0.0 Safari/537.36","WebKit","Chrome","137.0.0.0","Windows","10.0","https://app.prolific.com/","en-ZA,en-GB;q=0.9,en-US;q=0.8,en;q=0.7,zu;q=0.6","5f3287b83428cb05746e2214","683db6dfa200031b80f2a654","686507590e86aee79add6560","5f3287b83428cb05746e2214","2025-07-02T10:20:21.223Z","","","","","","","","","","","","","","","","","","","","","","","","","","","","","","","","","","","","","","","","","","","",""
"18424","","","","instructions","1","93587","0.0-1.0","60","1","2025-07-02 10:18:57","80fe4187154257d5fb01684ea91b68b9","105.245.28.11","Mozilla/5.0 (Windows NT 10.0; Win64; x64) AppleWebKit/537.36 (KHTML, like Gecko) Chrome/137.0.0.0 Safari/537.36","WebKit","Chrome","137.0.0.0","Windows","10.0","https://app.prolific.com/","en-ZA,en-GB;q=0.9,en-US;q=0.8,en;q=0.7,zu;q=0.6","5f3287b83428cb05746e2214","683db6dfa200031b80f2a654","686507590e86aee79add6560","5f3287b83428cb05746e2214","","[{""page_index"":0,""viewing_time"":10950},{""page_index"":1,""viewing_time"":7473}]","","","","","","","","","","","","","","","","","","","","","","","","","","","","","","","","","","","","","","","","","","",""
"6820","","","{""Q0"":"""",""Q1"":"""",""Q2"":"""",""Q3"":"""",""Q4"":"""",""Q5"":"""",""Q6"":""I agree""}","survey-multi-choice","2","100419","0.0-2.0","60","1","2025-07-02 10:18:57","80fe4187154257d5fb01684ea91b68b9","105.245.28.11","Mozilla/5.0 (Windows NT 10.0; Win64; x64) AppleWebKit/537.36 (KHTML, like Gecko) Chrome/137.0.0.0 Safari/537.36","WebKit","Chrome","137.0.0.0","Windows","10.0","https://app.prolific.com/","en-ZA,en-GB;q=0.9,en-US;q=0.8,en;q=0.7,zu;q=0.6","5f3287b83428cb05746e2214","683db6dfa200031b80f2a654","686507590e86aee79add6560","5f3287b83428cb05746e2214","","","[0,1,2,3,4,5,6]","true","","","","","","","","","","","","","","","","","","","","","","","","","","","","","","","","","","","","","","","","",""
"6369","","","","fullscreen","3","107813","0.0-4.0","60","1","2025-07-02 10:18:57","80fe4187154257d5fb01684ea91b68b9","105.245.28.11","Mozilla/5.0 (Windows NT 10.0; Win64; x64) AppleWebKit/537.36 (KHTML, like Gecko) Chrome/137.0.0.0 Safari/537.36","WebKit","Chrome","137.0.0.0","Windows","10.0","https://app.prolific.com/","en-ZA,en-GB;q=0.9,en-US;q=0.8,en;q=0.7,zu;q=0.6","5f3287b83428cb05746e2214","683db6dfa200031b80f2a654","686507590e86aee79add6560","5f3287b83428cb05746e2214","","","","","true","","","","","","","","","","","","","","","","","","","","","","","","","","","","","","","","","","","","","","","",""
"6119","1751451660001"," <p style='font-size:1.1em;line-height:1.25'>Thank you for completing the consent form and closing all other tabs.</p><p style='font-size:1.1em;line-height:1.25'>We will now invite you to fill in some demographic information and questionnaires, before starting the game.<br>This will take about 5 minutes.<br></p><p style='font-size:1.1em;line-height:1.25'>Press the <strong>Next</strong> button to continue.</p>","0","custom-html-button-response","4","113937","0.0-5.0","60","1","2025-07-02 10:18:57","80fe4187154257d5fb01684ea91b68b9","105.245.28.11","Mozilla/5.0 (Windows NT 10.0; Win64; x64) AppleWebKit/537.36 (KHTML, like Gecko) Chrome/137.0.0.0 Safari/537.36","WebKit","Chrome","137.0.0.0","Windows","10.0","https://app.prolific.com/","en-ZA,en-GB;q=0.9,en-US;q=0.8,en;q=0.7,zu;q=0.6","5f3287b83428cb05746e2214","683db6dfa200031b80f2a654","686507590e86aee79add6560","5f3287b83428cb05746e2214","2025-07-02T10:21:00.004Z","","","","","","","","","","","","","","","","","","","","","","","","","","","","","","","","","","","","","","","","","","","",""
"5869","","","{""age"":""36""}","survey-text","5","119827","0.0-6.0-0.0","60","1","2025-07-02 10:18:57","80fe4187154257d5fb01684ea91b68b9","105.245.28.11","Mozilla/5.0 (Windows NT 10.0; Win64; x64) AppleWebKit/537.36 (KHTML, like Gecko) Chrome/137.0.0.0 Safari/537.36","WebKit","Chrome","137.0.0.0","Windows","10.0","https://app.prolific.com/","en-ZA,en-GB;q=0.9,en-US;q=0.8,en;q=0.7,zu;q=0.6","5f3287b83428cb05746e2214","683db6dfa200031b80f2a654","686507590e86aee79add6560","5f3287b83428cb05746e2214","","","","","","0","demographics","","","","","","","","","","","","","","","","","","","","","","","","","","","","","","","","","","","","","",""
"3366","","","{""gender_identity"":""female/woman""}","survey-multi-choice","6","123199","0.0-6.0-1.0","60","1","2025-07-02 10:18:57","80fe4187154257d5fb01684ea91b68b9","105.245.28.11","Mozilla/5.0 (Windows NT 10.0; Win64; x64) AppleWebKit/537.36 (KHTML, like Gecko) Chrome/137.0.0.0 Safari/537.36","WebKit","Chrome","137.0.0.0","Windows","10.0","https://app.prolific.com/","en-ZA,en-GB;q=0.9,en-US;q=0.8,en;q=0.7,zu;q=0.6","5f3287b83428cb05746e2214","683db6dfa200031b80f2a654","686507590e86aee79add6560","5f3287b83428cb05746e2214","","","[0]","","","1","demographics","","","","","","","","","","","","","","","","","","","","","","","","","","","","","","","","","","","","","",""
"3723","","","{""assigned_sex"":""female""}","survey-multi-choice","7","126928","0.0-6.0-2.0","60","1","2025-07-02 10:18:57","80fe4187154257d5fb01684ea91b68b9","105.245.28.11","Mozilla/5.0 (Windows NT 10.0; Win64; x64) AppleWebKit/537.36 (KHTML, like Gecko) Chrome/137.0.0.0 Safari/537.36","WebKit","Chrome","137.0.0.0","Windows","10.0","https://app.prolific.com/","en-ZA,en-GB;q=0.9,en-US;q=0.8,en;q=0.7,zu;q=0.6","5f3287b83428cb05746e2214","683db6dfa200031b80f2a654","686507590e86aee79add6560","5f3287b83428cb05746e2214","","","[0]","","","2","demographics","","","","","","","","","","","","","","","","","","","","","","","","","","","","","","","","","","","","","",""
"6949","","","{""menstrual_cycle"":""Yes""}","survey-multi-choice","8","133885","0.0-6.0-3.0","60","1","2025-07-02 10:18:57","80fe4187154257d5fb01684ea91b68b9","105.245.28.11","Mozilla/5.0 (Windows NT 10.0; Win64; x64) AppleWebKit/537.36 (KHTML, like Gecko) Chrome/137.0.0.0 Safari/537.36","WebKit","Chrome","137.0.0.0","Windows","10.0","https://app.prolific.com/","en-ZA,en-GB;q=0.9,en-US;q=0.8,en;q=0.7,zu;q=0.6","5f3287b83428cb05746e2214","683db6dfa200031b80f2a654","686507590e86aee79add6560","5f3287b83428cb05746e2214","","","[0]","","","4","demographics","","","","","","","","","","","","","","","","","","","","","","","","","","","","","","","","","","","","","",""
"5246","","","{""education"":""Bachelor's Degree (e.g., BA)""}","survey-multi-choice","9","139137","0.0-6.0-4.0","60","1","2025-07-02 10:18:57","80fe4187154257d5fb01684ea91b68b9","105.245.28.11","Mozilla/5.0 (Windows NT 10.0; Win64; x64) AppleWebKit/537.36 (KHTML, like Gecko) Chrome/137.0.0.0 Safari/537.36","WebKit","Chrome","137.0.0.0","Windows","10.0","https://app.prolific.com/","en-ZA,en-GB;q=0.9,en-US;q=0.8,en;q=0.7,zu;q=0.6","5f3287b83428cb05746e2214","683db6dfa200031b80f2a654","686507590e86aee79add6560","5f3287b83428cb05746e2214","","","[0]","","","5","demographics","","","","","","","","","","","","","","","","","","","","","","","","","","","","","","","","","","","","","",""
"13171","","","{""education"":""GCSE/Standard Grades""}","survey-multi-choice","10","152314","0.0-6.0-5.0","60","1","2025-07-02 10:18:57","80fe4187154257d5fb01684ea91b68b9","105.245.28.11","Mozilla/5.0 (Windows NT 10.0; Win64; x64) AppleWebKit/537.36 (KHTML, like Gecko) Chrome/137.0.0.0 Safari/537.36","WebKit","Chrome","137.0.0.0","Windows","10.0","https://app.prolific.com/","en-ZA,en-GB;q=0.9,en-US;q=0.8,en;q=0.7,zu;q=0.6","5f3287b83428cb05746e2214","683db6dfa200031b80f2a654","686507590e86aee79add6560","5f3287b83428cb05746e2214","2025-07-02T10:21:38.381Z","","[0]","","","6","demographics","","","","","","","","","","","","","","","","","","","","","","","","","","","","","","","","","","","","","",""
"19515","","","{""mental_health_condition"":""NO"",""mental_health_treatment"":""NO"",""psychiatric_medication"":""NO""}","survey-text","11","171885","0.0-7.0-0.0","60","1","2025-07-02 10:18:57","80fe4187154257d5fb01684ea91b68b9","105.245.28.11","Mozilla/5.0 (Windows NT 10.0; Win64; x64) AppleWebKit/537.36 (KHTML, like Gecko) Chrome/137.0.0.0 Safari/537.36","WebKit","Chrome","137.0.0.0","Windows","10.0","https://app.prolific.com/","en-ZA,en-GB;q=0.9,en-US;q=0.8,en;q=0.7,zu;q=0.6","5f3287b83428cb05746e2214","683db6dfa200031b80f2a654","686507590e86aee79add6560","5f3287b83428cb05746e2214","2025-07-02T10:21:57.953Z","","","","","1","mental_health","","","","","","","","","","","","","","","","","","","","","","","","","","","","","","","","","","","","","",""
"10356","","","{""depression_history"":[""No""]}","survey-multi-select","12","182253","0.0-7.0-1.0","60","1","2025-07-02 10:18:57","80fe4187154257d5fb01684ea91b68b9","105.245.28.11","Mozilla/5.0 (Windows NT 10.0; Win64; x64) AppleWebKit/537.36 (KHTML, like Gecko) Chrome/137.0.0.0 Safari/537.36","WebKit","Chrome","137.0.0.0","Windows","10.0","https://app.prolific.com/","en-ZA,en-GB;q=0.9,en-US;q=0.8,en;q=0.7,zu;q=0.6","5f3287b83428cb05746e2214","683db6dfa200031b80f2a654","686507590e86aee79add6560","5f3287b83428cb05746e2214","","","[0]","","","","mental_health","","","","","","","","","","","","","","","","","","","","","","","","","","","","","","","","","","","","","",""
"80206.79999999702","","","","survey-template","13","262478","0.0-7.0-3.0","60","1","2025-07-02 10:18:57","80fe4187154257d5fb01684ea91b68b9","105.245.28.11","Mozilla/5.0 (Windows NT 10.0; Win64; x64) AppleWebKit/537.36 (KHTML, like Gecko) Chrome/137.0.0.0 Safari/537.36","WebKit","Chrome","137.0.0.0","Windows","10.0","https://app.prolific.com/","en-ZA,en-GB;q=0.9,en-US;q=0.8,en;q=0.7,zu;q=0.6","5f3287b83428cb05746e2214","683db6dfa200031b80f2a654","686507590e86aee79add6560","5f3287b83428cb05746e2214","2025-07-02T10:23:28.545Z","","","","","","ius","{""Q01"":""1"",""Q02"":""0"",""Q03"":""1"",""Q04"":""3"",""Q05"":""4"",""Q06"":""0"",""Q07"":""1"",""Q08"":""0"",""Q09"":""3"",""Q10"":""0"",""Q11"":""4"",""Q12"":""4"",""Q13"":""2""}","[0,1,2,3,4,5,6,7,8,9,10,11,12]","[""Q01"",""Q02"",""Q03"",""Q04"",""Q05"",""Q06"",""Q06"",""Q07"",""Q08"",""Q09"",""Q10"",""Q11"",""Q12"",""Q13""]","[12732.39999999851,14514.5,17486.70000000298,22203.20000000298,28142.89999999851,34156.5,36197.89999999851,42427.20000000298,46226.10000000149,54805.20000000298,58720.70000000298,63896.20000000298,68061.10000000149,77984.60000000149]","[]","[12732.39999999851,14514.5,17486.70000000298,22203.20000000298,28142.89999999851,34156.5,36197.89999999851,42427.20000000298,46226.10000000149,54805.20000000298,58720.70000000298,63896.20000000298,68061.10000000149,77984.60000000149,80196.79999999702]","0.3076923076923077","0.5833333333333334","0","","","","","","","","","","","","","","","","","","","","","","","","","","","","",""
"3691","1751451812240","<p style='font-size:1.1em;line-height:1.25'>In the following, we will ask you a few questions relating to your experiences over the past month.<br></p><p style='font-size:1.1em;line-height:1.25'>Press the <strong>Next</strong> button to continue.</p>","0","custom-html-button-response","14","266176","0.0-7.0-4.0","60","1","2025-07-02 10:18:57","80fe4187154257d5fb01684ea91b68b9","105.245.28.11","Mozilla/5.0 (Windows NT 10.0; Win64; x64) AppleWebKit/537.36 (KHTML, like Gecko) Chrome/137.0.0.0 Safari/537.36","WebKit","Chrome","137.0.0.0","Windows","10.0","https://app.prolific.com/","en-ZA,en-GB;q=0.9,en-US;q=0.8,en;q=0.7,zu;q=0.6","5f3287b83428cb05746e2214","683db6dfa200031b80f2a654","686507590e86aee79add6560","5f3287b83428cb05746e2214","2025-07-02T10:23:32.243Z","","","","","","","","","","","","","","","","","","","","","","","","","","","","","","","","","","","","","","","","","","","",""
"60563","","","","survey-template","15","326749","0.0-7.0-5.0","60","1","2025-07-02 10:18:57","80fe4187154257d5fb01684ea91b68b9","105.245.28.11","Mozilla/5.0 (Windows NT 10.0; Win64; x64) AppleWebKit/537.36 (KHTML, like Gecko) Chrome/137.0.0.0 Safari/537.36","WebKit","Chrome","137.0.0.0","Windows","10.0","https://app.prolific.com/","en-ZA,en-GB;q=0.9,en-US;q=0.8,en;q=0.7,zu;q=0.6","5f3287b83428cb05746e2214","683db6dfa200031b80f2a654","686507590e86aee79add6560","5f3287b83428cb05746e2214","2025-07-02T10:24:32.817Z","","","","","","pss","{""Q01"":""0"",""Q02"":""1"",""Q03"":""1"",""Q04"":""1"",""Q05"":""2"",""Q06"":""0"",""Q07"":""1"",""Q08"":""2"",""Q09"":""0"",""Q10"":""0""}","[0,1,2,3,4,5,6,7,8,9]","[""Q01"",""Q02"",""Q03"",""Q04"",""Q05"",""Q05"",""Q06"",""Q07"",""Q08"",""Q09"",""Q10""]","[6939.89999999851,11978.5,16267.70000000298,21276.5,25373,27439.29999999702,31899.70000000298,39264.79999999702,48317.60000000149,51729.39999999851,57054]","[]","[0.7000000029802322,6939.89999999851,11978.5,16267.70000000298,21276.5,25373,27439.29999999702,31899.70000000298,39264.79999999702,48317.60000000149,51729.39999999851,57054,60551.5]","0.4","0.3333333333333333","0","","","","","","","","","","","","","","","","","","","","","","","","","","","","",""
"3547","1751451876368","<p style='font-size:1.1em;line-height:1.25'>Thank you for your answers! Now we will ask you a few more questions relating to your feelings in the last 24 hours.<br></p><p style='font-size:1.1em;line-height:1.25'>Press the <strong>Next</strong> button to continue.</p>","0","custom-html-button-response","16","330304","0.0-7.0-6.0","60","1","2025-07-02 10:18:57","80fe4187154257d5fb01684ea91b68b9","105.245.28.11","Mozilla/5.0 (Windows NT 10.0; Win64; x64) AppleWebKit/537.36 (KHTML, like Gecko) Chrome/137.0.0.0 Safari/537.36","WebKit","Chrome","137.0.0.0","Windows","10.0","https://app.prolific.com/","en-ZA,en-GB;q=0.9,en-US;q=0.8,en;q=0.7,zu;q=0.6","5f3287b83428cb05746e2214","683db6dfa200031b80f2a654","686507590e86aee79add6560","5f3287b83428cb05746e2214","2025-07-02T10:24:36.372Z","","","","","","","","","","","","","","","","","","","","","","","","","","","","","","","","","","","","","","","","","","","",""
"72115.59999999404","","","","survey-template","17","402443","0.0-7.0-7.0","60","1","2025-07-02 10:18:57","80fe4187154257d5fb01684ea91b68b9","105.245.28.11","Mozilla/5.0 (Windows NT 10.0; Win64; x64) AppleWebKit/537.36 (KHTML, like Gecko) Chrome/137.0.0.0 Safari/537.36","WebKit","Chrome","137.0.0.0","Windows","10.0","https://app.prolific.com/","en-ZA,en-GB;q=0.9,en-US;q=0.8,en;q=0.7,zu;q=0.6","5f3287b83428cb05746e2214","683db6dfa200031b80f2a654","686507590e86aee79add6560","5f3287b83428cb05746e2214","2025-07-02T10:25:48.511Z","","","","","","drsp","{""Q01"":""0"",""Q02"":""0"",""Q03"":""0"",""Q04"":""0"",""Q05"":""0"",""Q06"":""0"",""Q07"":""0"",""Q08"":""0"",""Q09"":""0"",""Q10"":""0"",""Q11"":""0"",""Q12"":""1"",""Q13"":""1"",""Q14"":""0"",""Q15"":""0"",""Q16"":""0"",""Q17"":""0"",""Q18"":""3"",""Q19"":""0"",""Q20"":""0"",""Q21"":""0""}","[0,1,2,3,4,5,6,7,8,9,10,11,12,13,14,15,16,17,18,19,20]","[""Q01"",""Q02"",""Q03"",""Q04"",""Q05"",""Q06"",""Q07"",""Q08"",""Q09"",""Q10"",""Q11"",""Q12"",""Q13"",""Q12"",""Q13"",""Q14"",""Q15"",""Q16"",""Q17"",""Q18"",""Q19"",""Q20"",""Q21""]","[2595,3700.39999999851,4835.29999999702,5997.79999999702,7643.0999999940395,10006.69999999553,12486.29999999702,13688.29999999702,20697.29999999702,21868.59999999404,24819.59999999404,26376.89999999851,29810.89999999851,34519.59999999404,37267,39468.09999999404,41418.09999999404,47079.19999999553,48682.79999999702,56785.79999999702,58678.39999999851,64299.79999999702,69469.89999999851]","[]","[0.6999999955296516,2595,3700.39999999851,4835.29999999702,5997.79999999702,7643.0999999940395,10006.69999999553,12486.29999999702,13688.29999999702,20697.29999999702,21868.59999999404,23637.69999999553,24819.59999999404,26376.89999999851,29810.89999999851,34519.59999999404,37267,39468.09999999404,41418.09999999404,47079.19999999553,48682.79999999702,56785.79999999702,58678.39999999851,62802,64299.79999999702,69469.89999999851,72094.09999999404]","0.8571428571428571","0.1","0","","","","","","","","","","","","","","","","","","","","","","","","","","","","",""
"13151.10000000149","","","","survey-template","18","415604","0.0-7.0-8.0","60","1","2025-07-02 10:18:57","80fe4187154257d5fb01684ea91b68b9","105.245.28.11","Mozilla/5.0 (Windows NT 10.0; Win64; x64) AppleWebKit/537.36 (KHTML, like Gecko) Chrome/137.0.0.0 Safari/537.36","WebKit","Chrome","137.0.0.0","Windows","10.0","https://app.prolific.com/","en-ZA,en-GB;q=0.9,en-US;q=0.8,en;q=0.7,zu;q=0.6","5f3287b83428cb05746e2214","683db6dfa200031b80f2a654","686507590e86aee79add6560","5f3287b83428cb05746e2214","2025-07-02T10:26:01.671Z","","","","","","stress","{""Q01"":""0"",""Q02"":""5"",""Q03"":""0""}","[0,1,2]","[""Q01"",""Q03"",""Q02""]","[5709.5,10003.60000000149,11359.10000000149]","[]","[5709.5,7091.69999999553,10003.60000000149,11359.10000000149,13145.69999999553]","1","0","0","","","","","","","","","","","","","","","","","","","","","","","","","","","","",""
"182340","","","","instructions","19","597964","0.0-8.0-0.0","60","1","2025-07-02 10:18:57","80fe4187154257d5fb01684ea91b68b9","105.245.28.11","Mozilla/5.0 (Windows NT 10.0; Win64; x64) AppleWebKit/537.36 (KHTML, like Gecko) Chrome/137.0.0.0 Safari/537.36","WebKit","Chrome","137.0.0.0","Windows","10.0","https://app.prolific.com/","en-ZA,en-GB;q=0.9,en-US;q=0.8,en;q=0.7,zu;q=0.6","5f3287b83428cb05746e2214","683db6dfa200031b80f2a654","686507590e86aee79add6560","5f3287b83428cb05746e2214","","[{""page_index"":0,""viewing_time"":52016},{""page_index"":1,""viewing_time"":68613},{""page_index"":2,""viewing_time"":18617},{""page_index"":3,""viewing_time"":43093}]","","","","","","","","","","","","","","","","","","","","","","","","","","","","","","","","","","","","","","","","","","",""
"","","","","ctl-task-cpt","20","633606","0.0-8.0-1.0","60","1","2025-07-02 10:18:57","80fe4187154257d5fb01684ea91b68b9","105.245.28.11","Mozilla/5.0 (Windows NT 10.0; Win64; x64) AppleWebKit/537.36 (KHTML, like Gecko) Chrome/137.0.0.0 Safari/537.36","WebKit","Chrome","137.0.0.0","Windows","10.0","https://app.prolific.com/","en-ZA,en-GB;q=0.9,en-US;q=0.8,en;q=0.7,zu;q=0.6","5f3287b83428cb05746e2214","683db6dfa200031b80f2a654","686507590e86aee79add6560","5f3287b83428cb05746e2214","","","","","","","","","","","","","","","","","win-only","2","g1:SE,g2:NW","1","0","1","607736.7","7901.8","11910.2","32625.4","2","4","4","6","1","2","-2","0","0","0","3441.6","4000","845","[""down"",""right""]","{""num_key_presses"":13,""num_perfect"":4,""num_errors"":4,""num_randdir"":0,""num_randdir_good_moves"":0,""num_whilered"":5,""num_whileblue"":0,""num_blue"":0,""num_good_moves"":4}","[296.22232142857143,293.12857142857143,8.5,296.22232142857143,293.12857142857143,101.1,296.22232142857143,293.12857142857143,211.2,296.22232142857143,293.12857142857143,317.6,296.22232142857143,293.12857142857143,423.9,296.22232142857143,293.12857142857143,530,296.22232142857143,293.12857142857143,630,296.22232142857143,293.12857142857143,730.7,296.22232142857143,293.12857142857143,836.5,296.22232142857143,293.12857142857143,938.4,296.22232142857143,293.12857142857143,1047.7,296.22232142857143,293.12857142857143,1190.8,296.22232142857143,293.12857142857143,1297.9,296.22232142857143,293.12857142857143,1400.2,296.22232142857143,293.12857142857143,1500.2,296.22232142857143,293.12857142857143,1600.9,296.22232142857143,293.12857142857143,1700.9,296.22232142857143,293.12857142857143,1811.6,296.22232142857143,293.12857142857143,1916.2,296.22232142857143,293.12857142857143,2016.9,315.22232142857143,309.12857142857143,2121.3,338.22232142857143,345.12857142857143,2226.3,342.22232142857143,351.12857142857143,2327.8,342.22232142857143,352.12857142857143,2429.7,342.22232142857143,352.12857142857143,2534.9,342.22232142857143,352.12857142857143,2635.5,343.22232142857143,352.12857142857143,2749.6,472.22232142857143,492.12857142857143,2860.5,508.22232142857143,544.1285714285714,2968.5,516.2223214285714,552.1285714285714,3076.6,525.2223214285714,553.1285714285714,3181.6,526.2223214285714,553.1285714285714,3286.9,526.2223214285714,553.1285714285714,3390.5,526.2223214285714,553.1285714285714,3493.8,526.2223214285714,553.1285714285714,3596.8,526.2223214285714,553.1285714285714,3700.5,526.2223214285714,553.1285714285714,3801.4,526.2223214285714,553.1285714285714,3967.8]","[690.7,690.6,1000,0.1,-309.2,""error"",""-"",""-"",""no_move"",1126.5,434,1000,0.1,126.4,""while_red"",""-"",""-"",""no_move"",7375.8,6683.3,2949.3,1703.3,2723.2,""smooth"",""down"",""down"",""good_move"",7597.9,220.1,2578.5,7377.8,-2358.4,""error"",""-"",""-"",""no_move"",7775.8,176.8,2578.5,7377.8,-2180.5,""while_red"",""-"",""-"",""no_move"",7942.3,343.3,2578.5,7377.8,-2014,""while_red"",""-"",""-"",""no_move"",8090.7,491.8,2578.5,7377.8,-1865.5,""while_red"",""-"",""-"",""no_move"",8274.8,675.8,2578.5,7377.8,-1681.4,""while_red"",""-"",""-"",""no_move"",9953.9,2354.9,2673.7,8602.6,-1322.4,""error"",""-"",""-"",""no_move"",13775.5,3819.1,2246.4,10957.3,571.8,""smooth"",""down"",""down"",""good_move"",14101.1,323.8,2199.5,13777.5,-1875.9,""error"",""-"",""-"",""no_move"",18106.5,4002.8,2426.8,15119.1,560.6,""smooth"",""right"",""right"",""good_move"",20577.9,2468.3,1885.2,18109.6,583.2,""smooth"",""right"",""right"",""good_move""]","",""
"19477","","","","instructions","21","653084","0.0-8.0-2.0","60","1","2025-07-02 10:18:57","80fe4187154257d5fb01684ea91b68b9","105.245.28.11","Mozilla/5.0 (Windows NT 10.0; Win64; x64) AppleWebKit/537.36 (KHTML, like Gecko) Chrome/137.0.0.0 Safari/537.36","WebKit","Chrome","137.0.0.0","Windows","10.0","https://app.prolific.com/","en-ZA,en-GB;q=0.9,en-US;q=0.8,en;q=0.7,zu;q=0.6","5f3287b83428cb05746e2214","683db6dfa200031b80f2a654","686507590e86aee79add6560","5f3287b83428cb05746e2214","","[{""page_index"":0,""viewing_time"":19476}]","","","","","","","","","","","","","","","","","","","","","","","","","","","","","","","","","","","","","","","","","","",""
"","","","","ctl-task-cpt","22","683489","0.0-8.0-3.0","60","1","2025-07-02 10:18:57","80fe4187154257d5fb01684ea91b68b9","105.245.28.11","Mozilla/5.0 (Windows NT 10.0; Win64; x64) AppleWebKit/537.36 (KHTML, like Gecko) Chrome/137.0.0.0 Safari/537.36","WebKit","Chrome","137.0.0.0","Windows","10.0","https://app.prolific.com/","en-ZA,en-GB;q=0.9,en-US;q=0.8,en;q=0.7,zu;q=0.6","5f3287b83428cb05746e2214","683db6dfa200031b80f2a654","686507590e86aee79add6560","5f3287b83428cb05746e2214","","","","","","","","","","","","","","","","","win-only","2","g1:SE,g2:NW","0.35","0","3","662851.7","3105","7110","27391","2","4","8","6","1","2","-1","0","0","0","2417","4000","2670","[""down"",""right""]","{""num_key_presses"":6,""num_perfect"":3,""num_errors"":3,""num_randdir"":0,""num_randdir_good_moves"":0,""num_whilered"":0,""num_whileblue"":1,""num_blue"":3,""num_good_moves"":4}","[300.22232142857143,295.12857142857143,1.4,300.22232142857143,295.12857142857143,111.6,300.22232142857143,295.12857142857143,213.7,300.22232142857143,295.12857142857143,317.7,300.22232142857143,295.12857142857143,418.3,300.22232142857143,295.12857142857143,522.8,300.22232142857143,295.12857142857143,629.5,300.22232142857143,295.12857142857143,731.9,300.22232142857143,295.12857142857143,835.6,300.22232142857143,295.12857142857143,947.8,300.22232142857143,295.12857142857143,1051.1,300.22232142857143,295.12857142857143,1157.1,304.22232142857143,298.12857142857143,1261.6,474.22232142857143,437.12857142857143,1361.6,535.2223214285714,505.12857142857143,1463.4,543.2223214285714,520.1285714285714,1568.5,543.2223214285714,524.1285714285714,1671.3,543.2223214285714,531.1285714285714,1782.1,543.2223214285714,531.1285714285714,1882.4,543.2223214285714,531.1285714285714,1983.8,543.2223214285714,531.1285714285714,2091,543.2223214285714,531.1285714285714,2199.9,543.2223214285714,531.1285714285714,2324.3,543.2223214285714,531.1285714285714,2509.9,543.2223214285714,531.1285714285714,2611.1,543.2223214285714,531.1285714285714,2712.6,543.2223214285714,531.1285714285714,2817.6,543.2223214285714,531.1285714285714,2926.5,543.2223214285714,531.1285714285714,3045.2,543.2223214285714,531.1285714285714,3148.8,543.2223214285714,531.1285714285714,3250.2,543.2223214285714,531.1285714285714,3352.1,543.2223214285714,531.1285714285714,3453.1,543.2223214285714,531.1285714285714,3564.5,543.2223214285714,531.1285714285714,3665.7,543.2223214285714,531.1285714285714,3766.6,543.2223214285714,531.1285714285714,3873.7,543.2223214285714,531.1285714285714,3981.6]","[1561.8,1561.8,1000,0,561.8,""smooth"",""down"",""down"",""good_move"",2227.1,664,2572.5,1563.2,-1908.5,""error"",""-"",""-"",""no_move"",5992.6,3761,1812.1,3232,948.5,""while_blue"",""down"",""down"",""good_move"",12249.3,6254.7,2550.2,9047.5,651.6,""smooth"",""right"",""right"",""good_move"",12726.3,475.6,2466.2,12250.8,-1990.7,""error"",""-"",""-"",""no_move"",20157.2,7429.7,2009.2,17562.4,585.6,""smooth"",""right"",""right"",""good_move""]","",""
"56489","","","","instructions","23","739980","0.0-8.0-4.0","60","1","2025-07-02 10:18:57","80fe4187154257d5fb01684ea91b68b9","105.245.28.11","Mozilla/5.0 (Windows NT 10.0; Win64; x64) AppleWebKit/537.36 (KHTML, like Gecko) Chrome/137.0.0.0 Safari/537.36","WebKit","Chrome","137.0.0.0","Windows","10.0","https://app.prolific.com/","en-ZA,en-GB;q=0.9,en-US;q=0.8,en;q=0.7,zu;q=0.6","5f3287b83428cb05746e2214","683db6dfa200031b80f2a654","686507590e86aee79add6560","5f3287b83428cb05746e2214","","[{""page_index"":0,""viewing_time"":7288},{""page_index"":1,""viewing_time"":49200}]","","","","","","","","","","","","","","","","","","","","","","","","","","","","","","","","","","","","","","","","","","",""
"16560","","","{""green_ball"":[""Ball always moves in the direction I press""]}","survey-multi-select","24","756552","0.0-8.0-5.0-0.0","60","1","2025-07-02 10:18:57","80fe4187154257d5fb01684ea91b68b9","105.245.28.11","Mozilla/5.0 (Windows NT 10.0; Win64; x64) AppleWebKit/537.36 (KHTML, like Gecko) Chrome/137.0.0.0 Safari/537.36","WebKit","Chrome","137.0.0.0","Windows","10.0","https://app.prolific.com/","en-ZA,en-GB;q=0.9,en-US;q=0.8,en;q=0.7,zu;q=0.6","5f3287b83428cb05746e2214","683db6dfa200031b80f2a654","686507590e86aee79add6560","5f3287b83428cb05746e2214","","","[0]","","","","quiz","","","","","","","","","","","","","","","","","","","","","","","","","","","","","","","","","","","","","false",""
"8067","","<p align='center'><b>INCORRECT.</b> Usually the green ball moves in the indicated direction, but sometimes it shakes and moves randomly. </p>","0","html-button-response","25","764632","0.0-8.0-5.0-1.0","60","1","2025-07-02 10:18:57","80fe4187154257d5fb01684ea91b68b9","105.245.28.11","Mozilla/5.0 (Windows NT 10.0; Win64; x64) AppleWebKit/537.36 (KHTML, like Gecko) Chrome/137.0.0.0 Safari/537.36","WebKit","Chrome","137.0.0.0","Windows","10.0","https://app.prolific.com/","en-ZA,en-GB;q=0.9,en-US;q=0.8,en;q=0.7,zu;q=0.6","5f3287b83428cb05746e2214","683db6dfa200031b80f2a654","686507590e86aee79add6560","5f3287b83428cb05746e2214","","","","","","","","","","","","","","","","","","","","","","","","","","","","","","","","","","","","","","","","","","","","",""
"14967","","","{""green_ball"":[""Ball sometimes shakes and moves in a random direction""]}","survey-multi-select","26","779610","0.0-8.0-5.1-0.1","60","1","2025-07-02 10:18:57","80fe4187154257d5fb01684ea91b68b9","105.245.28.11","Mozilla/5.0 (Windows NT 10.0; Win64; x64) AppleWebKit/537.36 (KHTML, like Gecko) Chrome/137.0.0.0 Safari/537.36","WebKit","Chrome","137.0.0.0","Windows","10.0","https://app.prolific.com/","en-ZA,en-GB;q=0.9,en-US;q=0.8,en;q=0.7,zu;q=0.6","5f3287b83428cb05746e2214","683db6dfa200031b80f2a654","686507590e86aee79add6560","5f3287b83428cb05746e2214","","","[0]","","","","quiz","","","","","","","","","","","","","","","","","","","","","","","","","","","","","","","","","","","","","true",""
"4567","","<p align='center'><b>CORRECT!</b> Indeed, the green ball may sometimes shake and move in a random direction.</p>","0","html-button-response","27","784188","0.0-8.0-5.1-1.1","60","1","2025-07-02 10:18:57","80fe4187154257d5fb01684ea91b68b9","105.245.28.11","Mozilla/5.0 (Windows NT 10.0; Win64; x64) AppleWebKit/537.36 (KHTML, like Gecko) Chrome/137.0.0.0 Safari/537.36","WebKit","Chrome","137.0.0.0","Windows","10.0","https://app.prolific.com/","en-ZA,en-GB;q=0.9,en-US;q=0.8,en;q=0.7,zu;q=0.6","5f3287b83428cb05746e2214","683db6dfa200031b80f2a654","686507590e86aee79add6560","5f3287b83428cb05746e2214","","","","","","","","","","","","","","","","","","","","","","","","","","","","","","","","","","","","","","","","","","","","",""
"13583","","","{""yellow_ball"":[""Ball doesn‘t move and I get -1 penalty point""]}","survey-multi-select","28","797784","0.0-8.0-6.0-0.0","60","1","2025-07-02 10:18:57","80fe4187154257d5fb01684ea91b68b9","105.245.28.11","Mozilla/5.0 (Windows NT 10.0; Win64; x64) AppleWebKit/537.36 (KHTML, like Gecko) Chrome/137.0.0.0 Safari/537.36","WebKit","Chrome","137.0.0.0","Windows","10.0","https://app.prolific.com/","en-ZA,en-GB;q=0.9,en-US;q=0.8,en;q=0.7,zu;q=0.6","5f3287b83428cb05746e2214","683db6dfa200031b80f2a654","686507590e86aee79add6560","5f3287b83428cb05746e2214","","","[0]","","","","quiz","","","","","","","","","","","","","","","","","","","","","","","","","","","","","","","","","","","","","true",""
"1703","","<p align='center'><b>CORRECT!</b> Indeed, the yellow ball never moves and you receive a penalty.</p>","0","html-button-response","29","799498","0.0-8.0-6.0-1.0","60","1","2025-07-02 10:18:57","80fe4187154257d5fb01684ea91b68b9","105.245.28.11","Mozilla/5.0 (Windows NT 10.0; Win64; x64) AppleWebKit/537.36 (KHTML, like Gecko) Chrome/137.0.0.0 Safari/537.36","WebKit","Chrome","137.0.0.0","Windows","10.0","https://app.prolific.com/","en-ZA,en-GB;q=0.9,en-US;q=0.8,en;q=0.7,zu;q=0.6","5f3287b83428cb05746e2214","683db6dfa200031b80f2a654","686507590e86aee79add6560","5f3287b83428cb05746e2214","","","","","","","","","","","","","","","","","","","","","","","","","","","","","","","","","","","","","","","","","","","","",""
"10391","","","{""blue_ball"":[""Ball doesn‘t move and I get -1 penalty point""]}","survey-multi-select","30","809904","0.0-8.0-7.0-0.0","60","1","2025-07-02 10:18:57","80fe4187154257d5fb01684ea91b68b9","105.245.28.11","Mozilla/5.0 (Windows NT 10.0; Win64; x64) AppleWebKit/537.36 (KHTML, like Gecko) Chrome/137.0.0.0 Safari/537.36","WebKit","Chrome","137.0.0.0","Windows","10.0","https://app.prolific.com/","en-ZA,en-GB;q=0.9,en-US;q=0.8,en;q=0.7,zu;q=0.6","5f3287b83428cb05746e2214","683db6dfa200031b80f2a654","686507590e86aee79add6560","5f3287b83428cb05746e2214","","","[0]","","","","quiz","","","","","","","","","","","","","","","","","","","","","","","","","","","","","","","","","","","","","false",""
"3927","","<p align='center'><b>INCORRECT.</b> The blue ball always shakes and moves randomly.</p>","0","html-button-response","31","813839","0.0-8.0-7.0-1.0","60","1","2025-07-02 10:18:57","80fe4187154257d5fb01684ea91b68b9","105.245.28.11","Mozilla/5.0 (Windows NT 10.0; Win64; x64) AppleWebKit/537.36 (KHTML, like Gecko) Chrome/137.0.0.0 Safari/537.36","WebKit","Chrome","137.0.0.0","Windows","10.0","https://app.prolific.com/","en-ZA,en-GB;q=0.9,en-US;q=0.8,en;q=0.7,zu;q=0.6","5f3287b83428cb05746e2214","683db6dfa200031b80f2a654","686507590e86aee79add6560","5f3287b83428cb05746e2214","","","","","","","","","","","","","","","","","","","","","","","","","","","","","","","","","","","","","","","","","","","","",""
"10284","","","{""blue_ball"":[""Ball always shakes and moves in a random direction""]}","survey-multi-select","32","824132","0.0-8.0-7.1-0.1","60","1","2025-07-02 10:18:57","80fe4187154257d5fb01684ea91b68b9","105.245.28.11","Mozilla/5.0 (Windows NT 10.0; Win64; x64) AppleWebKit/537.36 (KHTML, like Gecko) Chrome/137.0.0.0 Safari/537.36","WebKit","Chrome","137.0.0.0","Windows","10.0","https://app.prolific.com/","en-ZA,en-GB;q=0.9,en-US;q=0.8,en;q=0.7,zu;q=0.6","5f3287b83428cb05746e2214","683db6dfa200031b80f2a654","686507590e86aee79add6560","5f3287b83428cb05746e2214","","","[0]","","","","quiz","","","","","","","","","","","","","","","","","","","","","","","","","","","","","","","","","","","","","true",""
"2317","","<p align='center'><b>CORRECT!</b> Indeed, the blue ball always shakes and moves in a random direction. Also there is a penalty of -1 point.</p>","0","html-button-response","33","826454","0.0-8.0-7.1-1.1","60","1","2025-07-02 10:18:57","80fe4187154257d5fb01684ea91b68b9","105.245.28.11","Mozilla/5.0 (Windows NT 10.0; Win64; x64) AppleWebKit/537.36 (KHTML, like Gecko) Chrome/137.0.0.0 Safari/537.36","WebKit","Chrome","137.0.0.0","Windows","10.0","https://app.prolific.com/","en-ZA,en-GB;q=0.9,en-US;q=0.8,en;q=0.7,zu;q=0.6","5f3287b83428cb05746e2214","683db6dfa200031b80f2a654","686507590e86aee79add6560","5f3287b83428cb05746e2214","","","","","","","","","","","","","","","","","","","","","","","","","","","","","","","","","","","","","","","","","","","","",""
"12389","","","{""bonus"":[""When I reach 50% of points""]}","survey-multi-select","34","838854","0.0-8.0-8.0-0.0","60","1","2025-07-02 10:18:57","80fe4187154257d5fb01684ea91b68b9","105.245.28.11","Mozilla/5.0 (Windows NT 10.0; Win64; x64) AppleWebKit/537.36 (KHTML, like Gecko) Chrome/137.0.0.0 Safari/537.36","WebKit","Chrome","137.0.0.0","Windows","10.0","https://app.prolific.com/","en-ZA,en-GB;q=0.9,en-US;q=0.8,en;q=0.7,zu;q=0.6","5f3287b83428cb05746e2214","683db6dfa200031b80f2a654","686507590e86aee79add6560","5f3287b83428cb05746e2214","","","[0]","","","","quiz","","","","","","","","","","","","","","","","","","","","","","","","","","","","","","","","","","","","","true",""
"5257","","<p align='center'><b>CORRECT!</b> Indeed, you receive 2 pounds extra when you reach 50% of points.</p>","0","html-button-response","35","844121","0.0-8.0-8.0-1.0","60","1","2025-07-02 10:18:57","80fe4187154257d5fb01684ea91b68b9","105.245.28.11","Mozilla/5.0 (Windows NT 10.0; Win64; x64) AppleWebKit/537.36 (KHTML, like Gecko) Chrome/137.0.0.0 Safari/537.36","WebKit","Chrome","137.0.0.0","Windows","10.0","https://app.prolific.com/","en-ZA,en-GB;q=0.9,en-US;q=0.8,en;q=0.7,zu;q=0.6","5f3287b83428cb05746e2214","683db6dfa200031b80f2a654","686507590e86aee79add6560","5f3287b83428cb05746e2214","","","","","","","","","","","","","","","","","","","","","","","","","","","","","","","","","","","","","","","","","","","","",""
"5700","","","","instructions","36","849834","0.0-8.0-9.0","60","1","2025-07-02 10:18:57","80fe4187154257d5fb01684ea91b68b9","105.245.28.11","Mozilla/5.0 (Windows NT 10.0; Win64; x64) AppleWebKit/537.36 (KHTML, like Gecko) Chrome/137.0.0.0 Safari/537.36","WebKit","Chrome","137.0.0.0","Windows","10.0","https://app.prolific.com/","en-ZA,en-GB;q=0.9,en-US;q=0.8,en;q=0.7,zu;q=0.6","5f3287b83428cb05746e2214","683db6dfa200031b80f2a654","686507590e86aee79add6560","5f3287b83428cb05746e2214","","[{""page_index"":0,""viewing_time"":5699}]","","","","","","","","","","","","","","","","","","","","","","","","","","","","","","","","","","","","","","","","","","",""
"17472","","<p>Before you start with this game please answer the following three questions yourself. </p>
  <p>Through this game, we measure several aspects of your cognitive performance, such as reaction times, multi-tasking capabilities </p>
  <p>and the ability to assess the situation you are in.</p>
  <p></p>
  <p><b>How good do you usually are in such tasks?</b></p>","28","html-slider-response","37","867315","0.0-9.0-0.0","60","1","2025-07-02 10:18:57","80fe4187154257d5fb01684ea91b68b9","105.245.28.11","Mozilla/5.0 (Windows NT 10.0; Win64; x64) AppleWebKit/537.36 (KHTML, like Gecko) Chrome/137.0.0.0 Safari/537.36","WebKit","Chrome","137.0.0.0","Windows","10.0","https://app.prolific.com/","en-ZA,en-GB;q=0.9,en-US;q=0.8,en;q=0.7,zu;q=0.6","5f3287b83428cb05746e2214","683db6dfa200031b80f2a654","686507590e86aee79add6560","5f3287b83428cb05746e2214","2025-07-02T10:33:33.382Z","","","","","","PreSkillQ","","","","","","","","","","","","","","","","","","","","","","","","","","","","","","","","","","","","","","50"
"5553","","<div style=""width:500px;"">
  <p>How well do you think you will perform in this task compared to other participants?</p>
  </div>","55","html-slider-response","38","872875","0.0-9.0-1.0","60","1","2025-07-02 10:18:57","80fe4187154257d5fb01684ea91b68b9","105.245.28.11","Mozilla/5.0 (Windows NT 10.0; Win64; x64) AppleWebKit/537.36 (KHTML, like Gecko) Chrome/137.0.0.0 Safari/537.36","WebKit","Chrome","137.0.0.0","Windows","10.0","https://app.prolific.com/","en-ZA,en-GB;q=0.9,en-US;q=0.8,en;q=0.7,zu;q=0.6","5f3287b83428cb05746e2214","683db6dfa200031b80f2a654","686507590e86aee79add6560","5f3287b83428cb05746e2214","2025-07-02T10:33:38.942Z","","","","","","PrePerfQ","","","","","","","","","","","","","","","","","","","","","","","","","","","","","","","","","","","","","","50"
"6551","","<div style=""width:500px;"">
  <p>What best describes how you currently feel?</p>
  </div>","100","html-slider-response","39","879435","0.0-9.0-2.0","60","1","2025-07-02 10:18:57","80fe4187154257d5fb01684ea91b68b9","105.245.28.11","Mozilla/5.0 (Windows NT 10.0; Win64; x64) AppleWebKit/537.36 (KHTML, like Gecko) Chrome/137.0.0.0 Safari/537.36","WebKit","Chrome","137.0.0.0","Windows","10.0","https://app.prolific.com/","en-ZA,en-GB;q=0.9,en-US;q=0.8,en;q=0.7,zu;q=0.6","5f3287b83428cb05746e2214","683db6dfa200031b80f2a654","686507590e86aee79add6560","5f3287b83428cb05746e2214","2025-07-02T10:33:45.502Z","","","","","","PreMotivationQ","","","","","","","","","","","","","","","","","","","","","","","","","","","","","","","","","","","","","","50"
"","","","","ctl-task-cpt","40","904189","0.0-10.0-0.0","60","1","2025-07-02 10:18:57","80fe4187154257d5fb01684ea91b68b9","105.245.28.11","Mozilla/5.0 (Windows NT 10.0; Win64; x64) AppleWebKit/537.36 (KHTML, like Gecko) Chrome/137.0.0.0 Safari/537.36","WebKit","Chrome","137.0.0.0","Windows","10.0","https://app.prolific.com/","en-ZA,en-GB;q=0.9,en-US;q=0.8,en;q=0.7,zu;q=0.6","5f3287b83428cb05746e2214","683db6dfa200031b80f2a654","686507590e86aee79add6560","5f3287b83428cb05746e2214","2025-07-02T10:34:10.256Z","","","","","","","","","","","","","","","","win-only","3","g1:SW,g2:NE","1","1","0","889215.2","4533.1","9543.4","21725.9","1","4","4","6","1","1","1","1","0","0.007575757575757576","2486.1","3000","1445","[""down"",""left""]","{""num_key_presses"":4,""num_perfect"":4,""num_errors"":0,""num_randdir"":0,""num_randdir_good_moves"":0,""num_whilered"":0,""num_whileblue"":0,""num_blue"":0,""num_good_moves"":4}","[293.22232142857143,301.12857142857143,6.8,293.22232142857143,301.12857142857143,101.9,293.22232142857143,301.12857142857143,210.8,293.22232142857143,301.12857142857143,325.7,293.22232142857143,301.12857142857143,439.2,293.22232142857143,301.12857142857143,555.5,293.22232142857143,301.12857142857143,660,293.22232142857143,301.12857142857143,767.7,290.22232142857143,301.12857142857143,873.5,198.22232142857143,376.12857142857143,980.2,180.22232142857143,397.12857142857143,1083.7,165.22232142857143,422.12857142857143,1191.7,131.22232142857143,483.12857142857143,1304.3,101.22232142857143,501.12857142857143,1413.9,66.22232142857143,521.1285714285714,1516.8,57.222321428571426,525.1285714285714,1626,43.222321428571426,528.1285714285714,1736.5,42.222321428571426,528.1285714285714,1842.5,42.222321428571426,528.1285714285714,1946.8,42.222321428571426,528.1285714285714,2057.2,42.222321428571426,528.1285714285714,2159.2,42.222321428571426,528.1285714285714,2265.4,42.222321428571426,528.1285714285714,2366.4,42.222321428571426,528.1285714285714,2466.5,42.222321428571426,528.1285714285714,2573.8,42.222321428571426,528.1285714285714,2676.8,42.222321428571426,528.1285714285714,2783,42.222321428571426,528.1285714285714,2890,42.222321428571426,528.1285714285714,2993.9,42.222321428571426,528.1285714285714,3104,42.222321428571426,528.1285714285714,3208.9,42.222321428571426,528.1285714285714,3309,42.222321428571426,528.1285714285714,3421.5,42.222321428571426,528.1285714285714,3525.9,42.222321428571426,528.1285714285714,3633.8,42.222321428571426,528.1285714285714,3736.2,42.222321428571426,528.1285714285714,3848.2,42.222321428571426,528.1285714285714,3956.7,42.222321428571426,528.1285714285714,4071.2,42.222321428571426,528.1285714285714,4172.9,42.222321428571426,528.1285714285714,4314.3,42.222321428571426,528.1285714285714,4419,42.222321428571426,528.1285714285714,4525.9,42.222321428571426,528.1285714285714,4630.1,42.222321428571426,528.1285714285714,4731.4,42.222321428571426,528.1285714285714,4836.1,42.222321428571426,528.1285714285714,4939.2]","[1664.5,1664.5,1000,0,664.5,""smooth"",""down"",""down"",""good_move"",5388.2,3721.8,3078.1,1666.4,643.7,""smooth"",""down"",""down"",""good_move"",8908.8,3517.8,2894,5391.2,623.6,""smooth"",""left"",""left"",""good_move"",12005,3093.5,2358.7,8911.5,734.8,""smooth"",""left"",""left"",""good_move""]","",""
"7261","","<div style=""width:500px;"">
  <p>What determined the result of this run?</p>
  </div>","100","html-slider-response","41","911454","0.0-10.0-1.0","60","1","2025-07-02 10:18:57","80fe4187154257d5fb01684ea91b68b9","105.245.28.11","Mozilla/5.0 (Windows NT 10.0; Win64; x64) AppleWebKit/537.36 (KHTML, like Gecko) Chrome/137.0.0.0 Safari/537.36","WebKit","Chrome","137.0.0.0","Windows","10.0","https://app.prolific.com/","en-ZA,en-GB;q=0.9,en-US;q=0.8,en;q=0.7,zu;q=0.6","5f3287b83428cb05746e2214","683db6dfa200031b80f2a654","686507590e86aee79add6560","5f3287b83428cb05746e2214","2025-07-02T10:34:17.522Z","","","","","","AttribQ","","","","","","","","","","","","","","","","","","","","","","","","","","","","","","","","","","","","","","50"
"5969","","<div style=""width:500px;"">
  <p>How much control did you have over the ball?</p>
  </div>","100","html-slider-response","42","917428","0.0-10.0-2.0","60","1","2025-07-02 10:18:57","80fe4187154257d5fb01684ea91b68b9","105.245.28.11","Mozilla/5.0 (Windows NT 10.0; Win64; x64) AppleWebKit/537.36 (KHTML, like Gecko) Chrome/137.0.0.0 Safari/537.36","WebKit","Chrome","137.0.0.0","Windows","10.0","https://app.prolific.com/","en-ZA,en-GB;q=0.9,en-US;q=0.8,en;q=0.7,zu;q=0.6","5f3287b83428cb05746e2214","683db6dfa200031b80f2a654","686507590e86aee79add6560","5f3287b83428cb05746e2214","2025-07-02T10:34:23.495Z","","","","","","ControlQ","","","","","","","","","","","","","","","","","","","","","","","","","","","","","","","","","","","","","","50"
"5288","","<div style=""width:500px;"">
  <p>How would you describe your current emotional state?</p>
  </div>","0","html-slider-response","43","922728","0.0-10.0-3.0","60","1","2025-07-02 10:18:57","80fe4187154257d5fb01684ea91b68b9","105.245.28.11","Mozilla/5.0 (Windows NT 10.0; Win64; x64) AppleWebKit/537.36 (KHTML, like Gecko) Chrome/137.0.0.0 Safari/537.36","WebKit","Chrome","137.0.0.0","Windows","10.0","https://app.prolific.com/","en-ZA,en-GB;q=0.9,en-US;q=0.8,en;q=0.7,zu;q=0.6","5f3287b83428cb05746e2214","683db6dfa200031b80f2a654","686507590e86aee79add6560","5f3287b83428cb05746e2214","2025-07-02T10:34:28.795Z","","","","","","StressQ","","","","","","","","","","","","","","","","","","","","","","","","","","","","","","","","","","","","","","50"
"5461","","<div style=""width:500px;"">
  <p>What best describes how you currently feel?</p>
  </div>","100","html-slider-response","44","928196","0.0-10.0-4.0","60","1","2025-07-02 10:18:57","80fe4187154257d5fb01684ea91b68b9","105.245.28.11","Mozilla/5.0 (Windows NT 10.0; Win64; x64) AppleWebKit/537.36 (KHTML, like Gecko) Chrome/137.0.0.0 Safari/537.36","WebKit","Chrome","137.0.0.0","Windows","10.0","https://app.prolific.com/","en-ZA,en-GB;q=0.9,en-US;q=0.8,en;q=0.7,zu;q=0.6","5f3287b83428cb05746e2214","683db6dfa200031b80f2a654","686507590e86aee79add6560","5f3287b83428cb05746e2214","2025-07-02T10:34:34.263Z","","","","","","MotivationQ","","","","","","","","","","","","","","","","","","","","","","","","","","","","","","","","","","","","","","50"
"","","","","ctl-task-cpt","45","960774","0.0-10.0-0.1","60","1","2025-07-02 10:18:57","80fe4187154257d5fb01684ea91b68b9","105.245.28.11","Mozilla/5.0 (Windows NT 10.0; Win64; x64) AppleWebKit/537.36 (KHTML, like Gecko) Chrome/137.0.0.0 Safari/537.36","WebKit","Chrome","137.0.0.0","Windows","10.0","https://app.prolific.com/","en-ZA,en-GB;q=0.9,en-US;q=0.8,en;q=0.7,zu;q=0.6","5f3287b83428cb05746e2214","683db6dfa200031b80f2a654","686507590e86aee79add6560","5f3287b83428cb05746e2214","2025-07-02T10:35:06.841Z","","","","","","","","","","","","","","","","win-only","1","g1:NE,g2:SW","0.9","2","0","937970.2","2348.2","7364.9","29533.7","1","4","8","6","2","8","8","9","1","0.06818181818181818","1714.5","3000","1760","[""down"",""left""]","{""num_key_presses"":6,""num_perfect"":6,""num_errors"":0,""num_randdir"":0,""num_randdir_good_moves"":0,""num_whilered"":0,""num_whileblue"":0,""num_blue"":1,""num_good_moves"":6}","[298.22232142857143,291.12857142857143,5.5,298.22232142857143,291.12857142857143,101.9,298.22232142857143,291.12857142857143,203.1,298.22232142857143,291.12857142857143,305.7,298.22232142857143,291.12857142857143,419,298.22232142857143,291.12857142857143,527,298.22232142857143,291.12857142857143,634.8,298.22232142857143,291.12857142857143,740,298.22232142857143,291.12857142857143,872.5,159.22232142857143,412.12857142857143,986.7,83.22232142857143,482.12857142857143,1103.2,55.222321428571426,519.1285714285714,1206.8,48.222321428571426,540.1285714285714,1323.8,48.222321428571426,541.1285714285714,1434.6,48.222321428571426,541.1285714285714,1545.9,48.222321428571426,541.1285714285714,1656.8,48.222321428571426,541.1285714285714,1764.9,48.222321428571426,541.1285714285714,1874.3,48.222321428571426,541.1285714285714,1984.3,48.222321428571426,541.1285714285714,2091.8,48.222321428571426,541.1285714285714,2191.8,48.222321428571426,541.1285714285714,2294,48.222321428571426,541.1285714285714,2394.1,48.222321428571426,541.1285714285714,2504.4,48.222321428571426,541.1285714285714,2615.2,48.222321428571426,541.1285714285714,2726.7,48.222321428571426,541.1285714285714,2826.8,48.222321428571426,541.1285714285714,2927.2,48.222321428571426,541.1285714285714,3033.2,48.222321428571426,541.1285714285714,3140.5,48.222321428571426,541.1285714285714,3245.6,48.222321428571426,541.1285714285714,3354.5,48.222321428571426,541.1285714285714,3463.8,48.222321428571426,541.1285714285714,3575.4,48.222321428571426,541.1285714285714,3682.6,48.222321428571426,541.1285714285714,3785.1,48.222321428571426,541.1285714285714,3900,48.222321428571426,541.1285714285714,4001.4,48.222321428571426,541.1285714285714,4109.5,48.222321428571426,541.1285714285714,4215.1,48.222321428571426,541.1285714285714,4316.2,48.222321428571426,541.1285714285714,4418.3,48.222321428571426,541.1285714285714,4523.7,48.222321428571426,541.1285714285714,4631.1,48.222321428571426,541.1285714285714,4731.3,48.222321428571426,541.1285714285714,4838.1,48.222321428571426,541.1285714285714,4940.3]","[1535.7,1535.7,1000,0,535.7,""smooth"",""down"",""down"",""good_move"",3987.6,2448.6,1609.9,1539,838.7,""smooth"",""down"",""down"",""good_move"",7348.5,3359,2773.8,3989.8,585,""smooth"",""down"",""down"",""good_move"",10326.2,2975.6,2314.4,7350.6,661.2,""smooth"",""left"",""left"",""good_move"",13949.7,3619.5,3041.4,10330.2,578.1,""smooth"",""left"",""left"",""good_move"",21850.8,7894,3809.7,17515.1,526,""smooth"",""left"",""left"",""good_move""]","",""
"4322","","<div style=""width:500px;"">
  <p>What determined the result of this run?</p>
  </div>","100","html-slider-response","46","965102","0.0-10.0-1.1","60","1","2025-07-02 10:18:57","80fe4187154257d5fb01684ea91b68b9","105.245.28.11","Mozilla/5.0 (Windows NT 10.0; Win64; x64) AppleWebKit/537.36 (KHTML, like Gecko) Chrome/137.0.0.0 Safari/537.36","WebKit","Chrome","137.0.0.0","Windows","10.0","https://app.prolific.com/","en-ZA,en-GB;q=0.9,en-US;q=0.8,en;q=0.7,zu;q=0.6","5f3287b83428cb05746e2214","683db6dfa200031b80f2a654","686507590e86aee79add6560","5f3287b83428cb05746e2214","2025-07-02T10:35:11.170Z","","","","","","AttribQ","","","","","","","","","","","","","","","","","","","","","","","","","","","","","","","","","","","","","","50"
"3479","","<div style=""width:500px;"">
  <p>How much control did you have over the ball?</p>
  </div>","100","html-slider-response","47","968588","0.0-10.0-2.1","60","1","2025-07-02 10:18:57","80fe4187154257d5fb01684ea91b68b9","105.245.28.11","Mozilla/5.0 (Windows NT 10.0; Win64; x64) AppleWebKit/537.36 (KHTML, like Gecko) Chrome/137.0.0.0 Safari/537.36","WebKit","Chrome","137.0.0.0","Windows","10.0","https://app.prolific.com/","en-ZA,en-GB;q=0.9,en-US;q=0.8,en;q=0.7,zu;q=0.6","5f3287b83428cb05746e2214","683db6dfa200031b80f2a654","686507590e86aee79add6560","5f3287b83428cb05746e2214","2025-07-02T10:35:14.655Z","","","","","","ControlQ","","","","","","","","","","","","","","","","","","","","","","","","","","","","","","","","","","","","","","50"
"4739","","<div style=""width:500px;"">
  <p>How would you describe your current emotional state?</p>
  </div>","0","html-slider-response","48","973336","0.0-10.0-3.1","60","1","2025-07-02 10:18:57","80fe4187154257d5fb01684ea91b68b9","105.245.28.11","Mozilla/5.0 (Windows NT 10.0; Win64; x64) AppleWebKit/537.36 (KHTML, like Gecko) Chrome/137.0.0.0 Safari/537.36","WebKit","Chrome","137.0.0.0","Windows","10.0","https://app.prolific.com/","en-ZA,en-GB;q=0.9,en-US;q=0.8,en;q=0.7,zu;q=0.6","5f3287b83428cb05746e2214","683db6dfa200031b80f2a654","686507590e86aee79add6560","5f3287b83428cb05746e2214","2025-07-02T10:35:19.403Z","","","","","","StressQ","","","","","","","","","","","","","","","","","","","","","","","","","","","","","","","","","","","","","","50"
"4075","","<div style=""width:500px;"">
  <p>What best describes how you currently feel?</p>
  </div>","100","html-slider-response","49","977421","0.0-10.0-4.1","60","1","2025-07-02 10:18:57","80fe4187154257d5fb01684ea91b68b9","105.245.28.11","Mozilla/5.0 (Windows NT 10.0; Win64; x64) AppleWebKit/537.36 (KHTML, like Gecko) Chrome/137.0.0.0 Safari/537.36","WebKit","Chrome","137.0.0.0","Windows","10.0","https://app.prolific.com/","en-ZA,en-GB;q=0.9,en-US;q=0.8,en;q=0.7,zu;q=0.6","5f3287b83428cb05746e2214","683db6dfa200031b80f2a654","686507590e86aee79add6560","5f3287b83428cb05746e2214","2025-07-02T10:35:23.488Z","","","","","","MotivationQ","","","","","","","","","","","","","","","","","","","","","","","","","","","","","","","","","","","","","","50"
"","","","","ctl-task-cpt","50","1014946","0.0-10.0-0.2","60","1","2025-07-02 10:18:57","80fe4187154257d5fb01684ea91b68b9","105.245.28.11","Mozilla/5.0 (Windows NT 10.0; Win64; x64) AppleWebKit/537.36 (KHTML, like Gecko) Chrome/137.0.0.0 Safari/537.36","WebKit","Chrome","137.0.0.0","Windows","10.0","https://app.prolific.com/","en-ZA,en-GB;q=0.9,en-US;q=0.8,en;q=0.7,zu;q=0.6","5f3287b83428cb05746e2214","683db6dfa200031b80f2a654","686507590e86aee79add6560","5f3287b83428cb05746e2214","2025-07-02T10:36:01.013Z","","","","","","","","","","","","","","","","win-only","3","g1:SW,g2:NE","0.8","3","0","987192","2070.2","7088.1","34473.8","1","4","4","6","2","4","4","13","9","0.09848484848484848","1951.5","3000","2330","[""up"",""right""]","{""num_key_presses"":6,""num_perfect"":5,""num_errors"":0,""num_randdir"":1,""num_randdir_good_moves"":1,""num_whilered"":0,""num_whileblue"":0,""num_blue"":1,""num_good_moves"":6}","[295.22232142857143,299.12857142857143,2.5,295.22232142857143,299.12857142857143,131.9,295.22232142857143,299.12857142857143,241.8,295.22232142857143,299.12857142857143,351.8,295.22232142857143,299.12857142857143,478.6,295.22232142857143,299.12857142857143,580.4,295.22232142857143,299.12857142857143,697.8,295.22232142857143,299.12857142857143,808.7,295.22232142857143,299.12857142857143,928.2,320.22232142857143,271.12857142857143,1035.7,411.22232142857143,158.12857142857143,1167,452.22232142857143,115.12857142857143,1284.2,521.2223214285714,75.12857142857143,1431.4,526.2223214285714,72.12857142857143,1544.1,527.2223214285714,72.12857142857143,1647.7,527.2223214285714,72.12857142857143,1782.3,527.2223214285714,72.12857142857143,1907.5,527.2223214285714,72.12857142857143,2031,527.2223214285714,72.12857142857143,2148.4,527.2223214285714,72.12857142857143,2267.8,527.2223214285714,72.12857142857143,2390.7,527.2223214285714,72.12857142857143,2498.3,527.2223214285714,72.12857142857143,2599.7,527.2223214285714,72.12857142857143,2729.5,527.2223214285714,72.12857142857143,2846.5,527.2223214285714,72.12857142857143,2959.3,527.2223214285714,72.12857142857143,3076.7,527.2223214285714,72.12857142857143,3177.7,527.2223214285714,72.12857142857143,3298.3,527.2223214285714,72.12857142857143,3410.1,527.2223214285714,72.12857142857143,3522.5,527.2223214285714,72.12857142857143,3636.7,527.2223214285714,72.12857142857143,3756.1,527.2223214285714,72.12857142857143,3863,527.2223214285714,72.12857142857143,3976.4,527.2223214285714,72.12857142857143,4103.1,527.2223214285714,72.12857142857143,4229.1,527.2223214285714,72.12857142857143,4346.7,527.2223214285714,72.12857142857143,4456.8,527.2223214285714,72.12857142857143,4569.2,527.2223214285714,72.12857142857143,4692.3,527.2223214285714,72.12857142857143,4808.1,527.2223214285714,72.12857142857143,4923.3]","[5472.9,5472.9,2865.9,2044.9,562.1,""smooth"",""right"",""right"",""good_move"",8642.5,3167.6,2501.6,5474.9,666,""oops"",""right"",""up"",""good_move"",14790.3,6145.6,2513.4,8644.8,3632.2,""smooth"",""right"",""right"",""good_move"",17843,3051.1,2170.1,14792.1,880.8,""smooth"",""right"",""right"",""good_move"",20964.7,3119.3,2532.8,17845.6,586.3,""smooth"",""up"",""up"",""good_move"",26767.9,5799.4,2836.2,20968.5,2963.3,""smooth"",""up"",""up"",""good_move""]","",""
"59485","","<div style=""width:500px;"">
  <p>What determined the result of this run?</p>
  </div>","100","html-slider-response","51","1074439","0.0-10.0-1.2","60","1","2025-07-02 10:18:57","80fe4187154257d5fb01684ea91b68b9","105.245.28.11","Mozilla/5.0 (Windows NT 10.0; Win64; x64) AppleWebKit/537.36 (KHTML, like Gecko) Chrome/137.0.0.0 Safari/537.36","WebKit","Chrome","137.0.0.0","Windows","10.0","https://app.prolific.com/","en-ZA,en-GB;q=0.9,en-US;q=0.8,en;q=0.7,zu;q=0.6","5f3287b83428cb05746e2214","683db6dfa200031b80f2a654","686507590e86aee79add6560","5f3287b83428cb05746e2214","2025-07-02T10:37:00.506Z","","","","","","AttribQ","","","","","","","","","","","","","","","","","","","","","","","","","","","","","","","","","","","","","","50"
"4563","","<div style=""width:500px;"">
  <p>How much control did you have over the ball?</p>
  </div>","100","html-slider-response","52","1079016","0.0-10.0-2.2","60","1","2025-07-02 10:18:57","80fe4187154257d5fb01684ea91b68b9","105.245.28.11","Mozilla/5.0 (Windows NT 10.0; Win64; x64) AppleWebKit/537.36 (KHTML, like Gecko) Chrome/137.0.0.0 Safari/537.36","WebKit","Chrome","137.0.0.0","Windows","10.0","https://app.prolific.com/","en-ZA,en-GB;q=0.9,en-US;q=0.8,en;q=0.7,zu;q=0.6","5f3287b83428cb05746e2214","683db6dfa200031b80f2a654","686507590e86aee79add6560","5f3287b83428cb05746e2214","2025-07-02T10:37:05.083Z","","","","","","ControlQ","","","","","","","","","","","","","","","","","","","","","","","","","","","","","","","","","","","","","","50"
"6188","","<div style=""width:500px;"">
  <p>How would you describe your current emotional state?</p>
  </div>","0","html-slider-response","53","1085216","0.0-10.0-3.2","60","1","2025-07-02 10:18:57","80fe4187154257d5fb01684ea91b68b9","105.245.28.11","Mozilla/5.0 (Windows NT 10.0; Win64; x64) AppleWebKit/537.36 (KHTML, like Gecko) Chrome/137.0.0.0 Safari/537.36","WebKit","Chrome","137.0.0.0","Windows","10.0","https://app.prolific.com/","en-ZA,en-GB;q=0.9,en-US;q=0.8,en;q=0.7,zu;q=0.6","5f3287b83428cb05746e2214","683db6dfa200031b80f2a654","686507590e86aee79add6560","5f3287b83428cb05746e2214","2025-07-02T10:37:11.283Z","","","","","","StressQ","","","","","","","","","","","","","","","","","","","","","","","","","","","","","","","","","","","","","","50"
"76840","","<div style=""width:500px;"">
  <p>What best describes how you currently feel?</p>
  </div>","100","html-slider-response","54","1162070","0.0-10.0-4.2","60","1","2025-07-02 10:18:57","80fe4187154257d5fb01684ea91b68b9","105.245.28.11","Mozilla/5.0 (Windows NT 10.0; Win64; x64) AppleWebKit/537.36 (KHTML, like Gecko) Chrome/137.0.0.0 Safari/537.36","WebKit","Chrome","137.0.0.0","Windows","10.0","https://app.prolific.com/","en-ZA,en-GB;q=0.9,en-US;q=0.8,en;q=0.7,zu;q=0.6","5f3287b83428cb05746e2214","683db6dfa200031b80f2a654","686507590e86aee79add6560","5f3287b83428cb05746e2214","2025-07-02T10:38:28.137Z","","","","","","MotivationQ","","","","","","","","","","","","","","","","","","","","","","","","","","","","","","","","","","","","","","50"
"","","","","ctl-task-cpt","55","1206474","0.0-10.0-0.3","60","1","2025-07-02 10:18:57","80fe4187154257d5fb01684ea91b68b9","105.245.28.11","Mozilla/5.0 (Windows NT 10.0; Win64; x64) AppleWebKit/537.36 (KHTML, like Gecko) Chrome/137.0.0.0 Safari/537.36","WebKit","Chrome","137.0.0.0","Windows","10.0","https://app.prolific.com/","en-ZA,en-GB;q=0.9,en-US;q=0.8,en;q=0.7,zu;q=0.6","5f3287b83428cb05746e2214","683db6dfa200031b80f2a654","686507590e86aee79add6560","5f3287b83428cb05746e2214","2025-07-02T10:39:12.541Z","","","","","","","","","","","","","","","","win-only","0","g1:NW,g2:SE","0.7","4","0","1171853","2166.7","7173.6","41361","1","4","8","6","2","8","7","20","13","0.15151515151515152","1893.1","3000","1050","[""down"",""right""]","{""num_key_presses"":10,""num_perfect"":6,""num_errors"":1,""num_randdir"":3,""num_randdir_good_moves"":2,""num_whilered"":0,""num_whileblue"":1,""num_blue"":2,""num_good_moves"":8}","[297.22232142857143,295.12857142857143,2.1,297.22232142857143,295.12857142857143,152.9,297.22232142857143,295.12857142857143,402.9,297.22232142857143,295.12857142857143,531.7,297.22232142857143,295.12857142857143,634.9,312.22232142857143,301.12857142857143,834.1,402.22232142857143,371.12857142857143,962,467.22232142857143,470.12857142857143,1073.3,478.22232142857143,484.12857142857143,1201,498.22232142857143,498.12857142857143,1310,512.2223214285714,513.1285714285714,1416.6,519.2223214285714,519.1285714285714,1602.6,519.2223214285714,519.1285714285714,1781.4,519.2223214285714,519.1285714285714,1990.7,519.2223214285714,519.1285714285714,2098.9,519.2223214285714,519.1285714285714,2290.5,519.2223214285714,519.1285714285714,2472.9,519.2223214285714,519.1285714285714,2607.3,519.2223214285714,519.1285714285714,2765.9,519.2223214285714,519.1285714285714,2915.3,519.2223214285714,519.1285714285714,3072.3,519.2223214285714,519.1285714285714,3247.1,519.2223214285714,519.1285714285714,3400.7,519.2223214285714,519.1285714285714,3562.7,519.2223214285714,519.1285714285714,3714.2,519.2223214285714,519.1285714285714,3873,519.2223214285714,519.1285714285714,4027.5,519.2223214285714,519.1285714285714,4177.2,519.2223214285714,519.1285714285714,4336.4,519.2223214285714,519.1285714285714,4463.2,519.2223214285714,519.1285714285714,4564.1,519.2223214285714,519.1285714285714,4668.9,519.2223214285714,519.1285714285714,4774.2,519.2223214285714,519.1285714285714,4882,519.2223214285714,519.1285714285714,4984.9]","[5447.8,5447.8,2527.8,2009.1,910.9,""while_blue"",""down"",""left"",""bad_move"",9226.4,3771,1083.4,5455.4,2687.6,""oops"",""down"",""right"",""good_move"",12278.7,3050.6,2158.6,9228.1,892,""oops"",""down"",""up"",""bad_move"",16371.2,4090.1,3099.6,12281.1,990.5,""smooth"",""right"",""right"",""good_move"",19428.7,3048.4,2407.9,16380.3,640.5,""smooth"",""right"",""right"",""good_move"",22445.9,3015.3,2309.8,19430.7,705.4,""smooth"",""right"",""right"",""good_move"",25281.8,2829.8,2216.3,22452.1,613.5,""oops"",""down"",""down"",""good_move"",27827,2541.7,1547.4,25285.3,994.3,""smooth"",""down"",""down"",""good_move"",30893.3,3064,2350.1,27829.3,713.9,""smooth"",""down"",""down"",""good_move"",33896,2996.8,2137.2,30899.2,859.6,""smooth"",""down"",""down"",""good_move""]","",""
"5719","","<div style=""width:500px;"">
  <p>What determined the result of this run?</p>
  </div>","100","html-slider-response","56","1212195","0.0-10.0-1.3","60","1","2025-07-02 10:18:57","80fe4187154257d5fb01684ea91b68b9","105.245.28.11","Mozilla/5.0 (Windows NT 10.0; Win64; x64) AppleWebKit/537.36 (KHTML, like Gecko) Chrome/137.0.0.0 Safari/537.36","WebKit","Chrome","137.0.0.0","Windows","10.0","https://app.prolific.com/","en-ZA,en-GB;q=0.9,en-US;q=0.8,en;q=0.7,zu;q=0.6","5f3287b83428cb05746e2214","683db6dfa200031b80f2a654","686507590e86aee79add6560","5f3287b83428cb05746e2214","2025-07-02T10:39:18.263Z","","","","","","AttribQ","","","","","","","","","","","","","","","","","","","","","","","","","","","","","","","","","","","","","","50"
"5356","","<div style=""width:500px;"">
  <p>How much control did you have over the ball?</p>
  </div>","66","html-slider-response","57","1217558","0.0-10.0-2.3","60","1","2025-07-02 10:18:57","80fe4187154257d5fb01684ea91b68b9","105.245.28.11","Mozilla/5.0 (Windows NT 10.0; Win64; x64) AppleWebKit/537.36 (KHTML, like Gecko) Chrome/137.0.0.0 Safari/537.36","WebKit","Chrome","137.0.0.0","Windows","10.0","https://app.prolific.com/","en-ZA,en-GB;q=0.9,en-US;q=0.8,en;q=0.7,zu;q=0.6","5f3287b83428cb05746e2214","683db6dfa200031b80f2a654","686507590e86aee79add6560","5f3287b83428cb05746e2214","2025-07-02T10:39:23.626Z","","","","","","ControlQ","","","","","","","","","","","","","","","","","","","","","","","","","","","","","","","","","","","","","","50"
"4433","","<div style=""width:500px;"">
  <p>How would you describe your current emotional state?</p>
  </div>","0","html-slider-response","58","1222003","0.0-10.0-3.3","60","1","2025-07-02 10:18:57","80fe4187154257d5fb01684ea91b68b9","105.245.28.11","Mozilla/5.0 (Windows NT 10.0; Win64; x64) AppleWebKit/537.36 (KHTML, like Gecko) Chrome/137.0.0.0 Safari/537.36","WebKit","Chrome","137.0.0.0","Windows","10.0","https://app.prolific.com/","en-ZA,en-GB;q=0.9,en-US;q=0.8,en;q=0.7,zu;q=0.6","5f3287b83428cb05746e2214","683db6dfa200031b80f2a654","686507590e86aee79add6560","5f3287b83428cb05746e2214","2025-07-02T10:39:28.070Z","","","","","","StressQ","","","","","","","","","","","","","","","","","","","","","","","","","","","","","","","","","","","","","","50"
"6826","","<div style=""width:500px;"">
  <p>What best describes how you currently feel?</p>
  </div>","99","html-slider-response","59","1228836","0.0-10.0-4.3","60","1","2025-07-02 10:18:57","80fe4187154257d5fb01684ea91b68b9","105.245.28.11","Mozilla/5.0 (Windows NT 10.0; Win64; x64) AppleWebKit/537.36 (KHTML, like Gecko) Chrome/137.0.0.0 Safari/537.36","WebKit","Chrome","137.0.0.0","Windows","10.0","https://app.prolific.com/","en-ZA,en-GB;q=0.9,en-US;q=0.8,en;q=0.7,zu;q=0.6","5f3287b83428cb05746e2214","683db6dfa200031b80f2a654","686507590e86aee79add6560","5f3287b83428cb05746e2214","2025-07-02T10:39:34.903Z","","","","","","MotivationQ","","","","","","","","","","","","","","","","","","","","","","","","","","","","","","","","","","","","","","50"
"","","","","ctl-task-cpt","60","1272340","0.0-10.0-0.4","60","1","2025-07-02 10:18:57","80fe4187154257d5fb01684ea91b68b9","105.245.28.11","Mozilla/5.0 (Windows NT 10.0; Win64; x64) AppleWebKit/537.36 (KHTML, like Gecko) Chrome/137.0.0.0 Safari/537.36","WebKit","Chrome","137.0.0.0","Windows","10.0","https://app.prolific.com/","en-ZA,en-GB;q=0.9,en-US;q=0.8,en;q=0.7,zu;q=0.6","5f3287b83428cb05746e2214","683db6dfa200031b80f2a654","686507590e86aee79add6560","5f3287b83428cb05746e2214","2025-07-02T10:40:18.407Z","","","","","","","","","","","","","","","","win-only","2","g1:SE,g2:NW","0.6","5","0","1238609.3","2194.8","7219.3","40455.2","1","4","8","6","2","8","8","28","20","0.21212121212121213","1957.3","3000","1975","[""left"",""up""]","{""num_key_presses"":6,""num_perfect"":5,""num_errors"":0,""num_randdir"":1,""num_randdir_good_moves"":1,""num_whilered"":0,""num_whileblue"":0,""num_blue"":2,""num_good_moves"":6}","[298.22232142857143,294.12857142857143,6.2,298.22232142857143,294.12857142857143,116.9,298.22232142857143,294.12857142857143,233.9,298.22232142857143,294.12857142857143,374.4,298.22232142857143,294.12857142857143,485.7,298.22232142857143,294.12857142857143,623.5,298.22232142857143,294.12857142857143,738.1,298.22232142857143,294.12857142857143,872.7,298.22232142857143,294.12857142857143,973.4,298.22232142857143,294.12857142857143,1097.1,157.22232142857143,182.12857142857143,1203.3,73.22232142857143,78.12857142857143,1308.6,44.222321428571426,51.128571428571426,1459.3,44.222321428571426,51.128571428571426,1586.4,44.222321428571426,51.128571428571426,1707.5,44.222321428571426,51.128571428571426,1845.9,44.222321428571426,51.128571428571426,2005.7,44.222321428571426,51.128571428571426,2106.3,44.222321428571426,51.128571428571426,2229.7,44.222321428571426,51.128571428571426,2350.6,44.222321428571426,51.128571428571426,2468.2,44.222321428571426,51.128571428571426,2597.3,44.222321428571426,51.128571428571426,2723.8,44.222321428571426,51.128571428571426,2833.5,44.222321428571426,51.128571428571426,2934.7,44.222321428571426,51.128571428571426,3035.4,44.222321428571426,51.128571428571426,3140.4,44.222321428571426,51.128571428571426,3260.5,44.222321428571426,51.128571428571426,3368.3,44.222321428571426,51.128571428571426,3470.2,44.222321428571426,51.128571428571426,3580,44.222321428571426,51.128571428571426,3684.9,44.222321428571426,51.128571428571426,3789.2,44.222321428571426,51.128571428571426,3896.9,44.222321428571426,51.128571428571426,3998,44.222321428571426,51.128571428571426,4104.3,44.222321428571426,51.128571428571426,4226.8,44.222321428571426,51.128571428571426,4327,44.222321428571426,51.128571428571426,4434.9,44.222321428571426,51.128571428571426,4535.7,44.222321428571426,51.128571428571426,4659.5,44.222321428571426,51.128571428571426,4767.2,44.222321428571426,51.128571428571426,4872.2,44.222321428571426,51.128571428571426,4983.3]","[1734.6,1734.7,1000,0,734.7,""smooth"",""up"",""up"",""good_move"",6948.8,5209.9,2552.5,1739,2657.3,""smooth"",""left"",""left"",""good_move"",10506.1,3540.7,2441,6965.4,1099.7,""oops"",""left"",""left"",""good_move"",21894.3,11384.7,3286.6,18006.4,601.4,""smooth"",""up"",""up"",""good_move"",27369.3,5473.7,1756,21895.6,3717.7,""smooth"",""left"",""left"",""good_move"",32691.1,5320.7,3105.6,27370.5,2215,""smooth"",""up"",""up"",""good_move""]","",""
"4551","","<div style=""width:500px;"">
  <p>What determined the result of this run?</p>
  </div>","100","html-slider-response","61","1276896","0.0-10.0-1.4","60","1","2025-07-02 10:18:57","80fe4187154257d5fb01684ea91b68b9","105.245.28.11","Mozilla/5.0 (Windows NT 10.0; Win64; x64) AppleWebKit/537.36 (KHTML, like Gecko) Chrome/137.0.0.0 Safari/537.36","WebKit","Chrome","137.0.0.0","Windows","10.0","https://app.prolific.com/","en-ZA,en-GB;q=0.9,en-US;q=0.8,en;q=0.7,zu;q=0.6","5f3287b83428cb05746e2214","683db6dfa200031b80f2a654","686507590e86aee79add6560","5f3287b83428cb05746e2214","2025-07-02T10:40:22.963Z","","","","","","AttribQ","","","","","","","","","","","","","","","","","","","","","","","","","","","","","","","","","","","","","","50"
"2880","","<div style=""width:500px;"">
  <p>How much control did you have over the ball?</p>
  </div>","99","html-slider-response","62","1279784","0.0-10.0-2.4","60","1","2025-07-02 10:18:57","80fe4187154257d5fb01684ea91b68b9","105.245.28.11","Mozilla/5.0 (Windows NT 10.0; Win64; x64) AppleWebKit/537.36 (KHTML, like Gecko) Chrome/137.0.0.0 Safari/537.36","WebKit","Chrome","137.0.0.0","Windows","10.0","https://app.prolific.com/","en-ZA,en-GB;q=0.9,en-US;q=0.8,en;q=0.7,zu;q=0.6","5f3287b83428cb05746e2214","683db6dfa200031b80f2a654","686507590e86aee79add6560","5f3287b83428cb05746e2214","2025-07-02T10:40:25.851Z","","","","","","ControlQ","","","","","","","","","","","","","","","","","","","","","","","","","","","","","","","","","","","","","","50"
"5233","","<div style=""width:500px;"">
  <p>How would you describe your current emotional state?</p>
  </div>","0","html-slider-response","63","1285027","0.0-10.0-3.4","60","1","2025-07-02 10:18:57","80fe4187154257d5fb01684ea91b68b9","105.245.28.11","Mozilla/5.0 (Windows NT 10.0; Win64; x64) AppleWebKit/537.36 (KHTML, like Gecko) Chrome/137.0.0.0 Safari/537.36","WebKit","Chrome","137.0.0.0","Windows","10.0","https://app.prolific.com/","en-ZA,en-GB;q=0.9,en-US;q=0.8,en;q=0.7,zu;q=0.6","5f3287b83428cb05746e2214","683db6dfa200031b80f2a654","686507590e86aee79add6560","5f3287b83428cb05746e2214","2025-07-02T10:40:31.094Z","","","","","","StressQ","","","","","","","","","","","","","","","","","","","","","","","","","","","","","","","","","","","","","","50"
"4206","","<div style=""width:500px;"">
  <p>What best describes how you currently feel?</p>
  </div>","99","html-slider-response","64","1289241","0.0-10.0-4.4","60","1","2025-07-02 10:18:57","80fe4187154257d5fb01684ea91b68b9","105.245.28.11","Mozilla/5.0 (Windows NT 10.0; Win64; x64) AppleWebKit/537.36 (KHTML, like Gecko) Chrome/137.0.0.0 Safari/537.36","WebKit","Chrome","137.0.0.0","Windows","10.0","https://app.prolific.com/","en-ZA,en-GB;q=0.9,en-US;q=0.8,en;q=0.7,zu;q=0.6","5f3287b83428cb05746e2214","683db6dfa200031b80f2a654","686507590e86aee79add6560","5f3287b83428cb05746e2214","2025-07-02T10:40:35.308Z","","","","","","MotivationQ","","","","","","","","","","","","","","","","","","","","","","","","","","","","","","","","","","","","","","50"
"","","","","ctl-task-cpt","65","1394219","0.0-10.0-0.5","60","1","2025-07-02 10:18:57","80fe4187154257d5fb01684ea91b68b9","105.245.28.11","Mozilla/5.0 (Windows NT 10.0; Win64; x64) AppleWebKit/537.36 (KHTML, like Gecko) Chrome/137.0.0.0 Safari/537.36","WebKit","Chrome","137.0.0.0","Windows","10.0","https://app.prolific.com/","en-ZA,en-GB;q=0.9,en-US;q=0.8,en;q=0.7,zu;q=0.6","5f3287b83428cb05746e2214","683db6dfa200031b80f2a654","686507590e86aee79add6560","5f3287b83428cb05746e2214","2025-07-02T10:42:20.288Z","","","","","","","","","","","","","","","","win-only","3","g1:SW,g2:NE","0.5","6","0","1299014","2270.3","7318.3","101937","1","4","4","6","2","4","4","32","28","0.24242424242424243","1824.2","3000","880","[""up"",""right""]","{""num_key_presses"":14,""num_perfect"":7,""num_errors"":0,""num_randdir"":7,""num_randdir_good_moves"":3,""num_whilered"":0,""num_whileblue"":0,""num_blue"":5,""num_good_moves"":10}","[298.22232142857143,298.12857142857143,8.3,298.22232142857143,298.12857142857143,107.3,298.22232142857143,298.12857142857143,221,298.22232142857143,298.12857142857143,355.5,298.22232142857143,298.12857142857143,481.1,298.22232142857143,298.12857142857143,583,298.22232142857143,298.12857142857143,691.4,298.22232142857143,298.12857142857143,810.5,310.22232142857143,281.12857142857143,940.7,468.22232142857143,82.12857142857143,1108.5,515.2223214285714,46.128571428571426,1250.3,517.2223214285714,47.128571428571426,1376.6,519.2223214285714,55.128571428571426,1501.8,519.2223214285714,55.128571428571426,1612.6,519.2223214285714,55.128571428571426,1714.4,519.2223214285714,55.128571428571426,1845.1,519.2223214285714,55.128571428571426,2005.1,519.2223214285714,55.128571428571426,2112.5,519.2223214285714,55.128571428571426,2221.1,519.2223214285714,55.128571428571426,2334.4,519.2223214285714,55.128571428571426,2492.9,519.2223214285714,55.128571428571426,2626.9,519.2223214285714,55.128571428571426,2770,519.2223214285714,55.128571428571426,2949.1,519.2223214285714,55.128571428571426,3099.3,525.2223214285714,82.12857142857143,3280.3,534.2223214285714,162.12857142857143,3417.2,536.2223214285714,182.12857142857143,3552.5,536.2223214285714,182.12857142857143,3653.9,536.2223214285714,182.12857142857143,3754,536.2223214285714,182.12857142857143,3860.2,536.2223214285714,182.12857142857143,3964,536.2223214285714,182.12857142857143,4075.9,536.2223214285714,182.12857142857143,4190.8,536.2223214285714,182.12857142857143,4311.1,536.2223214285714,182.12857142857143,4453,536.2223214285714,182.12857142857143,4584.4,536.2223214285714,182.12857142857143,4724.8,536.2223214285714,182.12857142857143,4860.6,536.2223214285714,182.12857142857143,4999.4]","[5642.7,5642.7,2912.2,2073.4,657.1,""smooth"",""up"",""up"",""good_move"",14385.8,8739.2,2735.1,5646.6,6004.1,""smooth"",""right"",""right"",""good_move"",21651.5,7260.5,3096.4,17072.5,1482.6,""smooth"",""up"",""up"",""good_move"",32185.6,10532.5,2097.6,21653.1,8434.9,""smooth"",""right"",""right"",""good_move"",35633.7,3441.8,2069.5,32192,1372.3,""smooth"",""right"",""right"",""good_move"",39507,3871.4,2815.1,35635.6,1056.3,""oops"",""up"",""down"",""bad_move"",44719.5,5210.3,3318.1,39509.3,1892.2,""oops"",""up"",""down"",""bad_move"",52219,7496.3,2472.7,48547,1199.3,""oops"",""up"",""left"",""bad_move"",70845,18615.3,2496.6,67717.3,631.1,""oops"",""right"",""right"",""good_move"",74106.8,3253.3,2018.9,70853.5,1234.4,""oops"",""up"",""up"",""good_move"",79540.3,5430.4,2659.4,74109.9,2771,""oops"",""up"",""left"",""bad_move"",85272.9,5714.9,2292.4,79558.1,3422.4,""smooth"",""up"",""up"",""good_move"",90015,4740.4,2970.5,85274.7,1769.8,""oops"",""up"",""right"",""good_move"",94219.6,4188.9,2691.1,90030.7,1497.8,""smooth"",""up"",""up"",""good_move""]","",""
"3192","","<div style=""width:500px;"">
  <p>What determined the result of this run?</p>
  </div>","99","html-slider-response","66","1397417","0.0-10.0-1.5","60","1","2025-07-02 10:18:57","80fe4187154257d5fb01684ea91b68b9","105.245.28.11","Mozilla/5.0 (Windows NT 10.0; Win64; x64) AppleWebKit/537.36 (KHTML, like Gecko) Chrome/137.0.0.0 Safari/537.36","WebKit","Chrome","137.0.0.0","Windows","10.0","https://app.prolific.com/","en-ZA,en-GB;q=0.9,en-US;q=0.8,en;q=0.7,zu;q=0.6","5f3287b83428cb05746e2214","683db6dfa200031b80f2a654","686507590e86aee79add6560","5f3287b83428cb05746e2214","2025-07-02T10:42:23.484Z","","","","","","AttribQ","","","","","","","","","","","","","","","","","","","","","","","","","","","","","","","","","","","","","","50"
"3418","","<div style=""width:500px;"">
  <p>How much control did you have over the ball?</p>
  </div>","100","html-slider-response","67","1400842","0.0-10.0-2.5","60","1","2025-07-02 10:18:57","80fe4187154257d5fb01684ea91b68b9","105.245.28.11","Mozilla/5.0 (Windows NT 10.0; Win64; x64) AppleWebKit/537.36 (KHTML, like Gecko) Chrome/137.0.0.0 Safari/537.36","WebKit","Chrome","137.0.0.0","Windows","10.0","https://app.prolific.com/","en-ZA,en-GB;q=0.9,en-US;q=0.8,en;q=0.7,zu;q=0.6","5f3287b83428cb05746e2214","683db6dfa200031b80f2a654","686507590e86aee79add6560","5f3287b83428cb05746e2214","2025-07-02T10:42:26.909Z","","","","","","ControlQ","","","","","","","","","","","","","","","","","","","","","","","","","","","","","","","","","","","","","","50"
"6257","","<div style=""width:500px;"">
  <p>How would you describe your current emotional state?</p>
  </div>","60","html-slider-response","68","1407107","0.0-10.0-3.5","60","1","2025-07-02 10:18:57","80fe4187154257d5fb01684ea91b68b9","105.245.28.11","Mozilla/5.0 (Windows NT 10.0; Win64; x64) AppleWebKit/537.36 (KHTML, like Gecko) Chrome/137.0.0.0 Safari/537.36","WebKit","Chrome","137.0.0.0","Windows","10.0","https://app.prolific.com/","en-ZA,en-GB;q=0.9,en-US;q=0.8,en;q=0.7,zu;q=0.6","5f3287b83428cb05746e2214","683db6dfa200031b80f2a654","686507590e86aee79add6560","5f3287b83428cb05746e2214","2025-07-02T10:42:33.174Z","","","","","","StressQ","","","","","","","","","","","","","","","","","","","","","","","","","","","","","","","","","","","","","","50"
"5091","","<div style=""width:500px;"">
  <p>What best describes how you currently feel?</p>
  </div>","100","html-slider-response","69","1412206","0.0-10.0-4.5","60","1","2025-07-02 10:18:57","80fe4187154257d5fb01684ea91b68b9","105.245.28.11","Mozilla/5.0 (Windows NT 10.0; Win64; x64) AppleWebKit/537.36 (KHTML, like Gecko) Chrome/137.0.0.0 Safari/537.36","WebKit","Chrome","137.0.0.0","Windows","10.0","https://app.prolific.com/","en-ZA,en-GB;q=0.9,en-US;q=0.8,en;q=0.7,zu;q=0.6","5f3287b83428cb05746e2214","683db6dfa200031b80f2a654","686507590e86aee79add6560","5f3287b83428cb05746e2214","2025-07-02T10:42:38.273Z","","","","","","MotivationQ","","","","","","","","","","","","","","","","","","","","","","","","","","","","","","","","","","","","","","50"
"","","","","ctl-task-cpt","70","1503369","0.0-10.0-0.6","60","1","2025-07-02 10:18:57","80fe4187154257d5fb01684ea91b68b9","105.245.28.11","Mozilla/5.0 (Windows NT 10.0; Win64; x64) AppleWebKit/537.36 (KHTML, like Gecko) Chrome/137.0.0.0 Safari/537.36","WebKit","Chrome","137.0.0.0","Windows","10.0","https://app.prolific.com/","en-ZA,en-GB;q=0.9,en-US;q=0.8,en;q=0.7,zu;q=0.6","5f3287b83428cb05746e2214","683db6dfa200031b80f2a654","686507590e86aee79add6560","5f3287b83428cb05746e2214","2025-07-02T10:44:09.437Z","","","","","","","","","","","","","","","","win-only","1","g1:NE,g2:SW","0.4","7","0","1421981.2","1737.9","6757.1","88057.4","1","4","8","6","2","8","8","40","32","0.30303030303030304","1769.6","3000","2330","[""down"",""left""]","{""num_key_presses"":10,""num_perfect"":4,""num_errors"":0,""num_randdir"":6,""num_randdir_good_moves"":4,""num_whilered"":0,""num_whileblue"":0,""num_blue"":2,""num_good_moves"":8}","[297.22232142857143,300.12857142857143,3.3,297.22232142857143,300.12857142857143,138,297.22232142857143,300.12857142857143,248.1,297.22232142857143,300.12857142857143,364.6,297.22232142857143,300.12857142857143,520.5,297.22232142857143,300.12857142857143,632.4,297.22232142857143,300.12857142857143,734,253.22232142857143,320.12857142857143,871,145.22232142857143,412.12857142857143,993.5,100.22232142857143,502.12857142857143,1127.4,86.22232142857143,525.1285714285714,1254.7,72.22232142857143,536.1285714285714,1390.2,61.222321428571426,541.1285714285714,1511,61.222321428571426,541.1285714285714,1615.3,61.222321428571426,541.1285714285714,1773.1,61.222321428571426,541.1285714285714,1902.6,61.222321428571426,541.1285714285714,2061.9,61.222321428571426,541.1285714285714,2163.3,61.222321428571426,541.1285714285714,2263.5,61.222321428571426,541.1285714285714,2366.1,61.222321428571426,541.1285714285714,2468.6,61.222321428571426,541.1285714285714,2589.9,61.222321428571426,541.1285714285714,2719.3,61.222321428571426,541.1285714285714,2853.3,61.222321428571426,541.1285714285714,2985.2,61.222321428571426,541.1285714285714,3095.4,61.222321428571426,541.1285714285714,3231.8,61.222321428571426,541.1285714285714,3372.2,61.222321428571426,541.1285714285714,3499.9,61.222321428571426,541.1285714285714,3629.9,61.222321428571426,541.1285714285714,3772,61.222321428571426,541.1285714285714,3905.4,61.222321428571426,541.1285714285714,4045.7,61.222321428571426,541.1285714285714,4148.3,61.222321428571426,541.1285714285714,4280.2,61.222321428571426,541.1285714285714,4421.8,61.222321428571426,541.1285714285714,4549,61.222321428571426,541.1285714285714,4693.2,61.222321428571426,541.1285714285714,4832.5,61.222321428571426,541.1285714285714,4964.1]","[1568.1,1568.1,1000,0,568.1,""smooth"",""down"",""down"",""good_move"",4614.5,3044.1,2154,1570.4,890.1,""oops"",""down"",""down"",""good_move"",8434.7,3818.3,2651.7,4616.4,1166.6,""smooth"",""down"",""down"",""good_move"",15793.6,7344,2631.9,12546.4,615.3,""oops"",""left"",""up"",""bad_move"",25035.7,9240.1,3203.8,15795.7,6036.3,""oops"",""left"",""right"",""bad_move"",29412.3,4375.2,3292.1,25037.2,1083,""oops"",""down"",""left"",""good_move"",39377.3,9962.4,2441.1,29414.9,7521.3,""oops"",""down"",""left"",""good_move"",50754.2,11374.3,3047.1,39380,8327.1,""oops"",""left"",""left"",""good_move"",62992,12236.7,2971,50755.5,9265.5,""smooth"",""left"",""left"",""good_move"",79451.7,16457.3,2424.8,76053.4,973.5,""smooth"",""down"",""down"",""good_move""]","",""
"5608","","<div style=""width:500px;"">
  <p>What determined the result of this run?</p>
  </div>","68","html-slider-response","71","1508987","0.0-10.0-1.6","60","1","2025-07-02 10:18:57","80fe4187154257d5fb01684ea91b68b9","105.245.28.11","Mozilla/5.0 (Windows NT 10.0; Win64; x64) AppleWebKit/537.36 (KHTML, like Gecko) Chrome/137.0.0.0 Safari/537.36","WebKit","Chrome","137.0.0.0","Windows","10.0","https://app.prolific.com/","en-ZA,en-GB;q=0.9,en-US;q=0.8,en;q=0.7,zu;q=0.6","5f3287b83428cb05746e2214","683db6dfa200031b80f2a654","686507590e86aee79add6560","5f3287b83428cb05746e2214","2025-07-02T10:44:15.054Z","","","","","","AttribQ","","","","","","","","","","","","","","","","","","","","","","","","","","","","","","","","","","","","","","50"
"3483","","<div style=""width:500px;"">
  <p>How much control did you have over the ball?</p>
  </div>","27","html-slider-response","72","1512476","0.0-10.0-2.6","60","1","2025-07-02 10:18:57","80fe4187154257d5fb01684ea91b68b9","105.245.28.11","Mozilla/5.0 (Windows NT 10.0; Win64; x64) AppleWebKit/537.36 (KHTML, like Gecko) Chrome/137.0.0.0 Safari/537.36","WebKit","Chrome","137.0.0.0","Windows","10.0","https://app.prolific.com/","en-ZA,en-GB;q=0.9,en-US;q=0.8,en;q=0.7,zu;q=0.6","5f3287b83428cb05746e2214","683db6dfa200031b80f2a654","686507590e86aee79add6560","5f3287b83428cb05746e2214","2025-07-02T10:44:18.543Z","","","","","","ControlQ","","","","","","","","","","","","","","","","","","","","","","","","","","","","","","","","","","","","","","50"
"5186","","<div style=""width:500px;"">
  <p>How would you describe your current emotional state?</p>
  </div>","44","html-slider-response","73","1517666","0.0-10.0-3.6","60","1","2025-07-02 10:18:57","80fe4187154257d5fb01684ea91b68b9","105.245.28.11","Mozilla/5.0 (Windows NT 10.0; Win64; x64) AppleWebKit/537.36 (KHTML, like Gecko) Chrome/137.0.0.0 Safari/537.36","WebKit","Chrome","137.0.0.0","Windows","10.0","https://app.prolific.com/","en-ZA,en-GB;q=0.9,en-US;q=0.8,en;q=0.7,zu;q=0.6","5f3287b83428cb05746e2214","683db6dfa200031b80f2a654","686507590e86aee79add6560","5f3287b83428cb05746e2214","2025-07-02T10:44:23.733Z","","","","","","StressQ","","","","","","","","","","","","","","","","","","","","","","","","","","","","","","","","","","","","","","50"
"4235","","<div style=""width:500px;"">
  <p>What best describes how you currently feel?</p>
  </div>","68","html-slider-response","74","1521908","0.0-10.0-4.6","60","1","2025-07-02 10:18:57","80fe4187154257d5fb01684ea91b68b9","105.245.28.11","Mozilla/5.0 (Windows NT 10.0; Win64; x64) AppleWebKit/537.36 (KHTML, like Gecko) Chrome/137.0.0.0 Safari/537.36","WebKit","Chrome","137.0.0.0","Windows","10.0","https://app.prolific.com/","en-ZA,en-GB;q=0.9,en-US;q=0.8,en;q=0.7,zu;q=0.6","5f3287b83428cb05746e2214","683db6dfa200031b80f2a654","686507590e86aee79add6560","5f3287b83428cb05746e2214","2025-07-02T10:44:27.975Z","","","","","","MotivationQ","","","","","","","","","","","","","","","","","","","","","","","","","","","","","","","","","","","","","","50"
"","","","","ctl-task-cpt","75","1624024","0.0-10.0-0.7","60","1","2025-07-02 10:18:57","80fe4187154257d5fb01684ea91b68b9","105.245.28.11","Mozilla/5.0 (Windows NT 10.0; Win64; x64) AppleWebKit/537.36 (KHTML, like Gecko) Chrome/137.0.0.0 Safari/537.36","WebKit","Chrome","137.0.0.0","Windows","10.0","https://app.prolific.com/","en-ZA,en-GB;q=0.9,en-US;q=0.8,en;q=0.7,zu;q=0.6","5f3287b83428cb05746e2214","683db6dfa200031b80f2a654","686507590e86aee79add6560","5f3287b83428cb05746e2214","2025-07-02T10:46:10.092Z","","","","","","","","","","","","","","","","win-only","2","g1:SE,g2:NW","0.3","8","0","1531682.9","2919.8","7929.5","99066","1","4","4","6","2","4","4","44","40","0.3333333333333333","2039.7","3000","1800","[""left"",""up""]","{""num_key_presses"":12,""num_perfect"":4,""num_errors"":0,""num_randdir"":8,""num_randdir_good_moves"":5,""num_whilered"":0,""num_whileblue"":0,""num_blue"":4,""num_good_moves"":9}","[295.22232142857143,297.12857142857143,5.4,295.22232142857143,297.12857142857143,143.8,295.22232142857143,297.12857142857143,274.9,295.22232142857143,297.12857142857143,378.8,295.22232142857143,297.12857142857143,511.6,295.22232142857143,297.12857142857143,618.4,301.22232142857143,296.12857142857143,745.4,346.22232142857143,296.12857142857143,873.6,340.22232142857143,297.12857142857143,974.7,199.22232142857143,216.12857142857143,1089.7,159.22232142857143,158.12857142857143,1233.7,159.22232142857143,158.12857142857143,1362.8,118.22232142857143,114.12857142857143,1474.3,59.222321428571426,74.12857142857143,1592.4,53.222321428571426,66.12857142857143,1742.7,53.222321428571426,65.12857142857143,1875,53.222321428571426,65.12857142857143,1981.6,53.222321428571426,65.12857142857143,2087.4,53.222321428571426,65.12857142857143,2189.4,53.222321428571426,65.12857142857143,2340.7,53.222321428571426,65.12857142857143,2474.6,53.222321428571426,65.12857142857143,2611.3,53.222321428571426,65.12857142857143,2742.5,53.222321428571426,65.12857142857143,2855.7,53.222321428571426,65.12857142857143,2968.9,53.222321428571426,65.12857142857143,3085.3,53.222321428571426,65.12857142857143,3209.7,53.222321428571426,65.12857142857143,3318.2,53.222321428571426,65.12857142857143,3439.5,53.222321428571426,65.12857142857143,3547,53.222321428571426,65.12857142857143,3653.6,53.222321428571426,65.12857142857143,3775.9,53.222321428571426,65.12857142857143,3884,53.222321428571426,65.12857142857143,4001.2,53.222321428571426,65.12857142857143,4118.7,53.222321428571426,65.12857142857143,4239.5,53.222321428571426,65.12857142857143,4353.6,53.222321428571426,65.12857142857143,4476.4,53.222321428571426,65.12857142857143,4603.9,53.222321428571426,65.12857142857143,4725.2,53.222321428571426,65.12857142857143,4839.4,53.222321428571426,65.12857142857143,4958.7]","[7701.3,7701.3,2528.3,4380.2,792.8,""oops"",""left"",""right"",""bad_move"",10735.4,3022.7,1930.2,7712.7,1092.5,""oops"",""left"",""left"",""good_move"",19857.8,9117.4,2965.8,10740.5,6151.6,""smooth"",""left"",""left"",""good_move"",29782.1,9922.3,2842.7,19859.8,7079.6,""oops"",""left"",""left"",""good_move"",40269.3,10485.7,2178.8,29783.7,8306.9,""oops"",""left"",""left"",""good_move"",51435.5,11164.5,3026.8,40271,8137.7,""oops"",""up"",""down"",""bad_move"",55621.5,4184.6,2649.5,51436.9,1535.1,""oops"",""up"",""down"",""bad_move"",59683.5,4060,2550.2,55623.5,1509.8,""smooth"",""up"",""up"",""good_move"",65122.4,5436.5,2181,59686,3255.5,""smooth"",""up"",""up"",""good_move"",78402,13278.1,2547.3,75177.5,677.2,""oops"",""up"",""up"",""good_move"",86551.8,8148.5,2272.9,78403.3,5875.6,""oops"",""up"",""up"",""good_move"",90792.9,4239.4,2464.4,86553.5,1775,""smooth"",""up"",""up"",""good_move""]","",""
"7099","","<div style=""width:500px;"">
  <p>What determined the result of this run?</p>
  </div>","60","html-slider-response","76","1631132","0.0-10.0-1.7","60","1","2025-07-02 10:18:57","80fe4187154257d5fb01684ea91b68b9","105.245.28.11","Mozilla/5.0 (Windows NT 10.0; Win64; x64) AppleWebKit/537.36 (KHTML, like Gecko) Chrome/137.0.0.0 Safari/537.36","WebKit","Chrome","137.0.0.0","Windows","10.0","https://app.prolific.com/","en-ZA,en-GB;q=0.9,en-US;q=0.8,en;q=0.7,zu;q=0.6","5f3287b83428cb05746e2214","683db6dfa200031b80f2a654","686507590e86aee79add6560","5f3287b83428cb05746e2214","2025-07-02T10:46:17.199Z","","","","","","AttribQ","","","","","","","","","","","","","","","","","","","","","","","","","","","","","","","","","","","","","","50"
"4229","","<div style=""width:500px;"">
  <p>How much control did you have over the ball?</p>
  </div>","30","html-slider-response","77","1635366","0.0-10.0-2.7","60","1","2025-07-02 10:18:57","80fe4187154257d5fb01684ea91b68b9","105.245.28.11","Mozilla/5.0 (Windows NT 10.0; Win64; x64) AppleWebKit/537.36 (KHTML, like Gecko) Chrome/137.0.0.0 Safari/537.36","WebKit","Chrome","137.0.0.0","Windows","10.0","https://app.prolific.com/","en-ZA,en-GB;q=0.9,en-US;q=0.8,en;q=0.7,zu;q=0.6","5f3287b83428cb05746e2214","683db6dfa200031b80f2a654","686507590e86aee79add6560","5f3287b83428cb05746e2214","2025-07-02T10:46:21.434Z","","","","","","ControlQ","","","","","","","","","","","","","","","","","","","","","","","","","","","","","","","","","","","","","","50"
"5854","","<div style=""width:500px;"">
  <p>How would you describe your current emotional state?</p>
  </div>","54","html-slider-response","78","1641233","0.0-10.0-3.7","60","1","2025-07-02 10:18:57","80fe4187154257d5fb01684ea91b68b9","105.245.28.11","Mozilla/5.0 (Windows NT 10.0; Win64; x64) AppleWebKit/537.36 (KHTML, like Gecko) Chrome/137.0.0.0 Safari/537.36","WebKit","Chrome","137.0.0.0","Windows","10.0","https://app.prolific.com/","en-ZA,en-GB;q=0.9,en-US;q=0.8,en;q=0.7,zu;q=0.6","5f3287b83428cb05746e2214","683db6dfa200031b80f2a654","686507590e86aee79add6560","5f3287b83428cb05746e2214","2025-07-02T10:46:27.301Z","","","","","","StressQ","","","","","","","","","","","","","","","","","","","","","","","","","","","","","","","","","","","","","","50"
"4643","","<div style=""width:500px;"">
  <p>What best describes how you currently feel?</p>
  </div>","100","html-slider-response","79","1645883","0.0-10.0-4.7","60","1","2025-07-02 10:18:57","80fe4187154257d5fb01684ea91b68b9","105.245.28.11","Mozilla/5.0 (Windows NT 10.0; Win64; x64) AppleWebKit/537.36 (KHTML, like Gecko) Chrome/137.0.0.0 Safari/537.36","WebKit","Chrome","137.0.0.0","Windows","10.0","https://app.prolific.com/","en-ZA,en-GB;q=0.9,en-US;q=0.8,en;q=0.7,zu;q=0.6","5f3287b83428cb05746e2214","683db6dfa200031b80f2a654","686507590e86aee79add6560","5f3287b83428cb05746e2214","2025-07-02T10:46:31.951Z","","","","","","MotivationQ","","","","","","","","","","","","","","","","","","","","","","","","","","","","","","","","","","","","","","50"
"","","","","ctl-task-cpt","80","1722853","0.0-10.0-0.8","60","1","2025-07-02 10:18:57","80fe4187154257d5fb01684ea91b68b9","105.245.28.11","Mozilla/5.0 (Windows NT 10.0; Win64; x64) AppleWebKit/537.36 (KHTML, like Gecko) Chrome/137.0.0.0 Safari/537.36","WebKit","Chrome","137.0.0.0","Windows","10.0","https://app.prolific.com/","en-ZA,en-GB;q=0.9,en-US;q=0.8,en;q=0.7,zu;q=0.6","5f3287b83428cb05746e2214","683db6dfa200031b80f2a654","686507590e86aee79add6560","5f3287b83428cb05746e2214","2025-07-02T10:47:48.920Z","","","","","","","","","","","","","","","","win-only","2","g1:SE,g2:NW","0.4","9","0","1655659.9","2727.2","7741.2","73905.2","1","4","4","6","2","4","4","48","44","0.36363636363636365","1879.3","3000","2355","[""left"",""up""]","{""num_key_presses"":8,""num_perfect"":4,""num_errors"":0,""num_randdir"":4,""num_randdir_good_moves"":3,""num_whilered"":0,""num_whileblue"":0,""num_blue"":4,""num_good_moves"":7}","[297.22232142857143,292.12857142857143,5.8,297.22232142857143,292.12857142857143,119.5,297.22232142857143,292.12857142857143,259.6,297.22232142857143,292.12857142857143,409.5,297.22232142857143,292.12857142857143,541.4,297.22232142857143,292.12857142857143,659.6,297.22232142857143,292.12857142857143,774.8,297.22232142857143,292.12857142857143,888.8,273.22232142857143,280.12857142857143,1028.6,104.22232142857143,131.12857142857143,1198.5,69.22232142857143,94.12857142857143,1375.4,60.222321428571426,75.12857142857143,1514,60.222321428571426,75.12857142857143,1645.4,60.222321428571426,75.12857142857143,1774.3,60.222321428571426,75.12857142857143,1939.9,60.222321428571426,75.12857142857143,2073.3,60.222321428571426,75.12857142857143,2217.4,60.222321428571426,75.12857142857143,2351.7,60.222321428571426,75.12857142857143,2487.1,60.222321428571426,75.12857142857143,2599,60.222321428571426,75.12857142857143,2715.6,60.222321428571426,75.12857142857143,2834.7,60.222321428571426,75.12857142857143,2935.8,60.222321428571426,75.12857142857143,3046.8,60.222321428571426,75.12857142857143,3170,60.222321428571426,75.12857142857143,3285.7,60.222321428571426,75.12857142857143,3396.1,60.222321428571426,75.12857142857143,3507.7,60.222321428571426,75.12857142857143,3613.2,60.222321428571426,75.12857142857143,3716.6,60.222321428571426,75.12857142857143,3825.8,60.222321428571426,75.12857142857143,3930.9,60.222321428571426,75.12857142857143,4041,60.222321428571426,75.12857142857143,4157.3,60.222321428571426,75.12857142857143,4280.4,60.222321428571426,75.12857142857143,4397.9,60.222321428571426,75.12857142857143,4508.6,60.222321428571426,75.12857142857143,4625.1,60.222321428571426,75.12857142857143,4739.2,60.222321428571426,75.12857142857143,4848.3,60.222321428571426,75.12857142857143,4961.9]","[1730.6,1730.6,1000,0,730.6,""oops"",""left"",""left"",""good_move"",19645,17912.6,2693.9,16268.2,683,""smooth"",""up"",""up"",""good_move"",35705.5,16059.3,3164.3,31763.8,777.5,""smooth"",""left"",""left"",""good_move"",40186.3,4479.9,1776.8,35706.4,2703.1,""smooth"",""up"",""up"",""good_move"",44761.8,4564.4,3046.3,40197.5,1518,""smooth"",""left"",""left"",""good_move"",52815.2,8048.2,1648.2,50600.5,566.5,""oops"",""up"",""down"",""bad_move"",56071.2,3253.4,2493.8,52817.8,759.6,""oops"",""up"",""up"",""good_move"",65354.5,9279.2,1983.6,56075.4,7295.6,""oops"",""up"",""up"",""good_move""]","",""
"3520","","<div style=""width:500px;"">
  <p>What determined the result of this run?</p>
  </div>","100","html-slider-response","81","1726378","0.0-10.0-1.8","60","1","2025-07-02 10:18:57","80fe4187154257d5fb01684ea91b68b9","105.245.28.11","Mozilla/5.0 (Windows NT 10.0; Win64; x64) AppleWebKit/537.36 (KHTML, like Gecko) Chrome/137.0.0.0 Safari/537.36","WebKit","Chrome","137.0.0.0","Windows","10.0","https://app.prolific.com/","en-ZA,en-GB;q=0.9,en-US;q=0.8,en;q=0.7,zu;q=0.6","5f3287b83428cb05746e2214","683db6dfa200031b80f2a654","686507590e86aee79add6560","5f3287b83428cb05746e2214","2025-07-02T10:47:52.445Z","","","","","","AttribQ","","","","","","","","","","","","","","","","","","","","","","","","","","","","","","","","","","","","","","50"
"3528","","<div style=""width:500px;"">
  <p>How much control did you have over the ball?</p>
  </div>","99","html-slider-response","82","1729915","0.0-10.0-2.8","60","1","2025-07-02 10:18:57","80fe4187154257d5fb01684ea91b68b9","105.245.28.11","Mozilla/5.0 (Windows NT 10.0; Win64; x64) AppleWebKit/537.36 (KHTML, like Gecko) Chrome/137.0.0.0 Safari/537.36","WebKit","Chrome","137.0.0.0","Windows","10.0","https://app.prolific.com/","en-ZA,en-GB;q=0.9,en-US;q=0.8,en;q=0.7,zu;q=0.6","5f3287b83428cb05746e2214","683db6dfa200031b80f2a654","686507590e86aee79add6560","5f3287b83428cb05746e2214","2025-07-02T10:47:55.982Z","","","","","","ControlQ","","","","","","","","","","","","","","","","","","","","","","","","","","","","","","","","","","","","","","50"
"5790","","<div style=""width:500px;"">
  <p>How would you describe your current emotional state?</p>
  </div>","1","html-slider-response","83","1735719","0.0-10.0-3.8","60","1","2025-07-02 10:18:57","80fe4187154257d5fb01684ea91b68b9","105.245.28.11","Mozilla/5.0 (Windows NT 10.0; Win64; x64) AppleWebKit/537.36 (KHTML, like Gecko) Chrome/137.0.0.0 Safari/537.36","WebKit","Chrome","137.0.0.0","Windows","10.0","https://app.prolific.com/","en-ZA,en-GB;q=0.9,en-US;q=0.8,en;q=0.7,zu;q=0.6","5f3287b83428cb05746e2214","683db6dfa200031b80f2a654","686507590e86aee79add6560","5f3287b83428cb05746e2214","2025-07-02T10:48:01.786Z","","","","","","StressQ","","","","","","","","","","","","","","","","","","","","","","","","","","","","","","","","","","","","","","50"
"4186","","<div style=""width:500px;"">
  <p>What best describes how you currently feel?</p>
  </div>","79","html-slider-response","84","1739930","0.0-10.0-4.8","60","1","2025-07-02 10:18:57","80fe4187154257d5fb01684ea91b68b9","105.245.28.11","Mozilla/5.0 (Windows NT 10.0; Win64; x64) AppleWebKit/537.36 (KHTML, like Gecko) Chrome/137.0.0.0 Safari/537.36","WebKit","Chrome","137.0.0.0","Windows","10.0","https://app.prolific.com/","en-ZA,en-GB;q=0.9,en-US;q=0.8,en;q=0.7,zu;q=0.6","5f3287b83428cb05746e2214","683db6dfa200031b80f2a654","686507590e86aee79add6560","5f3287b83428cb05746e2214","2025-07-02T10:48:05.998Z","","","","","","MotivationQ","","","","","","","","","","","","","","","","","","","","","","","","","","","","","","","","","","","","","","50"
