"rt","response_timestamp","stimulus","response","trial_type","trial_index","time_elapsed","internal_node_id","run_id","condition","recorded_at","source_code_version","ip","user_agent","device","browser","browser_version","platform","platform_version","referer","accept_language","PROLIFIC_PID","STUDY_ID","SESSION_ID","prolific_id","realtime","view_history","question_order","consent","success","question_id","eventType","responses","item_order","radio_event_ids","radio_event_times","key_event_times","mouse_event_times","straightlining","zigzagging","honeypot","which_type","canvas_config","goals_layout","control_level","trial_number","tutorial_trial_number","trial_start_time","phase1_start_time","phase2_start_time","phase3_start_time","goal_1_value","goal_1_distance","goal_2_value","goal_2_distance","goal_selected","outcome","outcome_total","participant_final_score","participant_initial_score","participant_final_score_prop","goal_choice_rt","allocated_time","allocated_time_remaining","goal_direction","counts","mouse_movements","key_presses","correct","slider_start"
"7613","1751451552918","<p style='font-size:40px;line-height:1.25'><strong>Welcome to the experiment!</strong></p><p style='font-size:1.1em;line-height:1.25'>Thank you for your interest in our experiment! Before you begin, it is important that we obtain your informed consent to participate in the study.</p><p style='font-size:1.1em;line-height:1.25'>On the next screen will be an <strong>information sheet</strong> for you to read. To participate in the study we need you to read this information sheet and the following consent form carefully. If you agree with all the statements, please click the <strong>I agree</strong> button.</p><p style='font-size:1.1em;line-height:1.25'>Press <strong>Next</strong> to read the information sheet.</p>","0","custom-html-button-response","0","7615","0.0-0.0","75","1","2025-07-02 10:19:03","80fe4187154257d5fb01684ea91b68b9","173.176.93.90","Mozilla/5.0 (Macintosh; Intel Mac OS X 10_15_7) AppleWebKit/537.36 (KHTML, like Gecko) Chrome/116.0.0.0 Safari/537.36","Macintosh","Chrome","116.0.0.0","OS X","10_15_7","https://app.prolific.com/","en-US,en;q=0.9","5f61151aead6a006ebe2747b","683db6dfa200031b80f2a654","6865078e4a77b243467da48c","5f61151aead6a006ebe2747b","2025-07-02T10:19:12.919Z","","","","","","","","","","","","","","","","","","","","","","","","","","","","","","","","","","","","","","","","","","","",""
"10774","","","","instructions","1","18390","0.0-1.0","75","1","2025-07-02 10:19:03","80fe4187154257d5fb01684ea91b68b9","173.176.93.90","Mozilla/5.0 (Macintosh; Intel Mac OS X 10_15_7) AppleWebKit/537.36 (KHTML, like Gecko) Chrome/116.0.0.0 Safari/537.36","Macintosh","Chrome","116.0.0.0","OS X","10_15_7","https://app.prolific.com/","en-US,en;q=0.9","5f61151aead6a006ebe2747b","683db6dfa200031b80f2a654","6865078e4a77b243467da48c","5f61151aead6a006ebe2747b","","[{""page_index"":0,""viewing_time"":5749},{""page_index"":1,""viewing_time"":5024}]","","","","","","","","","","","","","","","","","","","","","","","","","","","","","","","","","","","","","","","","","","",""
"5614","","","{""Q0"":"""",""Q1"":"""",""Q2"":"""",""Q3"":"""",""Q4"":"""",""Q5"":"""",""Q6"":""I agree""}","survey-multi-choice","2","24007","0.0-2.0","75","1","2025-07-02 10:19:03","80fe4187154257d5fb01684ea91b68b9","173.176.93.90","Mozilla/5.0 (Macintosh; Intel Mac OS X 10_15_7) AppleWebKit/537.36 (KHTML, like Gecko) Chrome/116.0.0.0 Safari/537.36","Macintosh","Chrome","116.0.0.0","OS X","10_15_7","https://app.prolific.com/","en-US,en;q=0.9","5f61151aead6a006ebe2747b","683db6dfa200031b80f2a654","6865078e4a77b243467da48c","5f61151aead6a006ebe2747b","","","[0,1,2,3,4,5,6]","true","","","","","","","","","","","","","","","","","","","","","","","","","","","","","","","","","","","","","","","","",""
"21700","","","","fullscreen","3","46723","0.0-4.0","75","1","2025-07-02 10:19:03","80fe4187154257d5fb01684ea91b68b9","173.176.93.90","Mozilla/5.0 (Macintosh; Intel Mac OS X 10_15_7) AppleWebKit/537.36 (KHTML, like Gecko) Chrome/116.0.0.0 Safari/537.36","Macintosh","Chrome","116.0.0.0","OS X","10_15_7","https://app.prolific.com/","en-US,en;q=0.9","5f61151aead6a006ebe2747b","683db6dfa200031b80f2a654","6865078e4a77b243467da48c","5f61151aead6a006ebe2747b","","","","","true","","","","","","","","","","","","","","","","","","","","","","","","","","","","","","","","","","","","","","","",""
"6146","1751451598173"," <p style='font-size:1.1em;line-height:1.25'>Thank you for completing the consent form and closing all other tabs.</p><p style='font-size:1.1em;line-height:1.25'>We will now invite you to fill in some demographic information and questionnaires, before starting the game.<br>This will take about 5 minutes.<br></p><p style='font-size:1.1em;line-height:1.25'>Press the <strong>Next</strong> button to continue.</p>","0","custom-html-button-response","4","52870","0.0-5.0","75","1","2025-07-02 10:19:03","80fe4187154257d5fb01684ea91b68b9","173.176.93.90","Mozilla/5.0 (Macintosh; Intel Mac OS X 10_15_7) AppleWebKit/537.36 (KHTML, like Gecko) Chrome/116.0.0.0 Safari/537.36","Macintosh","Chrome","116.0.0.0","OS X","10_15_7","https://app.prolific.com/","en-US,en;q=0.9","5f61151aead6a006ebe2747b","683db6dfa200031b80f2a654","6865078e4a77b243467da48c","5f61151aead6a006ebe2747b","2025-07-02T10:19:58.174Z","","","","","","","","","","","","","","","","","","","","","","","","","","","","","","","","","","","","","","","","","","","",""
"3310","","","{""age"":""39""}","survey-text","5","56182","0.0-6.0-0.0","75","1","2025-07-02 10:19:03","80fe4187154257d5fb01684ea91b68b9","173.176.93.90","Mozilla/5.0 (Macintosh; Intel Mac OS X 10_15_7) AppleWebKit/537.36 (KHTML, like Gecko) Chrome/116.0.0.0 Safari/537.36","Macintosh","Chrome","116.0.0.0","OS X","10_15_7","https://app.prolific.com/","en-US,en;q=0.9","5f61151aead6a006ebe2747b","683db6dfa200031b80f2a654","6865078e4a77b243467da48c","5f61151aead6a006ebe2747b","","","","","","0","demographics","","","","","","","","","","","","","","","","","","","","","","","","","","","","","","","","","","","","","",""
"1967","","","{""gender_identity"":""male/man""}","survey-multi-choice","6","58150","0.0-6.0-1.0","75","1","2025-07-02 10:19:03","80fe4187154257d5fb01684ea91b68b9","173.176.93.90","Mozilla/5.0 (Macintosh; Intel Mac OS X 10_15_7) AppleWebKit/537.36 (KHTML, like Gecko) Chrome/116.0.0.0 Safari/537.36","Macintosh","Chrome","116.0.0.0","OS X","10_15_7","https://app.prolific.com/","en-US,en;q=0.9","5f61151aead6a006ebe2747b","683db6dfa200031b80f2a654","6865078e4a77b243467da48c","5f61151aead6a006ebe2747b","","","[0]","","","1","demographics","","","","","","","","","","","","","","","","","","","","","","","","","","","","","","","","","","","","","",""
"4061","","","{""assigned_sex"":""male""}","survey-multi-choice","7","62214","0.0-6.0-2.0","75","1","2025-07-02 10:19:03","80fe4187154257d5fb01684ea91b68b9","173.176.93.90","Mozilla/5.0 (Macintosh; Intel Mac OS X 10_15_7) AppleWebKit/537.36 (KHTML, like Gecko) Chrome/116.0.0.0 Safari/537.36","Macintosh","Chrome","116.0.0.0","OS X","10_15_7","https://app.prolific.com/","en-US,en;q=0.9","5f61151aead6a006ebe2747b","683db6dfa200031b80f2a654","6865078e4a77b243467da48c","5f61151aead6a006ebe2747b","","","[0]","","","2","demographics","","","","","","","","","","","","","","","","","","","","","","","","","","","","","","","","","","","","","",""
"3517","","","{""menstrual_cycle"":""No""}","survey-multi-choice","8","65734","0.0-6.0-3.0","75","1","2025-07-02 10:19:03","80fe4187154257d5fb01684ea91b68b9","173.176.93.90","Mozilla/5.0 (Macintosh; Intel Mac OS X 10_15_7) AppleWebKit/537.36 (KHTML, like Gecko) Chrome/116.0.0.0 Safari/537.36","Macintosh","Chrome","116.0.0.0","OS X","10_15_7","https://app.prolific.com/","en-US,en;q=0.9","5f61151aead6a006ebe2747b","683db6dfa200031b80f2a654","6865078e4a77b243467da48c","5f61151aead6a006ebe2747b","","","[0]","","","4","demographics","","","","","","","","","","","","","","","","","","","","","","","","","","","","","","","","","","","","","",""
"41549","","","{""education"":""Higher National Diploma""}","survey-multi-choice","9","107286","0.0-6.0-4.0","75","1","2025-07-02 10:19:03","80fe4187154257d5fb01684ea91b68b9","173.176.93.90","Mozilla/5.0 (Macintosh; Intel Mac OS X 10_15_7) AppleWebKit/537.36 (KHTML, like Gecko) Chrome/116.0.0.0 Safari/537.36","Macintosh","Chrome","116.0.0.0","OS X","10_15_7","https://app.prolific.com/","en-US,en;q=0.9","5f61151aead6a006ebe2747b","683db6dfa200031b80f2a654","6865078e4a77b243467da48c","5f61151aead6a006ebe2747b","","","[0]","","","5","demographics","","","","","","","","","","","","","","","","","","","","","","","","","","","","","","","","","","","","","",""
"6621","","","{""education"":""Higher National Diploma""}","survey-multi-choice","10","113909","0.0-6.0-5.0","75","1","2025-07-02 10:19:03","80fe4187154257d5fb01684ea91b68b9","173.176.93.90","Mozilla/5.0 (Macintosh; Intel Mac OS X 10_15_7) AppleWebKit/537.36 (KHTML, like Gecko) Chrome/116.0.0.0 Safari/537.36","Macintosh","Chrome","116.0.0.0","OS X","10_15_7","https://app.prolific.com/","en-US,en;q=0.9","5f61151aead6a006ebe2747b","683db6dfa200031b80f2a654","6865078e4a77b243467da48c","5f61151aead6a006ebe2747b","2025-07-02T10:20:59.214Z","","[0]","","","6","demographics","","","","","","","","","","","","","","","","","","","","","","","","","","","","","","","","","","","","","",""
"39948","","","{""mental_health_condition"":"""",""mental_health_treatment"":"""",""psychiatric_medication"":""""}","survey-text","11","153861","0.0-7.0-0.0","75","1","2025-07-02 10:19:03","80fe4187154257d5fb01684ea91b68b9","173.176.93.90","Mozilla/5.0 (Macintosh; Intel Mac OS X 10_15_7) AppleWebKit/537.36 (KHTML, like Gecko) Chrome/116.0.0.0 Safari/537.36","Macintosh","Chrome","116.0.0.0","OS X","10_15_7","https://app.prolific.com/","en-US,en;q=0.9","5f61151aead6a006ebe2747b","683db6dfa200031b80f2a654","6865078e4a77b243467da48c","5f61151aead6a006ebe2747b","2025-07-02T10:21:39.166Z","","","","","1","mental_health","","","","","","","","","","","","","","","","","","","","","","","","","","","","","","","","","","","","","",""
"17653","","","{""depression_history"":[""No""]}","survey-multi-select","12","171517","0.0-7.0-1.0","75","1","2025-07-02 10:19:03","80fe4187154257d5fb01684ea91b68b9","173.176.93.90","Mozilla/5.0 (Macintosh; Intel Mac OS X 10_15_7) AppleWebKit/537.36 (KHTML, like Gecko) Chrome/116.0.0.0 Safari/537.36","Macintosh","Chrome","116.0.0.0","OS X","10_15_7","https://app.prolific.com/","en-US,en;q=0.9","5f61151aead6a006ebe2747b","683db6dfa200031b80f2a654","6865078e4a77b243467da48c","5f61151aead6a006ebe2747b","","","[0]","","","","mental_health","","","","","","","","","","","","","","","","","","","","","","","","","","","","","","","","","","","","","",""
"71516","","","","survey-template","13","243038","0.0-7.0-3.0","75","1","2025-07-02 10:19:03","80fe4187154257d5fb01684ea91b68b9","173.176.93.90","Mozilla/5.0 (Macintosh; Intel Mac OS X 10_15_7) AppleWebKit/537.36 (KHTML, like Gecko) Chrome/116.0.0.0 Safari/537.36","Macintosh","Chrome","116.0.0.0","OS X","10_15_7","https://app.prolific.com/","en-US,en;q=0.9","5f61151aead6a006ebe2747b","683db6dfa200031b80f2a654","6865078e4a77b243467da48c","5f61151aead6a006ebe2747b","2025-07-02T10:23:08.343Z","","","","","","ius","{""Q01"":""3"",""Q02"":""3"",""Q03"":""1"",""Q04"":""3"",""Q05"":""2"",""Q06"":""1"",""Q07"":""1"",""Q08"":""0"",""Q09"":""2"",""Q10"":""2"",""Q11"":""1"",""Q12"":""1"",""Q13"":""2""}","[0,1,2,3,4,5,6,7,8,9,10,11,12]","[""Q01"",""Q01"",""Q02"",""Q03"",""Q04"",""Q05"",""Q06"",""Q07"",""Q08"",""Q09"",""Q10"",""Q11"",""Q12"",""Q12"",""Q13""]","[6595,9690.5,12698.700000047684,18570.600000023842,23458.600000023842,32370.700000047684,36490.299999952316,41906.799999952316,44010.700000047684,49194.799999952316,53322.39999997616,57946.60000002384,63386.60000002384,64698.60000002384,70858.20000004768]","[]","[6595,8858.600000023842,9690.5,12354.799999952316,12698.700000047684,17874.299999952316,18218.899999976158,18570.600000023842,23458.600000023842,31690.799999952316,32074.600000023842,32370.700000047684,35842.799999952316,36490.299999952316,41218.799999952316,41906.799999952316,44010.700000047684,49194.799999952316,53322.39999997616,57946.60000002384,63386.60000002384,64698.60000002384,70858.20000004768,71514.10000002384]","0.38461538461538464","0.4166666666666667","0","","","","","","","","","","","","","","","","","","","","","","","","","","","","",""
"7426","1751451795771","<p style='font-size:1.1em;line-height:1.25'>In the following, we will ask you a few questions relating to your experiences over the past month.<br></p><p style='font-size:1.1em;line-height:1.25'>Press the <strong>Next</strong> button to continue.</p>","0","custom-html-button-response","14","250468","0.0-7.0-4.0","75","1","2025-07-02 10:19:03","80fe4187154257d5fb01684ea91b68b9","173.176.93.90","Mozilla/5.0 (Macintosh; Intel Mac OS X 10_15_7) AppleWebKit/537.36 (KHTML, like Gecko) Chrome/116.0.0.0 Safari/537.36","Macintosh","Chrome","116.0.0.0","OS X","10_15_7","https://app.prolific.com/","en-US,en;q=0.9","5f61151aead6a006ebe2747b","683db6dfa200031b80f2a654","6865078e4a77b243467da48c","5f61151aead6a006ebe2747b","2025-07-02T10:23:15.772Z","","","","","","","","","","","","","","","","","","","","","","","","","","","","","","","","","","","","","","","","","","","",""
"95487.39999997616","","","","survey-template","15","345957","0.0-7.0-5.0","75","1","2025-07-02 10:19:03","80fe4187154257d5fb01684ea91b68b9","173.176.93.90","Mozilla/5.0 (Macintosh; Intel Mac OS X 10_15_7) AppleWebKit/537.36 (KHTML, like Gecko) Chrome/116.0.0.0 Safari/537.36","Macintosh","Chrome","116.0.0.0","OS X","10_15_7","https://app.prolific.com/","en-US,en;q=0.9","5f61151aead6a006ebe2747b","683db6dfa200031b80f2a654","6865078e4a77b243467da48c","5f61151aead6a006ebe2747b","2025-07-02T10:24:51.261Z","","","","","","pss","{""Q01"":""2"",""Q02"":""1"",""Q03"":""2"",""Q04"":""0"",""Q05"":""2"",""Q06"":""1"",""Q07"":""1"",""Q08"":""1"",""Q09"":""1"",""Q10"":""0""}","[0,1,2,3,4,5,6,7,8,9]","[""Q01"",""Q02"",""Q02"",""Q01"",""Q03"",""Q03"",""Q04"",""Q04"",""Q05"",""Q06"",""Q07"",""Q08"",""Q09"",""Q09"",""Q10""]","[10998.199999928474,17518,18670.100000023842,22453.899999976158,25949.699999928474,28038,41582.199999928474,42454.10000002384,49758,55358.299999952316,63518.10000002384,74174.10000002384,83286,86934.19999992847,92526.10000002384]","[]","[0,10998.199999928474,17518,18670.100000023842,22053.799999952316,22453.899999976158,25949.699999928474,28038,41309.89999997616,41582.199999928474,42454.10000002384,48430.10000002384,48661.89999997616,49397.89999997616,49758,55358.299999952316,63518.10000002384,74174.10000002384,83286,86934.19999992847,91502,91709.89999997616,92526.10000002384,95486]","0.3","0.4444444444444444","0","","","","","","","","","","","","","","","","","","","","","","","","","","","","",""
"5739","1751451897003","<p style='font-size:1.1em;line-height:1.25'>Thank you for your answers! Now we will ask you a few more questions relating to your feelings in the last 24 hours.<br></p><p style='font-size:1.1em;line-height:1.25'>Press the <strong>Next</strong> button to continue.</p>","0","custom-html-button-response","16","351699","0.0-7.0-6.0","75","1","2025-07-02 10:19:03","80fe4187154257d5fb01684ea91b68b9","173.176.93.90","Mozilla/5.0 (Macintosh; Intel Mac OS X 10_15_7) AppleWebKit/537.36 (KHTML, like Gecko) Chrome/116.0.0.0 Safari/537.36","Macintosh","Chrome","116.0.0.0","OS X","10_15_7","https://app.prolific.com/","en-US,en;q=0.9","5f61151aead6a006ebe2747b","683db6dfa200031b80f2a654","6865078e4a77b243467da48c","5f61151aead6a006ebe2747b","2025-07-02T10:24:57.003Z","","","","","","","","","","","","","","","","","","","","","","","","","","","","","","","","","","","","","","","","","","","",""
"95392.69999992847","","","","survey-template","17","447095","0.0-7.0-7.0","75","1","2025-07-02 10:19:03","80fe4187154257d5fb01684ea91b68b9","173.176.93.90","Mozilla/5.0 (Macintosh; Intel Mac OS X 10_15_7) AppleWebKit/537.36 (KHTML, like Gecko) Chrome/116.0.0.0 Safari/537.36","Macintosh","Chrome","116.0.0.0","OS X","10_15_7","https://app.prolific.com/","en-US,en;q=0.9","5f61151aead6a006ebe2747b","683db6dfa200031b80f2a654","6865078e4a77b243467da48c","5f61151aead6a006ebe2747b","2025-07-02T10:26:32.399Z","","","","","","drsp","{""Q01"":""0"",""Q02"":""0"",""Q03"":""0"",""Q04"":""1"",""Q05"":""1"",""Q06"":""0"",""Q07"":""0"",""Q08"":""0"",""Q09"":""0"",""Q10"":""0"",""Q11"":""1"",""Q12"":""0"",""Q13"":""2"",""Q14"":""0"",""Q15"":""0"",""Q16"":""0"",""Q17"":""0"",""Q18"":""0"",""Q19"":""0"",""Q20"":""0"",""Q21"":""0""}","[0,1,2,3,4,5,6,7,8,9,10,11,12,13,14,15,16,17,18,19,20]","[""Q01"",""Q02"",""Q03"",""Q04"",""Q05"",""Q06"",""Q07"",""Q08"",""Q09"",""Q10"",""Q11"",""Q12"",""Q13"",""Q13"",""Q14"",""Q15"",""Q16"",""Q17"",""Q18"",""Q19"",""Q19"",""Q20"",""Q21""]","[4253.199999928474,5028.899999976158,8053.299999952316,9901.100000023842,11380.799999952316,16341.100000023842,17741.299999952316,19069.100000023842,21181.199999928474,23085.100000023842,24837.100000023842,26749.100000023842,30397.199999928474,31996.899999976158,34453.10000002384,41325.199999928474,42813.10000002384,45932.699999928474,51900.89999997616,76437.19999992847,81101.10000002384,86381,86909.10000002384]","[]","[0,4253.199999928474,4717.100000023842,5028.899999976158,7581.199999928474,8053.299999952316,9444.699999928474,9901.100000023842,11380.799999952316,16341.100000023842,17741.299999952316,19069.100000023842,20685.199999928474,21181.199999928474,22453.299999952316,23085.100000023842,24837.100000023842,26749.100000023842,30397.199999928474,31996.899999976158,34453.10000002384,41325.199999928474,42813.10000002384,43389.39999997616,44117.199999928474,45932.699999928474,51900.89999997616,76437.19999992847,80413.39999997616,80861.10000002384,81101.10000002384,86381,86909.10000002384,95389.29999995232]","0.8095238095238095","0.2","0","","","","","","","","","","","","","","","","","","","","","","","","","","","","",""
"19968.5","","","","survey-template","18","467067","0.0-7.0-8.0","75","1","2025-07-02 10:19:03","80fe4187154257d5fb01684ea91b68b9","173.176.93.90","Mozilla/5.0 (Macintosh; Intel Mac OS X 10_15_7) AppleWebKit/537.36 (KHTML, like Gecko) Chrome/116.0.0.0 Safari/537.36","Macintosh","Chrome","116.0.0.0","OS X","10_15_7","https://app.prolific.com/","en-US,en;q=0.9","5f61151aead6a006ebe2747b","683db6dfa200031b80f2a654","6865078e4a77b243467da48c","5f61151aead6a006ebe2747b","2025-07-02T10:26:52.371Z","","","","","","stress","{""Q01"":""1"",""Q02"":""2"",""Q03"":""0""}","[0,1,2]","[""Q01"",""Q02"",""Q03""]","[5263.899999976158,9823.899999976158,17119.899999976158]","[]","[5263.899999976158,9823.899999976158,16320,17119.899999976158,19967.899999976158]","0.3333333333333333","0","0","","","","","","","","","","","","","","","","","","","","","","","","","","","","",""
"142812","","","","instructions","19","609881","0.0-8.0-0.0","75","1","2025-07-02 10:19:03","80fe4187154257d5fb01684ea91b68b9","173.176.93.90","Mozilla/5.0 (Macintosh; Intel Mac OS X 10_15_7) AppleWebKit/537.36 (KHTML, like Gecko) Chrome/116.0.0.0 Safari/537.36","Macintosh","Chrome","116.0.0.0","OS X","10_15_7","https://app.prolific.com/","en-US,en;q=0.9","5f61151aead6a006ebe2747b","683db6dfa200031b80f2a654","6865078e4a77b243467da48c","5f61151aead6a006ebe2747b","","[{""page_index"":0,""viewing_time"":50764},{""page_index"":1,""viewing_time"":2545},{""page_index"":0,""viewing_time"":832},{""page_index"":1,""viewing_time"":48015},{""page_index"":2,""viewing_time"":2312},{""page_index"":1,""viewing_time"":5192},{""page_index"":2,""viewing_time"":9096},{""page_index"":3,""viewing_time"":24056}]","","","","","","","","","","","","","","","","","","","","","","","","","","","","","","","","","","","","","","","","","","",""
"","","","","ctl-task-cpt","20","639465","0.0-8.0-1.0","75","1","2025-07-02 10:19:03","80fe4187154257d5fb01684ea91b68b9","173.176.93.90","Mozilla/5.0 (Macintosh; Intel Mac OS X 10_15_7) AppleWebKit/537.36 (KHTML, like Gecko) Chrome/116.0.0.0 Safari/537.36","Macintosh","Chrome","116.0.0.0","OS X","10_15_7","https://app.prolific.com/","en-US,en;q=0.9","5f61151aead6a006ebe2747b","683db6dfa200031b80f2a654","6865078e4a77b243467da48c","5f61151aead6a006ebe2747b","","","","","","","","","","","","","","","","","win-only","2","g1:SE,g2:NW","1","0","1","612922.1","4644.6","8646.2","26572","2","4","4","6","1","2","1","1","0","0.007575757575757576","1903.9","4000","1690","[""down"",""right""]","{""num_key_presses"":5,""num_perfect"":4,""num_errors"":1,""num_randdir"":0,""num_randdir_good_moves"":0,""num_whilered"":0,""num_whileblue"":0,""num_blue"":1,""num_good_moves"":4}","[418.57142857142856,417.47767857142856,0.4,418.57142857142856,417.47767857142856,101.9,418.57142857142856,417.47767857142856,202.4,418.57142857142856,417.47767857142856,306.3,418.57142857142856,417.47767857142856,406.8,418.57142857142856,417.47767857142856,512,418.57142857142856,417.47767857142856,616.1,418.57142857142856,417.47767857142856,716.2,418.57142857142856,417.47767857142856,816.7,418.57142857142856,417.47767857142856,916.9,425.57142857142856,428.47767857142856,1021.6,539.5714285714286,523.4776785714286,1122,665.5714285714286,629.4776785714286,1226.8,696.5714285714286,658.4776785714286,1331.1,744.5714285714286,713.4776785714286,1431.9,761.5714285714286,735.4776785714286,1532.5,768.5714285714286,750.4776785714286,1637,770.5714285714286,755.4776785714286,1741.9,770.5714285714286,755.4776785714286,1842.5,770.5714285714286,755.4776785714286,1947,770.5714285714286,755.4776785714286,2047.1,770.5714285714286,755.4776785714286,2147.1,763.5714285714286,752.4776785714286,2251,708.5714285714286,716.4776785714286,2351.6,706.5714285714286,690.4776785714286,2451.7,706.5714285714286,688.4776785714286,2552.1,706.5714285714286,688.4776785714286,2657.4,706.5714285714286,688.4776785714286,2757.6,706.5714285714286,688.4776785714286,2857.7,706.5714285714286,688.4776785714286,2962,706.5714285714286,688.4776785714286,3065.8,706.5714285714286,688.4776785714286,3166.7,706.5714285714286,688.4776785714286,3267.4,706.5714285714286,688.4776785714286,3371,706.5714285714286,688.4776785714286,3471.7,706.5714285714286,688.4776785714286,3576.7,706.5714285714286,688.4776785714286,3676.9,706.5714285714286,688.4776785714286,3782.2,706.5714285714286,688.4776785714286,3882.4,706.5714285714286,688.4776785714286,3987.1]","[522.5,522.5,1000,0,-477.5,""error"",""-"",""-"",""no_move"",5641.6,5118.9,3123.6,1524.6,993.4,""smooth"",""down"",""down"",""good_move"",11682.5,6040.5,2024.3,9199.6,458.6,""smooth"",""right"",""right"",""good_move"",14766.5,3083.7,2568.8,11682.8,514.9,""smooth"",""right"",""right"",""good_move"",17836.8,3070.2,2712.6,14766.7,357.6,""smooth"",""down"",""down"",""good_move""]","",""
"3799","","","","instructions","21","643264","0.0-8.0-2.0","75","1","2025-07-02 10:19:03","80fe4187154257d5fb01684ea91b68b9","173.176.93.90","Mozilla/5.0 (Macintosh; Intel Mac OS X 10_15_7) AppleWebKit/537.36 (KHTML, like Gecko) Chrome/116.0.0.0 Safari/537.36","Macintosh","Chrome","116.0.0.0","OS X","10_15_7","https://app.prolific.com/","en-US,en;q=0.9","5f61151aead6a006ebe2747b","683db6dfa200031b80f2a654","6865078e4a77b243467da48c","5f61151aead6a006ebe2747b","","[{""page_index"":0,""viewing_time"":3799}]","","","","","","","","","","","","","","","","","","","","","","","","","","","","","","","","","","","","","","","","","","",""
"","","","","ctl-task-cpt","22","683016","0.0-8.0-3.0","75","1","2025-07-02 10:19:03","80fe4187154257d5fb01684ea91b68b9","173.176.93.90","Mozilla/5.0 (Macintosh; Intel Mac OS X 10_15_7) AppleWebKit/537.36 (KHTML, like Gecko) Chrome/116.0.0.0 Safari/537.36","Macintosh","Chrome","116.0.0.0","OS X","10_15_7","https://app.prolific.com/","en-US,en;q=0.9","5f61151aead6a006ebe2747b","683db6dfa200031b80f2a654","6865078e4a77b243467da48c","5f61151aead6a006ebe2747b","","","","","","","","","","","","","","","","","win-only","2","g1:SE,g2:NW","0.35","0","3","646304.1","1191.8","5196.8","36740.6","2","4","8","6","2","-8","-9","0","0","0","1464.4","4000","-3005","[""left"",""up""]","{""num_key_presses"":8,""num_perfect"":3,""num_errors"":1,""num_randdir"":4,""num_randdir_good_moves"":2,""num_whilered"":0,""num_whileblue"":1,""num_blue"":3,""num_good_moves"":5}","[417.57142857142856,417.47767857142856,0.2,417.57142857142856,417.47767857142856,104,417.57142857142856,417.47767857142856,204.4,445.57142857142856,447.47767857142856,309.2,466.57142857142856,467.47767857142856,409.4,522.5714285714286,526.4776785714286,509.8,527.5714285714286,536.4776785714286,614.7,534.5714285714286,547.4776785714286,719.7,535.5714285714286,549.4776785714286,824.7,530.5714285714286,543.4776785714286,929.3,396.57142857142856,412.47767857142856,1034.6,181.57142857142856,190.47767857142856,1138.9,146.57142857142856,155.47767857142856,1239.5,109.57142857142857,132.47767857142856,1339.9,93.57142857142857,113.47767857142857,1440.6,93.57142857142857,113.47767857142857,1544.7,93.57142857142857,113.47767857142857,1644.8,93.57142857142857,113.47767857142857,1749.1,93.57142857142857,113.47767857142857,1855.1,93.57142857142857,113.47767857142857,1961.1,93.57142857142857,113.47767857142857,2061.4,93.57142857142857,113.47767857142857,2164.7,93.57142857142857,113.47767857142857,2268.8,93.57142857142857,113.47767857142857,2369.5,93.57142857142857,113.47767857142857,2474.4,93.57142857142857,113.47767857142857,2579.8,93.57142857142857,113.47767857142857,2680.3,93.57142857142857,113.47767857142857,2784.3,93.57142857142857,113.47767857142857,2888.5,93.57142857142857,113.47767857142857,2988.5,93.57142857142857,113.47767857142857,3089.2,93.57142857142857,113.47767857142857,3189.2,93.57142857142857,113.47767857142857,3295.6,93.57142857142857,113.47767857142857,3399.3,93.57142857142857,113.47767857142857,3500.1,93.57142857142857,113.47767857142857,3602.6,93.57142857142857,113.47767857142857,3703.9,93.57142857142857,113.47767857142857,3808.2,93.57142857142857,113.47767857142857,3908.7]","[1551.8,1551.7,1000,0.2,551.6,""smooth"",""up"",""up"",""good_move"",4655.5,3103.3,2702.9,1552.2,400.4,""oops"",""left"",""up"",""good_move"",7491.3,2835.5,2311.1,4655.8,524.5,""oops"",""left"",""down"",""bad_move"",10944.5,3452.8,2368.5,7491.7,1084.3,""oops"",""up"",""right"",""bad_move"",16896.6,5951.8,2074.7,14140,681.9,""smooth"",""left"",""left"",""good_move"",20079.4,3182.4,2734.7,16897,447.7,""oops"",""left"",""left"",""good_move"",23849.7,3770.1,3458.7,20079.6,311.4,""smooth"",""left"",""left"",""good_move"",26369.5,2519.6,2174.1,23849.9,345.5,""while_blue"",""left"",""right"",""bad_move""]","",""
"60248","","","","instructions","23","743262","0.0-8.0-4.0","75","1","2025-07-02 10:19:03","80fe4187154257d5fb01684ea91b68b9","173.176.93.90","Mozilla/5.0 (Macintosh; Intel Mac OS X 10_15_7) AppleWebKit/537.36 (KHTML, like Gecko) Chrome/116.0.0.0 Safari/537.36","Macintosh","Chrome","116.0.0.0","OS X","10_15_7","https://app.prolific.com/","en-US,en;q=0.9","5f61151aead6a006ebe2747b","683db6dfa200031b80f2a654","6865078e4a77b243467da48c","5f61151aead6a006ebe2747b","","[{""page_index"":0,""viewing_time"":11135},{""page_index"":1,""viewing_time"":49111}]","","","","","","","","","","","","","","","","","","","","","","","","","","","","","","","","","","","","","","","","","","",""
"20102","","","{""green_ball"":[""Ball sometimes shakes and moves in a random direction""]}","survey-multi-select","24","763365","0.0-8.0-5.0-0.0","75","1","2025-07-02 10:19:03","80fe4187154257d5fb01684ea91b68b9","173.176.93.90","Mozilla/5.0 (Macintosh; Intel Mac OS X 10_15_7) AppleWebKit/537.36 (KHTML, like Gecko) Chrome/116.0.0.0 Safari/537.36","Macintosh","Chrome","116.0.0.0","OS X","10_15_7","https://app.prolific.com/","en-US,en;q=0.9","5f61151aead6a006ebe2747b","683db6dfa200031b80f2a654","6865078e4a77b243467da48c","5f61151aead6a006ebe2747b","","","[0]","","","","quiz","","","","","","","","","","","","","","","","","","","","","","","","","","","","","","","","","","","","","true",""
"3131","","<p align='center'><b>CORRECT!</b> Indeed, the green ball may sometimes shake and move in a random direction.</p>","0","html-button-response","25","766499","0.0-8.0-5.0-1.0","75","1","2025-07-02 10:19:03","80fe4187154257d5fb01684ea91b68b9","173.176.93.90","Mozilla/5.0 (Macintosh; Intel Mac OS X 10_15_7) AppleWebKit/537.36 (KHTML, like Gecko) Chrome/116.0.0.0 Safari/537.36","Macintosh","Chrome","116.0.0.0","OS X","10_15_7","https://app.prolific.com/","en-US,en;q=0.9","5f61151aead6a006ebe2747b","683db6dfa200031b80f2a654","6865078e4a77b243467da48c","5f61151aead6a006ebe2747b","","","","","","","","","","","","","","","","","","","","","","","","","","","","","","","","","","","","","","","","","","","","",""
"5894","","","{""yellow_ball"":[""Ball doesn‘t move and I get -1 penalty point""]}","survey-multi-select","26","772396","0.0-8.0-6.0-0.0","75","1","2025-07-02 10:19:03","80fe4187154257d5fb01684ea91b68b9","173.176.93.90","Mozilla/5.0 (Macintosh; Intel Mac OS X 10_15_7) AppleWebKit/537.36 (KHTML, like Gecko) Chrome/116.0.0.0 Safari/537.36","Macintosh","Chrome","116.0.0.0","OS X","10_15_7","https://app.prolific.com/","en-US,en;q=0.9","5f61151aead6a006ebe2747b","683db6dfa200031b80f2a654","6865078e4a77b243467da48c","5f61151aead6a006ebe2747b","","","[0]","","","","quiz","","","","","","","","","","","","","","","","","","","","","","","","","","","","","","","","","","","","","true",""
"964","","<p align='center'><b>CORRECT!</b> Indeed, the yellow ball never moves and you receive a penalty.</p>","0","html-button-response","27","773363","0.0-8.0-6.0-1.0","75","1","2025-07-02 10:19:03","80fe4187154257d5fb01684ea91b68b9","173.176.93.90","Mozilla/5.0 (Macintosh; Intel Mac OS X 10_15_7) AppleWebKit/537.36 (KHTML, like Gecko) Chrome/116.0.0.0 Safari/537.36","Macintosh","Chrome","116.0.0.0","OS X","10_15_7","https://app.prolific.com/","en-US,en;q=0.9","5f61151aead6a006ebe2747b","683db6dfa200031b80f2a654","6865078e4a77b243467da48c","5f61151aead6a006ebe2747b","","","","","","","","","","","","","","","","","","","","","","","","","","","","","","","","","","","","","","","","","","","","",""
"13735","","","{""blue_ball"":[""Ball always shakes and moves in a random direction""]}","survey-multi-select","28","787099","0.0-8.0-7.0-0.0","75","1","2025-07-02 10:19:03","80fe4187154257d5fb01684ea91b68b9","173.176.93.90","Mozilla/5.0 (Macintosh; Intel Mac OS X 10_15_7) AppleWebKit/537.36 (KHTML, like Gecko) Chrome/116.0.0.0 Safari/537.36","Macintosh","Chrome","116.0.0.0","OS X","10_15_7","https://app.prolific.com/","en-US,en;q=0.9","5f61151aead6a006ebe2747b","683db6dfa200031b80f2a654","6865078e4a77b243467da48c","5f61151aead6a006ebe2747b","","","[0]","","","","quiz","","","","","","","","","","","","","","","","","","","","","","","","","","","","","","","","","","","","","true",""
"2476","","<p align='center'><b>CORRECT!</b> Indeed, the blue ball always shakes and moves in a random direction. Also there is a penalty of -1 point.</p>","0","html-button-response","29","789579","0.0-8.0-7.0-1.0","75","1","2025-07-02 10:19:03","80fe4187154257d5fb01684ea91b68b9","173.176.93.90","Mozilla/5.0 (Macintosh; Intel Mac OS X 10_15_7) AppleWebKit/537.36 (KHTML, like Gecko) Chrome/116.0.0.0 Safari/537.36","Macintosh","Chrome","116.0.0.0","OS X","10_15_7","https://app.prolific.com/","en-US,en;q=0.9","5f61151aead6a006ebe2747b","683db6dfa200031b80f2a654","6865078e4a77b243467da48c","5f61151aead6a006ebe2747b","","","","","","","","","","","","","","","","","","","","","","","","","","","","","","","","","","","","","","","","","","","","",""
"6702","","","{""bonus"":[""When I reach 50% of points""]}","survey-multi-select","30","796283","0.0-8.0-8.0-0.0","75","1","2025-07-02 10:19:03","80fe4187154257d5fb01684ea91b68b9","173.176.93.90","Mozilla/5.0 (Macintosh; Intel Mac OS X 10_15_7) AppleWebKit/537.36 (KHTML, like Gecko) Chrome/116.0.0.0 Safari/537.36","Macintosh","Chrome","116.0.0.0","OS X","10_15_7","https://app.prolific.com/","en-US,en;q=0.9","5f61151aead6a006ebe2747b","683db6dfa200031b80f2a654","6865078e4a77b243467da48c","5f61151aead6a006ebe2747b","","","[0]","","","","quiz","","","","","","","","","","","","","","","","","","","","","","","","","","","","","","","","","","","","","true",""
"8677","","<p align='center'><b>CORRECT!</b> Indeed, you receive 2 pounds extra when you reach 50% of points.</p>","0","html-button-response","31","804963","0.0-8.0-8.0-1.0","75","1","2025-07-02 10:19:03","80fe4187154257d5fb01684ea91b68b9","173.176.93.90","Mozilla/5.0 (Macintosh; Intel Mac OS X 10_15_7) AppleWebKit/537.36 (KHTML, like Gecko) Chrome/116.0.0.0 Safari/537.36","Macintosh","Chrome","116.0.0.0","OS X","10_15_7","https://app.prolific.com/","en-US,en;q=0.9","5f61151aead6a006ebe2747b","683db6dfa200031b80f2a654","6865078e4a77b243467da48c","5f61151aead6a006ebe2747b","","","","","","","","","","","","","","","","","","","","","","","","","","","","","","","","","","","","","","","","","","","","",""
"1984","","","","instructions","32","806948","0.0-8.0-9.0","75","1","2025-07-02 10:19:03","80fe4187154257d5fb01684ea91b68b9","173.176.93.90","Mozilla/5.0 (Macintosh; Intel Mac OS X 10_15_7) AppleWebKit/537.36 (KHTML, like Gecko) Chrome/116.0.0.0 Safari/537.36","Macintosh","Chrome","116.0.0.0","OS X","10_15_7","https://app.prolific.com/","en-US,en;q=0.9","5f61151aead6a006ebe2747b","683db6dfa200031b80f2a654","6865078e4a77b243467da48c","5f61151aead6a006ebe2747b","","[{""page_index"":0,""viewing_time"":1983}]","","","","","","","","","","","","","","","","","","","","","","","","","","","","","","","","","","","","","","","","","","",""
"30686","","<p>Before you start with this game please answer the following three questions yourself. </p>
  <p>Through this game, we measure several aspects of your cognitive performance, such as reaction times, multi-tasking capabilities </p>
  <p>and the ability to assess the situation you are in.</p>
  <p></p>
  <p><b>How good do you usually are in such tasks?</b></p>","70","html-slider-response","33","837634","0.0-9.0-0.0","75","1","2025-07-02 10:19:03","80fe4187154257d5fb01684ea91b68b9","173.176.93.90","Mozilla/5.0 (Macintosh; Intel Mac OS X 10_15_7) AppleWebKit/537.36 (KHTML, like Gecko) Chrome/116.0.0.0 Safari/537.36","Macintosh","Chrome","116.0.0.0","OS X","10_15_7","https://app.prolific.com/","en-US,en;q=0.9","5f61151aead6a006ebe2747b","683db6dfa200031b80f2a654","6865078e4a77b243467da48c","5f61151aead6a006ebe2747b","2025-07-02T10:33:02.939Z","","","","","","PreSkillQ","","","","","","","","","","","","","","","","","","","","","","","","","","","","","","","","","","","","","","50"
"9759","","<div style=""width:500px;"">
  <p>How well do you think you will perform in this task compared to other participants?</p>
  </div>","66","html-slider-response","34","847395","0.0-9.0-1.0","75","1","2025-07-02 10:19:03","80fe4187154257d5fb01684ea91b68b9","173.176.93.90","Mozilla/5.0 (Macintosh; Intel Mac OS X 10_15_7) AppleWebKit/537.36 (KHTML, like Gecko) Chrome/116.0.0.0 Safari/537.36","Macintosh","Chrome","116.0.0.0","OS X","10_15_7","https://app.prolific.com/","en-US,en;q=0.9","5f61151aead6a006ebe2747b","683db6dfa200031b80f2a654","6865078e4a77b243467da48c","5f61151aead6a006ebe2747b","2025-07-02T10:33:12.700Z","","","","","","PrePerfQ","","","","","","","","","","","","","","","","","","","","","","","","","","","","","","","","","","","","","","50"
"12141","","<div style=""width:500px;"">
  <p>What best describes how you currently feel?</p>
  </div>","43","html-slider-response","35","859538","0.0-9.0-2.0","75","1","2025-07-02 10:19:03","80fe4187154257d5fb01684ea91b68b9","173.176.93.90","Mozilla/5.0 (Macintosh; Intel Mac OS X 10_15_7) AppleWebKit/537.36 (KHTML, like Gecko) Chrome/116.0.0.0 Safari/537.36","Macintosh","Chrome","116.0.0.0","OS X","10_15_7","https://app.prolific.com/","en-US,en;q=0.9","5f61151aead6a006ebe2747b","683db6dfa200031b80f2a654","6865078e4a77b243467da48c","5f61151aead6a006ebe2747b","2025-07-02T10:33:24.842Z","","","","","","PreMotivationQ","","","","","","","","","","","","","","","","","","","","","","","","","","","","","","","","","","","","","","50"
"","","","","ctl-task-cpt","36","894749","0.0-10.0-0.0","75","1","2025-07-02 10:19:03","80fe4187154257d5fb01684ea91b68b9","173.176.93.90","Mozilla/5.0 (Macintosh; Intel Mac OS X 10_15_7) AppleWebKit/537.36 (KHTML, like Gecko) Chrome/116.0.0.0 Safari/537.36","Macintosh","Chrome","116.0.0.0","OS X","10_15_7","https://app.prolific.com/","en-US,en;q=0.9","5f61151aead6a006ebe2747b","683db6dfa200031b80f2a654","6865078e4a77b243467da48c","5f61151aead6a006ebe2747b","2025-07-02T10:34:00.054Z","","","","","","","","","","","","","","","","win-only","0","g1:NW,g2:SE","1","1","0","862586.1","3036.9","8042.1","32196.1","1","4","8","6","2","8","7","7","0","0.05303030303030303","2425.1","3000","380","[""down"",""right""]","{""num_key_presses"":8,""num_perfect"":7,""num_errors"":1,""num_randdir"":0,""num_randdir_good_moves"":0,""num_whilered"":0,""num_whileblue"":1,""num_blue"":2,""num_good_moves"":7}","[422.57142857142856,417.47767857142856,0.2,422.57142857142856,417.47767857142856,101.1,422.57142857142856,417.47767857142856,203.3,422.57142857142856,417.47767857142856,306.6,422.57142857142856,417.47767857142856,412.6,422.57142857142856,417.47767857142856,514.7,422.57142857142856,417.47767857142856,615,422.57142857142856,417.47767857142856,715.4,422.57142857142856,417.47767857142856,819.4,422.57142857142856,417.47767857142856,921.3,402.57142857142856,407.47767857142856,1024.4,-57.42857142857143,146.47767857142856,1128.5,-55.42857142857143,116.47767857142857,1232.5,-46.42857142857143,112.47767857142857,1332.5,6.571428571428569,112.47767857142857,1433.1,26.57142857142857,118.47767857142857,1538.9,221.57142857142856,254.47767857142856,1640.6,474.57142857142856,507.47767857142856,1741.5,615.5714285714286,657.4776785714286,1843.1,673.5714285714286,702.4776785714286,1945,735.5714285714286,740.4776785714286,2045.4,742.5714285714286,744.4776785714286,2147.4,752.5714285714286,749.4776785714286,2249.5,754.5714285714286,750.4776785714286,2352.2,754.5714285714286,750.4776785714286,2452.4,754.5714285714286,750.4776785714286,2553.1,754.5714285714286,750.4776785714286,2654.3,754.5714285714286,750.4776785714286,2756.7,754.5714285714286,750.4776785714286,2861.1,754.5714285714286,750.4776785714286,2964.5,754.5714285714286,750.4776785714286,3068.5,754.5714285714286,750.4776785714286,3172.7,754.5714285714286,750.4776785714286,3273.6,754.5714285714286,750.4776785714286,3374.6,754.5714285714286,750.4776785714286,3475.4,754.5714285714286,750.4776785714286,3576,754.5714285714286,750.4776785714286,3679.6,754.5714285714286,750.4776785714286,3781,754.5714285714286,750.4776785714286,3885.1,754.5714285714286,750.4776785714286,3989.6,754.5714285714286,750.4776785714286,4092.1,754.5714285714286,750.4776785714286,4195.5,754.5714285714286,750.4776785714286,4298.4,754.5714285714286,750.4776785714286,4399.1,754.5714285714286,750.4776785714286,4502.2,754.5714285714286,750.4776785714286,4603.7,754.5714285714286,750.4776785714286,4706.4,754.5714285714286,750.4776785714286,4811.6,754.5714285714286,750.4776785714286,4914]","[1307.9,1308,1000,0,308,""smooth"",""right"",""right"",""good_move"",3366.1,2057.7,1706.4,1308.4,351.3,""smooth"",""down"",""down"",""good_move"",6280.1,2913.6,2540.9,3366.5,372.7,""smooth"",""right"",""right"",""good_move"",9002.4,2722,2405.1,6280.4,316.9,""smooth"",""right"",""right"",""good_move"",11713.9,2711.3,2359.8,9002.6,351.5,""smooth"",""down"",""down"",""good_move"",14323.3,2609.2,2296.9,11714.1,312.3,""while_blue"",""down"",""left"",""bad_move"",20927.3,6603.5,2759.3,17711.2,456.8,""smooth"",""right"",""right"",""good_move"",24065.7,3138.3,2592,20927.4,546.3,""smooth"",""down"",""down"",""good_move""]","",""
"8628","","<div style=""width:500px;"">
  <p>What determined the result of this run?</p>
  </div>","83","html-slider-response","37","903378","0.0-10.0-1.0","75","1","2025-07-02 10:19:03","80fe4187154257d5fb01684ea91b68b9","173.176.93.90","Mozilla/5.0 (Macintosh; Intel Mac OS X 10_15_7) AppleWebKit/537.36 (KHTML, like Gecko) Chrome/116.0.0.0 Safari/537.36","Macintosh","Chrome","116.0.0.0","OS X","10_15_7","https://app.prolific.com/","en-US,en;q=0.9","5f61151aead6a006ebe2747b","683db6dfa200031b80f2a654","6865078e4a77b243467da48c","5f61151aead6a006ebe2747b","2025-07-02T10:34:08.683Z","","","","","","AttribQ","","","","","","","","","","","","","","","","","","","","","","","","","","","","","","","","","","","","","","50"
"7262","","<div style=""width:500px;"">
  <p>How much control did you have over the ball?</p>
  </div>","100","html-slider-response","38","910642","0.0-10.0-2.0","75","1","2025-07-02 10:19:03","80fe4187154257d5fb01684ea91b68b9","173.176.93.90","Mozilla/5.0 (Macintosh; Intel Mac OS X 10_15_7) AppleWebKit/537.36 (KHTML, like Gecko) Chrome/116.0.0.0 Safari/537.36","Macintosh","Chrome","116.0.0.0","OS X","10_15_7","https://app.prolific.com/","en-US,en;q=0.9","5f61151aead6a006ebe2747b","683db6dfa200031b80f2a654","6865078e4a77b243467da48c","5f61151aead6a006ebe2747b","2025-07-02T10:34:15.946Z","","","","","","ControlQ","","","","","","","","","","","","","","","","","","","","","","","","","","","","","","","","","","","","","","50"
"8366","","<div style=""width:500px;"">
  <p>How would you describe your current emotional state?</p>
  </div>","13","html-slider-response","39","919009","0.0-10.0-3.0","75","1","2025-07-02 10:19:03","80fe4187154257d5fb01684ea91b68b9","173.176.93.90","Mozilla/5.0 (Macintosh; Intel Mac OS X 10_15_7) AppleWebKit/537.36 (KHTML, like Gecko) Chrome/116.0.0.0 Safari/537.36","Macintosh","Chrome","116.0.0.0","OS X","10_15_7","https://app.prolific.com/","en-US,en;q=0.9","5f61151aead6a006ebe2747b","683db6dfa200031b80f2a654","6865078e4a77b243467da48c","5f61151aead6a006ebe2747b","2025-07-02T10:34:24.313Z","","","","","","StressQ","","","","","","","","","","","","","","","","","","","","","","","","","","","","","","","","","","","","","","50"
"19216","","<div style=""width:500px;"">
  <p>What best describes how you currently feel?</p>
  </div>","82","html-slider-response","40","938227","0.0-10.0-4.0","75","1","2025-07-02 10:19:03","80fe4187154257d5fb01684ea91b68b9","173.176.93.90","Mozilla/5.0 (Macintosh; Intel Mac OS X 10_15_7) AppleWebKit/537.36 (KHTML, like Gecko) Chrome/116.0.0.0 Safari/537.36","Macintosh","Chrome","116.0.0.0","OS X","10_15_7","https://app.prolific.com/","en-US,en;q=0.9","5f61151aead6a006ebe2747b","683db6dfa200031b80f2a654","6865078e4a77b243467da48c","5f61151aead6a006ebe2747b","2025-07-02T10:34:43.531Z","","","","","","MotivationQ","","","","","","","","","","","","","","","","","","","","","","","","","","","","","","","","","","","","","","50"
"","","","","ctl-task-cpt","41","969849","0.0-10.0-0.1","75","1","2025-07-02 10:19:03","80fe4187154257d5fb01684ea91b68b9","173.176.93.90","Mozilla/5.0 (Macintosh; Intel Mac OS X 10_15_7) AppleWebKit/537.36 (KHTML, like Gecko) Chrome/116.0.0.0 Safari/537.36","Macintosh","Chrome","116.0.0.0","OS X","10_15_7","https://app.prolific.com/","en-US,en;q=0.9","5f61151aead6a006ebe2747b","683db6dfa200031b80f2a654","6865078e4a77b243467da48c","5f61151aead6a006ebe2747b","2025-07-02T10:35:15.154Z","","","","","","","","","","","","","","","","win-only","3","g1:SW,g2:NE","0.9","2","0","941275.8","1748.4","6755.5","28606.7","1","4","4","6","2","4","4","11","7","0.08333333333333333","3256.7","3000","1085","[""up"",""right""]","{""num_key_presses"":6,""num_perfect"":6,""num_errors"":0,""num_randdir"":0,""num_randdir_good_moves"":0,""num_whilered"":0,""num_whileblue"":0,""num_blue"":1,""num_good_moves"":6}","[419.57142857142856,414.47767857142856,0.2,419.57142857142856,414.47767857142856,101.5,419.57142857142856,414.47767857142856,206.1,409.57142857142856,420.47767857142856,311.9,409.57142857142856,420.47767857142856,416.4,409.57142857142856,420.47767857142856,519.8,409.57142857142856,420.47767857142856,626.5,409.57142857142856,420.47767857142856,731.4,409.57142857142856,420.47767857142856,834,409.57142857142856,420.47767857142856,934.9,409.57142857142856,420.47767857142856,1037,409.57142857142856,420.47767857142856,1138,409.57142857142856,420.47767857142856,1242.8,409.57142857142856,420.47767857142856,1345.3,409.57142857142856,420.47767857142856,1445.5,409.57142857142856,420.47767857142856,1548.9,409.57142857142856,420.47767857142856,1650.3,409.57142857142856,420.47767857142856,1753.4,409.57142857142856,420.47767857142856,1853.8,409.57142857142856,420.47767857142856,1958.2,417.57142857142856,411.47767857142856,2061.1,420.57142857142856,406.47767857142856,2167.5,420.57142857142856,406.47767857142856,2273.4,432.57142857142856,390.47767857142856,2379.6,560.5714285714286,276.47767857142856,2479.6,658.5714285714286,190.47767857142856,2582.2,735.5714285714286,118.47767857142857,2685.7,794.5714285714286,67.47767857142857,2788.6,794.5714285714286,66.47767857142857,2892,794.5714285714286,66.47767857142857,2995.8,777.5714285714286,76.47767857142857,3104.3,773.5714285714286,78.47767857142857,3206,773.5714285714286,78.47767857142857,3308.5,773.5714285714286,78.47767857142857,3410.1,769.5714285714286,105.47767857142857,3514.9,686.5714285714286,198.47767857142856,3621.6,684.5714285714286,200.47767857142856,3728.9,684.5714285714286,200.47767857142856,3832.3,684.5714285714286,200.47767857142856,3933.3,684.5714285714286,200.47767857142856,4043.1,684.5714285714286,200.47767857142856,4144.7,684.5714285714286,200.47767857142856,4248.5,684.5714285714286,200.47767857142856,4350.9,684.5714285714286,200.47767857142856,4456.2,684.5714285714286,200.47767857142856,4563.5,684.5714285714286,200.47767857142856,4666.4,684.5714285714286,200.47767857142856,4772.4,684.5714285714286,200.47767857142856,4878.8,684.5714285714286,200.47767857142856,4979.1]","[1529.7,1529.7,1000,0,529.7,""smooth"",""right"",""right"",""good_move"",5164,3633.9,3152.9,1530.1,481,""smooth"",""up"",""up"",""good_move"",8642.1,3477.9,3070.2,5164.4,407.6,""smooth"",""right"",""right"",""good_move"",11374.8,2732.4,2433.5,8642.4,298.9,""smooth"",""up"",""up"",""good_move"",18856.4,7481.4,3114.4,15222,520,""smooth"",""up"",""up"",""good_move"",21747,2890.3,2504.2,18856.7,386.1,""smooth"",""right"",""right"",""good_move""]","",""
"5666","","<div style=""width:500px;"">
  <p>What determined the result of this run?</p>
  </div>","82","html-slider-response","42","975517","0.0-10.0-1.1","75","1","2025-07-02 10:19:03","80fe4187154257d5fb01684ea91b68b9","173.176.93.90","Mozilla/5.0 (Macintosh; Intel Mac OS X 10_15_7) AppleWebKit/537.36 (KHTML, like Gecko) Chrome/116.0.0.0 Safari/537.36","Macintosh","Chrome","116.0.0.0","OS X","10_15_7","https://app.prolific.com/","en-US,en;q=0.9","5f61151aead6a006ebe2747b","683db6dfa200031b80f2a654","6865078e4a77b243467da48c","5f61151aead6a006ebe2747b","2025-07-02T10:35:20.821Z","","","","","","AttribQ","","","","","","","","","","","","","","","","","","","","","","","","","","","","","","","","","","","","","","50"
"2402","","<div style=""width:500px;"">
  <p>How much control did you have over the ball?</p>
  </div>","100","html-slider-response","43","977921","0.0-10.0-2.1","75","1","2025-07-02 10:19:03","80fe4187154257d5fb01684ea91b68b9","173.176.93.90","Mozilla/5.0 (Macintosh; Intel Mac OS X 10_15_7) AppleWebKit/537.36 (KHTML, like Gecko) Chrome/116.0.0.0 Safari/537.36","Macintosh","Chrome","116.0.0.0","OS X","10_15_7","https://app.prolific.com/","en-US,en;q=0.9","5f61151aead6a006ebe2747b","683db6dfa200031b80f2a654","6865078e4a77b243467da48c","5f61151aead6a006ebe2747b","2025-07-02T10:35:23.225Z","","","","","","ControlQ","","","","","","","","","","","","","","","","","","","","","","","","","","","","","","","","","","","","","","50"
"7112","","<div style=""width:500px;"">
  <p>How would you describe your current emotional state?</p>
  </div>","14","html-slider-response","44","985034","0.0-10.0-3.1","75","1","2025-07-02 10:19:03","80fe4187154257d5fb01684ea91b68b9","173.176.93.90","Mozilla/5.0 (Macintosh; Intel Mac OS X 10_15_7) AppleWebKit/537.36 (KHTML, like Gecko) Chrome/116.0.0.0 Safari/537.36","Macintosh","Chrome","116.0.0.0","OS X","10_15_7","https://app.prolific.com/","en-US,en;q=0.9","5f61151aead6a006ebe2747b","683db6dfa200031b80f2a654","6865078e4a77b243467da48c","5f61151aead6a006ebe2747b","2025-07-02T10:35:30.338Z","","","","","","StressQ","","","","","","","","","","","","","","","","","","","","","","","","","","","","","","","","","","","","","","50"
"4087","","<div style=""width:500px;"">
  <p>What best describes how you currently feel?</p>
  </div>","91","html-slider-response","45","989122","0.0-10.0-4.1","75","1","2025-07-02 10:19:03","80fe4187154257d5fb01684ea91b68b9","173.176.93.90","Mozilla/5.0 (Macintosh; Intel Mac OS X 10_15_7) AppleWebKit/537.36 (KHTML, like Gecko) Chrome/116.0.0.0 Safari/537.36","Macintosh","Chrome","116.0.0.0","OS X","10_15_7","https://app.prolific.com/","en-US,en;q=0.9","5f61151aead6a006ebe2747b","683db6dfa200031b80f2a654","6865078e4a77b243467da48c","5f61151aead6a006ebe2747b","2025-07-02T10:35:34.426Z","","","","","","MotivationQ","","","","","","","","","","","","","","","","","","","","","","","","","","","","","","","","","","","","","","50"
"","","","","ctl-task-cpt","46","1020332","0.0-10.0-0.2","75","1","2025-07-02 10:19:03","80fe4187154257d5fb01684ea91b68b9","173.176.93.90","Mozilla/5.0 (Macintosh; Intel Mac OS X 10_15_7) AppleWebKit/537.36 (KHTML, like Gecko) Chrome/116.0.0.0 Safari/537.36","Macintosh","Chrome","116.0.0.0","OS X","10_15_7","https://app.prolific.com/","en-US,en;q=0.9","5f61151aead6a006ebe2747b","683db6dfa200031b80f2a654","6865078e4a77b243467da48c","5f61151aead6a006ebe2747b","2025-07-02T10:36:05.636Z","","","","","","","","","","","","","","","","win-only","3","g1:SW,g2:NE","0.8","3","0","992169.1","990.7","5996","28193.2","1","4","8","6","2","8","8","19","11","0.14393939393939395","1288.1","3000","1560","[""up"",""right""]","{""num_key_presses"":6,""num_perfect"":5,""num_errors"":0,""num_randdir"":1,""num_randdir_good_moves"":1,""num_whilered"":0,""num_whileblue"":0,""num_blue"":2,""num_good_moves"":6}","[407.57142857142856,414.47767857142856,0.3,408.57142857142856,414.47767857142856,105.6,403.57142857142856,418.47767857142856,206.9,299.57142857142856,439.47767857142856,314.9,275.57142857142856,441.47767857142856,418.5,275.57142857142856,443.47767857142856,518.9,278.57142857142856,449.47767857142856,623,280.57142857142856,447.47767857142856,725.1,281.57142857142856,446.47767857142856,826.1,395.57142857142856,351.47767857142856,932.1,715.5714285714286,124.47767857142857,1038.5,739.5714285714286,106.47767857142857,1144.9,745.5714285714286,101.47767857142857,1251.3,746.5714285714286,100.47767857142857,1359.3,710.5714285714286,127.47767857142857,1467.6,645.5714285714286,160.47767857142856,1571.8,644.5714285714286,160.47767857142856,1680.5,644.5714285714286,160.47767857142856,1780.8,644.5714285714286,160.47767857142856,1889.5,644.5714285714286,160.47767857142856,1990.9,644.5714285714286,160.47767857142856,2097,644.5714285714286,160.47767857142856,2202.1,644.5714285714286,160.47767857142856,2310.2,644.5714285714286,160.47767857142856,2419,644.5714285714286,160.47767857142856,2525.1,644.5714285714286,160.47767857142856,2625.3,644.5714285714286,160.47767857142856,2729.3,644.5714285714286,160.47767857142856,2831.5,644.5714285714286,160.47767857142856,2932.2,644.5714285714286,160.47767857142856,3037.1,644.5714285714286,160.47767857142856,3144.2,644.5714285714286,160.47767857142856,3250.7,644.5714285714286,160.47767857142856,3354.7,644.5714285714286,160.47767857142856,3458,644.5714285714286,160.47767857142856,3565.7,644.5714285714286,160.47767857142856,3667.9,644.5714285714286,160.47767857142856,3769.7,644.5714285714286,160.47767857142856,3874.6,644.5714285714286,160.47767857142856,3979.1,644.5714285714286,160.47767857142856,4087.3,644.5714285714286,160.47767857142856,4193.2,644.5714285714286,160.47767857142856,4296.6,644.5714285714286,160.47767857142856,4404.8,644.5714285714286,160.47767857142856,4505.2,644.5714285714286,160.47767857142856,4607.9,644.5714285714286,160.47767857142856,4711,644.5714285714286,160.47767857142856,4820.4,644.5714285714286,160.47767857142856,4924.7]","[1505.3,1505.3,1000,0,505.3,""smooth"",""up"",""up"",""good_move"",4665.9,3160.3,2729.9,1505.6,430.4,""smooth"",""right"",""right"",""good_move"",10369.9,5703.7,2445.8,7592.4,331.7,""smooth"",""right"",""right"",""good_move"",13070,2699.9,2289.2,10370.1,410.7,""oops"",""up"",""up"",""good_move"",19257,6186.8,2114.4,16676.5,466.1,""smooth"",""right"",""right"",""good_move"",22037,2779.7,2316.8,19257.3,462.9,""smooth"",""up"",""up"",""good_move""]","",""
"2620","","<div style=""width:500px;"">
  <p>What determined the result of this run?</p>
  </div>","73","html-slider-response","47","1022954","0.0-10.0-1.2","75","1","2025-07-02 10:19:03","80fe4187154257d5fb01684ea91b68b9","173.176.93.90","Mozilla/5.0 (Macintosh; Intel Mac OS X 10_15_7) AppleWebKit/537.36 (KHTML, like Gecko) Chrome/116.0.0.0 Safari/537.36","Macintosh","Chrome","116.0.0.0","OS X","10_15_7","https://app.prolific.com/","en-US,en;q=0.9","5f61151aead6a006ebe2747b","683db6dfa200031b80f2a654","6865078e4a77b243467da48c","5f61151aead6a006ebe2747b","2025-07-02T10:36:08.258Z","","","","","","AttribQ","","","","","","","","","","","","","","","","","","","","","","","","","","","","","","","","","","","","","","50"
"4134","","<div style=""width:500px;"">
  <p>How much control did you have over the ball?</p>
  </div>","94","html-slider-response","48","1027088","0.0-10.0-2.2","75","1","2025-07-02 10:19:03","80fe4187154257d5fb01684ea91b68b9","173.176.93.90","Mozilla/5.0 (Macintosh; Intel Mac OS X 10_15_7) AppleWebKit/537.36 (KHTML, like Gecko) Chrome/116.0.0.0 Safari/537.36","Macintosh","Chrome","116.0.0.0","OS X","10_15_7","https://app.prolific.com/","en-US,en;q=0.9","5f61151aead6a006ebe2747b","683db6dfa200031b80f2a654","6865078e4a77b243467da48c","5f61151aead6a006ebe2747b","2025-07-02T10:36:12.393Z","","","","","","ControlQ","","","","","","","","","","","","","","","","","","","","","","","","","","","","","","","","","","","","","","50"
"3952","","<div style=""width:500px;"">
  <p>How would you describe your current emotional state?</p>
  </div>","15","html-slider-response","49","1031042","0.0-10.0-3.2","75","1","2025-07-02 10:19:03","80fe4187154257d5fb01684ea91b68b9","173.176.93.90","Mozilla/5.0 (Macintosh; Intel Mac OS X 10_15_7) AppleWebKit/537.36 (KHTML, like Gecko) Chrome/116.0.0.0 Safari/537.36","Macintosh","Chrome","116.0.0.0","OS X","10_15_7","https://app.prolific.com/","en-US,en;q=0.9","5f61151aead6a006ebe2747b","683db6dfa200031b80f2a654","6865078e4a77b243467da48c","5f61151aead6a006ebe2747b","2025-07-02T10:36:16.346Z","","","","","","StressQ","","","","","","","","","","","","","","","","","","","","","","","","","","","","","","","","","","","","","","50"
"4455","","<div style=""width:500px;"">
  <p>What best describes how you currently feel?</p>
  </div>","92","html-slider-response","50","1035497","0.0-10.0-4.2","75","1","2025-07-02 10:19:03","80fe4187154257d5fb01684ea91b68b9","173.176.93.90","Mozilla/5.0 (Macintosh; Intel Mac OS X 10_15_7) AppleWebKit/537.36 (KHTML, like Gecko) Chrome/116.0.0.0 Safari/537.36","Macintosh","Chrome","116.0.0.0","OS X","10_15_7","https://app.prolific.com/","en-US,en;q=0.9","5f61151aead6a006ebe2747b","683db6dfa200031b80f2a654","6865078e4a77b243467da48c","5f61151aead6a006ebe2747b","2025-07-02T10:36:20.801Z","","","","","","MotivationQ","","","","","","","","","","","","","","","","","","","","","","","","","","","","","","","","","","","","","","50"
"","","","","ctl-task-cpt","51","1061202","0.0-10.0-0.3","75","1","2025-07-02 10:19:03","80fe4187154257d5fb01684ea91b68b9","173.176.93.90","Mozilla/5.0 (Macintosh; Intel Mac OS X 10_15_7) AppleWebKit/537.36 (KHTML, like Gecko) Chrome/116.0.0.0 Safari/537.36","Macintosh","Chrome","116.0.0.0","OS X","10_15_7","https://app.prolific.com/","en-US,en;q=0.9","5f61151aead6a006ebe2747b","683db6dfa200031b80f2a654","6865078e4a77b243467da48c","5f61151aead6a006ebe2747b","2025-07-02T10:36:46.506Z","","","","","","","","","","","","","","","","win-only","3","g1:SW,g2:NE","0.7","4","0","1038545","1211.1","6216.7","22681.2","1","4","4","6","2","4","4","23","19","0.17424242424242425","3659.7","3000","1815","[""up"",""right""]","{""num_key_presses"":6,""num_perfect"":5,""num_errors"":0,""num_randdir"":1,""num_randdir_good_moves"":1,""num_whilered"":0,""num_whileblue"":0,""num_blue"":0,""num_good_moves"":6}","[420.57142857142856,417.47767857142856,0.1,420.57142857142856,417.47767857142856,106.2,397.57142857142856,416.47767857142856,215.2,327.57142857142856,416.47767857142856,319.5,327.57142857142856,416.47767857142856,425.7,327.57142857142856,416.47767857142856,529.3,327.57142857142856,416.47767857142856,632.4,327.57142857142856,416.47767857142856,734.8,327.57142857142856,416.47767857142856,847.1,327.57142857142856,416.47767857142856,948.6,327.57142857142856,416.47767857142856,1053,327.57142857142856,416.47767857142856,1156,327.57142857142856,416.47767857142856,1256.4,327.57142857142856,416.47767857142856,1357.9,327.57142857142856,416.47767857142856,1463.3,327.57142857142856,416.47767857142856,1574,327.57142857142856,416.47767857142856,1679.6,327.57142857142856,416.47767857142856,1790,327.57142857142856,416.47767857142856,1893.4,327.57142857142856,416.47767857142856,1998.3,327.57142857142856,416.47767857142856,2099.4,327.57142857142856,416.47767857142856,2201,327.57142857142856,416.47767857142856,2311,327.57142857142856,416.47767857142856,2415,327.57142857142856,416.47767857142856,2524.2,327.57142857142856,416.47767857142856,2630,327.57142857142856,416.47767857142856,2734.4,327.57142857142856,416.47767857142856,2844.4,327.57142857142856,416.47767857142856,2948.5,327.57142857142856,416.47767857142856,3054.5,419.57142857142856,392.47767857142856,3166.1,575.5714285714286,349.47767857142856,3271,587.5714285714286,275.47767857142856,3375.8,738.5714285714286,141.47767857142856,3477.2,777.5714285714286,102.47767857142857,3585.7,786.5714285714286,96.47767857142857,3693.7,786.5714285714286,96.47767857142857,3798.9,773.5714285714286,114.47767857142857,3899,729.5714285714286,156.47767857142856,4003,729.5714285714286,156.47767857142856,4106.4,729.5714285714286,156.47767857142856,4217.1,729.5714285714286,156.47767857142856,4320.4,729.5714285714286,156.47767857142856,4421.7,729.5714285714286,156.47767857142856,4524.2,729.5714285714286,156.47767857142856,4629.7,729.5714285714286,156.47767857142856,4736.8,729.5714285714286,156.47767857142856,4837.8,729.5714285714286,156.47767857142856,4947.7]","[1416.5,1416.5,1000,0,416.5,""smooth"",""right"",""right"",""good_move"",4218.8,2802,2428.4,1416.8,373.6,""smooth"",""up"",""up"",""good_move"",6490.8,2271.7,1706.4,4219.1,565.3,""smooth"",""up"",""up"",""good_move"",10123.7,3632.7,2936.5,6491,696.2,""oops"",""right"",""up"",""good_move"",13318.5,3194.5,2853.1,10124,341.4,""smooth"",""right"",""right"",""good_move"",16266.8,2948.1,2588.2,13318.7,359.9,""smooth"",""right"",""right"",""good_move""]","",""
"3230","","<div style=""width:500px;"">
  <p>What determined the result of this run?</p>
  </div>","82","html-slider-response","52","1064432","0.0-10.0-1.3","75","1","2025-07-02 10:19:03","80fe4187154257d5fb01684ea91b68b9","173.176.93.90","Mozilla/5.0 (Macintosh; Intel Mac OS X 10_15_7) AppleWebKit/537.36 (KHTML, like Gecko) Chrome/116.0.0.0 Safari/537.36","Macintosh","Chrome","116.0.0.0","OS X","10_15_7","https://app.prolific.com/","en-US,en;q=0.9","5f61151aead6a006ebe2747b","683db6dfa200031b80f2a654","6865078e4a77b243467da48c","5f61151aead6a006ebe2747b","2025-07-02T10:36:49.736Z","","","","","","AttribQ","","","","","","","","","","","","","","","","","","","","","","","","","","","","","","","","","","","","","","50"
"3471","","<div style=""width:500px;"">
  <p>How much control did you have over the ball?</p>
  </div>","88","html-slider-response","53","1067905","0.0-10.0-2.3","75","1","2025-07-02 10:19:03","80fe4187154257d5fb01684ea91b68b9","173.176.93.90","Mozilla/5.0 (Macintosh; Intel Mac OS X 10_15_7) AppleWebKit/537.36 (KHTML, like Gecko) Chrome/116.0.0.0 Safari/537.36","Macintosh","Chrome","116.0.0.0","OS X","10_15_7","https://app.prolific.com/","en-US,en;q=0.9","5f61151aead6a006ebe2747b","683db6dfa200031b80f2a654","6865078e4a77b243467da48c","5f61151aead6a006ebe2747b","2025-07-02T10:36:53.209Z","","","","","","ControlQ","","","","","","","","","","","","","","","","","","","","","","","","","","","","","","","","","","","","","","50"
"3191","","<div style=""width:500px;"">
  <p>How would you describe your current emotional state?</p>
  </div>","15","html-slider-response","54","1071096","0.0-10.0-3.3","75","1","2025-07-02 10:19:03","80fe4187154257d5fb01684ea91b68b9","173.176.93.90","Mozilla/5.0 (Macintosh; Intel Mac OS X 10_15_7) AppleWebKit/537.36 (KHTML, like Gecko) Chrome/116.0.0.0 Safari/537.36","Macintosh","Chrome","116.0.0.0","OS X","10_15_7","https://app.prolific.com/","en-US,en;q=0.9","5f61151aead6a006ebe2747b","683db6dfa200031b80f2a654","6865078e4a77b243467da48c","5f61151aead6a006ebe2747b","2025-07-02T10:36:56.400Z","","","","","","StressQ","","","","","","","","","","","","","","","","","","","","","","","","","","","","","","","","","","","","","","50"
"4472","","<div style=""width:500px;"">
  <p>What best describes how you currently feel?</p>
  </div>","94","html-slider-response","55","1075569","0.0-10.0-4.3","75","1","2025-07-02 10:19:03","80fe4187154257d5fb01684ea91b68b9","173.176.93.90","Mozilla/5.0 (Macintosh; Intel Mac OS X 10_15_7) AppleWebKit/537.36 (KHTML, like Gecko) Chrome/116.0.0.0 Safari/537.36","Macintosh","Chrome","116.0.0.0","OS X","10_15_7","https://app.prolific.com/","en-US,en;q=0.9","5f61151aead6a006ebe2747b","683db6dfa200031b80f2a654","6865078e4a77b243467da48c","5f61151aead6a006ebe2747b","2025-07-02T10:37:00.873Z","","","","","","MotivationQ","","","","","","","","","","","","","","","","","","","","","","","","","","","","","","","","","","","","","","50"
"","","","","ctl-task-cpt","56","1119180","0.0-10.0-0.4","75","1","2025-07-02 10:19:03","80fe4187154257d5fb01684ea91b68b9","173.176.93.90","Mozilla/5.0 (Macintosh; Intel Mac OS X 10_15_7) AppleWebKit/537.36 (KHTML, like Gecko) Chrome/116.0.0.0 Safari/537.36","Macintosh","Chrome","116.0.0.0","OS X","10_15_7","https://app.prolific.com/","en-US,en;q=0.9","5f61151aead6a006ebe2747b","683db6dfa200031b80f2a654","6865078e4a77b243467da48c","5f61151aead6a006ebe2747b","2025-07-02T10:37:44.484Z","","","","","","","","","","","","","","","","win-only","2","g1:SE,g2:NW","0.6","5","0","1078616.9","1030.5","6034","40593.7","1","4","8","6","2","8","8","31","23","0.23484848484848486","983.7","3000","1095","[""left"",""up""]","{""num_key_presses"":12,""num_perfect"":7,""num_errors"":0,""num_randdir"":5,""num_randdir_good_moves"":2,""num_whilered"":0,""num_whileblue"":0,""num_blue"":0,""num_good_moves"":9}","[413.57142857142856,413.47767857142856,0.2,413.57142857142856,413.47767857142856,104.9,378.57142857142856,428.47767857142856,213.9,269.57142857142856,432.47767857142856,320.4,275.57142857142856,430.47767857142856,428.4,324.57142857142856,446.47767857142856,538.7,199.57142857142856,292.47767857142856,643.6,36.57142857142857,134.47767857142856,746.7,32.57142857142857,122.47767857142857,851.2,38.57142857142857,105.47767857142857,961,39.57142857142857,104.47767857142857,1067.8,164.57142857142856,134.47767857142856,1178.9,218.57142857142856,148.47767857142856,1287.1,218.57142857142856,148.47767857142856,1390,218.57142857142856,148.47767857142856,1497.8,218.57142857142856,148.47767857142856,1603.1,218.57142857142856,148.47767857142856,1704.9,218.57142857142856,148.47767857142856,1810.3,218.57142857142856,148.47767857142856,1919.6,218.57142857142856,148.47767857142856,2030.8,218.57142857142856,148.47767857142856,2134.8,218.57142857142856,148.47767857142856,2240.8,218.57142857142856,148.47767857142856,2342.4,218.57142857142856,148.47767857142856,2450.2,218.57142857142856,148.47767857142856,2554.2,218.57142857142856,148.47767857142856,2660,218.57142857142856,148.47767857142856,2769.2,218.57142857142856,148.47767857142856,2880.1,218.57142857142856,148.47767857142856,2987.5,218.57142857142856,148.47767857142856,3094.3,218.57142857142856,148.47767857142856,3207.4,218.57142857142856,148.47767857142856,3313.1,218.57142857142856,148.47767857142856,3425.1,218.57142857142856,148.47767857142856,3529.2,218.57142857142856,148.47767857142856,3636.2,218.57142857142856,148.47767857142856,3741,218.57142857142856,148.47767857142856,3844.4,218.57142857142856,148.47767857142856,3947.6,218.57142857142856,148.47767857142856,4054,218.57142857142856,148.47767857142856,4156.7,218.57142857142856,148.47767857142856,4263.1,218.57142857142856,148.47767857142856,4370.2,218.57142857142856,148.47767857142856,4471.9,218.57142857142856,148.47767857142856,4575,218.57142857142856,148.47767857142856,4679.1,218.57142857142856,148.47767857142856,4784.1,218.57142857142856,148.47767857142856,4895.5]","[1432.5,1432.6,1000,0,432.6,""oops"",""left"",""left"",""good_move"",3896.1,2463.2,2043.6,1432.9,419.6,""smooth"",""up"",""up"",""good_move"",7147.2,3250.9,2919.4,3896.3,331.5,""smooth"",""left"",""left"",""good_move"",10904.1,3756.6,3259.5,7147.5,497.1,""smooth"",""up"",""up"",""good_move"",13829.7,2925.1,2484.3,10904.6,440.8,""smooth"",""left"",""left"",""good_move"",17114.2,3284.2,2804,13830,480.2,""oops"",""up"",""down"",""bad_move"",19848,2733.3,2350.8,17114.7,382.5,""smooth"",""up"",""up"",""good_move"",23245.9,3397.8,3009.8,19848.2,388,""oops"",""up"",""down"",""bad_move"",25901,2654.8,2231.3,23246.2,423.5,""smooth"",""up"",""up"",""good_move"",28477.3,2576.1,2164.1,25901.3,411.9,""oops"",""up"",""right"",""bad_move"",31414.2,2936.6,2458.7,28477.6,477.9,""smooth"",""up"",""up"",""good_move"",34339.1,2924.7,2586.1,31414.4,338.6,""oops"",""left"",""left"",""good_move""]","",""
"3891","","<div style=""width:500px;"">
  <p>What determined the result of this run?</p>
  </div>","82","html-slider-response","57","1123072","0.0-10.0-1.4","75","1","2025-07-02 10:19:03","80fe4187154257d5fb01684ea91b68b9","173.176.93.90","Mozilla/5.0 (Macintosh; Intel Mac OS X 10_15_7) AppleWebKit/537.36 (KHTML, like Gecko) Chrome/116.0.0.0 Safari/537.36","Macintosh","Chrome","116.0.0.0","OS X","10_15_7","https://app.prolific.com/","en-US,en;q=0.9","5f61151aead6a006ebe2747b","683db6dfa200031b80f2a654","6865078e4a77b243467da48c","5f61151aead6a006ebe2747b","2025-07-02T10:37:48.376Z","","","","","","AttribQ","","","","","","","","","","","","","","","","","","","","","","","","","","","","","","","","","","","","","","50"
"7071","","<div style=""width:500px;"">
  <p>How much control did you have over the ball?</p>
  </div>","57","html-slider-response","58","1130144","0.0-10.0-2.4","75","1","2025-07-02 10:19:03","80fe4187154257d5fb01684ea91b68b9","173.176.93.90","Mozilla/5.0 (Macintosh; Intel Mac OS X 10_15_7) AppleWebKit/537.36 (KHTML, like Gecko) Chrome/116.0.0.0 Safari/537.36","Macintosh","Chrome","116.0.0.0","OS X","10_15_7","https://app.prolific.com/","en-US,en;q=0.9","5f61151aead6a006ebe2747b","683db6dfa200031b80f2a654","6865078e4a77b243467da48c","5f61151aead6a006ebe2747b","2025-07-02T10:37:55.448Z","","","","","","ControlQ","","","","","","","","","","","","","","","","","","","","","","","","","","","","","","","","","","","","","","50"
"3566","","<div style=""width:500px;"">
  <p>How would you describe your current emotional state?</p>
  </div>","34","html-slider-response","59","1133711","0.0-10.0-3.4","75","1","2025-07-02 10:19:03","80fe4187154257d5fb01684ea91b68b9","173.176.93.90","Mozilla/5.0 (Macintosh; Intel Mac OS X 10_15_7) AppleWebKit/537.36 (KHTML, like Gecko) Chrome/116.0.0.0 Safari/537.36","Macintosh","Chrome","116.0.0.0","OS X","10_15_7","https://app.prolific.com/","en-US,en;q=0.9","5f61151aead6a006ebe2747b","683db6dfa200031b80f2a654","6865078e4a77b243467da48c","5f61151aead6a006ebe2747b","2025-07-02T10:37:59.015Z","","","","","","StressQ","","","","","","","","","","","","","","","","","","","","","","","","","","","","","","","","","","","","","","50"
"3063","","<div style=""width:500px;"">
  <p>What best describes how you currently feel?</p>
  </div>","94","html-slider-response","60","1136775","0.0-10.0-4.4","75","1","2025-07-02 10:19:03","80fe4187154257d5fb01684ea91b68b9","173.176.93.90","Mozilla/5.0 (Macintosh; Intel Mac OS X 10_15_7) AppleWebKit/537.36 (KHTML, like Gecko) Chrome/116.0.0.0 Safari/537.36","Macintosh","Chrome","116.0.0.0","OS X","10_15_7","https://app.prolific.com/","en-US,en;q=0.9","5f61151aead6a006ebe2747b","683db6dfa200031b80f2a654","6865078e4a77b243467da48c","5f61151aead6a006ebe2747b","2025-07-02T10:38:02.079Z","","","","","","MotivationQ","","","","","","","","","","","","","","","","","","","","","","","","","","","","","","","","","","","","","","50"
"","","","","ctl-task-cpt","61","1209826","0.0-10.0-0.5","75","1","2025-07-02 10:19:03","80fe4187154257d5fb01684ea91b68b9","173.176.93.90","Mozilla/5.0 (Macintosh; Intel Mac OS X 10_15_7) AppleWebKit/537.36 (KHTML, like Gecko) Chrome/116.0.0.0 Safari/537.36","Macintosh","Chrome","116.0.0.0","OS X","10_15_7","https://app.prolific.com/","en-US,en;q=0.9","5f61151aead6a006ebe2747b","683db6dfa200031b80f2a654","6865078e4a77b243467da48c","5f61151aead6a006ebe2747b","2025-07-02T10:39:15.131Z","","","","","","","","","","","","","","","","win-only","3","g1:SW,g2:NE","0.5","6","0","1139825.1","1734.1","6744.2","70031","1","4","4","6","2","4","4","35","31","0.26515151515151514","1688.1","3000","405","[""up"",""right""]","{""num_key_presses"":20,""num_perfect"":10,""num_errors"":0,""num_randdir"":10,""num_randdir_good_moves"":3,""num_whilered"":0,""num_whileblue"":0,""num_blue"":2,""num_good_moves"":13}","[425.57142857142856,416.47767857142856,0.1,423.57142857142856,416.47767857142856,107.6,304.57142857142856,427.47767857142856,221.1,164.57142857142856,371.47767857142856,325.8,163.57142857142856,365.47767857142856,426.8,180.57142857142856,358.47767857142856,528.4,367.57142857142856,353.47767857142856,634.3,487.57142857142856,353.47767857142856,734.4,475.57142857142856,368.47767857142856,847.7,465.57142857142856,376.47767857142856,957.9,446.57142857142856,381.47767857142856,1069.4,569.5714285714286,136.47767857142856,1171,681.5714285714286,111.47767857142857,1278.6,732.5714285714286,105.47767857142857,1380.7,767.5714285714286,96.47767857142857,1490.5,767.5714285714286,96.47767857142857,1595.1,767.5714285714286,96.47767857142857,1707.5,767.5714285714286,96.47767857142857,1809.7,767.5714285714286,96.47767857142857,1914.3,767.5714285714286,96.47767857142857,2027.4,767.5714285714286,96.47767857142857,2132.7,767.5714285714286,96.47767857142857,2237.7,767.5714285714286,96.47767857142857,2349.2,767.5714285714286,96.47767857142857,2452.4,767.5714285714286,96.47767857142857,2562.6,767.5714285714286,96.47767857142857,2668.8,767.5714285714286,96.47767857142857,2772.7,767.5714285714286,96.47767857142857,2878.7,767.5714285714286,96.47767857142857,2978.7,767.5714285714286,96.47767857142857,3085.2,767.5714285714286,96.47767857142857,3188,767.5714285714286,96.47767857142857,3296.4,767.5714285714286,96.47767857142857,3400,767.5714285714286,96.47767857142857,3513.2,767.5714285714286,96.47767857142857,3620.9,767.5714285714286,96.47767857142857,3734,767.5714285714286,96.47767857142857,3837.6,767.5714285714286,96.47767857142857,3949,767.5714285714286,96.47767857142857,4056.7,767.5714285714286,96.47767857142857,4159.3,767.5714285714286,96.47767857142857,4265.8,767.5714285714286,96.47767857142857,4368.2,767.5714285714286,96.47767857142857,4468.6,767.5714285714286,96.47767857142857,4572.7,767.5714285714286,96.47767857142857,4678.5,767.5714285714286,96.47767857142857,4789,767.5714285714286,96.47767857142857,4895,767.5714285714286,96.47767857142857,4995.7]","[1581.7,1581.7,1000,0,581.7,""smooth"",""right"",""right"",""good_move"",4248,2666.1,2253.9,1581.9,412.2,""oops"",""up"",""right"",""good_move"",6655,2406.7,2054.9,4248.3,351.9,""oops"",""up"",""left"",""bad_move"",9455.5,2800.2,1654.9,6655.3,1145.3,""smooth"",""up"",""up"",""good_move"",12268.5,2812.9,1805.2,9455.6,1007.7,""oops"",""right"",""down"",""bad_move"",14585.1,2316.3,1969.6,12268.9,346.6,""smooth"",""up"",""up"",""good_move"",17308.1,2722.8,2262.3,14585.3,460.5,""smooth"",""right"",""right"",""good_move"",20627.1,3318.6,2976.4,17308.5,342.2,""oops"",""up"",""left"",""bad_move"",23383.2,2755.9,1921.3,20627.3,834.6,""smooth"",""right"",""right"",""good_move"",26252.7,2869.3,2514.9,23383.4,354.4,""oops"",""up"",""left"",""bad_move"",29424.7,3171.7,1994.6,26253,1177.1,""smooth"",""up"",""up"",""good_move"",32495.6,3070.7,2720.3,29424.9,350.4,""smooth"",""right"",""right"",""good_move"",35523.4,3027.6,2677,32495.8,350.6,""oops"",""up"",""down"",""bad_move"",38177.9,2654.3,2336.1,35523.6,318.2,""smooth"",""up"",""up"",""good_move"",40912.8,2734.8,2196.8,38178,538,""oops"",""up"",""up"",""good_move"",43622.7,2709.7,2226.1,40913,483.6,""oops"",""right"",""down"",""bad_move"",47043,3420.1,3111.4,43622.9,308.7,""oops"",""right"",""down"",""bad_move"",50225.7,3182.4,2846,47043.3,336.4,""smooth"",""up"",""up"",""good_move"",56122.6,5896.6,2055.2,53736.4,331,""smooth"",""right"",""right"",""good_move"",63052.8,6929.9,2505.3,60189.1,358.4,""oops"",""up"",""up"",""good_move""]","",""
"2411","","<div style=""width:500px;"">
  <p>What determined the result of this run?</p>
  </div>","100","html-slider-response","62","1212239","0.0-10.0-1.5","75","1","2025-07-02 10:19:03","80fe4187154257d5fb01684ea91b68b9","173.176.93.90","Mozilla/5.0 (Macintosh; Intel Mac OS X 10_15_7) AppleWebKit/537.36 (KHTML, like Gecko) Chrome/116.0.0.0 Safari/537.36","Macintosh","Chrome","116.0.0.0","OS X","10_15_7","https://app.prolific.com/","en-US,en;q=0.9","5f61151aead6a006ebe2747b","683db6dfa200031b80f2a654","6865078e4a77b243467da48c","5f61151aead6a006ebe2747b","2025-07-02T10:39:17.543Z","","","","","","AttribQ","","","","","","","","","","","","","","","","","","","","","","","","","","","","","","","","","","","","","","50"
"2247","","<div style=""width:500px;"">
  <p>How much control did you have over the ball?</p>
  </div>","27","html-slider-response","63","1214487","0.0-10.0-2.5","75","1","2025-07-02 10:19:03","80fe4187154257d5fb01684ea91b68b9","173.176.93.90","Mozilla/5.0 (Macintosh; Intel Mac OS X 10_15_7) AppleWebKit/537.36 (KHTML, like Gecko) Chrome/116.0.0.0 Safari/537.36","Macintosh","Chrome","116.0.0.0","OS X","10_15_7","https://app.prolific.com/","en-US,en;q=0.9","5f61151aead6a006ebe2747b","683db6dfa200031b80f2a654","6865078e4a77b243467da48c","5f61151aead6a006ebe2747b","2025-07-02T10:39:19.791Z","","","","","","ControlQ","","","","","","","","","","","","","","","","","","","","","","","","","","","","","","","","","","","","","","50"
"3423","","<div style=""width:500px;"">
  <p>How would you describe your current emotional state?</p>
  </div>","25","html-slider-response","64","1217911","0.0-10.0-3.5","75","1","2025-07-02 10:19:03","80fe4187154257d5fb01684ea91b68b9","173.176.93.90","Mozilla/5.0 (Macintosh; Intel Mac OS X 10_15_7) AppleWebKit/537.36 (KHTML, like Gecko) Chrome/116.0.0.0 Safari/537.36","Macintosh","Chrome","116.0.0.0","OS X","10_15_7","https://app.prolific.com/","en-US,en;q=0.9","5f61151aead6a006ebe2747b","683db6dfa200031b80f2a654","6865078e4a77b243467da48c","5f61151aead6a006ebe2747b","2025-07-02T10:39:23.215Z","","","","","","StressQ","","","","","","","","","","","","","","","","","","","","","","","","","","","","","","","","","","","","","","50"
"2583","","<div style=""width:500px;"">
  <p>What best describes how you currently feel?</p>
  </div>","94","html-slider-response","65","1220495","0.0-10.0-4.5","75","1","2025-07-02 10:19:03","80fe4187154257d5fb01684ea91b68b9","173.176.93.90","Mozilla/5.0 (Macintosh; Intel Mac OS X 10_15_7) AppleWebKit/537.36 (KHTML, like Gecko) Chrome/116.0.0.0 Safari/537.36","Macintosh","Chrome","116.0.0.0","OS X","10_15_7","https://app.prolific.com/","en-US,en;q=0.9","5f61151aead6a006ebe2747b","683db6dfa200031b80f2a654","6865078e4a77b243467da48c","5f61151aead6a006ebe2747b","2025-07-02T10:39:25.799Z","","","","","","MotivationQ","","","","","","","","","","","","","","","","","","","","","","","","","","","","","","","","","","","","","","50"
"","","","","ctl-task-cpt","66","1253023","0.0-10.0-0.6","75","1","2025-07-02 10:19:03","80fe4187154257d5fb01684ea91b68b9","173.176.93.90","Mozilla/5.0 (Macintosh; Intel Mac OS X 10_15_7) AppleWebKit/537.36 (KHTML, like Gecko) Chrome/116.0.0.0 Safari/537.36","Macintosh","Chrome","116.0.0.0","OS X","10_15_7","https://app.prolific.com/","en-US,en;q=0.9","5f61151aead6a006ebe2747b","683db6dfa200031b80f2a654","6865078e4a77b243467da48c","5f61151aead6a006ebe2747b","2025-07-02T10:39:58.327Z","","","","","","","","","","","","","","","","win-only","0","g1:NW,g2:SE","0.4","7","0","1223545.8","1741.2","6744.5","29509.7","1","4","8","6","2","8","8","43","35","0.32575757575757575","1712.8","3000","2290","[""down"",""right""]","{""num_key_presses"":6,""num_perfect"":3,""num_errors"":0,""num_randdir"":3,""num_randdir_good_moves"":3,""num_whilered"":0,""num_whileblue"":0,""num_blue"":2,""num_good_moves"":6}","[419.57142857142856,414.47767857142856,0.2,419.57142857142856,414.47767857142856,104.5,419.57142857142856,414.47767857142856,213,419.57142857142856,414.47767857142856,314.7,419.57142857142856,414.47767857142856,427.5,419.57142857142856,414.47767857142856,538.4,419.57142857142856,414.47767857142856,646.2,419.57142857142856,414.47767857142856,759.6,419.57142857142856,414.47767857142856,866.9,419.57142857142856,414.47767857142856,967.1,419.57142857142856,414.47767857142856,1079.8,419.57142857142856,414.47767857142856,1190.1,423.57142857142856,423.47767857142856,1295.6,591.5714285714286,631.4776785714286,1410.4,672.5714285714286,699.4776785714286,1514.5,717.5714285714286,739.4776785714286,1625.5,733.5714285714286,748.4776785714286,1729.8,733.5714285714286,748.4776785714286,1841.6,733.5714285714286,748.4776785714286,1955.5,733.5714285714286,748.4776785714286,2070.8,733.5714285714286,748.4776785714286,2180.1,733.5714285714286,748.4776785714286,2291.6,733.5714285714286,748.4776785714286,2393.1,733.5714285714286,748.4776785714286,2498.4,733.5714285714286,748.4776785714286,2613.6,733.5714285714286,748.4776785714286,2729.4,733.5714285714286,748.4776785714286,2833.1,733.5714285714286,748.4776785714286,2933.7,733.5714285714286,748.4776785714286,3048.3,733.5714285714286,748.4776785714286,3157.6,733.5714285714286,748.4776785714286,3259.7,733.5714285714286,748.4776785714286,3371.7,733.5714285714286,748.4776785714286,3477,733.5714285714286,748.4776785714286,3593.9,733.5714285714286,748.4776785714286,3704.2,733.5714285714286,748.4776785714286,3811.3,733.5714285714286,748.4776785714286,3926.1,733.5714285714286,748.4776785714286,4034.1,733.5714285714286,748.4776785714286,4142.5,733.5714285714286,748.4776785714286,4242.7,733.5714285714286,748.4776785714286,4345.2,733.5714285714286,748.4776785714286,4460.2,733.5714285714286,748.4776785714286,4573,733.5714285714286,748.4776785714286,4674.3,733.5714285714286,748.4776785714286,4780.9,733.5714285714286,748.4776785714286,4893.9]","[1427.1,1427.1,1000,0,427.1,""smooth"",""right"",""right"",""good_move"",7377.8,5950.6,3008.4,4036.6,332.8,""oops"",""down"",""right"",""good_move"",10658.4,3280.4,2934.7,7378,345.7,""oops"",""down"",""down"",""good_move"",13723.3,3064.7,2721,10658.7,343.7,""smooth"",""down"",""down"",""good_move"",19673.3,5949.7,2866.2,16442.6,364.5,""oops"",""down"",""down"",""good_move"",22475.4,2801.9,2310.2,19673.5,491.7,""smooth"",""right"",""right"",""good_move""]","",""
"4471","","<div style=""width:500px;"">
  <p>What determined the result of this run?</p>
  </div>","82","html-slider-response","67","1257495","0.0-10.0-1.6","75","1","2025-07-02 10:19:03","80fe4187154257d5fb01684ea91b68b9","173.176.93.90","Mozilla/5.0 (Macintosh; Intel Mac OS X 10_15_7) AppleWebKit/537.36 (KHTML, like Gecko) Chrome/116.0.0.0 Safari/537.36","Macintosh","Chrome","116.0.0.0","OS X","10_15_7","https://app.prolific.com/","en-US,en;q=0.9","5f61151aead6a006ebe2747b","683db6dfa200031b80f2a654","6865078e4a77b243467da48c","5f61151aead6a006ebe2747b","2025-07-02T10:40:02.799Z","","","","","","AttribQ","","","","","","","","","","","","","","","","","","","","","","","","","","","","","","","","","","","","","","50"
"4735","","<div style=""width:500px;"">
  <p>How much control did you have over the ball?</p>
  </div>","88","html-slider-response","68","1262230","0.0-10.0-2.6","75","1","2025-07-02 10:19:03","80fe4187154257d5fb01684ea91b68b9","173.176.93.90","Mozilla/5.0 (Macintosh; Intel Mac OS X 10_15_7) AppleWebKit/537.36 (KHTML, like Gecko) Chrome/116.0.0.0 Safari/537.36","Macintosh","Chrome","116.0.0.0","OS X","10_15_7","https://app.prolific.com/","en-US,en;q=0.9","5f61151aead6a006ebe2747b","683db6dfa200031b80f2a654","6865078e4a77b243467da48c","5f61151aead6a006ebe2747b","2025-07-02T10:40:07.534Z","","","","","","ControlQ","","","","","","","","","","","","","","","","","","","","","","","","","","","","","","","","","","","","","","50"
"3263","","<div style=""width:500px;"">
  <p>How would you describe your current emotional state?</p>
  </div>","16","html-slider-response","69","1265495","0.0-10.0-3.6","75","1","2025-07-02 10:19:03","80fe4187154257d5fb01684ea91b68b9","173.176.93.90","Mozilla/5.0 (Macintosh; Intel Mac OS X 10_15_7) AppleWebKit/537.36 (KHTML, like Gecko) Chrome/116.0.0.0 Safari/537.36","Macintosh","Chrome","116.0.0.0","OS X","10_15_7","https://app.prolific.com/","en-US,en;q=0.9","5f61151aead6a006ebe2747b","683db6dfa200031b80f2a654","6865078e4a77b243467da48c","5f61151aead6a006ebe2747b","2025-07-02T10:40:10.799Z","","","","","","StressQ","","","","","","","","","","","","","","","","","","","","","","","","","","","","","","","","","","","","","","50"
"2615","","<div style=""width:500px;"">
  <p>What best describes how you currently feel?</p>
  </div>","93","html-slider-response","70","1268111","0.0-10.0-4.6","75","1","2025-07-02 10:19:03","80fe4187154257d5fb01684ea91b68b9","173.176.93.90","Mozilla/5.0 (Macintosh; Intel Mac OS X 10_15_7) AppleWebKit/537.36 (KHTML, like Gecko) Chrome/116.0.0.0 Safari/537.36","Macintosh","Chrome","116.0.0.0","OS X","10_15_7","https://app.prolific.com/","en-US,en;q=0.9","5f61151aead6a006ebe2747b","683db6dfa200031b80f2a654","6865078e4a77b243467da48c","5f61151aead6a006ebe2747b","2025-07-02T10:40:13.415Z","","","","","","MotivationQ","","","","","","","","","","","","","","","","","","","","","","","","","","","","","","","","","","","","","","50"
"","","","","ctl-task-cpt","71","1291805","0.0-10.0-0.7","75","1","2025-07-02 10:19:03","80fe4187154257d5fb01684ea91b68b9","173.176.93.90","Mozilla/5.0 (Macintosh; Intel Mac OS X 10_15_7) AppleWebKit/537.36 (KHTML, like Gecko) Chrome/116.0.0.0 Safari/537.36","Macintosh","Chrome","116.0.0.0","OS X","10_15_7","https://app.prolific.com/","en-US,en;q=0.9","5f61151aead6a006ebe2747b","683db6dfa200031b80f2a654","6865078e4a77b243467da48c","5f61151aead6a006ebe2747b","2025-07-02T10:40:37.109Z","","","","","","","","","","","","","","","","win-only","3","g1:SW,g2:NE","0.3","8","0","1271161.2","1333.9","6339.8","20672.9","1","4","4","6","1","1","0","43","43","0.32575757575757575","1479.6","3000","2625","[""down"",""left""]","{""num_key_presses"":4,""num_perfect"":2,""num_errors"":1,""num_randdir"":1,""num_randdir_good_moves"":1,""num_whilered"":0,""num_whileblue"":1,""num_blue"":2,""num_good_moves"":4}","[420.57142857142856,414.47767857142856,0.2,420.57142857142856,414.47767857142856,104.3,416.57142857142856,420.47767857142856,221.3,287.57142857142856,468.47767857142856,329,286.57142857142856,468.47767857142856,437.2,286.57142857142856,468.47767857142856,538.1,272.57142857142856,482.47767857142856,649.2,264.57142857142856,496.47767857142856,755.4,264.57142857142856,496.47767857142856,866.8,264.57142857142856,496.47767857142856,973.8,230.57142857142856,550.4776785714286,1082.8,173.57142857142856,610.4776785714286,1189.3,111.57142857142857,684.4776785714286,1302.2,101.57142857142857,711.4776785714286,1413.8,100.57142857142857,714.4776785714286,1521.3,106.57142857142857,711.4776785714286,1636.4,189.57142857142856,667.4776785714286,1742.5,189.57142857142856,666.4776785714286,1855.3,189.57142857142856,666.4776785714286,1965.9,189.57142857142856,666.4776785714286,2072.3,189.57142857142856,666.4776785714286,2177.2,189.57142857142856,666.4776785714286,2292.8,189.57142857142856,666.4776785714286,2401.4,189.57142857142856,666.4776785714286,2515.3,189.57142857142856,666.4776785714286,2627.1,189.57142857142856,666.4776785714286,2740.1,189.57142857142856,666.4776785714286,2850.3,189.57142857142856,666.4776785714286,2959.3,189.57142857142856,666.4776785714286,3062.8,189.57142857142856,666.4776785714286,3171.6,189.57142857142856,666.4776785714286,3276.8,189.57142857142856,666.4776785714286,3390.8,189.57142857142856,666.4776785714286,3497.5,189.57142857142856,666.4776785714286,3603,189.57142857142856,666.4776785714286,3719.7,189.57142857142856,666.4776785714286,3826.3,189.57142857142856,666.4776785714286,3939.3,189.57142857142856,666.4776785714286,4056.1,189.57142857142856,666.4776785714286,4164.4,189.57142857142856,666.4776785714286,4279.8,189.57142857142856,666.4776785714286,4386.9,189.57142857142856,666.4776785714286,4494.1,189.57142857142856,666.4776785714286,4604.5,189.57142857142856,666.4776785714286,4708.3,189.57142857142856,666.4776785714286,4816.6,189.57142857142856,666.4776785714286,4930.5]","[1444.8,1444.8,1000,0,444.8,""oops"",""down"",""left"",""good_move"",4784,3338.7,2975.8,1445.3,362.9,""while_blue"",""down"",""down"",""good_move"",11467.5,6683.1,3099.5,7889,479,""smooth"",""down"",""down"",""good_move"",14009.7,2541.9,2131.8,11467.8,410.1,""smooth"",""left"",""left"",""good_move""]","",""
"5344","","<div style=""width:500px;"">
  <p>What determined the result of this run?</p>
  </div>","100","html-slider-response","72","1297150","0.0-10.0-1.7","75","1","2025-07-02 10:19:03","80fe4187154257d5fb01684ea91b68b9","173.176.93.90","Mozilla/5.0 (Macintosh; Intel Mac OS X 10_15_7) AppleWebKit/537.36 (KHTML, like Gecko) Chrome/116.0.0.0 Safari/537.36","Macintosh","Chrome","116.0.0.0","OS X","10_15_7","https://app.prolific.com/","en-US,en;q=0.9","5f61151aead6a006ebe2747b","683db6dfa200031b80f2a654","6865078e4a77b243467da48c","5f61151aead6a006ebe2747b","2025-07-02T10:40:42.454Z","","","","","","AttribQ","","","","","","","","","","","","","","","","","","","","","","","","","","","","","","","","","","","","","","50"
"3631","","<div style=""width:500px;"">
  <p>How much control did you have over the ball?</p>
  </div>","93","html-slider-response","73","1300782","0.0-10.0-2.7","75","1","2025-07-02 10:19:03","80fe4187154257d5fb01684ea91b68b9","173.176.93.90","Mozilla/5.0 (Macintosh; Intel Mac OS X 10_15_7) AppleWebKit/537.36 (KHTML, like Gecko) Chrome/116.0.0.0 Safari/537.36","Macintosh","Chrome","116.0.0.0","OS X","10_15_7","https://app.prolific.com/","en-US,en;q=0.9","5f61151aead6a006ebe2747b","683db6dfa200031b80f2a654","6865078e4a77b243467da48c","5f61151aead6a006ebe2747b","2025-07-02T10:40:46.086Z","","","","","","ControlQ","","","","","","","","","","","","","","","","","","","","","","","","","","","","","","","","","","","","","","50"
"3160","","<div style=""width:500px;"">
  <p>How would you describe your current emotional state?</p>
  </div>","39","html-slider-response","74","1303943","0.0-10.0-3.7","75","1","2025-07-02 10:19:03","80fe4187154257d5fb01684ea91b68b9","173.176.93.90","Mozilla/5.0 (Macintosh; Intel Mac OS X 10_15_7) AppleWebKit/537.36 (KHTML, like Gecko) Chrome/116.0.0.0 Safari/537.36","Macintosh","Chrome","116.0.0.0","OS X","10_15_7","https://app.prolific.com/","en-US,en;q=0.9","5f61151aead6a006ebe2747b","683db6dfa200031b80f2a654","6865078e4a77b243467da48c","5f61151aead6a006ebe2747b","2025-07-02T10:40:49.247Z","","","","","","StressQ","","","","","","","","","","","","","","","","","","","","","","","","","","","","","","","","","","","","","","50"
"3998","","<div style=""width:500px;"">
  <p>What best describes how you currently feel?</p>
  </div>","94","html-slider-response","75","1307941","0.0-10.0-4.7","75","1","2025-07-02 10:19:03","80fe4187154257d5fb01684ea91b68b9","173.176.93.90","Mozilla/5.0 (Macintosh; Intel Mac OS X 10_15_7) AppleWebKit/537.36 (KHTML, like Gecko) Chrome/116.0.0.0 Safari/537.36","Macintosh","Chrome","116.0.0.0","OS X","10_15_7","https://app.prolific.com/","en-US,en;q=0.9","5f61151aead6a006ebe2747b","683db6dfa200031b80f2a654","6865078e4a77b243467da48c","5f61151aead6a006ebe2747b","2025-07-02T10:40:53.245Z","","","","","","MotivationQ","","","","","","","","","","","","","","","","","","","","","","","","","","","","","","","","","","","","","","50"
"","","","","ctl-task-cpt","76","1363282","0.0-10.0-0.8","75","1","2025-07-02 10:19:03","80fe4187154257d5fb01684ea91b68b9","173.176.93.90","Mozilla/5.0 (Macintosh; Intel Mac OS X 10_15_7) AppleWebKit/537.36 (KHTML, like Gecko) Chrome/116.0.0.0 Safari/537.36","Macintosh","Chrome","116.0.0.0","OS X","10_15_7","https://app.prolific.com/","en-US,en;q=0.9","5f61151aead6a006ebe2747b","683db6dfa200031b80f2a654","6865078e4a77b243467da48c","5f61151aead6a006ebe2747b","2025-07-02T10:41:48.587Z","","","","","","","","","","","","","","","","win-only","0","g1:NW,g2:SE","0.4","9","0","1310991.9","1136.1","6138.2","52315.9","1","4","8","6","2","8","7","50","43","0.3787878787878788","1244.6","3000","1720","[""down"",""right""]","{""num_key_presses"":14,""num_perfect"":5,""num_errors"":1,""num_randdir"":8,""num_randdir_good_moves"":5,""num_whilered"":0,""num_whileblue"":1,""num_blue"":2,""num_good_moves"":10}","[416.57142857142856,422.47767857142856,0.2,416.57142857142856,422.47767857142856,109.5,413.57142857142856,423.47767857142856,210.3,242.57142857142856,454.47767857142856,329.7,217.57142857142856,448.47767857142856,443,216.57142857142856,449.47767857142856,562.3,228.57142857142856,452.47767857142856,664.6,395.57142857142856,463.47767857142856,769.5,559.5714285714286,612.4776785714286,885.5,698.5714285714286,744.4776785714286,1006.2,726.5714285714286,756.4776785714286,1121.2,746.5714285714286,758.4776785714286,1224.3,746.5714285714286,758.4776785714286,1330.7,624.5714285714286,725.4776785714286,1443.2,620.5714285714286,723.4776785714286,1543.4,620.5714285714286,723.4776785714286,1644.1,620.5714285714286,723.4776785714286,1757.2,620.5714285714286,723.4776785714286,1861.6,620.5714285714286,723.4776785714286,1963.1,620.5714285714286,723.4776785714286,2072,620.5714285714286,723.4776785714286,2172.2,620.5714285714286,723.4776785714286,2272.2,620.5714285714286,723.4776785714286,2385.5,620.5714285714286,723.4776785714286,2487.5,620.5714285714286,723.4776785714286,2603.8,620.5714285714286,723.4776785714286,2714.4,620.5714285714286,723.4776785714286,2833.5,620.5714285714286,723.4776785714286,2948.6,620.5714285714286,723.4776785714286,3065.1,620.5714285714286,723.4776785714286,3184.4,620.5714285714286,723.4776785714286,3292.5,620.5714285714286,723.4776785714286,3407.7,620.5714285714286,723.4776785714286,3524.8,620.5714285714286,723.4776785714286,3633.2,620.5714285714286,723.4776785714286,3749.9,620.5714285714286,723.4776785714286,3866.4,620.5714285714286,723.4776785714286,3968.3,620.5714285714286,723.4776785714286,4083.5,620.5714285714286,723.4776785714286,4184.4,620.5714285714286,723.4776785714286,4288.3,620.5714285714286,723.4776785714286,4389.3,620.5714285714286,723.4776785714286,4502.8,620.5714285714286,723.4776785714286,4608.2,620.5714285714286,723.4776785714286,4724.2,620.5714285714286,723.4776785714286,4834,620.5714285714286,723.4776785714286,4943.6]","[1370.4,1370.4,1000,0,370.4,""smooth"",""down"",""down"",""good_move"",4486.5,3115.9,2735.4,1370.6,380.5,""smooth"",""right"",""right"",""good_move"",7580.7,3093.9,2756.9,4486.8,337,""oops"",""down"",""right"",""good_move"",11439.1,3858.3,3493.7,7580.9,364.5,""oops"",""down"",""down"",""good_move"",14465.4,3026.1,2651.3,11439.3,374.8,""oops"",""right"",""left"",""bad_move"",18076.7,3611.2,2831.8,14465.5,779.4,""smooth"",""right"",""right"",""good_move"",20788.5,2711.3,2329.4,18077.2,381.9,""smooth"",""right"",""right"",""good_move"",26851.9,6063.2,2778.8,23685.1,388,""oops"",""down"",""left"",""bad_move"",30340.2,3487.9,2892.5,26852.3,595.4,""oops"",""right"",""up"",""bad_move"",33827.3,3486.8,3169.3,30340.5,317.5,""while_blue"",""down"",""left"",""bad_move"",37449,3621.4,2704.5,33827.6,916.9,""oops"",""right"",""down"",""good_move"",40554.4,3105.2,2668.3,37449.2,436.9,""oops"",""right"",""down"",""good_move"",43063.8,2509.1,2056.6,40554.7,452.5,""smooth"",""right"",""right"",""good_move"",45819.5,2755.5,2345.9,43064,409.6,""oops"",""right"",""right"",""good_move""]","",""
"2003","","<div style=""width:500px;"">
  <p>What determined the result of this run?</p>
  </div>","84","html-slider-response","77","1365286","0.0-10.0-1.8","75","1","2025-07-02 10:19:03","80fe4187154257d5fb01684ea91b68b9","173.176.93.90","Mozilla/5.0 (Macintosh; Intel Mac OS X 10_15_7) AppleWebKit/537.36 (KHTML, like Gecko) Chrome/116.0.0.0 Safari/537.36","Macintosh","Chrome","116.0.0.0","OS X","10_15_7","https://app.prolific.com/","en-US,en;q=0.9","5f61151aead6a006ebe2747b","683db6dfa200031b80f2a654","6865078e4a77b243467da48c","5f61151aead6a006ebe2747b","2025-07-02T10:41:50.590Z","","","","","","AttribQ","","","","","","","","","","","","","","","","","","","","","","","","","","","","","","","","","","","","","","50"
"3031","","<div style=""width:500px;"">
  <p>How much control did you have over the ball?</p>
  </div>","34","html-slider-response","78","1368318","0.0-10.0-2.8","75","1","2025-07-02 10:19:03","80fe4187154257d5fb01684ea91b68b9","173.176.93.90","Mozilla/5.0 (Macintosh; Intel Mac OS X 10_15_7) AppleWebKit/537.36 (KHTML, like Gecko) Chrome/116.0.0.0 Safari/537.36","Macintosh","Chrome","116.0.0.0","OS X","10_15_7","https://app.prolific.com/","en-US,en;q=0.9","5f61151aead6a006ebe2747b","683db6dfa200031b80f2a654","6865078e4a77b243467da48c","5f61151aead6a006ebe2747b","2025-07-02T10:41:53.622Z","","","","","","ControlQ","","","","","","","","","","","","","","","","","","","","","","","","","","","","","","","","","","","","","","50"
"2382","","<div style=""width:500px;"">
  <p>How would you describe your current emotional state?</p>
  </div>","59","html-slider-response","79","1370701","0.0-10.0-3.8","75","1","2025-07-02 10:19:03","80fe4187154257d5fb01684ea91b68b9","173.176.93.90","Mozilla/5.0 (Macintosh; Intel Mac OS X 10_15_7) AppleWebKit/537.36 (KHTML, like Gecko) Chrome/116.0.0.0 Safari/537.36","Macintosh","Chrome","116.0.0.0","OS X","10_15_7","https://app.prolific.com/","en-US,en;q=0.9","5f61151aead6a006ebe2747b","683db6dfa200031b80f2a654","6865078e4a77b243467da48c","5f61151aead6a006ebe2747b","2025-07-02T10:41:56.005Z","","","","","","StressQ","","","","","","","","","","","","","","","","","","","","","","","","","","","","","","","","","","","","","","50"
"4063","","<div style=""width:500px;"">
  <p>What best describes how you currently feel?</p>
  </div>","94","html-slider-response","80","1374766","0.0-10.0-4.8","75","1","2025-07-02 10:19:03","80fe4187154257d5fb01684ea91b68b9","173.176.93.90","Mozilla/5.0 (Macintosh; Intel Mac OS X 10_15_7) AppleWebKit/537.36 (KHTML, like Gecko) Chrome/116.0.0.0 Safari/537.36","Macintosh","Chrome","116.0.0.0","OS X","10_15_7","https://app.prolific.com/","en-US,en;q=0.9","5f61151aead6a006ebe2747b","683db6dfa200031b80f2a654","6865078e4a77b243467da48c","5f61151aead6a006ebe2747b","2025-07-02T10:42:00.070Z","","","","","","MotivationQ","","","","","","","","","","","","","","","","","","","","","","","","","","","","","","","","","","","","","","50"
"","","","","ctl-task-cpt","81","1416167","0.0-10.0-0.9","75","1","2025-07-02 10:19:03","80fe4187154257d5fb01684ea91b68b9","173.176.93.90","Mozilla/5.0 (Macintosh; Intel Mac OS X 10_15_7) AppleWebKit/537.36 (KHTML, like Gecko) Chrome/116.0.0.0 Safari/537.36","Macintosh","Chrome","116.0.0.0","OS X","10_15_7","https://app.prolific.com/","en-US,en;q=0.9","5f61151aead6a006ebe2747b","683db6dfa200031b80f2a654","6865078e4a77b243467da48c","5f61151aead6a006ebe2747b","2025-07-02T10:42:41.471Z","","","","","","","","","","","","","","","","win-only","2","g1:SE,g2:NW","0.5","10","0","1377816.8","1231.1","6250","38375.2","1","4","4","6","2","4","4","54","50","0.4090909090909091","1199.7","3000","2130","[""left"",""up""]","{""num_key_presses"":8,""num_perfect"":4,""num_errors"":0,""num_randdir"":4,""num_randdir_good_moves"":3,""num_whilered"":0,""num_whileblue"":0,""num_blue"":1,""num_good_moves"":7}","[424.57142857142856,423.47767857142856,0.3,424.57142857142856,423.47767857142856,101.6,424.57142857142856,423.47767857142856,221.6,427.57142857142856,421.47767857142856,330.5,430.57142857142856,430.47767857142856,446.6,463.57142857142856,491.47767857142856,553.1,459.57142857142856,502.47767857142856,660.6,164.57142857142856,261.47767857142856,762.2,112.57142857142857,205.47767857142856,869.8,109.57142857142857,182.47767857142856,976.8,83.57142857142857,119.47767857142857,1095.2,75.57142857142857,91.47767857142857,1205.9,75.57142857142857,91.47767857142857,1317.5,119.57142857142857,112.47767857142857,1420.5,222.57142857142856,164.47767857142856,1532.9,222.57142857142856,164.47767857142856,1640.5,222.57142857142856,164.47767857142856,1741,222.57142857142856,164.47767857142856,1852.5,222.57142857142856,164.47767857142856,1966,222.57142857142856,164.47767857142856,2091.4,222.57142857142856,164.47767857142856,2201,222.57142857142856,164.47767857142856,2309.9,222.57142857142856,164.47767857142856,2431.1,222.57142857142856,164.47767857142856,2543.7,222.57142857142856,164.47767857142856,2644.2,222.57142857142856,164.47767857142856,2755.8,222.57142857142856,164.47767857142856,2866.5,222.57142857142856,164.47767857142856,2967.7,222.57142857142856,164.47767857142856,3078.1,222.57142857142856,164.47767857142856,3184.9,222.57142857142856,164.47767857142856,3304.3,222.57142857142856,164.47767857142856,3412.1,222.57142857142856,164.47767857142856,3516,222.57142857142856,164.47767857142856,3629.8,222.57142857142856,164.47767857142856,3734.9,222.57142857142856,164.47767857142856,3842.2,222.57142857142856,164.47767857142856,3958.6,222.57142857142856,164.47767857142856,4067.4,222.57142857142856,164.47767857142856,4168.6,222.57142857142856,164.47767857142856,4283.9,222.57142857142856,164.47767857142856,4391.3,222.57142857142856,164.47767857142856,4496.1,222.57142857142856,164.47767857142856,4615.5,222.57142857142856,164.47767857142856,4719.9,222.57142857142856,164.47767857142856,4820,222.57142857142856,164.47767857142856,4934.6]","[1337.6,1337.6,1000,0,337.6,""oops"",""left"",""up"",""good_move"",5242.2,3904.2,2520.3,1338,1383.9,""oops"",""left"",""up"",""good_move"",9045.2,3802.8,2756,5242.4,1046.8,""oops"",""left"",""right"",""bad_move"",11959.2,2913.8,2484.9,9045.4,428.9,""oops"",""left"",""left"",""good_move"",16020.2,4060.8,3081.5,11959.4,979.3,""smooth"",""left"",""left"",""good_move"",19924.3,3903.9,3234.1,16020.4,669.8,""smooth"",""left"",""left"",""good_move"",27742.2,7817.7,2722.9,24406.7,612.6,""smooth"",""left"",""left"",""good_move"",31737.1,3994.6,2384.4,27742.6,1610.1,""smooth"",""up"",""up"",""good_move""]","",""
"7141","","<div style=""width:500px;"">
  <p>What determined the result of this run?</p>
