"rt","response_timestamp","stimulus","response","trial_type","trial_index","time_elapsed","internal_node_id","run_id","condition","recorded_at","source_code_version","ip","user_agent","device","browser","browser_version","platform","platform_version","referer","accept_language","PROLIFIC_PID","STUDY_ID","SESSION_ID","prolific_id","realtime","view_history","question_order","consent","success","question_id","eventType","responses","item_order","radio_event_ids","radio_event_times","key_event_times","mouse_event_times","straightlining","zigzagging","honeypot","which_type","canvas_config","goals_layout","control_level","trial_number","tutorial_trial_number","trial_start_time","phase1_start_time","phase2_start_time","phase3_start_time","goal_1_value","goal_1_distance","goal_2_value","goal_2_distance","goal_selected","outcome","outcome_total","participant_final_score","participant_initial_score","participant_final_score_prop","goal_choice_rt","allocated_time","allocated_time_remaining","goal_direction","counts","mouse_movements","key_presses","correct","slider_start"
"155761","1751451692159","<p style='font-size:40px;line-height:1.25'><strong>Welcome to the experiment!</strong></p><p style='font-size:1.1em;line-height:1.25'>Thank you for your interest in our experiment! Before you begin, it is important that we obtain your informed consent to participate in the study.</p><p style='font-size:1.1em;line-height:1.25'>On the next screen will be an <strong>information sheet</strong> for you to read. To participate in the study we need you to read this information sheet and the following consent form carefully. If you agree with all the statements, please click the <strong>I agree</strong> button.</p><p style='font-size:1.1em;line-height:1.25'>Press <strong>Next</strong> to read the information sheet.</p>","0","custom-html-button-response","0","155766","0.0-0.0","56","1","2025-07-02 10:18:53","80fe4187154257d5fb01684ea91b68b9","93.67.197.178","Mozilla/5.0 (Windows NT 10.0; Win64; x64; rv:140.0) Gecko/20100101 Firefox/140.0","","Firefox","140.0","Windows","10.0","https://app.prolific.com/","it-IT,it;q=0.8,en-US;q=0.5,en;q=0.3","5fb7b8880045d6396a86c803","683db6dfa200031b80f2a654","6865078548bb42926fc7a43a","5fb7b8880045d6396a86c803","2025-07-02T10:21:32.159Z","","","","","","","","","","","","","","","","","","","","","","","","","","","","","","","","","","","","","","","","","","","",""
"2314","","","","instructions","1","158081","0.0-1.0","56","1","2025-07-02 10:18:53","80fe4187154257d5fb01684ea91b68b9","93.67.197.178","Mozilla/5.0 (Windows NT 10.0; Win64; x64; rv:140.0) Gecko/20100101 Firefox/140.0","","Firefox","140.0","Windows","10.0","https://app.prolific.com/","it-IT,it;q=0.8,en-US;q=0.5,en;q=0.3","5fb7b8880045d6396a86c803","683db6dfa200031b80f2a654","6865078548bb42926fc7a43a","5fb7b8880045d6396a86c803","","[{""page_index"":0,""viewing_time"":1693},{""page_index"":1,""viewing_time"":621}]","","","","","","","","","","","","","","","","","","","","","","","","","","","","","","","","","","","","","","","","","","",""
"3714","","","{""Q0"":"""",""Q1"":"""",""Q2"":"""",""Q3"":"""",""Q4"":"""",""Q5"":"""",""Q6"":""I agree""}","survey-multi-choice","2","161796","0.0-2.0","56","1","2025-07-02 10:18:53","80fe4187154257d5fb01684ea91b68b9","93.67.197.178","Mozilla/5.0 (Windows NT 10.0; Win64; x64; rv:140.0) Gecko/20100101 Firefox/140.0","","Firefox","140.0","Windows","10.0","https://app.prolific.com/","it-IT,it;q=0.8,en-US;q=0.5,en;q=0.3","5fb7b8880045d6396a86c803","683db6dfa200031b80f2a654","6865078548bb42926fc7a43a","5fb7b8880045d6396a86c803","","","[0,1,2,3,4,5,6]","true","","","","","","","","","","","","","","","","","","","","","","","","","","","","","","","","","","","","","","","","",""
"5195","","","","fullscreen","3","168000","0.0-4.0","56","1","2025-07-02 10:18:53","80fe4187154257d5fb01684ea91b68b9","93.67.197.178","Mozilla/5.0 (Windows NT 10.0; Win64; x64; rv:140.0) Gecko/20100101 Firefox/140.0","","Firefox","140.0","Windows","10.0","https://app.prolific.com/","it-IT,it;q=0.8,en-US;q=0.5,en;q=0.3","5fb7b8880045d6396a86c803","683db6dfa200031b80f2a654","6865078548bb42926fc7a43a","5fb7b8880045d6396a86c803","","","","","true","","","","","","","","","","","","","","","","","","","","","","","","","","","","","","","","","","","","","","","",""
"2178","1751451706570"," <p style='font-size:1.1em;line-height:1.25'>Thank you for completing the consent form and closing all other tabs.</p><p style='font-size:1.1em;line-height:1.25'>We will now invite you to fill in some demographic information and questionnaires, before starting the game.<br>This will take about 5 minutes.<br></p><p style='font-size:1.1em;line-height:1.25'>Press the <strong>Next</strong> button to continue.</p>","0","custom-html-button-response","4","170178","0.0-5.0","56","1","2025-07-02 10:18:53","80fe4187154257d5fb01684ea91b68b9","93.67.197.178","Mozilla/5.0 (Windows NT 10.0; Win64; x64; rv:140.0) Gecko/20100101 Firefox/140.0","","Firefox","140.0","Windows","10.0","https://app.prolific.com/","it-IT,it;q=0.8,en-US;q=0.5,en;q=0.3","5fb7b8880045d6396a86c803","683db6dfa200031b80f2a654","6865078548bb42926fc7a43a","5fb7b8880045d6396a86c803","2025-07-02T10:21:46.571Z","","","","","","","","","","","","","","","","","","","","","","","","","","","","","","","","","","","","","","","","","","","",""
"2029","","","{""age"":""24""}","survey-text","5","172234","0.0-6.0-0.0","56","1","2025-07-02 10:18:53","80fe4187154257d5fb01684ea91b68b9","93.67.197.178","Mozilla/5.0 (Windows NT 10.0; Win64; x64; rv:140.0) Gecko/20100101 Firefox/140.0","","Firefox","140.0","Windows","10.0","https://app.prolific.com/","it-IT,it;q=0.8,en-US;q=0.5,en;q=0.3","5fb7b8880045d6396a86c803","683db6dfa200031b80f2a654","6865078548bb42926fc7a43a","5fb7b8880045d6396a86c803","","","","","","0","demographics","","","","","","","","","","","","","","","","","","","","","","","","","","","","","","","","","","","","","",""
"1829","","","{""gender_identity"":""male/man""}","survey-multi-choice","6","174064","0.0-6.0-1.0","56","1","2025-07-02 10:18:53","80fe4187154257d5fb01684ea91b68b9","93.67.197.178","Mozilla/5.0 (Windows NT 10.0; Win64; x64; rv:140.0) Gecko/20100101 Firefox/140.0","","Firefox","140.0","Windows","10.0","https://app.prolific.com/","it-IT,it;q=0.8,en-US;q=0.5,en;q=0.3","5fb7b8880045d6396a86c803","683db6dfa200031b80f2a654","6865078548bb42926fc7a43a","5fb7b8880045d6396a86c803","","","[0]","","","1","demographics","","","","","","","","","","","","","","","","","","","","","","","","","","","","","","","","","","","","","",""
"2896","","","{""assigned_sex"":""male""}","survey-multi-choice","7","176961","0.0-6.0-2.0","56","1","2025-07-02 10:18:53","80fe4187154257d5fb01684ea91b68b9","93.67.197.178","Mozilla/5.0 (Windows NT 10.0; Win64; x64; rv:140.0) Gecko/20100101 Firefox/140.0","","Firefox","140.0","Windows","10.0","https://app.prolific.com/","it-IT,it;q=0.8,en-US;q=0.5,en;q=0.3","5fb7b8880045d6396a86c803","683db6dfa200031b80f2a654","6865078548bb42926fc7a43a","5fb7b8880045d6396a86c803","","","[0]","","","2","demographics","","","","","","","","","","","","","","","","","","","","","","","","","","","","","","","","","","","","","",""
"2806","","","{""menstrual_cycle"":""No""}","survey-multi-choice","8","179769","0.0-6.0-3.0","56","1","2025-07-02 10:18:53","80fe4187154257d5fb01684ea91b68b9","93.67.197.178","Mozilla/5.0 (Windows NT 10.0; Win64; x64; rv:140.0) Gecko/20100101 Firefox/140.0","","Firefox","140.0","Windows","10.0","https://app.prolific.com/","it-IT,it;q=0.8,en-US;q=0.5,en;q=0.3","5fb7b8880045d6396a86c803","683db6dfa200031b80f2a654","6865078548bb42926fc7a43a","5fb7b8880045d6396a86c803","","","[0]","","","4","demographics","","","","","","","","","","","","","","","","","","","","","","","","","","","","","","","","","","","","","",""
"4000","","","{""education"":""Bachelor's Degree (e.g., BA)""}","survey-multi-choice","9","183770","0.0-6.0-4.0","56","1","2025-07-02 10:18:53","80fe4187154257d5fb01684ea91b68b9","93.67.197.178","Mozilla/5.0 (Windows NT 10.0; Win64; x64; rv:140.0) Gecko/20100101 Firefox/140.0","","Firefox","140.0","Windows","10.0","https://app.prolific.com/","it-IT,it;q=0.8,en-US;q=0.5,en;q=0.3","5fb7b8880045d6396a86c803","683db6dfa200031b80f2a654","6865078548bb42926fc7a43a","5fb7b8880045d6396a86c803","","","[0]","","","5","demographics","","","","","","","","","","","","","","","","","","","","","","","","","","","","","","","","","","","","","",""
"3776","","","{""education"":""Higher National Diploma""}","survey-multi-choice","10","187547","0.0-6.0-5.0","56","1","2025-07-02 10:18:53","80fe4187154257d5fb01684ea91b68b9","93.67.197.178","Mozilla/5.0 (Windows NT 10.0; Win64; x64; rv:140.0) Gecko/20100101 Firefox/140.0","","Firefox","140.0","Windows","10.0","https://app.prolific.com/","it-IT,it;q=0.8,en-US;q=0.5,en;q=0.3","5fb7b8880045d6396a86c803","683db6dfa200031b80f2a654","6865078548bb42926fc7a43a","5fb7b8880045d6396a86c803","2025-07-02T10:22:03.940Z","","[0]","","","6","demographics","","","","","","","","","","","","","","","","","","","","","","","","","","","","","","","","","","","","","",""
"5569","","","{""mental_health_condition"":""no"",""mental_health_treatment"":""no"",""psychiatric_medication"":""no""}","survey-text","11","193124","0.0-7.0-0.0","56","1","2025-07-02 10:18:53","80fe4187154257d5fb01684ea91b68b9","93.67.197.178","Mozilla/5.0 (Windows NT 10.0; Win64; x64; rv:140.0) Gecko/20100101 Firefox/140.0","","Firefox","140.0","Windows","10.0","https://app.prolific.com/","it-IT,it;q=0.8,en-US;q=0.5,en;q=0.3","5fb7b8880045d6396a86c803","683db6dfa200031b80f2a654","6865078548bb42926fc7a43a","5fb7b8880045d6396a86c803","2025-07-02T10:22:09.517Z","","","","","1","mental_health","","","","","","","","","","","","","","","","","","","","","","","","","","","","","","","","","","","","","",""
"4973","","","{""depression_history"":[""No""]}","survey-multi-select","12","198099","0.0-7.0-1.0","56","1","2025-07-02 10:18:53","80fe4187154257d5fb01684ea91b68b9","93.67.197.178","Mozilla/5.0 (Windows NT 10.0; Win64; x64; rv:140.0) Gecko/20100101 Firefox/140.0","","Firefox","140.0","Windows","10.0","https://app.prolific.com/","it-IT,it;q=0.8,en-US;q=0.5,en;q=0.3","5fb7b8880045d6396a86c803","683db6dfa200031b80f2a654","6865078548bb42926fc7a43a","5fb7b8880045d6396a86c803","","","[0]","","","","mental_health","","","","","","","","","","","","","","","","","","","","","","","","","","","","","","","","","","","","","",""
"26739","","","","survey-template","13","224839","0.0-7.0-3.0","56","1","2025-07-02 10:18:53","80fe4187154257d5fb01684ea91b68b9","93.67.197.178","Mozilla/5.0 (Windows NT 10.0; Win64; x64; rv:140.0) Gecko/20100101 Firefox/140.0","","Firefox","140.0","Windows","10.0","https://app.prolific.com/","it-IT,it;q=0.8,en-US;q=0.5,en;q=0.3","5fb7b8880045d6396a86c803","683db6dfa200031b80f2a654","6865078548bb42926fc7a43a","5fb7b8880045d6396a86c803","2025-07-02T10:22:41.232Z","","","","","","ius","{""Q01"":""2"",""Q02"":""3"",""Q03"":""3"",""Q04"":""2"",""Q05"":""3"",""Q06"":""3"",""Q07"":""2"",""Q08"":""0"",""Q09"":""2"",""Q10"":""1"",""Q11"":""2"",""Q12"":""3"",""Q13"":""2""}","[0,1,2,3,4,5,6,7,8,9,10,11,12]","[""Q01"",""Q02"",""Q03"",""Q03"",""Q04"",""Q05"",""Q06"",""Q07"",""Q08"",""Q09"",""Q10"",""Q11"",""Q12"",""Q13""]","[3643,5237,6612,10164,10656,11635,13272,14589,16413,19747,21025,23159,25414,26345]","[]","[3261,3643,5237,6227,6612,7420,9329,10164,10656,11635,13272,14194,14589,16413,18494,18778,19747,20329,21025,23159,24880,25414,25981,26345,26739]","0.46153846153846156","0.6666666666666666","0","","","","","","","","","","","","","","","","","","","","","","","","","","","","",""
"1341","1751451762575","<p style='font-size:1.1em;line-height:1.25'>In the following, we will ask you a few questions relating to your experiences over the past month.<br></p><p style='font-size:1.1em;line-height:1.25'>Press the <strong>Next</strong> button to continue.</p>","0","custom-html-button-response","14","226182","0.0-7.0-4.0","56","1","2025-07-02 10:18:53","80fe4187154257d5fb01684ea91b68b9","93.67.197.178","Mozilla/5.0 (Windows NT 10.0; Win64; x64; rv:140.0) Gecko/20100101 Firefox/140.0","","Firefox","140.0","Windows","10.0","https://app.prolific.com/","it-IT,it;q=0.8,en-US;q=0.5,en;q=0.3","5fb7b8880045d6396a86c803","683db6dfa200031b80f2a654","6865078548bb42926fc7a43a","5fb7b8880045d6396a86c803","2025-07-02T10:22:42.575Z","","","","","","","","","","","","","","","","","","","","","","","","","","","","","","","","","","","","","","","","","","","",""
"307876","","","","survey-template","15","534058","0.0-7.0-5.0","56","1","2025-07-02 10:18:53","80fe4187154257d5fb01684ea91b68b9","93.67.197.178","Mozilla/5.0 (Windows NT 10.0; Win64; x64; rv:140.0) Gecko/20100101 Firefox/140.0","","Firefox","140.0","Windows","10.0","https://app.prolific.com/","it-IT,it;q=0.8,en-US;q=0.5,en;q=0.3","5fb7b8880045d6396a86c803","683db6dfa200031b80f2a654","6865078548bb42926fc7a43a","5fb7b8880045d6396a86c803","2025-07-02T10:27:50.451Z","","","","","","pss","{""Q01"":""1"",""Q02"":""2"",""Q03"":""3"",""Q04"":""2"",""Q05"":""2"",""Q06"":""3"",""Q07"":""2"",""Q08"":""2"",""Q09"":""3"",""Q10"":""2""}","[0,1,2,3,4,5,6,7,8,9]","[""Q01"",""Q02"",""Q03"",""Q04"",""Q05"",""Q06"",""Q07"",""Q08"",""Q09"",""Q10""]","[268236,270036,271482,272614,300695,301407,303979,305148,305967,306461]","[]","[0,268236,269472,270036,271257,271482,272614,300695,301407,303979,304839,305148,305677,305967,306461,307876]","0.6","0.7777777777777778","0","","","","","","","","","","","","","","","","","","","","","","","","","","","","",""
"1290","1751452071742","<p style='font-size:1.1em;line-height:1.25'>Thank you for your answers! Now we will ask you a few more questions relating to your feelings in the last 24 hours.<br></p><p style='font-size:1.1em;line-height:1.25'>Press the <strong>Next</strong> button to continue.</p>","0","custom-html-button-response","16","535349","0.0-7.0-6.0","56","1","2025-07-02 10:18:53","80fe4187154257d5fb01684ea91b68b9","93.67.197.178","Mozilla/5.0 (Windows NT 10.0; Win64; x64; rv:140.0) Gecko/20100101 Firefox/140.0","","Firefox","140.0","Windows","10.0","https://app.prolific.com/","it-IT,it;q=0.8,en-US;q=0.5,en;q=0.3","5fb7b8880045d6396a86c803","683db6dfa200031b80f2a654","6865078548bb42926fc7a43a","5fb7b8880045d6396a86c803","2025-07-02T10:27:51.742Z","","","","","","","","","","","","","","","","","","","","","","","","","","","","","","","","","","","","","","","","","","","",""
"34194","","","","survey-template","17","569545","0.0-7.0-7.0","56","1","2025-07-02 10:18:53","80fe4187154257d5fb01684ea91b68b9","93.67.197.178","Mozilla/5.0 (Windows NT 10.0; Win64; x64; rv:140.0) Gecko/20100101 Firefox/140.0","","Firefox","140.0","Windows","10.0","https://app.prolific.com/","it-IT,it;q=0.8,en-US;q=0.5,en;q=0.3","5fb7b8880045d6396a86c803","683db6dfa200031b80f2a654","6865078548bb42926fc7a43a","5fb7b8880045d6396a86c803","2025-07-02T10:28:25.938Z","","","","","","drsp","{""Q01"":""1"",""Q02"":""1"",""Q03"":""0"",""Q04"":""2"",""Q05"":""1"",""Q06"":""2"",""Q07"":""1"",""Q08"":""0"",""Q09"":""3"",""Q10"":""4"",""Q11"":""0"",""Q12"":""1"",""Q13"":""0"",""Q14"":""0"",""Q15"":""1"",""Q16"":""0"",""Q17"":""1"",""Q18"":""0"",""Q19"":""1"",""Q20"":""0"",""Q21"":""0""}","[0,1,2,3,4,5,6,7,8,9,10,11,12,13,14,15,16,17,18,19,20]","[""Q01"",""Q02"",""Q03"",""Q04"",""Q05"",""Q06"",""Q07"",""Q08"",""Q09"",""Q09"",""Q10"",""Q11"",""Q12"",""Q13"",""Q15"",""Q14"",""Q16"",""Q17"",""Q18"",""Q19"",""Q20"",""Q21""]","[2974,4201,5513,6231,7275,8311,9351,10629,12009,13159,13952,14976,17332,22167,23696,24399,26145,26665,28298,30809,32353,33540]","[]","[0,2974,4201,5128,5513,6231,7275,8311,8878,9351,10629,12009,12915,13159,13682,13952,14976,16878,17332,21699,22167,22675,23363,23696,24174,24399,25211,25876,26145,26665,27736,28079,28298,30425,30809,32353,33076,33540,34194]","0.42857142857142855","0.7","0","","","","","","","","","","","","","","","","","","","","","","","","","","","","",""
"17805","","","","survey-template","18","587351","0.0-7.0-8.0","56","1","2025-07-02 10:18:53","80fe4187154257d5fb01684ea91b68b9","93.67.197.178","Mozilla/5.0 (Windows NT 10.0; Win64; x64; rv:140.0) Gecko/20100101 Firefox/140.0","","Firefox","140.0","Windows","10.0","https://app.prolific.com/","it-IT,it;q=0.8,en-US;q=0.5,en;q=0.3","5fb7b8880045d6396a86c803","683db6dfa200031b80f2a654","6865078548bb42926fc7a43a","5fb7b8880045d6396a86c803","2025-07-02T10:28:43.744Z","","","","","","stress","{""Q01"":""2"",""Q02"":""2"",""Q03"":""2""}","[0,1,2]","[""Q01"",""Q02"",""Q03""]","[12634,13864,14868]","[]","[12634,13864,14868,15686,17805]","0.6666666666666666","1","0","","","","","","","","","","","","","","","","","","","","","","","","","","","","",""
"42289","","","","instructions","19","629641","0.0-8.0-0.0","56","1","2025-07-02 10:18:53","80fe4187154257d5fb01684ea91b68b9","93.67.197.178","Mozilla/5.0 (Windows NT 10.0; Win64; x64; rv:140.0) Gecko/20100101 Firefox/140.0","","Firefox","140.0","Windows","10.0","https://app.prolific.com/","it-IT,it;q=0.8,en-US;q=0.5,en;q=0.3","5fb7b8880045d6396a86c803","683db6dfa200031b80f2a654","6865078548bb42926fc7a43a","5fb7b8880045d6396a86c803","","[{""page_index"":0,""viewing_time"":10595},{""page_index"":1,""viewing_time"":11577},{""page_index"":2,""viewing_time"":3023},{""page_index"":3,""viewing_time"":17094}]","","","","","","","","","","","","","","","","","","","","","","","","","","","","","","","","","","","","","","","","","","",""
"","","","","ctl-task-cpt","20","657311","0.0-8.0-1.0","56","1","2025-07-02 10:18:53","80fe4187154257d5fb01684ea91b68b9","93.67.197.178","Mozilla/5.0 (Windows NT 10.0; Win64; x64; rv:140.0) Gecko/20100101 Firefox/140.0","","Firefox","140.0","Windows","10.0","https://app.prolific.com/","it-IT,it;q=0.8,en-US;q=0.5,en;q=0.3","5fb7b8880045d6396a86c803","683db6dfa200031b80f2a654","6865078548bb42926fc7a43a","5fb7b8880045d6396a86c803","","","","","","","","","","","","","","","","","win-only","1","g1:NE,g2:SW","1","0","1","630782","2698","6706","24662","2","4","4","6","2","4","3","3","0","0.022727272727272728","4008","4000","3305","[""down"",""left""]","{""num_key_presses"":8,""num_perfect"":6,""num_errors"":1,""num_randdir"":0,""num_randdir_good_moves"":0,""num_whilered"":1,""num_whileblue"":0,""num_blue"":0,""num_good_moves"":6}","[549.4285714285714,552.1285683768136,0,549.4285714285714,552.1285683768136,100,549.4285714285714,552.1285683768136,207,549.4285714285714,552.1285683768136,316,549.4285714285714,552.1285683768136,425,549.4285714285714,552.1285683768136,535,549.4285714285714,552.1285683768136,644,620.4285714285714,502.12856837681363,752,634.4285714285714,488.12856837681363,860,634.4285714285714,488.12856837681363,967,645.4285714285714,480.12856837681363,1076,645.4285714285714,480.12856837681363,1184,645.4285714285714,480.12856837681363,1292,645.4285714285714,480.12856837681363,1399,645.4285714285714,480.12856837681363,1507,656.4285714285714,474.12856837681363,1617,656.4285714285714,474.12856837681363,1725,656.4285714285714,474.12856837681363,1835,657.4285714285714,477.12856837681363,1941,667.4285714285714,486.12856837681363,2049,670.4285714285714,487.12856837681363,2157,670.4285714285714,487.12856837681363,2263,670.4285714285714,486.12856837681363,2372,665.4285714285714,474.12856837681363,2480,663.4285714285714,472.12856837681363,2590,662.4285714285714,472.12856837681363,2700,659.4285714285714,470.12856837681363,2807,656.4285714285714,466.12856837681363,2918,656.4285714285714,464.12856837681363,3026,656.4285714285714,464.12856837681363,3135,659.4285714285714,468.12856837681363,3243,660.4285714285714,469.12856837681363,3352,660.4285714285714,469.12856837681363,3461,660.4285714285714,469.12856837681363,3571,660.4285714285714,469.12856837681363,3681,660.4285714285714,468.12856837681363,3789,658.4285714285714,463.12856837681363,3899]","[1736,1736,1000,0,736,""smooth"",""down"",""down"",""good_move"",1975,239,1950.5,1736,-1711.5,""error"",""-"",""-"",""no_move"",2420,445,1950.5,1736,-1266.5,""while_red"",""-"",""-"",""no_move"",6114,4139,2851.1,2986,276.9,""smooth"",""left"",""left"",""good_move"",9295,3181,2920.8,6114,260.2,""smooth"",""down"",""down"",""good_move"",11679,2384,2113.8,9295,270.2,""smooth"",""left"",""left"",""good_move"",14703,3024,2120.8,11679,903.2,""smooth"",""left"",""left"",""good_move"",17672,2969,1986.7,14703,982.3,""smooth"",""down"",""down"",""good_move""]","",""
"13024","","","","instructions","21","670336","0.0-8.0-2.0","56","1","2025-07-02 10:18:53","80fe4187154257d5fb01684ea91b68b9","93.67.197.178","Mozilla/5.0 (Windows NT 10.0; Win64; x64; rv:140.0) Gecko/20100101 Firefox/140.0","","Firefox","140.0","Windows","10.0","https://app.prolific.com/","it-IT,it;q=0.8,en-US;q=0.5,en;q=0.3","5fb7b8880045d6396a86c803","683db6dfa200031b80f2a654","6865078548bb42926fc7a43a","5fb7b8880045d6396a86c803","","[{""page_index"":0,""viewing_time"":13024}]","","","","","","","","","","","","","","","","","","","","","","","","","","","","","","","","","","","","","","","","","","",""
"","","","","ctl-task-cpt","22","679200","0.0-8.0-3.0","56","1","2025-07-02 10:18:53","80fe4187154257d5fb01684ea91b68b9","93.67.197.178","Mozilla/5.0 (Windows NT 10.0; Win64; x64; rv:140.0) Gecko/20100101 Firefox/140.0","","Firefox","140.0","Windows","10.0","https://app.prolific.com/","it-IT,it;q=0.8,en-US;q=0.5,en;q=0.3","5fb7b8880045d6396a86c803","683db6dfa200031b80f2a654","6865078548bb42926fc7a43a","5fb7b8880045d6396a86c803","","","","","","","","","","","","","","","","","win-only","1","g1:NE,g2:SW","0.35","0","3","671476","1833","-9999","5850","2","4","8","6","-9999","-4","-4","0","0","0","-9999","4000","4000","[]","{""num_key_presses"":0,""num_perfect"":0,""num_errors"":0,""num_randdir"":0,""num_randdir_good_moves"":0,""num_whilered"":0,""num_whileblue"":0,""num_blue"":0,""num_good_moves"":0}","[552.4285714285714,553.1285683768136,0,552.4285714285714,553.1285683768136,103,581.4285714285714,549.1285683768136,212,1277.4285714285713,533.1285683768136,321,1575.4285714285713,568.1285683768136,426,1579.4285714285713,573.1285683768136,535,1570.4285714285713,640.1285683768136,644,1568.4285714285713,660.1285683768136,751,1568.4285714285713,660.1285683768136,859,1568.4285714285713,660.1285683768136,967,1568.4285714285713,660.1285683768136,1075,1568.4285714285713,660.1285683768136,1183,1568.4285714285713,660.1285683768136,1290,1568.4285714285713,660.1285683768136,1399,1568.4285714285713,660.1285683768136,1506,1568.4285714285713,660.1285683768136,1615,1568.4285714285713,660.1285683768136,1724,1568.4285714285713,660.1285683768136,1835,1568.4285714285713,660.1285683768136,1946,1568.4285714285713,660.1285683768136,2054,1568.4285714285713,660.1285683768136,2163,1568.4285714285713,660.1285683768136,2271,1568.4285714285713,660.1285683768136,2381,1568.4285714285713,660.1285683768136,2488,1568.4285714285713,660.1285683768136,2596,1568.4285714285713,660.1285683768136,2706,1568.4285714285713,660.1285683768136,2815,1568.4285714285713,660.1285683768136,2924,1568.4285714285713,660.1285683768136,3033,1568.4285714285713,660.1285683768136,3143,1568.4285714285713,660.1285683768136,3252,1568.4285714285713,660.1285683768136,3361,1568.4285714285713,660.1285683768136,3469,1568.4285714285713,660.1285683768136,3578,1568.4285714285713,660.1285683768136,3687,1568.4285714285713,660.1285683768136,3797,1568.4285714285713,660.1285683768136,3907]","[]","",""
"19088","","","","instructions","23","698289","0.0-8.0-4.0","56","1","2025-07-02 10:18:53","80fe4187154257d5fb01684ea91b68b9","93.67.197.178","Mozilla/5.0 (Windows NT 10.0; Win64; x64; rv:140.0) Gecko/20100101 Firefox/140.0","","Firefox","140.0","Windows","10.0","https://app.prolific.com/","it-IT,it;q=0.8,en-US;q=0.5,en;q=0.3","5fb7b8880045d6396a86c803","683db6dfa200031b80f2a654","6865078548bb42926fc7a43a","5fb7b8880045d6396a86c803","","[{""page_index"":0,""viewing_time"":4628},{""page_index"":1,""viewing_time"":14460}]","","","","","","","","","","","","","","","","","","","","","","","","","","","","","","","","","","","","","","","","","","",""
"8943","","","{""green_ball"":[""Ball always moves in the direction I press""]}","survey-multi-select","24","707232","0.0-8.0-5.0-0.0","56","1","2025-07-02 10:18:53","80fe4187154257d5fb01684ea91b68b9","93.67.197.178","Mozilla/5.0 (Windows NT 10.0; Win64; x64; rv:140.0) Gecko/20100101 Firefox/140.0","","Firefox","140.0","Windows","10.0","https://app.prolific.com/","it-IT,it;q=0.8,en-US;q=0.5,en;q=0.3","5fb7b8880045d6396a86c803","683db6dfa200031b80f2a654","6865078548bb42926fc7a43a","5fb7b8880045d6396a86c803","","","[0]","","","","quiz","","","","","","","","","","","","","","","","","","","","","","","","","","","","","","","","","","","","","false",""
"1911","","<p align='center'><b>INCORRECT.</b> Usually the green ball moves in the indicated direction, but sometimes it shakes and moves randomly. </p>","0","html-button-response","25","709144","0.0-8.0-5.0-1.0","56","1","2025-07-02 10:18:53","80fe4187154257d5fb01684ea91b68b9","93.67.197.178","Mozilla/5.0 (Windows NT 10.0; Win64; x64; rv:140.0) Gecko/20100101 Firefox/140.0","","Firefox","140.0","Windows","10.0","https://app.prolific.com/","it-IT,it;q=0.8,en-US;q=0.5,en;q=0.3","5fb7b8880045d6396a86c803","683db6dfa200031b80f2a654","6865078548bb42926fc7a43a","5fb7b8880045d6396a86c803","","","","","","","","","","","","","","","","","","","","","","","","","","","","","","","","","","","","","","","","","","","","",""
"8963","","","{""green_ball"":[""Ball sometimes shakes and moves in a random direction""]}","survey-multi-select","26","718109","0.0-8.0-5.1-0.1","56","1","2025-07-02 10:18:53","80fe4187154257d5fb01684ea91b68b9","93.67.197.178","Mozilla/5.0 (Windows NT 10.0; Win64; x64; rv:140.0) Gecko/20100101 Firefox/140.0","","Firefox","140.0","Windows","10.0","https://app.prolific.com/","it-IT,it;q=0.8,en-US;q=0.5,en;q=0.3","5fb7b8880045d6396a86c803","683db6dfa200031b80f2a654","6865078548bb42926fc7a43a","5fb7b8880045d6396a86c803","","","[0]","","","","quiz","","","","","","","","","","","","","","","","","","","","","","","","","","","","","","","","","","","","","true",""
"1261","","<p align='center'><b>CORRECT!</b> Indeed, the green ball may sometimes shake and move in a random direction.</p>","0","html-button-response","27","719369","0.0-8.0-5.1-1.1","56","1","2025-07-02 10:18:53","80fe4187154257d5fb01684ea91b68b9","93.67.197.178","Mozilla/5.0 (Windows NT 10.0; Win64; x64; rv:140.0) Gecko/20100101 Firefox/140.0","","Firefox","140.0","Windows","10.0","https://app.prolific.com/","it-IT,it;q=0.8,en-US;q=0.5,en;q=0.3","5fb7b8880045d6396a86c803","683db6dfa200031b80f2a654","6865078548bb42926fc7a43a","5fb7b8880045d6396a86c803","","","","","","","","","","","","","","","","","","","","","","","","","","","","","","","","","","","","","","","","","","","","",""
"4644","","","{""yellow_ball"":[""Ball doesn‘t move and I get -1 penalty point""]}","survey-multi-select","28","724014","0.0-8.0-6.0-0.0","56","1","2025-07-02 10:18:53","80fe4187154257d5fb01684ea91b68b9","93.67.197.178","Mozilla/5.0 (Windows NT 10.0; Win64; x64; rv:140.0) Gecko/20100101 Firefox/140.0","","Firefox","140.0","Windows","10.0","https://app.prolific.com/","it-IT,it;q=0.8,en-US;q=0.5,en;q=0.3","5fb7b8880045d6396a86c803","683db6dfa200031b80f2a654","6865078548bb42926fc7a43a","5fb7b8880045d6396a86c803","","","[0]","","","","quiz","","","","","","","","","","","","","","","","","","","","","","","","","","","","","","","","","","","","","true",""
"721","","<p align='center'><b>CORRECT!</b> Indeed, the yellow ball never moves and you receive a penalty.</p>","0","html-button-response","29","724735","0.0-8.0-6.0-1.0","56","1","2025-07-02 10:18:53","80fe4187154257d5fb01684ea91b68b9","93.67.197.178","Mozilla/5.0 (Windows NT 10.0; Win64; x64; rv:140.0) Gecko/20100101 Firefox/140.0","","Firefox","140.0","Windows","10.0","https://app.prolific.com/","it-IT,it;q=0.8,en-US;q=0.5,en;q=0.3","5fb7b8880045d6396a86c803","683db6dfa200031b80f2a654","6865078548bb42926fc7a43a","5fb7b8880045d6396a86c803","","","","","","","","","","","","","","","","","","","","","","","","","","","","","","","","","","","","","","","","","","","","",""
"4588","","","{""blue_ball"":[""Ball doesn‘t move and I get -1 penalty point""]}","survey-multi-select","30","729324","0.0-8.0-7.0-0.0","56","1","2025-07-02 10:18:53","80fe4187154257d5fb01684ea91b68b9","93.67.197.178","Mozilla/5.0 (Windows NT 10.0; Win64; x64; rv:140.0) Gecko/20100101 Firefox/140.0","","Firefox","140.0","Windows","10.0","https://app.prolific.com/","it-IT,it;q=0.8,en-US;q=0.5,en;q=0.3","5fb7b8880045d6396a86c803","683db6dfa200031b80f2a654","6865078548bb42926fc7a43a","5fb7b8880045d6396a86c803","","","[0]","","","","quiz","","","","","","","","","","","","","","","","","","","","","","","","","","","","","","","","","","","","","false",""
"2915","","<p align='center'><b>INCORRECT.</b> The blue ball always shakes and moves randomly.</p>","0","html-button-response","31","732239","0.0-8.0-7.0-1.0","56","1","2025-07-02 10:18:53","80fe4187154257d5fb01684ea91b68b9","93.67.197.178","Mozilla/5.0 (Windows NT 10.0; Win64; x64; rv:140.0) Gecko/20100101 Firefox/140.0","","Firefox","140.0","Windows","10.0","https://app.prolific.com/","it-IT,it;q=0.8,en-US;q=0.5,en;q=0.3","5fb7b8880045d6396a86c803","683db6dfa200031b80f2a654","6865078548bb42926fc7a43a","5fb7b8880045d6396a86c803","","","","","","","","","","","","","","","","","","","","","","","","","","","","","","","","","","","","","","","","","","","","",""
"3902","","","{""blue_ball"":[""Ball always shakes and moves in a random direction""]}","survey-multi-select","32","736142","0.0-8.0-7.1-0.1","56","1","2025-07-02 10:18:53","80fe4187154257d5fb01684ea91b68b9","93.67.197.178","Mozilla/5.0 (Windows NT 10.0; Win64; x64; rv:140.0) Gecko/20100101 Firefox/140.0","","Firefox","140.0","Windows","10.0","https://app.prolific.com/","it-IT,it;q=0.8,en-US;q=0.5,en;q=0.3","5fb7b8880045d6396a86c803","683db6dfa200031b80f2a654","6865078548bb42926fc7a43a","5fb7b8880045d6396a86c803","","","[0]","","","","quiz","","","","","","","","","","","","","","","","","","","","","","","","","","","","","","","","","","","","","true",""
"1692","","<p align='center'><b>CORRECT!</b> Indeed, the blue ball always shakes and moves in a random direction. Also there is a penalty of -1 point.</p>","0","html-button-response","33","737835","0.0-8.0-7.1-1.1","56","1","2025-07-02 10:18:53","80fe4187154257d5fb01684ea91b68b9","93.67.197.178","Mozilla/5.0 (Windows NT 10.0; Win64; x64; rv:140.0) Gecko/20100101 Firefox/140.0","","Firefox","140.0","Windows","10.0","https://app.prolific.com/","it-IT,it;q=0.8,en-US;q=0.5,en;q=0.3","5fb7b8880045d6396a86c803","683db6dfa200031b80f2a654","6865078548bb42926fc7a43a","5fb7b8880045d6396a86c803","","","","","","","","","","","","","","","","","","","","","","","","","","","","","","","","","","","","","","","","","","","","",""
"7093","","","{""bonus"":[""When I reach 80% of points""]}","survey-multi-select","34","744930","0.0-8.0-8.0-0.0","56","1","2025-07-02 10:18:53","80fe4187154257d5fb01684ea91b68b9","93.67.197.178","Mozilla/5.0 (Windows NT 10.0; Win64; x64; rv:140.0) Gecko/20100101 Firefox/140.0","","Firefox","140.0","Windows","10.0","https://app.prolific.com/","it-IT,it;q=0.8,en-US;q=0.5,en;q=0.3","5fb7b8880045d6396a86c803","683db6dfa200031b80f2a654","6865078548bb42926fc7a43a","5fb7b8880045d6396a86c803","","","[0]","","","","quiz","","","","","","","","","","","","","","","","","","","","","","","","","","","","","","","","","","","","","false",""
"978","","<p align='center'><b>INCORRECT.</b> You receive 2 pounds extra when you reach 50% of points </p>","0","html-button-response","35","745908","0.0-8.0-8.0-1.0","56","1","2025-07-02 10:18:53","80fe4187154257d5fb01684ea91b68b9","93.67.197.178","Mozilla/5.0 (Windows NT 10.0; Win64; x64; rv:140.0) Gecko/20100101 Firefox/140.0","","Firefox","140.0","Windows","10.0","https://app.prolific.com/","it-IT,it;q=0.8,en-US;q=0.5,en;q=0.3","5fb7b8880045d6396a86c803","683db6dfa200031b80f2a654","6865078548bb42926fc7a43a","5fb7b8880045d6396a86c803","","","","","","","","","","","","","","","","","","","","","","","","","","","","","","","","","","","","","","","","","","","","",""
"872","","","{""bonus"":[""When I reach 50% of points""]}","survey-multi-select","36","746781","0.0-8.0-8.1-0.1","56","1","2025-07-02 10:18:53","80fe4187154257d5fb01684ea91b68b9","93.67.197.178","Mozilla/5.0 (Windows NT 10.0; Win64; x64; rv:140.0) Gecko/20100101 Firefox/140.0","","Firefox","140.0","Windows","10.0","https://app.prolific.com/","it-IT,it;q=0.8,en-US;q=0.5,en;q=0.3","5fb7b8880045d6396a86c803","683db6dfa200031b80f2a654","6865078548bb42926fc7a43a","5fb7b8880045d6396a86c803","","","[0]","","","","quiz","","","","","","","","","","","","","","","","","","","","","","","","","","","","","","","","","","","","","true",""
"1235","","<p align='center'><b>CORRECT!</b> Indeed, you receive 2 pounds extra when you reach 50% of points.</p>","0","html-button-response","37","748016","0.0-8.0-8.1-1.1","56","1","2025-07-02 10:18:53","80fe4187154257d5fb01684ea91b68b9","93.67.197.178","Mozilla/5.0 (Windows NT 10.0; Win64; x64; rv:140.0) Gecko/20100101 Firefox/140.0","","Firefox","140.0","Windows","10.0","https://app.prolific.com/","it-IT,it;q=0.8,en-US;q=0.5,en;q=0.3","5fb7b8880045d6396a86c803","683db6dfa200031b80f2a654","6865078548bb42926fc7a43a","5fb7b8880045d6396a86c803","","","","","","","","","","","","","","","","","","","","","","","","","","","","","","","","","","","","","","","","","","","","",""
"1455","","","","instructions","38","749473","0.0-8.0-9.0","56","1","2025-07-02 10:18:53","80fe4187154257d5fb01684ea91b68b9","93.67.197.178","Mozilla/5.0 (Windows NT 10.0; Win64; x64; rv:140.0) Gecko/20100101 Firefox/140.0","","Firefox","140.0","Windows","10.0","https://app.prolific.com/","it-IT,it;q=0.8,en-US;q=0.5,en;q=0.3","5fb7b8880045d6396a86c803","683db6dfa200031b80f2a654","6865078548bb42926fc7a43a","5fb7b8880045d6396a86c803","","[{""page_index"":0,""viewing_time"":1455}]","","","","","","","","","","","","","","","","","","","","","","","","","","","","","","","","","","","","","","","","","","",""
"3597","","<p>Before you start with this game please answer the following three questions yourself. </p>
  <p>Through this game, we measure several aspects of your cognitive performance, such as reaction times, multi-tasking capabilities </p>
  <p>and the ability to assess the situation you are in.</p>
  <p></p>
  <p><b>How good do you usually are in such tasks?</b></p>","84","html-slider-response","39","753072","0.0-9.0-0.0","56","1","2025-07-02 10:18:53","80fe4187154257d5fb01684ea91b68b9","93.67.197.178","Mozilla/5.0 (Windows NT 10.0; Win64; x64; rv:140.0) Gecko/20100101 Firefox/140.0","","Firefox","140.0","Windows","10.0","https://app.prolific.com/","it-IT,it;q=0.8,en-US;q=0.5,en;q=0.3","5fb7b8880045d6396a86c803","683db6dfa200031b80f2a654","6865078548bb42926fc7a43a","5fb7b8880045d6396a86c803","2025-07-02T10:31:29.465Z","","","","","","PreSkillQ","","","","","","","","","","","","","","","","","","","","","","","","","","","","","","","","","","","","","","50"
"2191","","<div style=""width:500px;"">
  <p>How well do you think you will perform in this task compared to other participants?</p>
  </div>","74","html-slider-response","40","755263","0.0-9.0-1.0","56","1","2025-07-02 10:18:53","80fe4187154257d5fb01684ea91b68b9","93.67.197.178","Mozilla/5.0 (Windows NT 10.0; Win64; x64; rv:140.0) Gecko/20100101 Firefox/140.0","","Firefox","140.0","Windows","10.0","https://app.prolific.com/","it-IT,it;q=0.8,en-US;q=0.5,en;q=0.3","5fb7b8880045d6396a86c803","683db6dfa200031b80f2a654","6865078548bb42926fc7a43a","5fb7b8880045d6396a86c803","2025-07-02T10:31:31.656Z","","","","","","PrePerfQ","","","","","","","","","","","","","","","","","","","","","","","","","","","","","","","","","","","","","","50"
"2452","","<div style=""width:500px;"">
  <p>What best describes how you currently feel?</p>
  </div>","73","html-slider-response","41","757716","0.0-9.0-2.0","56","1","2025-07-02 10:18:53","80fe4187154257d5fb01684ea91b68b9","93.67.197.178","Mozilla/5.0 (Windows NT 10.0; Win64; x64; rv:140.0) Gecko/20100101 Firefox/140.0","","Firefox","140.0","Windows","10.0","https://app.prolific.com/","it-IT,it;q=0.8,en-US;q=0.5,en;q=0.3","5fb7b8880045d6396a86c803","683db6dfa200031b80f2a654","6865078548bb42926fc7a43a","5fb7b8880045d6396a86c803","2025-07-02T10:31:34.109Z","","","","","","PreMotivationQ","","","","","","","","","","","","","","","","","","","","","","","","","","","","","","","","","","","","","","50"
"","","","","ctl-task-cpt","42","800462","0.0-10.0-0.0","56","1","2025-07-02 10:18:53","80fe4187154257d5fb01684ea91b68b9","93.67.197.178","Mozilla/5.0 (Windows NT 10.0; Win64; x64; rv:140.0) Gecko/20100101 Firefox/140.0","","Firefox","140.0","Windows","10.0","https://app.prolific.com/","it-IT,it;q=0.8,en-US;q=0.5,en;q=0.3","5fb7b8880045d6396a86c803","683db6dfa200031b80f2a654","6865078548bb42926fc7a43a","5fb7b8880045d6396a86c803","2025-07-02T10:32:16.855Z","","","","","","","","","","","","","","","","win-only","1","g1:NE,g2:SW","1","1","0","758856","950","5964","39744","1","4","4","6","2","4","4","4","0","0.030303030303030304","1239","3000","2395","[""down"",""left""]","{""num_key_presses"":6,""num_perfect"":6,""num_errors"":0,""num_randdir"":0,""num_randdir_good_moves"":0,""num_whilered"":0,""num_whileblue"":0,""num_blue"":4,""num_good_moves"":6}","[556.4285714285714,554.1285683768136,0,556.4285714285714,554.1285683768136,109,556.4285714285714,554.1285683768136,217,556.4285714285714,554.1285683768136,325,638.4285714285714,453.12856837681363,432,644.4285714285714,528.1285683768136,540,644.4285714285714,576.1285683768136,649,648.4285714285714,602.1285683768136,758,451.42857142857144,760.1285683768136,865,113.42857142857143,929.1285683768136,972,68.42857142857143,975.1285683768136,1083,67.42857142857143,1010.1285683768136,1191,74.42857142857143,1012.1285683768136,1302,74.42857142857143,1012.1285683768136,1411,74.42857142857143,1012.1285683768136,1521,56.42857142857143,1005.1285683768136,1630,-206.57142857142856,944.1285683768136,1740,-307.57142857142856,868.1285683768136,1848,-307.57142857142856,868.1285683768136,1956,-307.57142857142856,868.1285683768136,2067,-307.57142857142856,868.1285683768136,2179,-303.57142857142856,865.1285683768136,2286,-302.57142857142856,859.1285683768136,2394,-302.57142857142856,859.1285683768136,2502,-302.57142857142856,859.1285683768136,2611,-302.57142857142856,859.1285683768136,2719,-302.57142857142856,859.1285683768136,2826,-302.57142857142856,859.1285683768136,2936,-302.57142857142856,859.1285683768136,3044,-302.57142857142856,859.1285683768136,3152,-302.57142857142856,859.1285683768136,3260,-302.57142857142856,859.1285683768136,3370,-302.57142857142856,859.1285683768136,3479,-302.57142857142856,859.1285683768136,3588,-302.57142857142856,859.1285683768136,3697,-302.57142857142856,859.1285683768136,3806,-302.57142857142856,859.1285683768136,3915,-302.57142857142856,859.1285683768136,4023,-302.57142857142856,859.1285683768136,4133,-302.57142857142856,859.1285683768136,4240,-302.57142857142856,859.1285683768136,4348,-302.57142857142856,859.1285683768136,4458,-302.57142857142856,859.1285683768136,4566,-302.57142857142856,859.1285683768136,4673,-302.57142857142856,859.1285683768136,4782,-302.57142857142856,859.1285683768136,4892,-302.57142857142856,859.1285683768136,4999]","[1275,1275,1000,0,275,""smooth"",""down"",""down"",""good_move"",4713,3438,3195.8,1275,242.2,""smooth"",""left"",""left"",""good_move"",19299,14586,2686.4,16224,388.6,""smooth"",""left"",""left"",""good_move"",25937,6638,2422.7,23139,375.3,""smooth"",""down"",""down"",""good_move"",29697,3760,3363.7,25937,396.3,""smooth"",""left"",""left"",""good_move"",33508,3811,3502.8,29697,308.2,""smooth"",""down"",""down"",""good_move""]","",""
"2315","","<div style=""width:500px;"">
  <p>What determined the result of this run?</p>
  </div>","100","html-slider-response","43","802778","0.0-10.0-1.0","56","1","2025-07-02 10:18:53","80fe4187154257d5fb01684ea91b68b9","93.67.197.178","Mozilla/5.0 (Windows NT 10.0; Win64; x64; rv:140.0) Gecko/20100101 Firefox/140.0","","Firefox","140.0","Windows","10.0","https://app.prolific.com/","it-IT,it;q=0.8,en-US;q=0.5,en;q=0.3","5fb7b8880045d6396a86c803","683db6dfa200031b80f2a654","6865078548bb42926fc7a43a","5fb7b8880045d6396a86c803","2025-07-02T10:32:19.171Z","","","","","","AttribQ","","","","","","","","","","","","","","","","","","","","","","","","","","","","","","","","","","","","","","50"
"2203","","<div style=""width:500px;"">
  <p>How much control did you have over the ball?</p>
  </div>","100","html-slider-response","44","804981","0.0-10.0-2.0","56","1","2025-07-02 10:18:53","80fe4187154257d5fb01684ea91b68b9","93.67.197.178","Mozilla/5.0 (Windows NT 10.0; Win64; x64; rv:140.0) Gecko/20100101 Firefox/140.0","","Firefox","140.0","Windows","10.0","https://app.prolific.com/","it-IT,it;q=0.8,en-US;q=0.5,en;q=0.3","5fb7b8880045d6396a86c803","683db6dfa200031b80f2a654","6865078548bb42926fc7a43a","5fb7b8880045d6396a86c803","2025-07-02T10:32:21.374Z","","","","","","ControlQ","","","","","","","","","","","","","","","","","","","","","","","","","","","","","","","","","","","","","","50"
"2403","","<div style=""width:500px;"">
  <p>How would you describe your current emotional state?</p>
  </div>","41","html-slider-response","45","807385","0.0-10.0-3.0","56","1","2025-07-02 10:18:53","80fe4187154257d5fb01684ea91b68b9","93.67.197.178","Mozilla/5.0 (Windows NT 10.0; Win64; x64; rv:140.0) Gecko/20100101 Firefox/140.0","","Firefox","140.0","Windows","10.0","https://app.prolific.com/","it-IT,it;q=0.8,en-US;q=0.5,en;q=0.3","5fb7b8880045d6396a86c803","683db6dfa200031b80f2a654","6865078548bb42926fc7a43a","5fb7b8880045d6396a86c803","2025-07-02T10:32:23.778Z","","","","","","StressQ","","","","","","","","","","","","","","","","","","","","","","","","","","","","","","","","","","","","","","50"
"1863","","<div style=""width:500px;"">
  <p>What best describes how you currently feel?</p>
  </div>","71","html-slider-response","46","809248","0.0-10.0-4.0","56","1","2025-07-02 10:18:53","80fe4187154257d5fb01684ea91b68b9","93.67.197.178","Mozilla/5.0 (Windows NT 10.0; Win64; x64; rv:140.0) Gecko/20100101 Firefox/140.0","","Firefox","140.0","Windows","10.0","https://app.prolific.com/","it-IT,it;q=0.8,en-US;q=0.5,en;q=0.3","5fb7b8880045d6396a86c803","683db6dfa200031b80f2a654","6865078548bb42926fc7a43a","5fb7b8880045d6396a86c803","2025-07-02T10:32:25.641Z","","","","","","MotivationQ","","","","","","","","","","","","","","","","","","","","","","","","","","","","","","","","","","","","","","50"
"","","","","ctl-task-cpt","47","850157","0.0-10.0-0.1","56","1","2025-07-02 10:18:53","80fe4187154257d5fb01684ea91b68b9","93.67.197.178","Mozilla/5.0 (Windows NT 10.0; Win64; x64; rv:140.0) Gecko/20100101 Firefox/140.0","","Firefox","140.0","Windows","10.0","https://app.prolific.com/","it-IT,it;q=0.8,en-US;q=0.5,en;q=0.3","5fb7b8880045d6396a86c803","683db6dfa200031b80f2a654","6865078548bb42926fc7a43a","5fb7b8880045d6396a86c803","2025-07-02T10:33:06.550Z","","","","","","","","","","","","","","","","win-only","0","g1:NW,g2:SE","0.9","2","0","810389","760","5770","37906","1","4","8","6","2","8","8","12","4","0.09090909090909091","1533","3000","2130","[""down"",""right""]","{""num_key_presses"":6,""num_perfect"":5,""num_errors"":0,""num_randdir"":1,""num_randdir_good_moves"":1,""num_whilered"":0,""num_whileblue"":0,""num_blue"":4,""num_good_moves"":6}","[550.4285714285714,548.1285683768136,0,550.4285714285714,547.1285683768136,105,550.4285714285714,547.1285683768136,214,549.4285714285714,547.1285683768136,324,549.4285714285714,547.1285683768136,434,535.4285714285714,571.1285683768136,545,491.42857142857144,615.1285683768136,654,421.42857142857144,629.1285683768136,761,291.42857142857144,600.1285683768136,869,299.42857142857144,603.1285683768136,980,587.4285714285714,814.1285683768136,1089,918.4285714285714,1033.1285683768135,1195,975.4285714285714,1049.1285683768135,1303,991.4285714285714,1048.1285683768135,1413,1023.4285714285714,1033.1285683768135,1520,1023.4285714285714,1033.1285683768135,1628,1025.4285714285713,1033.1285683768135,1737,1309.4285714285713,929.1285683768136,1845,1476.4285714285713,877.1285683768136,1954,1476.4285714285713,877.1285683768136,2062,1476.4285714285713,877.1285683768136,2171,1477.4285714285713,877.1285683768136,2280,1477.4285714285713,877.1285683768136,2389,1477.4285714285713,877.1285683768136,2499,1477.4285714285713,877.1285683768136,2609,1477.4285714285713,877.1285683768136,2717,1477.4285714285713,877.1285683768136,2827,1477.4285714285713,877.1285683768136,2938,1477.4285714285713,877.1285683768136,3046,1477.4285714285713,877.1285683768136,3155,1477.4285714285713,877.1285683768136,3264,1477.4285714285713,877.1285683768136,3373,1477.4285714285713,877.1285683768136,3479,1477.4285714285713,877.1285683768136,3587,1477.4285714285713,877.1285683768136,3697,1477.4285714285713,877.1285683768136,3804,1477.4285714285713,877.1285683768136,3911,1477.4285714285713,877.1285683768136,4020,1477.4285714285713,877.1285683768136,4127,1477.4285714285713,877.1285683768136,4237,1477.4285714285713,877.1285683768136,4345,1477.4285714285713,877.1285683768136,4454,1477.4285714285713,877.1285683768136,4564,1477.4285714285713,877.1285683768136,4673,1477.4285714285713,877.1285683768136,4779,1477.4285714285713,877.1285683768136,4887,1477.4285714285713,877.1285683768136,4995]","[1363,1363,1000,0,363,""smooth"",""right"",""right"",""good_move"",12618,11255,3167.6,9049,401.4,""oops"",""down"",""right"",""good_move"",15705,3087,2360.6,12618,726.4,""smooth"",""down"",""down"",""good_move"",18851,3146,2625.3,15705,520.7,""smooth"",""down"",""down"",""good_move"",22374,3523,3113.9,18851,409.1,""smooth"",""down"",""down"",""good_move"",31864,9490,2561.8,28911,391.2,""smooth"",""right"",""right"",""good_move""]","",""
"2224","","<div style=""width:500px;"">
  <p>What determined the result of this run?</p>
  </div>","100","html-slider-response","48","852381","0.0-10.0-1.1","56","1","2025-07-02 10:18:53","80fe4187154257d5fb01684ea91b68b9","93.67.197.178","Mozilla/5.0 (Windows NT 10.0; Win64; x64; rv:140.0) Gecko/20100101 Firefox/140.0","","Firefox","140.0","Windows","10.0","https://app.prolific.com/","it-IT,it;q=0.8,en-US;q=0.5,en;q=0.3","5fb7b8880045d6396a86c803","683db6dfa200031b80f2a654","6865078548bb42926fc7a43a","5fb7b8880045d6396a86c803","2025-07-02T10:33:08.774Z","","","","","","AttribQ","","","","","","","","","","","","","","","","","","","","","","","","","","","","","","","","","","","","","","50"
"2015","","<div style=""width:500px;"">
  <p>How much control did you have over the ball?</p>
  </div>","83","html-slider-response","49","854398","0.0-10.0-2.1","56","1","2025-07-02 10:18:53","80fe4187154257d5fb01684ea91b68b9","93.67.197.178","Mozilla/5.0 (Windows NT 10.0; Win64; x64; rv:140.0) Gecko/20100101 Firefox/140.0","","Firefox","140.0","Windows","10.0","https://app.prolific.com/","it-IT,it;q=0.8,en-US;q=0.5,en;q=0.3","5fb7b8880045d6396a86c803","683db6dfa200031b80f2a654","6865078548bb42926fc7a43a","5fb7b8880045d6396a86c803","2025-07-02T10:33:10.791Z","","","","","","ControlQ","","","","","","","","","","","","","","","","","","","","","","","","","","","","","","","","","","","","","","50"
"2173","","<div style=""width:500px;"">
  <p>How would you describe your current emotional state?</p>
  </div>","34","html-slider-response","50","856570","0.0-10.0-3.1","56","1","2025-07-02 10:18:53","80fe4187154257d5fb01684ea91b68b9","93.67.197.178","Mozilla/5.0 (Windows NT 10.0; Win64; x64; rv:140.0) Gecko/20100101 Firefox/140.0","","Firefox","140.0","Windows","10.0","https://app.prolific.com/","it-IT,it;q=0.8,en-US;q=0.5,en;q=0.3","5fb7b8880045d6396a86c803","683db6dfa200031b80f2a654","6865078548bb42926fc7a43a","5fb7b8880045d6396a86c803","2025-07-02T10:33:12.963Z","","","","","","StressQ","","","","","","","","","","","","","","","","","","","","","","","","","","","","","","","","","","","","","","50"
"1997","","<div style=""width:500px;"">
  <p>What best describes how you currently feel?</p>
  </div>","64","html-slider-response","51","858569","0.0-10.0-4.1","56","1","2025-07-02 10:18:53","80fe4187154257d5fb01684ea91b68b9","93.67.197.178","Mozilla/5.0 (Windows NT 10.0; Win64; x64; rv:140.0) Gecko/20100101 Firefox/140.0","","Firefox","140.0","Windows","10.0","https://app.prolific.com/","it-IT,it;q=0.8,en-US;q=0.5,en;q=0.3","5fb7b8880045d6396a86c803","683db6dfa200031b80f2a654","6865078548bb42926fc7a43a","5fb7b8880045d6396a86c803","2025-07-02T10:33:14.962Z","","","","","","MotivationQ","","","","","","","","","","","","","","","","","","","","","","","","","","","","","","","","","","","","","","50"
"","","","","ctl-task-cpt","52","886386","0.0-10.0-0.2","56","1","2025-07-02 10:18:53","80fe4187154257d5fb01684ea91b68b9","93.67.197.178","Mozilla/5.0 (Windows NT 10.0; Win64; x64; rv:140.0) Gecko/20100101 Firefox/140.0","","Firefox","140.0","Windows","10.0","https://app.prolific.com/","it-IT,it;q=0.8,en-US;q=0.5,en;q=0.3","5fb7b8880045d6396a86c803","683db6dfa200031b80f2a654","6865078548bb42926fc7a43a","5fb7b8880045d6396a86c803","2025-07-02T10:33:42.779Z","","","","","","","","","","","","","","","","win-only","1","g1:NE,g2:SW","0.8","3","0","859709","949","5957","24815","1","4","4","6","2","4","4","16","12","0.12121212121212122","1117","3000","2400","[""down"",""left""]","{""num_key_presses"":6,""num_perfect"":6,""num_errors"":0,""num_randdir"":0,""num_randdir_good_moves"":0,""num_whilered"":0,""num_whileblue"":0,""num_blue"":1,""num_good_moves"":6}","[558.4285714285714,559.1285683768136,0,558.4285714285714,559.1285683768136,105,558.4285714285714,559.1285683768136,212,558.4285714285714,559.1285683768136,319,558.4285714285714,559.1285683768136,429,533.4285714285714,571.1285683768136,537,238.42857142857144,879.1285683768136,645,134.42857142857144,1010.1285683768136,752,134.42857142857144,1010.1285683768136,861,154.42857142857144,1008.1285683768136,969,160.42857142857144,1013.1285683768136,1077,160.42857142857144,1013.1285683768136,1186,160.42857142857144,1013.1285683768136,1294,-158.57142857142856,924.1285683768136,1403,-268.57142857142856,909.1285683768136,1513,-330.57142857142856,893.1285683768136,1621,-330.57142857142856,893.1285683768136,1729,-330.57142857142856,893.1285683768136,1840,-330.57142857142856,893.1285683768136,1947,-330.57142857142856,893.1285683768136,2055,-330.57142857142856,893.1285683768136,2165,-330.57142857142856,893.1285683768136,2272,-330.57142857142856,893.1285683768136,2380,-330.57142857142856,893.1285683768136,2489,-330.57142857142856,893.1285683768136,2599,-330.57142857142856,893.1285683768136,2708,-330.57142857142856,893.1285683768136,2815,-330.57142857142856,893.1285683768136,2923,-330.57142857142856,893.1285683768136,3031,-330.57142857142856,893.1285683768136,3140,-330.57142857142856,893.1285683768136,3249,-330.57142857142856,893.1285683768136,3361,-330.57142857142856,893.1285683768136,3469,-330.57142857142856,893.1285683768136,3577,-330.57142857142856,893.1285683768136,3685,-330.57142857142856,893.1285683768136,3795,-330.57142857142856,893.1285683768136,3903,-330.57142857142856,893.1285683768136,4011,-330.57142857142856,893.1285683768136,4121,-330.57142857142856,893.1285683768136,4231,-330.57142857142856,893.1285683768136,4341,-330.57142857142856,893.1285683768136,4451,-330.57142857142856,893.1285683768136,4560,-330.57142857142856,893.1285683768136,4667,-330.57142857142856,893.1285683768136,4773,-330.57142857142856,893.1285683768136,4881,-330.57142857142856,893.1285683768136,4992]","[1344,1344,1000,0,344,""smooth"",""left"",""left"",""good_move"",4487,3143,2835.5,1344,307.5,""smooth"",""left"",""left"",""good_move"",7570,3083,2803.6,4487,279.4,""smooth"",""left"",""left"",""good_move"",10589,3019,2749.9,7570,269.1,""smooth"",""down"",""down"",""good_move"",16589,6000,2203.1,14009,376.9,""smooth"",""down"",""down"",""good_move"",18573,1984,1593,16589,391,""smooth"",""down"",""down"",""good_move""]","",""
"1682","","<div style=""width:500px;"">
  <p>What determined the result of this run?</p>
  </div>","100","html-slider-response","53","888068","0.0-10.0-1.2","56","1","2025-07-02 10:18:53","80fe4187154257d5fb01684ea91b68b9","93.67.197.178","Mozilla/5.0 (Windows NT 10.0; Win64; x64; rv:140.0) Gecko/20100101 Firefox/140.0","","Firefox","140.0","Windows","10.0","https://app.prolific.com/","it-IT,it;q=0.8,en-US;q=0.5,en;q=0.3","5fb7b8880045d6396a86c803","683db6dfa200031b80f2a654","6865078548bb42926fc7a43a","5fb7b8880045d6396a86c803","2025-07-02T10:33:44.461Z","","","","","","AttribQ","","","","","","","","","","","","","","","","","","","","","","","","","","","","","","","","","","","","","","50"
"1491","","<div style=""width:500px;"">
  <p>How much control did you have over the ball?</p>
  </div>","83","html-slider-response","54","889561","0.0-10.0-2.2","56","1","2025-07-02 10:18:53","80fe4187154257d5fb01684ea91b68b9","93.67.197.178","Mozilla/5.0 (Windows NT 10.0; Win64; x64; rv:140.0) Gecko/20100101 Firefox/140.0","","Firefox","140.0","Windows","10.0","https://app.prolific.com/","it-IT,it;q=0.8,en-US;q=0.5,en;q=0.3","5fb7b8880045d6396a86c803","683db6dfa200031b80f2a654","6865078548bb42926fc7a43a","5fb7b8880045d6396a86c803","2025-07-02T10:33:45.954Z","","","","","","ControlQ","","","","","","","","","","","","","","","","","","","","","","","","","","","","","","","","","","","","","","50"
"1745","","<div style=""width:500px;"">
  <p>How would you describe your current emotional state?</p>
  </div>","39","html-slider-response","55","891307","0.0-10.0-3.2","56","1","2025-07-02 10:18:53","80fe4187154257d5fb01684ea91b68b9","93.67.197.178","Mozilla/5.0 (Windows NT 10.0; Win64; x64; rv:140.0) Gecko/20100101 Firefox/140.0","","Firefox","140.0","Windows","10.0","https://app.prolific.com/","it-IT,it;q=0.8,en-US;q=0.5,en;q=0.3","5fb7b8880045d6396a86c803","683db6dfa200031b80f2a654","6865078548bb42926fc7a43a","5fb7b8880045d6396a86c803","2025-07-02T10:33:47.700Z","","","","","","StressQ","","","","","","","","","","","","","","","","","","","","","","","","","","","","","","","","","","","","","","50"
"1209","","<div style=""width:500px;"">
  <p>What best describes how you currently feel?</p>
  </div>","61","html-slider-response","56","892516","0.0-10.0-4.2","56","1","2025-07-02 10:18:53","80fe4187154257d5fb01684ea91b68b9","93.67.197.178","Mozilla/5.0 (Windows NT 10.0; Win64; x64; rv:140.0) Gecko/20100101 Firefox/140.0","","Firefox","140.0","Windows","10.0","https://app.prolific.com/","it-IT,it;q=0.8,en-US;q=0.5,en;q=0.3","5fb7b8880045d6396a86c803","683db6dfa200031b80f2a654","6865078548bb42926fc7a43a","5fb7b8880045d6396a86c803","2025-07-02T10:33:48.909Z","","","","","","MotivationQ","","","","","","","","","","","","","","","","","","","","","","","","","","","","","","","","","","","","","","50"
"","","","","ctl-task-cpt","57","935386","0.0-10.0-0.3","56","1","2025-07-02 10:18:53","80fe4187154257d5fb01684ea91b68b9","93.67.197.178","Mozilla/5.0 (Windows NT 10.0; Win64; x64; rv:140.0) Gecko/20100101 Firefox/140.0","","Firefox","140.0","Windows","10.0","https://app.prolific.com/","it-IT,it;q=0.8,en-US;q=0.5,en;q=0.3","5fb7b8880045d6396a86c803","683db6dfa200031b80f2a654","6865078548bb42926fc7a43a","5fb7b8880045d6396a86c803","2025-07-02T10:34:31.779Z","","","","","","","","","","","","","","","","win-only","3","g1:SW,g2:NE","0.7","4","0","893656","690","5697","39865","1","4","8","6","2","8","8","24","16","0.18181818181818182","798","3000","2055","[""up"",""right""]","{""num_key_presses"":8,""num_perfect"":7,""num_errors"":0,""num_randdir"":1,""num_randdir_good_moves"":0,""num_whilered"":0,""num_whileblue"":0,""num_blue"":3,""num_good_moves"":7}","[544.4285714285714,550.1285683768136,0,544.4285714285714,550.1285683768136,112,544.4285714285714,550.1285683768136,220,544.4285714285714,550.1285683768136,328,538.4285714285714,550.1285683768136,438,687.4285714285714,350.12856837681363,547,905.4285714285714,186.12856837681363,655,993.4285714285714,132.12856837681363,760,1009.4285714285714,120.12856837681362,866,1009.4285714285714,120.12856837681362,973,1179.4285714285713,182.12856837681363,1081,1429.4285714285713,403.12856837681363,1188,1448.4285714285713,407.12856837681363,1295,1448.4285714285713,407.12856837681363,1404,1448.4285714285713,407.12856837681363,1512,1448.4285714285713,407.12856837681363,1622,1448.4285714285713,407.12856837681363,1730,1448.4285714285713,407.12856837681363,1839,1448.4285714285713,407.12856837681363,1947,1448.4285714285713,407.12856837681363,2056,1448.4285714285713,407.12856837681363,2167,1448.4285714285713,407.12856837681363,2277,1448.4285714285713,407.12856837681363,2386,1448.4285714285713,407.12856837681363,2493,1448.4285714285713,407.12856837681363,2604,1448.4285714285713,407.12856837681363,2712,1448.4285714285713,407.12856837681363,2823,1448.4285714285713,407.12856837681363,2932,1448.4285714285713,407.12856837681363,3043,1448.4285714285713,407.12856837681363,3153,1448.4285714285713,407.12856837681363,3261,1448.4285714285713,407.12856837681363,3370,1448.4285714285713,407.12856837681363,3478,1448.4285714285713,407.12856837681363,3586,1448.4285714285713,407.12856837681363,3697,1448.4285714285713,407.12856837681363,3807,1448.4285714285713,407.12856837681363,3915,1448.4285714285713,407.12856837681363,4025,1448.4285714285713,407.12856837681363,4135,1448.4285714285713,407.12856837681363,4243,1448.4285714285713,407.12856837681363,4353,1448.4285714285713,407.12856837681363,4460,1448.4285714285713,407.12856837681363,4569,1448.4285714285713,407.12856837681363,4679,1448.4285714285713,407.12856837681363,4787,1448.4285714285713,407.12856837681363,4898]","[1443,1443,1000,0,443,""smooth"",""right"",""right"",""good_move"",7257,5814,1803.7,5023,430.3,""smooth"",""right"",""right"",""good_move"",13248,5991,2480.4,10340,427.6,""smooth"",""right"",""right"",""good_move"",20389,7140,2752.1,17228,408.9,""smooth"",""up"",""up"",""good_move"",23860,3471,3095,20389,376,""smooth"",""up"",""up"",""good_move"",26850,2990,2189.1,23860,800.9,""oops"",""up"",""left"",""bad_move"",30470,3620,3288,26850,332,""smooth"",""up"",""up"",""good_move"",33900,3430,3151.6,30470,278.4,""smooth"",""right"",""right"",""good_move""]","",""
"1981","","<div style=""width:500px;"">
  <p>What determined the result of this run?</p>
  </div>","100","html-slider-response","58","937367","0.0-10.0-1.3","56","1","2025-07-02 10:18:53","80fe4187154257d5fb01684ea91b68b9","93.67.197.178","Mozilla/5.0 (Windows NT 10.0; Win64; x64; rv:140.0) Gecko/20100101 Firefox/140.0","","Firefox","140.0","Windows","10.0","https://app.prolific.com/","it-IT,it;q=0.8,en-US;q=0.5,en;q=0.3","5fb7b8880045d6396a86c803","683db6dfa200031b80f2a654","6865078548bb42926fc7a43a","5fb7b8880045d6396a86c803","2025-07-02T10:34:33.760Z","","","","","","AttribQ","","","","","","","","","","","","","","","","","","","","","","","","","","","","","","","","","","","","","","50"
"1510","","<div style=""width:500px;"">
  <p>How much control did you have over the ball?</p>
  </div>","73","html-slider-response","59","938877","0.0-10.0-2.3","56","1","2025-07-02 10:18:53","80fe4187154257d5fb01684ea91b68b9","93.67.197.178","Mozilla/5.0 (Windows NT 10.0; Win64; x64; rv:140.0) Gecko/20100101 Firefox/140.0","","Firefox","140.0","Windows","10.0","https://app.prolific.com/","it-IT,it;q=0.8,en-US;q=0.5,en;q=0.3","5fb7b8880045d6396a86c803","683db6dfa200031b80f2a654","6865078548bb42926fc7a43a","5fb7b8880045d6396a86c803","2025-07-02T10:34:35.270Z","","","","","","ControlQ","","","","","","","","","","","","","","","","","","","","","","","","","","","","","","","","","","","","","","50"
"1989","","<div style=""width:500px;"">
  <p>How would you describe your current emotional state?</p>
  </div>","31","html-slider-response","60","940866","0.0-10.0-3.3","56","1","2025-07-02 10:18:53","80fe4187154257d5fb01684ea91b68b9","93.67.197.178","Mozilla/5.0 (Windows NT 10.0; Win64; x64; rv:140.0) Gecko/20100101 Firefox/140.0","","Firefox","140.0","Windows","10.0","https://app.prolific.com/","it-IT,it;q=0.8,en-US;q=0.5,en;q=0.3","5fb7b8880045d6396a86c803","683db6dfa200031b80f2a654","6865078548bb42926fc7a43a","5fb7b8880045d6396a86c803","2025-07-02T10:34:37.259Z","","","","","","StressQ","","","","","","","","","","","","","","","","","","","","","","","","","","","","","","","","","","","","","","50"
"2165","","<div style=""width:500px;"">
  <p>What best describes how you currently feel?</p>
  </div>","79","html-slider-response","61","943033","0.0-10.0-4.3","56","1","2025-07-02 10:18:53","80fe4187154257d5fb01684ea91b68b9","93.67.197.178","Mozilla/5.0 (Windows NT 10.0; Win64; x64; rv:140.0) Gecko/20100101 Firefox/140.0","","Firefox","140.0","Windows","10.0","https://app.prolific.com/","it-IT,it;q=0.8,en-US;q=0.5,en;q=0.3","5fb7b8880045d6396a86c803","683db6dfa200031b80f2a654","6865078548bb42926fc7a43a","5fb7b8880045d6396a86c803","2025-07-02T10:34:39.426Z","","","","","","MotivationQ","","","","","","","","","","","","","","","","","","","","","","","","","","","","","","","","","","","","","","50"
"","","","","ctl-task-cpt","62","1029582","0.0-10.0-0.4","56","1","2025-07-02 10:18:53","80fe4187154257d5fb01684ea91b68b9","93.67.197.178","Mozilla/5.0 (Windows NT 10.0; Win64; x64; rv:140.0) Gecko/20100101 Firefox/140.0","","Firefox","140.0","Windows","10.0","https://app.prolific.com/","it-IT,it;q=0.8,en-US;q=0.5,en;q=0.3","5fb7b8880045d6396a86c803","683db6dfa200031b80f2a654","6865078548bb42926fc7a43a","5fb7b8880045d6396a86c803","2025-07-02T10:36:05.975Z","","","","","","","","","","","","","","","","win-only","2","g1:SE,g2:NW","0.6","5","0","944173","614","5626","83534","1","4","4","6","2","4","3","27","24","0.20454545454545456","916","3000","830","[""left"",""up""]","{""num_key_presses"":20,""num_perfect"":12,""num_errors"":1,""num_randdir"":7,""num_randdir_good_moves"":2,""num_whilered"":0,""num_whileblue"":1,""num_blue"":6,""num_good_moves"":13}","[555.4285714285714,559.1285683768136,0,550.4285714285714,558.1285683768136,115,550.4285714285714,558.1285683768136,224,550.4285714285714,558.1285683768136,332,550.4285714285714,558.1285683768136,443,550.4285714285714,558.1285683768136,550,386.42857142857144,297.12856837681363,658,190.42857142857144,108.12856837681362,764,116.42857142857143,64.12856837681362,871,111.42857142857143,63.12856837681362,980,111.42857142857143,63.12856837681362,1087,-196.57142857142856,237.12856837681363,1196,-265.57142857142856,296.12856837681363,1306,-265.57142857142856,296.12856837681363,1413,-265.57142857142856,296.12856837681363,1521,-265.57142857142856,296.12856837681363,1629,-265.57142857142856,296.12856837681363,1737,-265.57142857142856,296.12856837681363,1845,-265.57142857142856,296.12856837681363,1954,-265.57142857142856,296.12856837681363,2064,-265.57142857142856,296.12856837681363,2174,-265.57142857142856,296.12856837681363,2284,-265.57142857142856,296.12856837681363,2395,-265.57142857142856,296.12856837681363,2504,-265.57142857142856,296.12856837681363,2615,-265.57142857142856,296.12856837681363,2724,-265.57142857142856,296.12856837681363,2835,-265.57142857142856,296.12856837681363,2942,-265.57142857142856,296.12856837681363,3050,-265.57142857142856,296.12856837681363,3160,-265.57142857142856,296.12856837681363,3269,-265.57142857142856,296.12856837681363,3379,-265.57142857142856,296.12856837681363,3488,-265.57142857142856,296.12856837681363,3598,-265.57142857142856,296.12856837681363,3704,-265.57142857142856,296.12856837681363,3813,-265.57142857142856,296.12856837681363,3923,-265.57142857142856,296.12856837681363,4031,-265.57142857142856,296.12856837681363,4139,-265.57142857142856,296.12856837681363,4248,-265.57142857142856,296.12856837681363,4358,-265.57142857142856,296.12856837681363,4466,-265.57142857142856,296.12856837681363,4576,-265.57142857142856,296.12856837681363,4684,-265.57142857142856,296.12856837681363,4794,-265.57142857142856,296.12856837681363,4903]","[1377,1377,1000,0,377,""smooth"",""left"",""left"",""good_move"",4391,3014,2174.9,1377,839.1,""smooth"",""left"",""left"",""good_move"",7328,2937,2318.2,4391,618.8,""smooth"",""left"",""left"",""good_move"",10215,2886,2538.2,7329,347.8,""smooth"",""up"",""up"",""good_move"",13130,2915,2107.2,10215,807.8,""smooth"",""up"",""up"",""good_move"",16793,3662,3371.8,13131,290.2,""oops"",""up"",""down"",""bad_move"",19654,2860,2464.4,16794,395.6,""smooth"",""up"",""up"",""good_move"",22607,2953,2524.3,19654,428.7,""oops"",""up"",""right"",""bad_move"",25883,3276,2770.8,22607,505.2,""oops"",""left"",""right"",""bad_move"",28838,2955,2645.2,25883,309.8,""oops"",""up"",""down"",""bad_move"",34964,6126,2063.5,32482,418.5,""smooth"",""down"",""down"",""bad_move"",40511,5547,2306.1,37854,350.9,""smooth"",""up"",""up"",""good_move"",44477,3966,3485.9,40511,480.1,""smooth"",""up"",""up"",""good_move"",47791,3314,2980,44477,334,""oops"",""left"",""up"",""good_move"",50753,2962,2254.6,47791,707.4,""oops"",""right"",""down"",""bad_move"",53815,3062,2722,50753,340,""while_blue"",""left"",""right"",""bad_move"",64929,11114,2604.4,61904,420.6,""smooth"",""left"",""left"",""good_move"",71649,6720,2498.3,68576,574.7,""smooth"",""left"",""left"",""good_move"",74649,3000,1985.6,71649,1014.4,""smooth"",""left"",""left"",""good_move"",77626,2977,2571.3,74649,405.7,""oops"",""up"",""up"",""good_move""]","",""
"2257","","<div style=""width:500px;"">
  <p>What determined the result of this run?</p>
  </div>","58","html-slider-response","63","1031840","0.0-10.0-1.4","56","1","2025-07-02 10:18:53","80fe4187154257d5fb01684ea91b68b9","93.67.197.178","Mozilla/5.0 (Windows NT 10.0; Win64; x64; rv:140.0) Gecko/20100101 Firefox/140.0","","Firefox","140.0","Windows","10.0","https://app.prolific.com/","it-IT,it;q=0.8,en-US;q=0.5,en;q=0.3","5fb7b8880045d6396a86c803","683db6dfa200031b80f2a654","6865078548bb42926fc7a43a","5fb7b8880045d6396a86c803","2025-07-02T10:36:08.233Z","","","","","","AttribQ","","","","","","","","","","","","","","","","","","","","","","","","","","","","","","","","","","","","","","50"
"2124","","<div style=""width:500px;"">
  <p>How much control did you have over the ball?</p>
  </div>","36","html-slider-response","64","1033965","0.0-10.0-2.4","56","1","2025-07-02 10:18:53","80fe4187154257d5fb01684ea91b68b9","93.67.197.178","Mozilla/5.0 (Windows NT 10.0; Win64; x64; rv:140.0) Gecko/20100101 Firefox/140.0","","Firefox","140.0","Windows","10.0","https://app.prolific.com/","it-IT,it;q=0.8,en-US;q=0.5,en;q=0.3","5fb7b8880045d6396a86c803","683db6dfa200031b80f2a654","6865078548bb42926fc7a43a","5fb7b8880045d6396a86c803","2025-07-02T10:36:10.358Z","","","","","","ControlQ","","","","","","","","","","","","","","","","","","","","","","","","","","","","","","","","","","","","","","50"
"2440","","<div style=""width:500px;"">
  <p>How would you describe your current emotional state?</p>
  </div>","40","html-slider-response","65","1036405","0.0-10.0-3.4","56","1","2025-07-02 10:18:53","80fe4187154257d5fb01684ea91b68b9","93.67.197.178","Mozilla/5.0 (Windows NT 10.0; Win64; x64; rv:140.0) Gecko/20100101 Firefox/140.0","","Firefox","140.0","Windows","10.0","https://app.prolific.com/","it-IT,it;q=0.8,en-US;q=0.5,en;q=0.3","5fb7b8880045d6396a86c803","683db6dfa200031b80f2a654","6865078548bb42926fc7a43a","5fb7b8880045d6396a86c803","2025-07-02T10:36:12.798Z","","","","","","StressQ","","","","","","","","","","","","","","","","","","","","","","","","","","","","","","","","","","","","","","50"
"1673","","<div style=""width:500px;"">
  <p>What best describes how you currently feel?</p>
  </div>","41","html-slider-response","66","1038078","0.0-10.0-4.4","56","1","2025-07-02 10:18:53","80fe4187154257d5fb01684ea91b68b9","93.67.197.178","Mozilla/5.0 (Windows NT 10.0; Win64; x64; rv:140.0) Gecko/20100101 Firefox/140.0","","Firefox","140.0","Windows","10.0","https://app.prolific.com/","it-IT,it;q=0.8,en-US;q=0.5,en;q=0.3","5fb7b8880045d6396a86c803","683db6dfa200031b80f2a654","6865078548bb42926fc7a43a","5fb7b8880045d6396a86c803","2025-07-02T10:36:14.471Z","","","","","","MotivationQ","","","","","","","","","","","","","","","","","","","","","","","","","","","","","","","","","","","","","","50"
"","","","","ctl-task-cpt","67","1071168","0.0-10.0-0.5","56","1","2025-07-02 10:18:53","80fe4187154257d5fb01684ea91b68b9","93.67.197.178","Mozilla/5.0 (Windows NT 10.0; Win64; x64; rv:140.0) Gecko/20100101 Firefox/140.0","","Firefox","140.0","Windows","10.0","https://app.prolific.com/","it-IT,it;q=0.8,en-US;q=0.5,en;q=0.3","5fb7b8880045d6396a86c803","683db6dfa200031b80f2a654","6865078548bb42926fc7a43a","5fb7b8880045d6396a86c803","2025-07-02T10:36:47.561Z","","","","","","","","","","","","","","","","win-only","3","g1:SW,g2:NE","0.5","6","0","1039219","675","5682","30082","1","4","8","6","2","8","8","35","27","0.26515151515151514","676","3000","2030","[""up"",""right""]","{""num_key_presses"":8,""num_perfect"":5,""num_errors"":0,""num_randdir"":3,""num_randdir_good_moves"":3,""num_whilered"":0,""num_whileblue"":0,""num_blue"":1,""num_good_moves"":7}","[555.4285714285714,541.1285683768136,0,555.4285714285714,541.1285683768136,111,555.4285714285714,541.1285683768136,220,555.4285714285714,541.1285683768136,328,728.4285714285714,372.12856837681363,435,995.4285714285714,165.12856837681363,543,1047.4285714285713,117.12856837681362,651,1052.4285714285713,113.12856837681362,760,1053.4285714285713,113.12856837681362,868,1369.4285714285713,217.12856837681363,977,1450.4285714285713,235.12856837681363,1087,1450.4285714285713,235.12856837681363,1198,1450.4285714285713,235.12856837681363,1307,1450.4285714285713,235.12856837681363,1415,1450.4285714285713,235.12856837681363,1524,1450.4285714285713,235.12856837681363,1632,1450.4285714285713,235.12856837681363,1740,1450.4285714285713,235.12856837681363,1849,1450.4285714285713,235.12856837681363,1957,1450.4285714285713,235.12856837681363,2065,1450.4285714285713,235.12856837681363,2175,1450.4285714285713,235.12856837681363,2282,1450.4285714285713,235.12856837681363,2392,1450.4285714285713,235.12856837681363,2501,1450.4285714285713,235.12856837681363,2611,1450.4285714285713,235.12856837681363,2722,1450.4285714285713,235.12856837681363,2833,1450.4285714285713,235.12856837681363,2940,1450.4285714285713,235.12856837681363,3047,1450.4285714285713,235.12856837681363,3155,1450.4285714285713,235.12856837681363,3264,1450.4285714285713,235.12856837681363,3372,1450.4285714285713,235.12856837681363,3483,1450.4285714285713,235.12856837681363,3592,1450.4285714285713,235.12856837681363,3701,1450.4285714285713,235.12856837681363,3809,1450.4285714285713,235.12856837681363,3918,1450.4285714285713,235.12856837681363,4027,1450.4285714285713,235.12856837681363,4137,1450.4285714285713,235.12856837681363,4245,1450.4285714285713,235.12856837681363,4353,1450.4285714285713,235.12856837681363,4462,1450.4285714285713,235.12856837681363,4573,1450.4285714285713,235.12856837681363,4681,1450.4285714285713,235.12856837681363,4792,1450.4285714285713,235.12856837681363,4900]","[1367,1367,1000,0,367,""smooth"",""up"",""up"",""good_move"",4539,3172,2832.6,1367,339.4,""oops"",""right"",""up"",""good_move"",7507,2968,2599.2,4539,368.8,""oops"",""right"",""up"",""good_move"",10795,3288,2576.2,7507,711.8,""oops"",""up"",""right"",""good_move"",12879,2084,1693.1,10795,390.9,""smooth"",""up"",""left"",""bad_move"",16019,3140,2737.7,12879,402.3,""smooth"",""right"",""right"",""good_move"",18392,2373,2041.4,16019,331.6,""smooth"",""right"",""right"",""good_move"",24112,5720,2555.3,21229,327.7,""smooth"",""right"",""right"",""good_move""]","",""
"1399","","<div style=""width:500px;"">
  <p>What determined the result of this run?</p>
  </div>","63","html-slider-response","68","1072567","0.0-10.0-1.5","56","1","2025-07-02 10:18:53","80fe4187154257d5fb01684ea91b68b9","93.67.197.178","Mozilla/5.0 (Windows NT 10.0; Win64; x64; rv:140.0) Gecko/20100101 Firefox/140.0","","Firefox","140.0","Windows","10.0","https://app.prolific.com/","it-IT,it;q=0.8,en-US;q=0.5,en;q=0.3","5fb7b8880045d6396a86c803","683db6dfa200031b80f2a654","6865078548bb42926fc7a43a","5fb7b8880045d6396a86c803","2025-07-02T10:36:48.960Z","","","","","","AttribQ","","","","","","","","","","","","","","","","","","","","","","","","","","","","","","","","","","","","","","50"
"2632","","<div style=""width:500px;"">
  <p>How much control did you have over the ball?</p>
  </div>","56","html-slider-response","69","1075199","0.0-10.0-2.5","56","1","2025-07-02 10:18:53","80fe4187154257d5fb01684ea91b68b9","93.67.197.178","Mozilla/5.0 (Windows NT 10.0; Win64; x64; rv:140.0) Gecko/20100101 Firefox/140.0","","Firefox","140.0","Windows","10.0","https://app.prolific.com/","it-IT,it;q=0.8,en-US;q=0.5,en;q=0.3","5fb7b8880045d6396a86c803","683db6dfa200031b80f2a654","6865078548bb42926fc7a43a","5fb7b8880045d6396a86c803","2025-07-02T10:36:51.592Z","","","","","","ControlQ","","","","","","","","","","","","","","","","","","","","","","","","","","","","","","","","","","","","","","50"
"1424","","<div style=""width:500px;"">
  <p>How would you describe your current emotional state?</p>
  </div>","33","html-slider-response","70","1076623","0.0-10.0-3.5","56","1","2025-07-02 10:18:53","80fe4187154257d5fb01684ea91b68b9","93.67.197.178","Mozilla/5.0 (Windows NT 10.0; Win64; x64; rv:140.0) Gecko/20100101 Firefox/140.0","","Firefox","140.0","Windows","10.0","https://app.prolific.com/","it-IT,it;q=0.8,en-US;q=0.5,en;q=0.3","5fb7b8880045d6396a86c803","683db6dfa200031b80f2a654","6865078548bb42926fc7a43a","5fb7b8880045d6396a86c803","2025-07-02T10:36:53.016Z","","","","","","StressQ","","","","","","","","","","","","","","","","","","","","","","","","","","","","","","","","","","","","","","50"
"1352","","<div style=""width:500px;"">
  <p>What best describes how you currently feel?</p>
  </div>","65","html-slider-response","71","1077976","0.0-10.0-4.5","56","1","2025-07-02 10:18:53","80fe4187154257d5fb01684ea91b68b9","93.67.197.178","Mozilla/5.0 (Windows NT 10.0; Win64; x64; rv:140.0) Gecko/20100101 Firefox/140.0","","Firefox","140.0","Windows","10.0","https://app.prolific.com/","it-IT,it;q=0.8,en-US;q=0.5,en;q=0.3","5fb7b8880045d6396a86c803","683db6dfa200031b80f2a654","6865078548bb42926fc7a43a","5fb7b8880045d6396a86c803","2025-07-02T10:36:54.369Z","","","","","","MotivationQ","","","","","","","","","","","","","","","","","","","","","","","","","","","","","","","","","","","","","","50"
"","","","","ctl-task-cpt","72","1175884","0.0-10.0-0.6","56","1","2025-07-02 10:18:53","80fe4187154257d5fb01684ea91b68b9","93.67.197.178","Mozilla/5.0 (Windows NT 10.0; Win64; x64; rv:140.0) Gecko/20100101 Firefox/140.0","","Firefox","140.0","Windows","10.0","https://app.prolific.com/","it-IT,it;q=0.8,en-US;q=0.5,en;q=0.3","5fb7b8880045d6396a86c803","683db6dfa200031b80f2a654","6865078548bb42926fc7a43a","5fb7b8880045d6396a86c803","2025-07-02T10:38:32.277Z","","","","","","","","","","","","","","","","win-only","0","g1:NW,g2:SE","0.4","7","0","1079117","656","5670","94907","1","4","4","6","2","4","4","39","35","0.29545454545454547","1355","3000","65","[""down"",""right""]","{""num_key_presses"":22,""num_perfect"":10,""num_errors"":0,""num_randdir"":12,""num_randdir_good_moves"":5,""num_whilered"":0,""num_whileblue"":0,""num_blue"":7,""num_good_moves"":14}","[563.4285714285714,569.1285683768136,0,563.4285714285714,569.1285683768136,108,563.4285714285714,569.1285683768136,217,556.4285714285714,571.1285683768136,327,521.4285714285714,578.1285683768136,436,647.4285714285714,806.1285683768136,543,852.4285714285714,948.1285683768136,653,863.4285714285714,936.1285683768136,760,492.42857142857144,366.12856837681363,867,653.4285714285714,566.1285683768136,976,896.4285714285714,819.1285683768136,1082,999.4285714285714,902.1285683768136,1190,1026.4285714285713,996.1285683768136,1296,1031.4285714285713,1010.1285683768136,1406,1087.4285714285713,981.1285683768136,1517,1471.4285714285713,839.1285683768136,1625,1575.4285714285713,810.1285683768136,1732,1575.4285714285713,810.1285683768136,1838,1575.4285714285713,810.1285683768136,1946,1575.4285714285713,810.1285683768136,2057,1575.4285714285713,810.1285683768136,2165,1575.4285714285713,810.1285683768136,2273,1575.4285714285713,810.1285683768136,2383,1575.4285714285713,810.1285683768136,2492,1575.4285714285713,810.1285683768136,2601,1575.4285714285713,810.1285683768136,2710,1575.4285714285713,810.1285683768136,2819,1575.4285714285713,810.1285683768136,2927,1575.4285714285713,810.1285683768136,3036,1575.4285714285713,810.1285683768136,3145,1575.4285714285713,810.1285683768136,3255,1575.4285714285713,810.1285683768136,3365,1575.4285714285713,810.1285683768136,3474,1575.4285714285713,810.1285683768136,3582,1575.4285714285713,810.1285683768136,3691,1575.4285714285713,810.1285683768136,3800,1575.4285714285713,810.1285683768136,3911,1575.4285714285713,810.1285683768136,4020,1575.4285714285713,810.1285683768136,4129,1575.4285714285713,810.1285683768136,4237,1575.4285714285713,810.1285683768136,4346,1575.4285714285713,810.1285683768136,4453,1575.4285714285713,810.1285683768136,4562,1575.4285714285713,810.1285683768136,4670,1575.4285714285713,810.1285683768136,4780,1575.4285714285713,810.1285683768136,4889,1575.4285714285713,810.1285683768136,4999]","[4878,4878,2449.5,2026,402.5,""oops"",""down"",""up"",""bad_move"",8095,3217,2598.5,4878,618.5,""smooth"",""up"",""up"",""bad_move"",14693,6597,2118.3,11969,605.7,""oops"",""right"",""left"",""bad_move"",18959,4266,3675.3,14693,590.7,""oops"",""down"",""left"",""bad_move"",22137,3178,2230.4,18960,946.6,""oops"",""down"",""down"",""good_move"",28680,6543,2419.9,25832,428.1,""smooth"",""down"",""down"",""good_move"",31427,2747,2217.5,28680,529.5,""oops"",""down"",""right"",""good_move"",38169,6742,3554,34177,438,""oops"",""down"",""right"",""good_move"",41711,3542,2941.8,38169,600.2,""smooth"",""down"",""down"",""good_move"",44748,3037,2659.4,41711,377.6,""smooth"",""down"",""down"",""good_move"",47546,2798,2492.5,44748,305.5,""smooth"",""right"",""right"",""good_move"",50169,2623,2068,47546,555,""oops"",""down"",""up"",""bad_move"",53164,2995,2671.3,50169,323.7,""smooth"",""right"",""right"",""good_move"",55792,2628,2295.5,53164,332.5,""smooth"",""down"",""down"",""good_move"",58713,2921,2544.6,55792,376.4,""oops"",""down"",""up"",""bad_move"",61643,2930,2189.4,58713,740.6,""smooth"",""down"",""down"",""good_move"",64133,2490,2118.1,61643,371.9,""oops"",""right"",""up"",""bad_move"",67127,2994,1986.6,64133,1007.4,""oops"",""down"",""left"",""bad_move"",70054,2927,2389.3,67127,537.7,""oops"",""down"",""down"",""good_move"",83195,13141,2701.3,80017,476.7,""oops"",""right"",""right"",""good_move"",86070,2875,2512.6,83195,362.4,""smooth"",""right"",""right"",""good_move"",88956,2886,2586.5,86070,299.5,""smooth"",""down"",""down"",""good_move""]","",""
"6109","","<div style=""width:500px;"">
  <p>What determined the result of this run?</p>
  </div>","65","html-slider-response","73","1181994","0.0-10.0-1.6","56","1","2025-07-02 10:18:53","80fe4187154257d5fb01684ea91b68b9","93.67.197.178","Mozilla/5.0 (Windows NT 10.0; Win64; x64; rv:140.0) Gecko/20100101 Firefox/140.0","","Firefox","140.0","Windows","10.0","https://app.prolific.com/","it-IT,it;q=0.8,en-US;q=0.5,en;q=0.3","5fb7b8880045d6396a86c803","683db6dfa200031b80f2a654","6865078548bb42926fc7a43a","5fb7b8880045d6396a86c803","2025-07-02T10:38:38.387Z","","","","","","AttribQ","","","","","","","","","","","","","","","","","","","","","","","","","","","","","","","","","","","","","","50"
"1944","","<div style=""width:500px;"">
  <p>How much control did you have over the ball?</p>
  </div>","54","html-slider-response","74","1183938","0.0-10.0-2.6","56","1","2025-07-02 10:18:53","80fe4187154257d5fb01684ea91b68b9","93.67.197.178","Mozilla/5.0 (Windows NT 10.0; Win64; x64; rv:140.0) Gecko/20100101 Firefox/140.0","","Firefox","140.0","Windows","10.0","https://app.prolific.com/","it-IT,it;q=0.8,en-US;q=0.5,en;q=0.3","5fb7b8880045d6396a86c803","683db6dfa200031b80f2a654","6865078548bb42926fc7a43a","5fb7b8880045d6396a86c803","2025-07-02T10:38:40.331Z","","","","","","ControlQ","","","","","","","","","","","","","","","","","","","","","","","","","","","","","","","","","","","","","","50"
"1851","","<div style=""width:500px;"">
  <p>How would you describe your current emotional state?</p>
  </div>","29","html-slider-response","75","1185789","0.0-10.0-3.6","56","1","2025-07-02 10:18:53","80fe4187154257d5fb01684ea91b68b9","93.67.197.178","Mozilla/5.0 (Windows NT 10.0; Win64; x64; rv:140.0) Gecko/20100101 Firefox/140.0","","Firefox","140.0","Windows","10.0","https://app.prolific.com/","it-IT,it;q=0.8,en-US;q=0.5,en;q=0.3","5fb7b8880045d6396a86c803","683db6dfa200031b80f2a654","6865078548bb42926fc7a43a","5fb7b8880045d6396a86c803","2025-07-02T10:38:42.182Z","","","","","","StressQ","","","","","","","","","","","","","","","","","","","","","","","","","","","","","","","","","","","","","","50"
"1791","","<div style=""width:500px;"">
  <p>What best describes how you currently feel?</p>
  </div>","65","html-slider-response","76","1187581","0.0-10.0-4.6","56","1","2025-07-02 10:18:53","80fe4187154257d5fb01684ea91b68b9","93.67.197.178","Mozilla/5.0 (Windows NT 10.0; Win64; x64; rv:140.0) Gecko/20100101 Firefox/140.0","","Firefox","140.0","Windows","10.0","https://app.prolific.com/","it-IT,it;q=0.8,en-US;q=0.5,en;q=0.3","5fb7b8880045d6396a86c803","683db6dfa200031b80f2a654","6865078548bb42926fc7a43a","5fb7b8880045d6396a86c803","2025-07-02T10:38:43.974Z","","","","","","MotivationQ","","","","","","","","","","","","","","","","","","","","","","","","","","","","","","","","","","","","","","50"
"","","","","ctl-task-cpt","77","1273254","0.0-10.0-0.7","56","1","2025-07-02 10:18:53","80fe4187154257d5fb01684ea91b68b9","93.67.197.178","Mozilla/5.0 (Windows NT 10.0; Win64; x64; rv:140.0) Gecko/20100101 Firefox/140.0","","Firefox","140.0","Windows","10.0","https://app.prolific.com/","it-IT,it;q=0.8,en-US;q=0.5,en;q=0.3","5fb7b8880045d6396a86c803","683db6dfa200031b80f2a654","6865078548bb42926fc7a43a","5fb7b8880045d6396a86c803","2025-07-02T10:40:09.647Z","","","","","","","","","","","","","","","","win-only","2","g1:SE,g2:NW","0.3","8","0","1188721","653","5658","82661","1","4","8","6","2","8","7","46","39","0.3484848484848485","972","3000","655","[""left"",""up""]","{""num_key_presses"":22,""num_perfect"":7,""num_errors"":1,""num_randdir"":14,""num_randdir_good_moves"":6,""num_whilered"":0,""num_whileblue"":1,""num_blue"":4,""num_good_moves"":14}","[558.4285714285714,553.1285683768136,0,558.4285714285714,553.1285683768136,105,558.4285714285714,553.1285683768136,214,555.4285714285714,554.1285683768136,321,473.42857142857144,473.12856837681363,430,169.42857142857144,171.12856837681363,536,100.42857142857143,118.12856837681362,645,27.42857142857143,69.12856837681362,752,30.42857142857143,69.12856837681362,858,87.42857142857143,101.12856837681362,964,87.42857142857143,101.12856837681362,1072,82.42857142857143,101.12856837681362,1181,82.42857142857143,101.12856837681362,1291,82.42857142857143,101.12856837681362,1402,82.42857142857143,101.12856837681362,1509,82.42857142857143,101.12856837681362,1620,82.42857142857143,101.12856837681362,1728,82.42857142857143,101.12856837681362,1837,83.42857142857143,101.12856837681362,1946,83.42857142857143,101.12856837681362,2055,83.42857142857143,101.12856837681362,2164,83.42857142857143,101.12856837681362,2272,83.42857142857143,101.12856837681362,2380,83.42857142857143,101.12856837681362,2488,83.42857142857143,101.12856837681362,2597,83.42857142857143,101.12856837681362,2706,83.42857142857143,101.12856837681362,2812,83.42857142857143,101.12856837681362,2921,83.42857142857143,101.12856837681362,3030,83.42857142857143,101.12856837681362,3140,83.42857142857143,101.12856837681362,3251,83.42857142857143,101.12856837681362,3359,83.42857142857143,101.12856837681362,3470,83.42857142857143,101.12856837681362,3578,83.42857142857143,101.12856837681362,3687,83.42857142857143,101.12856837681362,3795,83.42857142857143,101.12856837681362,3905,83.42857142857143,101.12856837681362,4013,83.42857142857143,101.12856837681362,4122,83.42857142857143,101.12856837681362,4231,83.42857142857143,101.12856837681362,4340,83.42857142857143,101.12856837681362,4450,83.42857142857143,101.12856837681362,4559,83.42857142857143,101.12856837681362,4667,83.42857142857143,101.12856837681362,4774,83.42857142857143,101.12856837681362,4881,83.42857142857143,101.12856837681362,4990]","[1937,1937,1000,0,937,""smooth"",""up"",""up"",""good_move"",5412,3475,3134.2,1937,340.8,""oops"",""left"",""right"",""bad_move"",8099,2687,2393.2,5412,293.8,""oops"",""left"",""right"",""bad_move"",11694,3595,3156.3,8099,438.7,""smooth"",""up"",""up"",""good_move"",14575,2881,2142.9,11694,738.1,""smooth"",""left"",""left"",""good_move"",17637,3062,2833.3,14575,228.7,""oops"",""left"",""up"",""good_move"",21010,3373,3121.5,17637,251.5,""oops"",""left"",""down"",""bad_move"",24378,3368,3097.7,21010,270.3,""oops"",""left"",""down"",""bad_move"",27191,2813,2492.3,24378,320.7,""oops"",""left"",""down"",""bad_move"",29468,2277,1540,27191,737,""oops"",""left"",""up"",""good_move"",32539,3071,2792.3,29468,278.7,""smooth"",""left"",""left"",""good_move"",35432,2893,2175.2,32539,717.8,""smooth"",""left"",""left"",""good_move"",38307,2875,2415.4,35432,459.6,""smooth"",""left"",""left"",""good_move"",41484,3177,2912.7,38307,264.3,""oops"",""up"",""left"",""good_move"",44424,2940,2638.8,41484,301.2,""oops"",""up"",""down"",""bad_move"",46887,2463,2168.4,44424,294.6,""oops"",""up"",""right"",""bad_move"",49492,2605,2343.1,46887,261.9,""oops"",""up"",""left"",""good_move"",52655,3163,2910.8,49492,252.2,""oops"",""up"",""down"",""bad_move"",55645,2990,2975,52656,15,""while_blue"",""up"",""up"",""good_move"",70284,14638,1963.1,67838,482.9,""oops"",""up"",""up"",""good_move"",73456,3172,2546.8,70284,625.2,""oops"",""up"",""up"",""good_move"",76736,3280,2928.5,73456,351.5,""smooth"",""up"",""up"",""good_move""]","",""
"8798","","<div style=""width:500px;"">
  <p>What determined the result of this run?</p>
  </div>","42","html-slider-response","78","1282053","0.0-10.0-1.7","56","1","2025-07-02 10:18:53","80fe4187154257d5fb01684ea91b68b9","93.67.197.178","Mozilla/5.0 (Windows NT 10.0; Win64; x64; rv:140.0) Gecko/20100101 Firefox/140.0","","Firefox","140.0","Windows","10.0","https://app.prolific.com/","it-IT,it;q=0.8,en-US;q=0.5,en;q=0.3","5fb7b8880045d6396a86c803","683db6dfa200031b80f2a654","6865078548bb42926fc7a43a","5fb7b8880045d6396a86c803","2025-07-02T10:40:18.446Z","","","","","","AttribQ","","","","","","","","","","","","","","","","","","","","","","","","","","","","","","","","","","","","","","50"
"1425","","<div style=""width:500px;"">
  <p>How much control did you have over the ball?</p>
  </div>","33","html-slider-response","79","1283479","0.0-10.0-2.7","56","1","2025-07-02 10:18:53","80fe4187154257d5fb01684ea91b68b9","93.67.197.178","Mozilla/5.0 (Windows NT 10.0; Win64; x64; rv:140.0) Gecko/20100101 Firefox/140.0","","Firefox","140.0","Windows","10.0","https://app.prolific.com/","it-IT,it;q=0.8,en-US;q=0.5,en;q=0.3","5fb7b8880045d6396a86c803","683db6dfa200031b80f2a654","6865078548bb42926fc7a43a","5fb7b8880045d6396a86c803","2025-07-02T10:40:19.872Z","","","","","","ControlQ","","","","","","","","","","","","","","","","","","","","","","","","","","","","","","","","","","","","","","50"
"1099","","<div style=""width:500px;"">
  <p>How would you describe your current emotional state?</p>
  </div>","59","html-slider-response","80","1284578","0.0-10.0-3.7","56","1","2025-07-02 10:18:53","80fe4187154257d5fb01684ea91b68b9","93.67.197.178","Mozilla/5.0 (Windows NT 10.0; Win64; x64; rv:140.0) Gecko/20100101 Firefox/140.0","","Firefox","140.0","Windows","10.0","https://app.prolific.com/","it-IT,it;q=0.8,en-US;q=0.5,en;q=0.3","5fb7b8880045d6396a86c803","683db6dfa200031b80f2a654","6865078548bb42926fc7a43a","5fb7b8880045d6396a86c803","2025-07-02T10:40:20.971Z","","","","","","StressQ","","","","","","","","","","","","","","","","","","","","","","","","","","","","","","","","","","","","","","50"
"1421","","<div style=""width:500px;"">
  <p>What best describes how you currently feel?</p>
  </div>","34","html-slider-response","81","1286000","0.0-10.0-4.7","56","1","2025-07-02 10:18:53","80fe4187154257d5fb01684ea91b68b9","93.67.197.178","Mozilla/5.0 (Windows NT 10.0; Win64; x64; rv:140.0) Gecko/20100101 Firefox/140.0","","Firefox","140.0","Windows","10.0","https://app.prolific.com/","it-IT,it;q=0.8,en-US;q=0.5,en;q=0.3","5fb7b8880045d6396a86c803","683db6dfa200031b80f2a654","6865078548bb42926fc7a43a","5fb7b8880045d6396a86c803","2025-07-02T10:40:22.393Z","","","","","","MotivationQ","","","","","","","","","","","","","","","","","","","","","","","","","","","","","","","","","","","","","","50"
"","","","","ctl-task-cpt","82","1387633","0.0-10.0-0.8","56","1","2025-07-02 10:18:53","80fe4187154257d5fb01684ea91b68b9","93.67.197.178","Mozilla/5.0 (Windows NT 10.0; Win64; x64; rv:140.0) Gecko/20100101 Firefox/140.0","","Firefox","140.0","Windows","10.0","https://app.prolific.com/","it-IT,it;q=0.8,en-US;q=0.5,en;q=0.3","5fb7b8880045d6396a86c803","683db6dfa200031b80f2a654","6865078548bb42926fc7a43a","5fb7b8880045d6396a86c803","2025-07-02T10:42:04.026Z","","","","","","","","","","","","","","","","win-only","0","g1:NW,g2:SE","0.4","9","0","1287141","854","5862","98625","1","4","4","6","2","4","4","50","46","0.3787878787878788","1063","3000","285","[""down"",""right""]","{""num_key_presses"":28,""num_perfect"":12,""num_errors"":0,""num_randdir"":16,""num_randdir_good_moves"":5,""num_whilered"":0,""num_whileblue"":0,""num_blue"":3,""num_good_moves"":17}","[557.4285714285714,554.1285683768136,0,557.4285714285714,554.1285683768136,110,557.4285714285714,554.1285683768136,218,507.42857142857144,474.12856837681363,329,259.42857142857144,326.12856837681363,435,374.42857142857144,505.12856837681363,542,1020.4285714285714,1123.1285683768135,649,1157.4285714285713,1188.1285683768135,757,1191.4285714285713,1191.1285683768135,868,1090.4285714285713,1092.1285683768135,977,1043.4285714285713,1069.1285683768135,1085,1043.4285714285713,1069.1285683768135,1194,1059.4285714285713,1067.1285683768135,1303,1412.4285714285713,907.1285683768136,1410,1432.4285714285713,875.1285683768136,1517,1432.4285714285713,875.1285683768136,1627,1432.4285714285713,875.1285683768136,1738,1432.4285714285713,875.1285683768136,1849,1432.4285714285713,875.1285683768136,1960,1432.4285714285713,875.1285683768136,2067,1432.4285714285713,875.1285683768136,2175,1432.4285714285713,875.1285683768136,2286,1432.4285714285713,875.1285683768136,2395,1432.4285714285713,875.1285683768136,2501,1432.4285714285713,875.1285683768136,2610,1432.4285714285713,875.1285683768136,2720,1432.4285714285713,875.1285683768136,2830,1432.4285714285713,875.1285683768136,2937,1432.4285714285713,875.1285683768136,3048,1432.4285714285713,875.1285683768136,3157,1432.4285714285713,875.1285683768136,3265,1432.4285714285713,875.1285683768136,3374,1432.4285714285713,875.1285683768136,3481,1432.4285714285713,875.1285683768136,3592,1432.4285714285713,875.1285683768136,3703,1432.4285714285713,875.1285683768136,3813,1432.4285714285713,875.1285683768136,3921,1432.4285714285713,875.1285683768136,4032,1432.4285714285713,875.1285683768136,4140,1432.4285714285713,875.1285683768136,4248,1432.4285714285713,875.1285683768136,4355,1432.4285714285713,875.1285683768136,4465,1432.4285714285713,875.1285683768136,4573,1432.4285714285713,875.1285683768136,4682,1432.4285714285713,875.1285683768136,4791,1432.4285714285713,875.1285683768136,4901]","[4962,4962,2542.9,2029,390.1,""smooth"",""down"",""down"",""good_move"",8407,3445,3140.2,4962,304.8,""smooth"",""right"",""right"",""good_move"",11201,2794,2477.8,8407,316.2,""oops"",""down"",""left"",""bad_move"",14829,3628,3261.8,11201,366.2,""oops"",""down"",""down"",""good_move"",22305,7476,3170.9,18793,341.1,""smooth"",""right"",""right"",""good_move"",24488,2183,1598.6,22305,584.4,""smooth"",""down"",""down"",""good_move"",27470,2982,2575,24488,407,""oops"",""right"",""up"",""bad_move"",30624,3153,2871.8,27471,281.2,""oops"",""right"",""down"",""good_move"",33180,2556,2294.9,30624,261.1,""oops"",""right"",""left"",""bad_move"",36522,3342,3060.8,33180,281.2,""oops"",""right"",""left"",""bad_move"",39786,3264,2981.4,36522,282.6,""oops"",""right"",""up"",""bad_move"",42674,2888,2333,39786,555,""smooth"",""right"",""right"",""good_move"",49244,6570,1974.8,46889,380.2,""smooth"",""right"",""right"",""good_move"",51937,2693,2384.4,49244,308.6,""oops"",""right"",""right"",""good_move"",55111,3173,2859.3,51938,313.7,""smooth"",""right"",""right"",""good_move"",57639,2528,2155.2,55111,372.8,""oops"",""down"",""left"",""bad_move"",61296,3657,3382,57639,275,""smooth"",""down"",""down"",""good_move"",63415,2119,1787.9,61296,331.1,""oops"",""right"",""up"",""bad_move"",66348,2933,2576.3,63415,356.7,""oops"",""right"",""left"",""bad_move"",69267,2918,1599.7,66349,1318.3,""oops"",""right"",""down"",""good_move"",72340,3073,2767,69267,306,""oops"",""right"",""right"",""good_move"",75385,3045,2754.3,72340,290.7,""oops"",""right"",""up"",""bad_move"",78286,2901,1815.6,75385,1085.4,""smooth"",""right"",""right"",""good_move"",80524,2238,1892.2,78286,345.8,""oops"",""down"",""up"",""bad_move"",83438,2914,2033.5,80524,880.5,""oops"",""down"",""left"",""bad_move"",86338,2900,2543,83438,357,""smooth"",""down"",""down"",""good_move"",89682,3344,3098.4,86338,245.6,""smooth"",""right"",""right"",""good_move"",92480,2798,2545,89682,253,""smooth"",""down"",""down"",""good_move""]","",""
"6988","","<div style=""width:500px;"">
  <p>What determined the result of this run?</p>
  </div>","66","html-slider-response","83","1394622","0.0-10.0-1.8","56","1","2025-07-02 10:18:53","80fe4187154257d5fb01684ea91b68b9","93.67.197.178","Mozilla/5.0 (Windows NT 10.0; Win64; x64; rv:140.0) Gecko/20100101 Firefox/140.0","","Firefox","140.0","Windows","10.0","https://app.prolific.com/","it-IT,it;q=0.8,en-US;q=0.5,en;q=0.3","5fb7b8880045d6396a86c803","683db6dfa200031b80f2a654","6865078548bb42926fc7a43a","5fb7b8880045d6396a86c803","2025-07-02T10:42:11.015Z","","","","","","AttribQ","","","","","","","","","","","","","","","","","","","","","","","","","","","","","","","","","","","","","","50"
"2192","","<div style=""width:500px;"">
  <p>How much control did you have over the ball?</p>
  </div>","16","html-slider-response","84","1396814","0.0-10.0-2.8","56","1","2025-07-02 10:18:53","80fe4187154257d5fb01684ea91b68b9","93.67.197.178","Mozilla/5.0 (Windows NT 10.0; Win64; x64; rv:140.0) Gecko/20100101 Firefox/140.0","","Firefox","140.0","Windows","10.0","https://app.prolific.com/","it-IT,it;q=0.8,en-US;q=0.5,en;q=0.3","5fb7b8880045d6396a86c803","683db6dfa200031b80f2a654","6865078548bb42926fc7a43a","5fb7b8880045d6396a86c803","2025-07-02T10:42:13.207Z","","","","","","ControlQ","","","","","","","","","","","","","","","","","","","","","","","","","","","","","","","","","","","","","","50"
"1445","","<div style=""width:500px;"">
  <p>How would you describe your current emotional state?</p>
  </div>","65","html-slider-response","85","1398260","0.0-10.0-3.8","56","1","2025-07-02 10:18:53","80fe4187154257d5fb01684ea91b68b9","93.67.197.178","Mozilla/5.0 (Windows NT 10.0; Win64; x64; rv:140.0) Gecko/20100101 Firefox/140.0","","Firefox","140.0","Windows","10.0","https://app.prolific.com/","it-IT,it;q=0.8,en-US;q=0.5,en;q=0.3","5fb7b8880045d6396a86c803","683db6dfa200031b80f2a654","6865078548bb42926fc7a43a","5fb7b8880045d6396a86c803","2025-07-02T10:42:14.653Z","","","","","","StressQ","","","","","","","","","","","","","","","","","","","","","","","","","","","","","","","","","","","","","","50"
"1615","","<div style=""width:500px;"">
  <p>What best describes how you currently feel?</p>
  </div>","44","html-slider-response","86","1399874","0.0-10.0-4.8","56","1","2025-07-02 10:18:53","80fe4187154257d5fb01684ea91b68b9","93.67.197.178","Mozilla/5.0 (Windows NT 10.0; Win64; x64; rv:140.0) Gecko/20100101 Firefox/140.0","","Firefox","140.0","Windows","10.0","https://app.prolific.com/","it-IT,it;q=0.8,en-US;q=0.5,en;q=0.3","5fb7b8880045d6396a86c803","683db6dfa200031b80f2a654","6865078548bb42926fc7a43a","5fb7b8880045d6396a86c803","2025-07-02T10:42:16.267Z","","","","","","MotivationQ","","","","","","","","","","","","","","","","","","","","","","","","","","","","","","","","","","","","","","50"
