"rt","response_timestamp","stimulus","response","trial_type","trial_index","time_elapsed","internal_node_id","run_id","condition","recorded_at","source_code_version","ip","user_agent","device","browser","browser_version","platform","platform_version","referer","accept_language","PROLIFIC_PID","STUDY_ID","SESSION_ID","prolific_id","realtime","view_history","question_order","consent","success","question_id","eventType","responses","item_order","radio_event_ids","radio_event_times","key_event_times","mouse_event_times","straightlining","zigzagging","honeypot","which_type","canvas_config","goals_layout","control_level","trial_number","tutorial_trial_number","trial_start_time","phase1_start_time","phase2_start_time","phase3_start_time","goal_1_value","goal_1_distance","goal_2_value","goal_2_distance","goal_selected","outcome","outcome_total","participant_final_score","participant_initial_score","participant_final_score_prop","goal_choice_rt","allocated_time","allocated_time_remaining","goal_direction","counts","mouse_movements","key_presses","correct","slider_start","sub_question"
"12073","1751451533079","<p style='font-size:40px;line-height:1.25'><strong>Welcome to the experiment!</strong></p><p style='font-size:1.1em;line-height:1.25'>Thank you for your interest in our experiment! Before you begin, it is important that we obtain your informed consent to participate in the study.</p><p style='font-size:1.1em;line-height:1.25'>On the next screen will be an <strong>information sheet</strong> for you to read. To participate in the study we need you to read this information sheet and the following consent form carefully. If you agree with all the statements, please click the <strong>I agree</strong> button.</p><p style='font-size:1.1em;line-height:1.25'>Press <strong>Next</strong> to read the information sheet.</p>","0","custom-html-button-response","0","12078","0.0-0.0","35","1","2025-07-02 10:18:39","80fe4187154257d5fb01684ea91b68b9","192.76.8.198","Mozilla/5.0 (Macintosh; Intel Mac OS X 10_15_7) AppleWebKit/537.36 (KHTML, like Gecko) Chrome/137.0.0.0 Safari/537.36","Macintosh","Chrome","137.0.0.0","OS X","10_15_7","https://app.prolific.com/","en-GB,en-US;q=0.9,en;q=0.8","5fe0b183d8918b2030aa99a0","683db6dfa200031b80f2a654","6865077ce0815de38f4df338","5fe0b183d8918b2030aa99a0","2025-07-02T10:18:53.080Z","","","","","","","","","","","","","","","","","","","","","","","","","","","","","","","","","","","","","","","","","","","","",""
"8629","","","","instructions","1","20710","0.0-1.0","35","1","2025-07-02 10:18:39","80fe4187154257d5fb01684ea91b68b9","192.76.8.198","Mozilla/5.0 (Macintosh; Intel Mac OS X 10_15_7) AppleWebKit/537.36 (KHTML, like Gecko) Chrome/137.0.0.0 Safari/537.36","Macintosh","Chrome","137.0.0.0","OS X","10_15_7","https://app.prolific.com/","en-GB,en-US;q=0.9,en;q=0.8","5fe0b183d8918b2030aa99a0","683db6dfa200031b80f2a654","6865077ce0815de38f4df338","5fe0b183d8918b2030aa99a0","","[{""page_index"":0,""viewing_time"":5317},{""page_index"":1,""viewing_time"":3311}]","","","","","","","","","","","","","","","","","","","","","","","","","","","","","","","","","","","","","","","","","","","",""
"3016","","","{""Q0"":"""",""Q1"":"""",""Q2"":"""",""Q3"":"""",""Q4"":"""",""Q5"":"""",""Q6"":""I agree""}","survey-multi-choice","2","23731","0.0-2.0","35","1","2025-07-02 10:18:39","80fe4187154257d5fb01684ea91b68b9","192.76.8.198","Mozilla/5.0 (Macintosh; Intel Mac OS X 10_15_7) AppleWebKit/537.36 (KHTML, like Gecko) Chrome/137.0.0.0 Safari/537.36","Macintosh","Chrome","137.0.0.0","OS X","10_15_7","https://app.prolific.com/","en-GB,en-US;q=0.9,en;q=0.8","5fe0b183d8918b2030aa99a0","683db6dfa200031b80f2a654","6865077ce0815de38f4df338","5fe0b183d8918b2030aa99a0","","","[0,1,2,3,4,5,6]","true","","","","","","","","","","","","","","","","","","","","","","","","","","","","","","","","","","","","","","","","","",""
"4401","","","","fullscreen","3","29137","0.0-4.0","35","1","2025-07-02 10:18:39","80fe4187154257d5fb01684ea91b68b9","192.76.8.198","Mozilla/5.0 (Macintosh; Intel Mac OS X 10_15_7) AppleWebKit/537.36 (KHTML, like Gecko) Chrome/137.0.0.0 Safari/537.36","Macintosh","Chrome","137.0.0.0","OS X","10_15_7","https://app.prolific.com/","en-GB,en-US;q=0.9,en;q=0.8","5fe0b183d8918b2030aa99a0","683db6dfa200031b80f2a654","6865077ce0815de38f4df338","5fe0b183d8918b2030aa99a0","","","","","true","","","","","","","","","","","","","","","","","","","","","","","","","","","","","","","","","","","","","","","","",""
"3921","1751451554061"," <p style='font-size:1.1em;line-height:1.25'>Thank you for completing the consent form and closing all other tabs.</p><p style='font-size:1.1em;line-height:1.25'>We will now invite you to fill in some demographic information and questionnaires, before starting the game.<br>This will take about 5 minutes.<br></p><p style='font-size:1.1em;line-height:1.25'>Press the <strong>Next</strong> button to continue.</p>","0","custom-html-button-response","4","33060","0.0-5.0","35","1","2025-07-02 10:18:39","80fe4187154257d5fb01684ea91b68b9","192.76.8.198","Mozilla/5.0 (Macintosh; Intel Mac OS X 10_15_7) AppleWebKit/537.36 (KHTML, like Gecko) Chrome/137.0.0.0 Safari/537.36","Macintosh","Chrome","137.0.0.0","OS X","10_15_7","https://app.prolific.com/","en-GB,en-US;q=0.9,en;q=0.8","5fe0b183d8918b2030aa99a0","683db6dfa200031b80f2a654","6865077ce0815de38f4df338","5fe0b183d8918b2030aa99a0","2025-07-02T10:19:14.062Z","","","","","","","","","","","","","","","","","","","","","","","","","","","","","","","","","","","","","","","","","","","","",""
"1995","","","{""age"":""26""}","survey-text","5","35059","0.0-6.0-0.0","35","1","2025-07-02 10:18:39","80fe4187154257d5fb01684ea91b68b9","192.76.8.198","Mozilla/5.0 (Macintosh; Intel Mac OS X 10_15_7) AppleWebKit/537.36 (KHTML, like Gecko) Chrome/137.0.0.0 Safari/537.36","Macintosh","Chrome","137.0.0.0","OS X","10_15_7","https://app.prolific.com/","en-GB,en-US;q=0.9,en;q=0.8","5fe0b183d8918b2030aa99a0","683db6dfa200031b80f2a654","6865077ce0815de38f4df338","5fe0b183d8918b2030aa99a0","","","","","","0","demographics","","","","","","","","","","","","","","","","","","","","","","","","","","","","","","","","","","","","","","",""
"1745","","","{""gender_identity"":""female/woman""}","survey-multi-choice","6","36805","0.0-6.0-1.0","35","1","2025-07-02 10:18:39","80fe4187154257d5fb01684ea91b68b9","192.76.8.198","Mozilla/5.0 (Macintosh; Intel Mac OS X 10_15_7) AppleWebKit/537.36 (KHTML, like Gecko) Chrome/137.0.0.0 Safari/537.36","Macintosh","Chrome","137.0.0.0","OS X","10_15_7","https://app.prolific.com/","en-GB,en-US;q=0.9,en;q=0.8","5fe0b183d8918b2030aa99a0","683db6dfa200031b80f2a654","6865077ce0815de38f4df338","5fe0b183d8918b2030aa99a0","","","[0]","","","1","demographics","","","","","","","","","","","","","","","","","","","","","","","","","","","","","","","","","","","","","","",""
"1937","","","{""assigned_sex"":""female""}","survey-multi-choice","7","38743","0.0-6.0-2.0","35","1","2025-07-02 10:18:39","80fe4187154257d5fb01684ea91b68b9","192.76.8.198","Mozilla/5.0 (Macintosh; Intel Mac OS X 10_15_7) AppleWebKit/537.36 (KHTML, like Gecko) Chrome/137.0.0.0 Safari/537.36","Macintosh","Chrome","137.0.0.0","OS X","10_15_7","https://app.prolific.com/","en-GB,en-US;q=0.9,en;q=0.8","5fe0b183d8918b2030aa99a0","683db6dfa200031b80f2a654","6865077ce0815de38f4df338","5fe0b183d8918b2030aa99a0","","","[0]","","","2","demographics","","","","","","","","","","","","","","","","","","","","","","","","","","","","","","","","","","","","","","",""
"3092","","","{""menstrual_cycle"":""Yes""}","survey-multi-choice","8","41836","0.0-6.0-3.0","35","1","2025-07-02 10:18:39","80fe4187154257d5fb01684ea91b68b9","192.76.8.198","Mozilla/5.0 (Macintosh; Intel Mac OS X 10_15_7) AppleWebKit/537.36 (KHTML, like Gecko) Chrome/137.0.0.0 Safari/537.36","Macintosh","Chrome","137.0.0.0","OS X","10_15_7","https://app.prolific.com/","en-GB,en-US;q=0.9,en;q=0.8","5fe0b183d8918b2030aa99a0","683db6dfa200031b80f2a654","6865077ce0815de38f4df338","5fe0b183d8918b2030aa99a0","","","[0]","","","4","demographics","","","","","","","","","","","","","","","","","","","","","","","","","","","","","","","","","","","","","","",""
"2762","","","{""education"":""Master's Degree (e.g., MSc)""}","survey-multi-choice","9","44599","0.0-6.0-4.0","35","1","2025-07-02 10:18:39","80fe4187154257d5fb01684ea91b68b9","192.76.8.198","Mozilla/5.0 (Macintosh; Intel Mac OS X 10_15_7) AppleWebKit/537.36 (KHTML, like Gecko) Chrome/137.0.0.0 Safari/537.36","Macintosh","Chrome","137.0.0.0","OS X","10_15_7","https://app.prolific.com/","en-GB,en-US;q=0.9,en;q=0.8","5fe0b183d8918b2030aa99a0","683db6dfa200031b80f2a654","6865077ce0815de38f4df338","5fe0b183d8918b2030aa99a0","","","[0]","","","5","demographics","","","","","","","","","","","","","","","","","","","","","","","","","","","","","","","","","","","","","","",""
"5454","","","{""education"":""Vocational Qualifications (e.g. City & Guilds)""}","survey-multi-choice","10","50055","0.0-6.0-5.0","35","1","2025-07-02 10:18:39","80fe4187154257d5fb01684ea91b68b9","192.76.8.198","Mozilla/5.0 (Macintosh; Intel Mac OS X 10_15_7) AppleWebKit/537.36 (KHTML, like Gecko) Chrome/137.0.0.0 Safari/537.36","Macintosh","Chrome","137.0.0.0","OS X","10_15_7","https://app.prolific.com/","en-GB,en-US;q=0.9,en;q=0.8","5fe0b183d8918b2030aa99a0","683db6dfa200031b80f2a654","6865077ce0815de38f4df338","5fe0b183d8918b2030aa99a0","2025-07-02T10:19:31.058Z","","[0]","","","6","demographics","","","","","","","","","","","","","","","","","","","","","","","","","","","","","","","","","","","","","","",""
"4672","","","{""mental_health_condition"":""no"",""mental_health_treatment"":""no"",""psychiatric_medication"":""no""}","survey-text","11","54729","0.0-7.0-0.0","35","1","2025-07-02 10:18:39","80fe4187154257d5fb01684ea91b68b9","192.76.8.198","Mozilla/5.0 (Macintosh; Intel Mac OS X 10_15_7) AppleWebKit/537.36 (KHTML, like Gecko) Chrome/137.0.0.0 Safari/537.36","Macintosh","Chrome","137.0.0.0","OS X","10_15_7","https://app.prolific.com/","en-GB,en-US;q=0.9,en;q=0.8","5fe0b183d8918b2030aa99a0","683db6dfa200031b80f2a654","6865077ce0815de38f4df338","5fe0b183d8918b2030aa99a0","2025-07-02T10:19:35.731Z","","","","","1","mental_health","","","","","","","","","","","","","","","","","","","","","","","","","","","","","","","","","","","","","","",""
"6016","","","{""depression_history"":[""Yes""]}","survey-multi-select","12","60749","0.0-7.0-1.0","35","1","2025-07-02 10:18:39","80fe4187154257d5fb01684ea91b68b9","192.76.8.198","Mozilla/5.0 (Macintosh; Intel Mac OS X 10_15_7) AppleWebKit/537.36 (KHTML, like Gecko) Chrome/137.0.0.0 Safari/537.36","Macintosh","Chrome","137.0.0.0","OS X","10_15_7","https://app.prolific.com/","en-GB,en-US;q=0.9,en;q=0.8","5fe0b183d8918b2030aa99a0","683db6dfa200031b80f2a654","6865077ce0815de38f4df338","5fe0b183d8918b2030aa99a0","","","[0]","","","","mental_health","","","","","","","","","","","","","","","","","","","","","","","","","","","","","","","","","","","","","","",""
"11460","","","{""depression_episodes"":""3-5"",""depression_recent"":""More than 1 year ago""}","survey-multi-choice","13","72211","0.0-7.0-2.0-0.0","35","1","2025-07-02 10:18:39","80fe4187154257d5fb01684ea91b68b9","192.76.8.198","Mozilla/5.0 (Macintosh; Intel Mac OS X 10_15_7) AppleWebKit/537.36 (KHTML, like Gecko) Chrome/137.0.0.0 Safari/537.36","Macintosh","Chrome","137.0.0.0","OS X","10_15_7","https://app.prolific.com/","en-GB,en-US;q=0.9,en;q=0.8","5fe0b183d8918b2030aa99a0","683db6dfa200031b80f2a654","6865077ce0815de38f4df338","5fe0b183d8918b2030aa99a0","2025-07-02T10:19:53.214Z","","[0,1]","","","3","mental_health","","","","","","","","","","","","","","","","","","","","","","","","","","","","","","","","","","","","","","",""
"31364.400000095367","","","","survey-template","14","103582","0.0-7.0-3.0","35","1","2025-07-02 10:18:39","80fe4187154257d5fb01684ea91b68b9","192.76.8.198","Mozilla/5.0 (Macintosh; Intel Mac OS X 10_15_7) AppleWebKit/537.36 (KHTML, like Gecko) Chrome/137.0.0.0 Safari/537.36","Macintosh","Chrome","137.0.0.0","OS X","10_15_7","https://app.prolific.com/","en-GB,en-US;q=0.9,en;q=0.8","5fe0b183d8918b2030aa99a0","683db6dfa200031b80f2a654","6865077ce0815de38f4df338","5fe0b183d8918b2030aa99a0","2025-07-02T10:20:24.584Z","","","","","","ius","{""Q01"":""1"",""Q02"":""2"",""Q03"":""1"",""Q04"":""1"",""Q05"":""1"",""Q06"":""2"",""Q07"":""1"",""Q08"":""0"",""Q09"":""1"",""Q10"":""1"",""Q11"":""1"",""Q12"":""2"",""Q13"":""1""}","[0,1,2,3,4,5,6,7,8,9,10,11,12]","[""Q01"",""Q02"",""Q03"",""Q04"",""Q05"",""Q06"",""Q07"",""Q08"",""Q09"",""Q10"",""Q11"",""Q12"",""Q13""]","[2742.9000000953674,6304.5,7535.900000095367,9941.800000190735,14423,15426.400000095367,18281.199999809265,20923.5,23148.900000095367,24674.099999904633,25859.599999904633,28310.300000190735,30545.400000095367]","[]","[2742.9000000953674,5349.900000095367,6304.5,7535.900000095367,9941.800000190735,13487.900000095367,14423,15426.400000095367,16992.400000095367,18281.199999809265,19651.699999809265,20256.400000095367,20923.5,22425.699999809265,23148.900000095367,24674.099999904633,25859.599999904633,27695.5,28310.300000190735,29425.400000095367,30056.5,30545.400000095367,31363]","0.6923076923076923","0.6666666666666666","0","","","","","","","","","","","","","","","","","","","","","","","","","","","","","",""
"1338","1751451625923","<p style='font-size:1.1em;line-height:1.25'>In the following, we will ask you a few questions relating to your experiences over the past month.<br></p><p style='font-size:1.1em;line-height:1.25'>Press the <strong>Next</strong> button to continue.</p>","0","custom-html-button-response","15","104922","0.0-7.0-4.0","35","1","2025-07-02 10:18:39","80fe4187154257d5fb01684ea91b68b9","192.76.8.198","Mozilla/5.0 (Macintosh; Intel Mac OS X 10_15_7) AppleWebKit/537.36 (KHTML, like Gecko) Chrome/137.0.0.0 Safari/537.36","Macintosh","Chrome","137.0.0.0","OS X","10_15_7","https://app.prolific.com/","en-GB,en-US;q=0.9,en;q=0.8","5fe0b183d8918b2030aa99a0","683db6dfa200031b80f2a654","6865077ce0815de38f4df338","5fe0b183d8918b2030aa99a0","2025-07-02T10:20:25.924Z","","","","","","","","","","","","","","","","","","","","","","","","","","","","","","","","","","","","","","","","","","","","",""
"52869.7999997139","","","","survey-template","16","157794","0.0-7.0-5.0","35","1","2025-07-02 10:18:39","80fe4187154257d5fb01684ea91b68b9","192.76.8.198","Mozilla/5.0 (Macintosh; Intel Mac OS X 10_15_7) AppleWebKit/537.36 (KHTML, like Gecko) Chrome/137.0.0.0 Safari/537.36","Macintosh","Chrome","137.0.0.0","OS X","10_15_7","https://app.prolific.com/","en-GB,en-US;q=0.9,en;q=0.8","5fe0b183d8918b2030aa99a0","683db6dfa200031b80f2a654","6865077ce0815de38f4df338","5fe0b183d8918b2030aa99a0","2025-07-02T10:21:18.796Z","","","","","","pss","{""Q01"":""1"",""Q02"":""2"",""Q03"":""2"",""Q04"":""2"",""Q05"":""2"",""Q06"":""2"",""Q07"":""0"",""Q08"":""2"",""Q09"":""0"",""Q10"":""2""}","[0,1,2,3,4,5,6,7,8,9]","[""Q01"",""Q02"",""Q02"",""Q03"",""Q04"",""Q04"",""Q04"",""Q05"",""Q06"",""Q07"",""Q07"",""Q08"",""Q08"",""Q09"",""Q10""]","[4822.39999961853,7273.099999904633,9123.299999713898,13920.39999961853,15945,17648.799999713898,19517.099999904633,21256,25527.799999713898,29810.699999809265,34094.199999809265,42892.699999809265,44166.699999809265,48013.699999809265,50498.5]","[]","[2.3999996185302734,4822.39999961853,7273.099999904633,9123.299999713898,12981.199999809265,13920.39999961853,15945,16925.099999904633,17648.799999713898,19517.099999904633,21256,24696.599999904633,25527.799999713898,29059.89999961853,29810.699999809265,34094.199999809265,42892.699999809265,44166.699999809265,47243.699999809265,48013.699999809265,50498.5,52868.89999961853]","0.7","0.1111111111111111","0","","","","","","","","","","","","","","","","","","","","","","","","","","","","","",""
"1965","1751451680763","<p style='font-size:1.1em;line-height:1.25'>Thank you for your answers! Now we will ask you a few more questions relating to your feelings in the last 24 hours.<br></p><p style='font-size:1.1em;line-height:1.25'>Press the <strong>Next</strong> button to continue.</p>","0","custom-html-button-response","17","159761","0.0-7.0-6.0","35","1","2025-07-02 10:18:39","80fe4187154257d5fb01684ea91b68b9","192.76.8.198","Mozilla/5.0 (Macintosh; Intel Mac OS X 10_15_7) AppleWebKit/537.36 (KHTML, like Gecko) Chrome/137.0.0.0 Safari/537.36","Macintosh","Chrome","137.0.0.0","OS X","10_15_7","https://app.prolific.com/","en-GB,en-US;q=0.9,en;q=0.8","5fe0b183d8918b2030aa99a0","683db6dfa200031b80f2a654","6865077ce0815de38f4df338","5fe0b183d8918b2030aa99a0","2025-07-02T10:21:20.763Z","","","","","","","","","","","","","","","","","","","","","","","","","","","","","","","","","","","","","","","","","","","","",""
"56213.699999809265","","","","survey-template","18","215979","0.0-7.0-7.0","35","1","2025-07-02 10:18:39","80fe4187154257d5fb01684ea91b68b9","192.76.8.198","Mozilla/5.0 (Macintosh; Intel Mac OS X 10_15_7) AppleWebKit/537.36 (KHTML, like Gecko) Chrome/137.0.0.0 Safari/537.36","Macintosh","Chrome","137.0.0.0","OS X","10_15_7","https://app.prolific.com/","en-GB,en-US;q=0.9,en;q=0.8","5fe0b183d8918b2030aa99a0","683db6dfa200031b80f2a654","6865077ce0815de38f4df338","5fe0b183d8918b2030aa99a0","2025-07-02T10:22:16.981Z","","","","","","drsp","{""Q01"":""1"",""Q02"":""0"",""Q03"":""0"",""Q04"":""3"",""Q05"":""0"",""Q06"":""0"",""Q07"":""0"",""Q08"":""0"",""Q09"":""1"",""Q10"":""3"",""Q11"":""2"",""Q12"":""0"",""Q13"":""0"",""Q14"":""2"",""Q15"":""2"",""Q16"":""2"",""Q17"":""1"",""Q18"":""0"",""Q19"":""0"",""Q20"":""0"",""Q21"":""0""}","[0,1,2,3,4,5,6,7,8,9,10,11,12,13,14,15,16,17,18,19,20]","[""Q01"",""Q02"",""Q02"",""Q03"",""Q04"",""Q05"",""Q06"",""Q07"",""Q08"",""Q09"",""Q10"",""Q11"",""Q12"",""Q13"",""Q14"",""Q15"",""Q16"",""Q17"",""Q18"",""Q19"",""Q20"",""Q21""]","[1742.1999998092651,2696.4000000953674,5345.900000095367,6326.5,8302.799999713898,11353.900000095367,14464.199999809265,17973.5,18718.900000095367,20441.900000095367,22113.599999904633,23690.099999904633,26286.799999713898,27044,29325.199999809265,31387.400000095367,33630,36817.199999809265,37535.40000009537,40117.2999997139,42382.59999990463,47398.40000009537]","[]","[4.199999809265137,1742.1999998092651,2696.4000000953674,5345.900000095367,6326.5,7717.699999809265,8302.799999713898,10437.900000095367,11353.900000095367,14464.199999809265,17973.5,18718.900000095367,20441.900000095367,22113.599999904633,23690.099999904633,25639.400000095367,26286.799999713898,27044,29325.199999809265,31387.400000095367,33630,35967.199999809265,36817.199999809265,37535.40000009537,40117.2999997139,42382.59999990463,46647.699999809265,47398.40000009537,56211.59999990463]","0.5714285714285714","0.25","0","","","","","","","","","","","","","","","","","","","","","","","","","","","","","",""
"18414.400000095367","","","","survey-template","19","234395","0.0-7.0-8.0","35","1","2025-07-02 10:18:39","80fe4187154257d5fb01684ea91b68b9","192.76.8.198","Mozilla/5.0 (Macintosh; Intel Mac OS X 10_15_7) AppleWebKit/537.36 (KHTML, like Gecko) Chrome/137.0.0.0 Safari/537.36","Macintosh","Chrome","137.0.0.0","OS X","10_15_7","https://app.prolific.com/","en-GB,en-US;q=0.9,en;q=0.8","5fe0b183d8918b2030aa99a0","683db6dfa200031b80f2a654","6865077ce0815de38f4df338","5fe0b183d8918b2030aa99a0","2025-07-02T10:22:35.397Z","","","","","","stress","{""Q01"":""3"",""Q02"":""3"",""Q03"":""2""}","[0,1,2]","[""Q01"",""Q02"",""Q03"",""Q03""]","[6713.900000095367,12949.700000286102,16154.700000286102,17421.900000095367]","[]","[6713.900000095367,12949.700000286102,15581,16154.700000286102,16930.200000286102,17421.900000095367,18413.900000095367]","0.6666666666666666","0.5","0","","","","","","","","","","","","","","","","","","","","","","","","","","","","","",""
"35414","","","","instructions","20","269810","0.0-8.0-0.0","35","1","2025-07-02 10:18:39","80fe4187154257d5fb01684ea91b68b9","192.76.8.198","Mozilla/5.0 (Macintosh; Intel Mac OS X 10_15_7) AppleWebKit/537.36 (KHTML, like Gecko) Chrome/137.0.0.0 Safari/537.36","Macintosh","Chrome","137.0.0.0","OS X","10_15_7","https://app.prolific.com/","en-GB,en-US;q=0.9,en;q=0.8","5fe0b183d8918b2030aa99a0","683db6dfa200031b80f2a654","6865077ce0815de38f4df338","5fe0b183d8918b2030aa99a0","","[{""page_index"":0,""viewing_time"":9066},{""page_index"":1,""viewing_time"":11807},{""page_index"":2,""viewing_time"":4436},{""page_index"":3,""viewing_time"":10103}]","","","","","","","","","","","","","","","","","","","","","","","","","","","","","","","","","","","","","","","","","","","",""
"","","","","ctl-task-cpt","21","295578","0.0-8.0-1.0","35","1","2025-07-02 10:18:39","80fe4187154257d5fb01684ea91b68b9","192.76.8.198","Mozilla/5.0 (Macintosh; Intel Mac OS X 10_15_7) AppleWebKit/537.36 (KHTML, like Gecko) Chrome/137.0.0.0 Safari/537.36","Macintosh","Chrome","137.0.0.0","OS X","10_15_7","https://app.prolific.com/","en-GB,en-US;q=0.9,en;q=0.8","5fe0b183d8918b2030aa99a0","683db6dfa200031b80f2a654","6865077ce0815de38f4df338","5fe0b183d8918b2030aa99a0","","","","","","","","","","","","","","","","","win-only","0","g1:NW,g2:SE","1","0","1","271880.3","2504.9","6506.6","22752.7","2","4","4","6","2","4","3","3","0","0.022727272727272728","1696.2","4000","1700","[""down"",""right""]","{""num_key_presses"":6,""num_perfect"":5,""num_errors"":1,""num_randdir"":0,""num_randdir_good_moves"":0,""num_whilered"":0,""num_whileblue"":1,""num_blue"":1,""num_good_moves"":6}","[707.7142857142857,709.5111607142857,1,707.7142857142857,709.5111607142857,101.4,707.7142857142857,709.5111607142857,206.9,707.7142857142857,709.5111607142857,306.9,707.7142857142857,709.5111607142857,411.2,707.7142857142857,709.5111607142857,511.6,687.7142857142857,707.5111607142857,611.7,605.7142857142857,605.5111607142857,715.5,593.7142857142857,585.5111607142857,816.6,613.7142857142857,637.5111607142857,916.6,891.7142857142857,981.5111607142857,1017,959.7142857142857,1037.5111607142858,1121.1,959.7142857142857,1037.5111607142858,1221.2,1045.7142857142858,1077.5111607142858,1326.5,1221.7142857142858,1215.5111607142858,1430.6,1223.7142857142858,1225.5111607142858,1531.3,1231.7142857142858,1237.5111607142858,1631.7,1253.7142857142858,1251.5111607142858,1736.2,1253.7142857142858,1251.5111607142858,1844.7,1253.7142857142858,1251.5111607142858,1946.4,1253.7142857142858,1251.5111607142858,2052.5,1253.7142857142858,1251.5111607142858,2156.4,1253.7142857142858,1251.5111607142858,2256.5,1253.7142857142858,1251.5111607142858,2356.5,1253.7142857142858,1251.5111607142858,2456.9,1253.7142857142858,1251.5111607142858,2560.7,1253.7142857142858,1251.5111607142858,2661.1,1253.7142857142858,1251.5111607142858,2761.7,1253.7142857142858,1251.5111607142858,2866.5,1253.7142857142858,1251.5111607142858,2971.3,1253.7142857142858,1251.5111607142858,3076.9,1253.7142857142858,1251.5111607142858,3181.3,1253.7142857142858,1251.5111607142858,3287.1,1253.7142857142858,1251.5111607142858,3391.6,1253.7142857142858,1251.5111607142858,3491.7,1253.7142857142858,1251.5111607142858,3592.4,1253.7142857142858,1251.5111607142858,3696.3,1253.7142857142858,1251.5111607142858,3796.5,1253.7142857142858,1251.5111607142858,3901.7]","[1507.5,1507.4,1000,0.1,507.4,""smooth"",""right"",""right"",""good_move"",4145.6,2637.4,2200.9,1508.2,436.5,""smooth"",""right"",""right"",""good_move"",6819.4,2673.6,2344.8,4145.8,328.9,""while_blue"",""right"",""down"",""good_move"",9441.9,2622.2,2040.5,6819.7,581.7,""smooth"",""right"",""right"",""good_move"",12855.2,3413.1,2955.3,9442.1,457.8,""smooth"",""down"",""down"",""good_move"",16155.9,3300.5,2909.2,12855.4,391.3,""smooth"",""down"",""down"",""good_move""]","","",""
"6779","","","","instructions","22","302358","0.0-8.0-2.0","35","1","2025-07-02 10:18:39","80fe4187154257d5fb01684ea91b68b9","192.76.8.198","Mozilla/5.0 (Macintosh; Intel Mac OS X 10_15_7) AppleWebKit/537.36 (KHTML, like Gecko) Chrome/137.0.0.0 Safari/537.36","Macintosh","Chrome","137.0.0.0","OS X","10_15_7","https://app.prolific.com/","en-GB,en-US;q=0.9,en;q=0.8","5fe0b183d8918b2030aa99a0","683db6dfa200031b80f2a654","6865077ce0815de38f4df338","5fe0b183d8918b2030aa99a0","","[{""page_index"":0,""viewing_time"":6779}]","","","","","","","","","","","","","","","","","","","","","","","","","","","","","","","","","","","","","","","","","","","",""
"","","","","ctl-task-cpt","23","343157","0.0-8.0-3.0","35","1","2025-07-02 10:18:39","80fe4187154257d5fb01684ea91b68b9","192.76.8.198","Mozilla/5.0 (Macintosh; Intel Mac OS X 10_15_7) AppleWebKit/537.36 (KHTML, like Gecko) Chrome/137.0.0.0 Safari/537.36","Macintosh","Chrome","137.0.0.0","OS X","10_15_7","https://app.prolific.com/","en-GB,en-US;q=0.9,en;q=0.8","5fe0b183d8918b2030aa99a0","683db6dfa200031b80f2a654","6865077ce0815de38f4df338","5fe0b183d8918b2030aa99a0","","","","","","","","","","","","","","","","","win-only","0","g1:NW,g2:SE","0.35","0","3","304419.5","1158","5161","37791.1","2","4","8","6","2","-8","-8","0","0","0","1623","4000","-3000","[""down"",""right""]","{""num_key_presses"":10,""num_perfect"":4,""num_errors"":0,""num_randdir"":6,""num_randdir_good_moves"":2,""num_whilered"":0,""num_whileblue"":0,""num_blue"":1,""num_good_moves"":6}","[717.7142857142857,711.5111607142857,0.3,717.7142857142857,711.5111607142857,102.4,717.7142857142857,711.5111607142857,202.6,717.7142857142857,711.5111607142857,302.6,717.7142857142857,711.5111607142857,407.9,717.7142857142857,711.5111607142857,508.2,705.7142857142857,717.5111607142857,613,579.7142857142857,599.5111607142857,713.3,577.7142857142857,587.5111607142857,813.6,695.7142857142857,699.5111607142857,917.9,1089.7142857142858,1197.5111607142858,1023.3,1089.7142857142858,1197.5111607142858,1127.7,1091.7142857142858,1197.5111607142858,1228.4,1191.7142857142858,1237.5111607142858,1333.5,1249.7142857142858,1283.5111607142858,1437.5,1261.7142857142858,1285.5111607142858,1537.7,1263.7142857142858,1289.5111607142858,1637.9,1263.7142857142858,1289.5111607142858,1737.9,1263.7142857142858,1289.5111607142858,1838.2,1263.7142857142858,1289.5111607142858,1943.9,1263.7142857142858,1289.5111607142858,2047.9,1263.7142857142858,1289.5111607142858,2152.3,1263.7142857142858,1289.5111607142858,2252.8,1263.7142857142858,1289.5111607142858,2353.2,1263.7142857142858,1289.5111607142858,2458.2,1263.7142857142858,1289.5111607142858,2563,1263.7142857142858,1289.5111607142858,2667.8,1263.7142857142858,1289.5111607142858,2768.4,1263.7142857142858,1289.5111607142858,2868.4,1263.7142857142858,1289.5111607142858,2968.4,1263.7142857142858,1289.5111607142858,3068.4,1263.7142857142858,1289.5111607142858,3172.7,1263.7142857142858,1289.5111607142858,3278.5,1263.7142857142858,1289.5111607142858,3383.8,1263.7142857142858,1289.5111607142858,3487.9,1263.7142857142858,1289.5111607142858,3593,1263.7142857142858,1289.5111607142858,3693,1263.7142857142858,1289.5111607142858,3798.2,1263.7142857142858,1289.5111607142858,3898.5]","[1386.3,1386.3,1000,0,386.3,""oops"",""right"",""down"",""good_move"",4150.2,2763.8,2329.5,1386.4,434.3,""smooth"",""right"",""right"",""good_move"",6738.1,2587.7,2187.8,4150.4,399.9,""smooth"",""right"",""right"",""good_move"",10205.5,3467,3135.5,6738.5,331.5,""oops"",""right"",""down"",""good_move"",12595.3,2389.4,2029.4,10205.9,360,""oops"",""right"",""up"",""bad_move"",14887.7,2292,1887.6,12595.7,404.5,""smooth"",""down"",""down"",""good_move"",21554,6666,2471.5,18689.7,392.8,""smooth"",""right"",""right"",""good_move"",24610.7,3056.5,2607.6,21554.2,448.9,""oops"",""down"",""up"",""bad_move"",26851.7,2240.8,1817.8,24610.9,423,""oops"",""down"",""left"",""bad_move"",30040.1,3188,2836.1,26852.1,351.9,""oops"",""down"",""left"",""bad_move""]","","",""
"12256","","","","instructions","24","355413","0.0-8.0-4.0","35","1","2025-07-02 10:18:39","80fe4187154257d5fb01684ea91b68b9","192.76.8.198","Mozilla/5.0 (Macintosh; Intel Mac OS X 10_15_7) AppleWebKit/537.36 (KHTML, like Gecko) Chrome/137.0.0.0 Safari/537.36","Macintosh","Chrome","137.0.0.0","OS X","10_15_7","https://app.prolific.com/","en-GB,en-US;q=0.9,en;q=0.8","5fe0b183d8918b2030aa99a0","683db6dfa200031b80f2a654","6865077ce0815de38f4df338","5fe0b183d8918b2030aa99a0","","[{""page_index"":0,""viewing_time"":4418},{""page_index"":1,""viewing_time"":7837}]","","","","","","","","","","","","","","","","","","","","","","","","","","","","","","","","","","","","","","","","","","","",""
"5211","","","{""green_ball"":[""Ball sometimes shakes and moves in a random direction""]}","survey-multi-select","25","360628","0.0-8.0-5.0-0.0","35","1","2025-07-02 10:18:39","80fe4187154257d5fb01684ea91b68b9","192.76.8.198","Mozilla/5.0 (Macintosh; Intel Mac OS X 10_15_7) AppleWebKit/537.36 (KHTML, like Gecko) Chrome/137.0.0.0 Safari/537.36","Macintosh","Chrome","137.0.0.0","OS X","10_15_7","https://app.prolific.com/","en-GB,en-US;q=0.9,en;q=0.8","5fe0b183d8918b2030aa99a0","683db6dfa200031b80f2a654","6865077ce0815de38f4df338","5fe0b183d8918b2030aa99a0","","","[0]","","","","quiz","","","","","","","","","","","","","","","","","","","","","","","","","","","","","","","","","","","","","true","",""
"1266","","<p align='center'><b>CORRECT!</b> Indeed, the green ball may sometimes shake and move in a random direction.</p>","0","html-button-response","26","361896","0.0-8.0-5.0-1.0","35","1","2025-07-02 10:18:39","80fe4187154257d5fb01684ea91b68b9","192.76.8.198","Mozilla/5.0 (Macintosh; Intel Mac OS X 10_15_7) AppleWebKit/537.36 (KHTML, like Gecko) Chrome/137.0.0.0 Safari/537.36","Macintosh","Chrome","137.0.0.0","OS X","10_15_7","https://app.prolific.com/","en-GB,en-US;q=0.9,en;q=0.8","5fe0b183d8918b2030aa99a0","683db6dfa200031b80f2a654","6865077ce0815de38f4df338","5fe0b183d8918b2030aa99a0","","","","","","","","","","","","","","","","","","","","","","","","","","","","","","","","","","","","","","","","","","","","","",""
"3569","","","{""yellow_ball"":[""Ball doesn‘t move and I get -1 penalty point""]}","survey-multi-select","27","365467","0.0-8.0-6.0-0.0","35","1","2025-07-02 10:18:39","80fe4187154257d5fb01684ea91b68b9","192.76.8.198","Mozilla/5.0 (Macintosh; Intel Mac OS X 10_15_7) AppleWebKit/537.36 (KHTML, like Gecko) Chrome/137.0.0.0 Safari/537.36","Macintosh","Chrome","137.0.0.0","OS X","10_15_7","https://app.prolific.com/","en-GB,en-US;q=0.9,en;q=0.8","5fe0b183d8918b2030aa99a0","683db6dfa200031b80f2a654","6865077ce0815de38f4df338","5fe0b183d8918b2030aa99a0","","","[0]","","","","quiz","","","","","","","","","","","","","","","","","","","","","","","","","","","","","","","","","","","","","true","",""
"939","","<p align='center'><b>CORRECT!</b> Indeed, the yellow ball never moves and you receive a penalty.</p>","0","html-button-response","28","366408","0.0-8.0-6.0-1.0","35","1","2025-07-02 10:18:39","80fe4187154257d5fb01684ea91b68b9","192.76.8.198","Mozilla/5.0 (Macintosh; Intel Mac OS X 10_15_7) AppleWebKit/537.36 (KHTML, like Gecko) Chrome/137.0.0.0 Safari/537.36","Macintosh","Chrome","137.0.0.0","OS X","10_15_7","https://app.prolific.com/","en-GB,en-US;q=0.9,en;q=0.8","5fe0b183d8918b2030aa99a0","683db6dfa200031b80f2a654","6865077ce0815de38f4df338","5fe0b183d8918b2030aa99a0","","","","","","","","","","","","","","","","","","","","","","","","","","","","","","","","","","","","","","","","","","","","","",""
"6320","","","{""blue_ball"":[""Ball always shakes and moves in a random direction""]}","survey-multi-select","29","372729","0.0-8.0-7.0-0.0","35","1","2025-07-02 10:18:39","80fe4187154257d5fb01684ea91b68b9","192.76.8.198","Mozilla/5.0 (Macintosh; Intel Mac OS X 10_15_7) AppleWebKit/537.36 (KHTML, like Gecko) Chrome/137.0.0.0 Safari/537.36","Macintosh","Chrome","137.0.0.0","OS X","10_15_7","https://app.prolific.com/","en-GB,en-US;q=0.9,en;q=0.8","5fe0b183d8918b2030aa99a0","683db6dfa200031b80f2a654","6865077ce0815de38f4df338","5fe0b183d8918b2030aa99a0","","","[0]","","","","quiz","","","","","","","","","","","","","","","","","","","","","","","","","","","","","","","","","","","","","true","",""
"1159","","<p align='center'><b>CORRECT!</b> Indeed, the blue ball always shakes and moves in a random direction. Also there is a penalty of -1 point.</p>","0","html-button-response","30","373890","0.0-8.0-7.0-1.0","35","1","2025-07-02 10:18:39","80fe4187154257d5fb01684ea91b68b9","192.76.8.198","Mozilla/5.0 (Macintosh; Intel Mac OS X 10_15_7) AppleWebKit/537.36 (KHTML, like Gecko) Chrome/137.0.0.0 Safari/537.36","Macintosh","Chrome","137.0.0.0","OS X","10_15_7","https://app.prolific.com/","en-GB,en-US;q=0.9,en;q=0.8","5fe0b183d8918b2030aa99a0","683db6dfa200031b80f2a654","6865077ce0815de38f4df338","5fe0b183d8918b2030aa99a0","","","","","","","","","","","","","","","","","","","","","","","","","","","","","","","","","","","","","","","","","","","","","",""
"2383","","","{""bonus"":[""When I reach 50% of points""]}","survey-multi-select","31","376274","0.0-8.0-8.0-0.0","35","1","2025-07-02 10:18:39","80fe4187154257d5fb01684ea91b68b9","192.76.8.198","Mozilla/5.0 (Macintosh; Intel Mac OS X 10_15_7) AppleWebKit/537.36 (KHTML, like Gecko) Chrome/137.0.0.0 Safari/537.36","Macintosh","Chrome","137.0.0.0","OS X","10_15_7","https://app.prolific.com/","en-GB,en-US;q=0.9,en;q=0.8","5fe0b183d8918b2030aa99a0","683db6dfa200031b80f2a654","6865077ce0815de38f4df338","5fe0b183d8918b2030aa99a0","","","[0]","","","","quiz","","","","","","","","","","","","","","","","","","","","","","","","","","","","","","","","","","","","","true","",""
"1268","","<p align='center'><b>CORRECT!</b> Indeed, you receive 2 pounds extra when you reach 50% of points.</p>","0","html-button-response","32","377543","0.0-8.0-8.0-1.0","35","1","2025-07-02 10:18:39","80fe4187154257d5fb01684ea91b68b9","192.76.8.198","Mozilla/5.0 (Macintosh; Intel Mac OS X 10_15_7) AppleWebKit/537.36 (KHTML, like Gecko) Chrome/137.0.0.0 Safari/537.36","Macintosh","Chrome","137.0.0.0","OS X","10_15_7","https://app.prolific.com/","en-GB,en-US;q=0.9,en;q=0.8","5fe0b183d8918b2030aa99a0","683db6dfa200031b80f2a654","6865077ce0815de38f4df338","5fe0b183d8918b2030aa99a0","","","","","","","","","","","","","","","","","","","","","","","","","","","","","","","","","","","","","","","","","","","","","",""
"1599","","","","instructions","33","379143","0.0-8.0-9.0","35","1","2025-07-02 10:18:39","80fe4187154257d5fb01684ea91b68b9","192.76.8.198","Mozilla/5.0 (Macintosh; Intel Mac OS X 10_15_7) AppleWebKit/537.36 (KHTML, like Gecko) Chrome/137.0.0.0 Safari/537.36","Macintosh","Chrome","137.0.0.0","OS X","10_15_7","https://app.prolific.com/","en-GB,en-US;q=0.9,en;q=0.8","5fe0b183d8918b2030aa99a0","683db6dfa200031b80f2a654","6865077ce0815de38f4df338","5fe0b183d8918b2030aa99a0","","[{""page_index"":0,""viewing_time"":1599}]","","","","","","","","","","","","","","","","","","","","","","","","","","","","","","","","","","","","","","","","","","","",""
"8490","","<p>Before you start with this game please answer the following three questions yourself. </p>
  <p>Through this game, we measure several aspects of your cognitive performance, such as reaction times, multi-tasking capabilities </p>
  <p>and the ability to assess the situation you are in.</p>
  <p></p>
  <p><b>How good do you usually are in such tasks?</b></p>","45","html-slider-response","34","387637","0.0-9.0-0.0","35","1","2025-07-02 10:18:39","80fe4187154257d5fb01684ea91b68b9","192.76.8.198","Mozilla/5.0 (Macintosh; Intel Mac OS X 10_15_7) AppleWebKit/537.36 (KHTML, like Gecko) Chrome/137.0.0.0 Safari/537.36","Macintosh","Chrome","137.0.0.0","OS X","10_15_7","https://app.prolific.com/","en-GB,en-US;q=0.9,en;q=0.8","5fe0b183d8918b2030aa99a0","683db6dfa200031b80f2a654","6865077ce0815de38f4df338","5fe0b183d8918b2030aa99a0","2025-07-02T10:25:08.639Z","","","","","","PreSkillQ","","","","","","","","","","","","","","","","","","","","","","","","","","","","","","","","","","","","","","50",""
"3326","","<div style=""width:500px;"">
  <p>How well do you think you will perform in this task compared to other participants?</p>
  </div>","50","html-slider-response","35","390963","0.0-9.0-1.0","35","1","2025-07-02 10:18:39","80fe4187154257d5fb01684ea91b68b9","192.76.8.198","Mozilla/5.0 (Macintosh; Intel Mac OS X 10_15_7) AppleWebKit/537.36 (KHTML, like Gecko) Chrome/137.0.0.0 Safari/537.36","Macintosh","Chrome","137.0.0.0","OS X","10_15_7","https://app.prolific.com/","en-GB,en-US;q=0.9,en;q=0.8","5fe0b183d8918b2030aa99a0","683db6dfa200031b80f2a654","6865077ce0815de38f4df338","5fe0b183d8918b2030aa99a0","2025-07-02T10:25:11.965Z","","","","","","PrePerfQ","","","","","","","","","","","","","","","","","","","","","","","","","","","","","","","","","","","","","","50",""
"3260","","<div style=""width:500px;"">
  <p>What best describes how you currently feel?</p>
  </div>","42","html-slider-response","36","394224","0.0-9.0-2.0","35","1","2025-07-02 10:18:39","80fe4187154257d5fb01684ea91b68b9","192.76.8.198","Mozilla/5.0 (Macintosh; Intel Mac OS X 10_15_7) AppleWebKit/537.36 (KHTML, like Gecko) Chrome/137.0.0.0 Safari/537.36","Macintosh","Chrome","137.0.0.0","OS X","10_15_7","https://app.prolific.com/","en-GB,en-US;q=0.9,en;q=0.8","5fe0b183d8918b2030aa99a0","683db6dfa200031b80f2a654","6865077ce0815de38f4df338","5fe0b183d8918b2030aa99a0","2025-07-02T10:25:15.226Z","","","","","","PreMotivationQ","","","","","","","","","","","","","","","","","","","","","","","","","","","","","","","","","","","","","","50",""
"","","","","ctl-task-cpt","37","424632","0.0-10.0-0.0","35","1","2025-07-02 10:18:39","80fe4187154257d5fb01684ea91b68b9","192.76.8.198","Mozilla/5.0 (Macintosh; Intel Mac OS X 10_15_7) AppleWebKit/537.36 (KHTML, like Gecko) Chrome/137.0.0.0 Safari/537.36","Macintosh","Chrome","137.0.0.0","OS X","10_15_7","https://app.prolific.com/","en-GB,en-US;q=0.9,en;q=0.8","5fe0b183d8918b2030aa99a0","683db6dfa200031b80f2a654","6865077ce0815de38f4df338","5fe0b183d8918b2030aa99a0","2025-07-02T10:25:45.634Z","","","","","","","","","","","","","","","","win-only","3","g1:SW,g2:NE","1","1","0","396287.5","4427.8","9431.3","27396","1","4","8","6","2","8","8","8","0","0.06060606060606061","1222.5","3000","890","[""up"",""right""]","{""num_key_presses"":6,""num_perfect"":6,""num_errors"":0,""num_randdir"":0,""num_randdir_good_moves"":0,""num_whilered"":0,""num_whileblue"":0,""num_blue"":1,""num_good_moves"":6}","[709.7142857142857,721.5111607142857,0.4,709.7142857142857,721.5111607142857,103.5,709.7142857142857,721.5111607142857,203.5,709.7142857142857,721.5111607142857,303.6,709.7142857142857,721.5111607142857,403.8,709.7142857142857,721.5111607142857,508.3,681.7142857142857,717.5111607142857,608.4,671.7142857142857,663.5111607142857,708.9,701.7142857142857,627.5111607142857,813.9,1215.7142857142858,83.51116071428571,919.3,1275.7142857142858,53.51116071428571,1023,1273.7142857142858,55.51116071428571,1124,1281.7142857142858,73.51116071428571,1230.4,1281.7142857142858,73.51116071428571,1330.5,1281.7142857142858,73.51116071428571,1433.4,1281.7142857142858,73.51116071428571,1533.9,1281.7142857142858,73.51116071428571,1638.2,1281.7142857142858,73.51116071428571,1738.9,1281.7142857142858,73.51116071428571,1844.1,1281.7142857142858,73.51116071428571,1947.9,1281.7142857142858,73.51116071428571,2047.9,1281.7142857142858,73.51116071428571,2153.3,1281.7142857142858,73.51116071428571,2255.2,1281.7142857142858,73.51116071428571,2358.6,1281.7142857142858,73.51116071428571,2458.8,1281.7142857142858,73.51116071428571,2563.8,1281.7142857142858,73.51116071428571,2663.9,1281.7142857142858,73.51116071428571,2769.1,1281.7142857142858,73.51116071428571,2874.1,1281.7142857142858,73.51116071428571,2979.1,1281.7142857142858,73.51116071428571,3079.2,1281.7142857142858,73.51116071428571,3179.4,1281.7142857142858,73.51116071428571,3283.5,1281.7142857142858,73.51116071428571,3383.5,1281.7142857142858,73.51116071428571,3483.8,1281.7142857142858,73.51116071428571,3583.9,1281.7142857142858,73.51116071428571,3688.8,1281.7142857142858,73.51116071428571,3789.1,1281.7142857142858,73.51116071428571,3893.7,1281.7142857142858,73.51116071428571,3997.8,1281.7142857142858,73.51116071428571,4097.9,1281.7142857142858,73.51116071428571,4197.9,1281.7142857142858,73.51116071428571,4297.9,1281.7142857142858,73.51116071428571,4398.4,1281.7142857142858,73.51116071428571,4504.2,1281.7142857142858,73.51116071428571,4608.8,1281.7142857142858,73.51116071428571,4713.7,1281.7142857142858,73.51116071428571,4818,1281.7142857142858,73.51116071428571,4918.5]","[4382.7,4382.7,2037,2009.9,335.8,""smooth"",""right"",""right"",""good_move"",7482.1,3099,2668.2,4383.1,430.8,""smooth"",""right"",""right"",""good_move"",10231.1,2748.9,2351.1,7482.2,397.8,""smooth"",""up"",""up"",""good_move"",13959.9,3728.4,3365,10231.5,363.4,""smooth"",""up"",""up"",""good_move"",16666.9,2706.6,2399.8,13960.3,306.8,""smooth"",""up"",""up"",""good_move"",17880.5,1213.5,875.3,16667,338.2,""smooth"",""right"",""right"",""good_move""]","","",""
"9345","","<div style=""width:500px;"">
  <p>What determined the result of this run?</p>
  </div>","63","html-slider-response","38","433979","0.0-10.0-1.0","35","1","2025-07-02 10:18:39","80fe4187154257d5fb01684ea91b68b9","192.76.8.198","Mozilla/5.0 (Macintosh; Intel Mac OS X 10_15_7) AppleWebKit/537.36 (KHTML, like Gecko) Chrome/137.0.0.0 Safari/537.36","Macintosh","Chrome","137.0.0.0","OS X","10_15_7","https://app.prolific.com/","en-GB,en-US;q=0.9,en;q=0.8","5fe0b183d8918b2030aa99a0","683db6dfa200031b80f2a654","6865077ce0815de38f4df338","5fe0b183d8918b2030aa99a0","2025-07-02T10:25:54.981Z","","","","","","AttribQ","","","","","","","","","","","","","","","","","","","","","","","","","","","","","","","","","","","","","","50",""
"3011","","<div style=""width:500px;"">
  <p>How much control did you have over the ball?</p>
  </div>","100","html-slider-response","39","436991","0.0-10.0-2.0","35","1","2025-07-02 10:18:39","80fe4187154257d5fb01684ea91b68b9","192.76.8.198","Mozilla/5.0 (Macintosh; Intel Mac OS X 10_15_7) AppleWebKit/537.36 (KHTML, like Gecko) Chrome/137.0.0.0 Safari/537.36","Macintosh","Chrome","137.0.0.0","OS X","10_15_7","https://app.prolific.com/","en-GB,en-US;q=0.9,en;q=0.8","5fe0b183d8918b2030aa99a0","683db6dfa200031b80f2a654","6865077ce0815de38f4df338","5fe0b183d8918b2030aa99a0","2025-07-02T10:25:57.993Z","","","","","","ControlQ","","","","","","","","","","","","","","","","","","","","","","","","","","","","","","","","","","","","","","50",""
"3257","","<div style=""width:500px;"">
  <p>How would you describe your current emotional state?</p>
  </div>","43","html-slider-response","40","440249","0.0-10.0-3.0","35","1","2025-07-02 10:18:39","80fe4187154257d5fb01684ea91b68b9","192.76.8.198","Mozilla/5.0 (Macintosh; Intel Mac OS X 10_15_7) AppleWebKit/537.36 (KHTML, like Gecko) Chrome/137.0.0.0 Safari/537.36","Macintosh","Chrome","137.0.0.0","OS X","10_15_7","https://app.prolific.com/","en-GB,en-US;q=0.9,en;q=0.8","5fe0b183d8918b2030aa99a0","683db6dfa200031b80f2a654","6865077ce0815de38f4df338","5fe0b183d8918b2030aa99a0","2025-07-02T10:26:01.251Z","","","","","","StressQ","","","","","","","","","","","","","","","","","","","","","","","","","","","","","","","","","","","","","","50",""
"3612","","<div style=""width:500px;"">
  <p>What best describes how you currently feel?</p>
  </div>","89","html-slider-response","41","443861","0.0-10.0-4.0","35","1","2025-07-02 10:18:39","80fe4187154257d5fb01684ea91b68b9","192.76.8.198","Mozilla/5.0 (Macintosh; Intel Mac OS X 10_15_7) AppleWebKit/537.36 (KHTML, like Gecko) Chrome/137.0.0.0 Safari/537.36","Macintosh","Chrome","137.0.0.0","OS X","10_15_7","https://app.prolific.com/","en-GB,en-US;q=0.9,en;q=0.8","5fe0b183d8918b2030aa99a0","683db6dfa200031b80f2a654","6865077ce0815de38f4df338","5fe0b183d8918b2030aa99a0","2025-07-02T10:26:04.863Z","","","","","","MotivationQ","","","","","","","","","","","","","","","","","","","","","","","","","","","","","","","","","","","","","","50",""
"","","","","ctl-task-cpt","42","470518","0.0-10.0-0.1","35","1","2025-07-02 10:18:39","80fe4187154257d5fb01684ea91b68b9","192.76.8.198","Mozilla/5.0 (Macintosh; Intel Mac OS X 10_15_7) AppleWebKit/537.36 (KHTML, like Gecko) Chrome/137.0.0.0 Safari/537.36","Macintosh","Chrome","137.0.0.0","OS X","10_15_7","https://app.prolific.com/","en-GB,en-US;q=0.9,en;q=0.8","5fe0b183d8918b2030aa99a0","683db6dfa200031b80f2a654","6865077ce0815de38f4df338","5fe0b183d8918b2030aa99a0","2025-07-02T10:26:31.520Z","","","","","","","","","","","","","","","","win-only","3","g1:SW,g2:NE","0.9","2","0","445922.7","1189.3","6190.4","23645.9","1","4","4","6","2","4","3","11","8","0.08333333333333333","1346","3000","1175","[""up"",""right""]","{""num_key_presses"":7,""num_perfect"":5,""num_errors"":1,""num_randdir"":1,""num_randdir_good_moves"":1,""num_whilered"":0,""num_whileblue"":0,""num_blue"":0,""num_good_moves"":6}","[707.7142857142857,689.5111607142857,0.1,707.7142857142857,691.5111607142857,101,707.7142857142857,689.5111607142857,201.9,707.7142857142857,689.5111607142857,306,707.7142857142857,689.5111607142857,406.9,707.7142857142857,689.5111607142857,506.9,707.7142857142857,689.5111607142857,611.8,707.7142857142857,689.5111607142857,716.8,707.7142857142857,689.5111607142857,822.6,707.7142857142857,679.5111607142857,926.6,1031.7142857142858,385.5111607142857,1026.8,1317.7142857142858,231.51116071428572,1131,1315.7142857142858,193.51116071428572,1231.9,1315.7142857142858,165.51116071428572,1336.3,1315.7142857142858,165.51116071428572,1436.7,1315.7142857142858,165.51116071428572,1536.7,1315.7142857142858,165.51116071428572,1637.3,1315.7142857142858,165.51116071428572,1741.3,1315.7142857142858,165.51116071428572,1842.2,1315.7142857142858,165.51116071428572,1946.6,1315.7142857142858,165.51116071428572,2046.8,1315.7142857142858,165.51116071428572,2146.9,1315.7142857142858,165.51116071428572,2251.2,1315.7142857142858,165.51116071428572,2355.9,1315.7142857142858,165.51116071428572,2456.7,1315.7142857142858,165.51116071428572,2561.2,1315.7142857142858,165.51116071428572,2662,1315.7142857142858,165.51116071428572,2763.2,1315.7142857142858,165.51116071428572,2866.1,1315.7142857142858,165.51116071428572,2966.7,1315.7142857142858,165.51116071428572,3066.8,1315.7142857142858,165.51116071428572,3171.5,1315.7142857142858,165.51116071428572,3271.5,1315.7142857142858,165.51116071428572,3376.6,1315.7142857142858,165.51116071428572,3477,1315.7142857142858,165.51116071428572,3581.1,1315.7142857142858,165.51116071428572,3681.6,1315.7142857142858,165.51116071428572,3781.7,1315.7142857142858,165.51116071428572,3886.6,1315.7142857142858,165.51116071428572,3986.6,1315.7142857142858,165.51116071428572,4091,1315.7142857142858,165.51116071428572,4191.2,1315.7142857142858,165.51116071428572,4291.7,1315.7142857142858,165.51116071428572,4395.8,1315.7142857142858,165.51116071428572,4496.4,1315.7142857142858,165.51116071428572,4601,1315.7142857142858,165.51116071428572,4701.1,1315.7142857142858,165.51116071428572,4801.1,1315.7142857142858,165.51116071428572,4906.6]","[301.8,301.8,1000,0,-698.2,""error"",""-"",""-"",""no_move"",3125.5,2823.6,1529.1,1305.7,290.7,""oops"",""right"",""right"",""good_move"",6274.4,3148.5,2844,3125.9,304.5,""smooth"",""right"",""right"",""good_move"",8655.8,2381.1,2079.3,6274.7,301.8,""smooth"",""up"",""up"",""good_move"",11435.8,2779.6,2453.4,8656.2,326.2,""smooth"",""up"",""up"",""good_move"",15037.5,3601.4,3259.3,11436.1,342.1,""smooth"",""right"",""right"",""good_move"",17371.7,2334.1,2038.2,15037.6,295.9,""smooth"",""up"",""up"",""good_move""]","","",""
"3039","","<div style=""width:500px;"">
  <p>What determined the result of this run?</p>
  </div>","54","html-slider-response","43","473559","0.0-10.0-1.1","35","1","2025-07-02 10:18:39","80fe4187154257d5fb01684ea91b68b9","192.76.8.198","Mozilla/5.0 (Macintosh; Intel Mac OS X 10_15_7) AppleWebKit/537.36 (KHTML, like Gecko) Chrome/137.0.0.0 Safari/537.36","Macintosh","Chrome","137.0.0.0","OS X","10_15_7","https://app.prolific.com/","en-GB,en-US;q=0.9,en;q=0.8","5fe0b183d8918b2030aa99a0","683db6dfa200031b80f2a654","6865077ce0815de38f4df338","5fe0b183d8918b2030aa99a0","2025-07-02T10:26:34.561Z","","","","","","AttribQ","","","","","","","","","","","","","","","","","","","","","","","","","","","","","","","","","","","","","","50",""
"3256","","<div style=""width:500px;"">
  <p>How much control did you have over the ball?</p>
  </div>","98","html-slider-response","44","476816","0.0-10.0-2.1","35","1","2025-07-02 10:18:39","80fe4187154257d5fb01684ea91b68b9","192.76.8.198","Mozilla/5.0 (Macintosh; Intel Mac OS X 10_15_7) AppleWebKit/537.36 (KHTML, like Gecko) Chrome/137.0.0.0 Safari/537.36","Macintosh","Chrome","137.0.0.0","OS X","10_15_7","https://app.prolific.com/","en-GB,en-US;q=0.9,en;q=0.8","5fe0b183d8918b2030aa99a0","683db6dfa200031b80f2a654","6865077ce0815de38f4df338","5fe0b183d8918b2030aa99a0","2025-07-02T10:26:37.818Z","","","","","","ControlQ","","","","","","","","","","","","","","","","","","","","","","","","","","","","","","","","","","","","","","50",""
"3456","","<div style=""width:500px;"">
  <p>How would you describe your current emotional state?</p>
  </div>","40","html-slider-response","45","480273","0.0-10.0-3.1","35","1","2025-07-02 10:18:39","80fe4187154257d5fb01684ea91b68b9","192.76.8.198","Mozilla/5.0 (Macintosh; Intel Mac OS X 10_15_7) AppleWebKit/537.36 (KHTML, like Gecko) Chrome/137.0.0.0 Safari/537.36","Macintosh","Chrome","137.0.0.0","OS X","10_15_7","https://app.prolific.com/","en-GB,en-US;q=0.9,en;q=0.8","5fe0b183d8918b2030aa99a0","683db6dfa200031b80f2a654","6865077ce0815de38f4df338","5fe0b183d8918b2030aa99a0","2025-07-02T10:26:41.275Z","","","","","","StressQ","","","","","","","","","","","","","","","","","","","","","","","","","","","","","","","","","","","","","","50",""
"2476","","<div style=""width:500px;"">
  <p>What best describes how you currently feel?</p>
  </div>","95","html-slider-response","46","482750","0.0-10.0-4.1","35","1","2025-07-02 10:18:39","80fe4187154257d5fb01684ea91b68b9","192.76.8.198","Mozilla/5.0 (Macintosh; Intel Mac OS X 10_15_7) AppleWebKit/537.36 (KHTML, like Gecko) Chrome/137.0.0.0 Safari/537.36","Macintosh","Chrome","137.0.0.0","OS X","10_15_7","https://app.prolific.com/","en-GB,en-US;q=0.9,en;q=0.8","5fe0b183d8918b2030aa99a0","683db6dfa200031b80f2a654","6865077ce0815de38f4df338","5fe0b183d8918b2030aa99a0","2025-07-02T10:26:43.752Z","","","","","","MotivationQ","","","","","","","","","","","","","","","","","","","","","","","","","","","","","","","","","","","","","","50",""
"","","","","ctl-task-cpt","47","528817","0.0-10.0-0.2","35","1","2025-07-02 10:18:39","80fe4187154257d5fb01684ea91b68b9","192.76.8.198","Mozilla/5.0 (Macintosh; Intel Mac OS X 10_15_7) AppleWebKit/537.36 (KHTML, like Gecko) Chrome/137.0.0.0 Safari/537.36","Macintosh","Chrome","137.0.0.0","OS X","10_15_7","https://app.prolific.com/","en-GB,en-US;q=0.9,en;q=0.8","5fe0b183d8918b2030aa99a0","683db6dfa200031b80f2a654","6865077ce0815de38f4df338","5fe0b183d8918b2030aa99a0","2025-07-02T10:27:29.819Z","","","","","","","","","","","","","","","","win-only","0","g1:NW,g2:SE","0.8","3","0","484811.4","2136.3","7140.4","43056.2","1","4","4","6","2","4","2","13","11","0.09848484848484848","992.6","3000","680","[""down"",""right""]","{""num_key_presses"":9,""num_perfect"":7,""num_errors"":2,""num_randdir"":0,""num_randdir_good_moves"":0,""num_whilered"":0,""num_whileblue"":1,""num_blue"":4,""num_good_moves"":7}","[705.7142857142857,695.5111607142857,0.1,705.7142857142857,697.5111607142857,104.3,705.7142857142857,697.5111607142857,204.7,705.7142857142857,697.5111607142857,309.9,705.7142857142857,697.5111607142857,414,757.7142857142857,733.5111607142857,514.4,1205.7142857142858,1153.5111607142858,614.4,1235.7142857142858,1183.5111607142858,715.4,1235.7142857142858,1183.5111607142858,819.9,1249.7142857142858,1237.5111607142858,925,1261.7142857142858,1261.5111607142858,1029.3,1261.7142857142858,1261.5111607142858,1135.7,1261.7142857142858,1261.5111607142858,1239.8,1261.7142857142858,1261.5111607142858,1344.2,1261.7142857142858,1261.5111607142858,1444.8,1261.7142857142858,1261.5111607142858,1548.9,1261.7142857142858,1261.5111607142858,1649.3,1261.7142857142858,1261.5111607142858,1749.9,1261.7142857142858,1261.5111607142858,1854.2,1261.7142857142858,1261.5111607142858,1954.4,1261.7142857142858,1261.5111607142858,2054.6,1261.7142857142858,1261.5111607142858,2159.5,1261.7142857142858,1261.5111607142858,2259.8,1261.7142857142858,1261.5111607142858,2363.8,1261.7142857142858,1261.5111607142858,2464.4,1261.7142857142858,1261.5111607142858,2569,1261.7142857142858,1261.5111607142858,2669.5,1261.7142857142858,1261.5111607142858,2769.5,1261.7142857142858,1261.5111607142858,2869.5,1261.7142857142858,1261.5111607142858,2969.7,1261.7142857142858,1261.5111607142858,3074.9,1261.7142857142858,1261.5111607142858,3179.6,1261.7142857142858,1261.5111607142858,3279.6,1261.7142857142858,1261.5111607142858,3379.8,1261.7142857142858,1261.5111607142858,3484.2,1261.7142857142858,1261.5111607142858,3589.7,1261.7142857142858,1261.5111607142858,3689.9,1261.7142857142858,1261.5111607142858,3794.2,1261.7142857142858,1261.5111607142858,3894.4,1261.7142857142858,1261.5111607142858,3994.6,1261.7142857142858,1261.5111607142858,4099.9,1261.7142857142858,1261.5111607142858,4204,1261.7142857142858,1261.5111607142858,4304.2,1261.7142857142858,1261.5111607142858,4409.7,1261.7142857142858,1261.5111607142858,4514.8,1261.7142857142858,1261.5111607142858,4615,1261.7142857142858,1261.5111607142858,4719.4,1261.7142857142858,1261.5111607142858,4820.3,1261.7142857142858,1261.5111607142858,4920.3]","[339.7,339.7,1000,0,-660.3,""error"",""-"",""-"",""no_move"",7928.1,7588.2,3070.3,4540.6,317.2,""smooth"",""right"",""right"",""good_move"",14348.1,6419.5,2673.9,11320.6,353.6,""smooth"",""right"",""right"",""good_move"",17141,2792.8,2477.1,14348.3,315.7,""smooth"",""right"",""right"",""good_move"",20103.8,2962.6,2635.7,17141.2,326.9,""smooth"",""down"",""down"",""good_move"",22205.4,2101.2,1763,20104.2,338.2,""smooth"",""down"",""down"",""good_move"",25435.5,3229.9,2954.3,22205.6,275.6,""while_blue"",""down"",""up"",""bad_move"",28699.1,3263.2,2947.5,25435.9,315.7,""smooth"",""down"",""down"",""good_move"",35833,7132.8,2926.5,32481,425.5,""smooth"",""down"",""down"",""good_move""]","","",""
"5096","","<div style=""width:500px;"">
  <p>What determined the result of this run?</p>
  </div>","67","html-slider-response","48","533914","0.0-10.0-1.2","35","1","2025-07-02 10:18:39","80fe4187154257d5fb01684ea91b68b9","192.76.8.198","Mozilla/5.0 (Macintosh; Intel Mac OS X 10_15_7) AppleWebKit/537.36 (KHTML, like Gecko) Chrome/137.0.0.0 Safari/537.36","Macintosh","Chrome","137.0.0.0","OS X","10_15_7","https://app.prolific.com/","en-GB,en-US;q=0.9,en;q=0.8","5fe0b183d8918b2030aa99a0","683db6dfa200031b80f2a654","6865077ce0815de38f4df338","5fe0b183d8918b2030aa99a0","2025-07-02T10:27:34.916Z","","","","","","AttribQ","","","","","","","","","","","","","","","","","","","","","","","","","","","","","","","","","","","","","","50",""
"3058","","<div style=""width:500px;"">
  <p>How much control did you have over the ball?</p>
  </div>","96","html-slider-response","49","536973","0.0-10.0-2.2","35","1","2025-07-02 10:18:39","80fe4187154257d5fb01684ea91b68b9","192.76.8.198","Mozilla/5.0 (Macintosh; Intel Mac OS X 10_15_7) AppleWebKit/537.36 (KHTML, like Gecko) Chrome/137.0.0.0 Safari/537.36","Macintosh","Chrome","137.0.0.0","OS X","10_15_7","https://app.prolific.com/","en-GB,en-US;q=0.9,en;q=0.8","5fe0b183d8918b2030aa99a0","683db6dfa200031b80f2a654","6865077ce0815de38f4df338","5fe0b183d8918b2030aa99a0","2025-07-02T10:27:37.975Z","","","","","","ControlQ","","","","","","","","","","","","","","","","","","","","","","","","","","","","","","","","","","","","","","50",""
"2818","","<div style=""width:500px;"">
  <p>How would you describe your current emotional state?</p>
  </div>","44","html-slider-response","50","539792","0.0-10.0-3.2","35","1","2025-07-02 10:18:39","80fe4187154257d5fb01684ea91b68b9","192.76.8.198","Mozilla/5.0 (Macintosh; Intel Mac OS X 10_15_7) AppleWebKit/537.36 (KHTML, like Gecko) Chrome/137.0.0.0 Safari/537.36","Macintosh","Chrome","137.0.0.0","OS X","10_15_7","https://app.prolific.com/","en-GB,en-US;q=0.9,en;q=0.8","5fe0b183d8918b2030aa99a0","683db6dfa200031b80f2a654","6865077ce0815de38f4df338","5fe0b183d8918b2030aa99a0","2025-07-02T10:27:40.794Z","","","","","","StressQ","","","","","","","","","","","","","","","","","","","","","","","","","","","","","","","","","","","","","","50",""
"2402","","<div style=""width:500px;"">
  <p>What best describes how you currently feel?</p>
  </div>","98","html-slider-response","51","542195","0.0-10.0-4.2","35","1","2025-07-02 10:18:39","80fe4187154257d5fb01684ea91b68b9","192.76.8.198","Mozilla/5.0 (Macintosh; Intel Mac OS X 10_15_7) AppleWebKit/537.36 (KHTML, like Gecko) Chrome/137.0.0.0 Safari/537.36","Macintosh","Chrome","137.0.0.0","OS X","10_15_7","https://app.prolific.com/","en-GB,en-US;q=0.9,en;q=0.8","5fe0b183d8918b2030aa99a0","683db6dfa200031b80f2a654","6865077ce0815de38f4df338","5fe0b183d8918b2030aa99a0","2025-07-02T10:27:43.197Z","","","","","","MotivationQ","","","","","","","","","","","","","","","","","","","","","","","","","","","","","","","","","","","","","","50",""
"","","","","ctl-task-cpt","52","582080","0.0-10.0-0.3","35","1","2025-07-02 10:18:39","80fe4187154257d5fb01684ea91b68b9","192.76.8.198","Mozilla/5.0 (Macintosh; Intel Mac OS X 10_15_7) AppleWebKit/537.36 (KHTML, like Gecko) Chrome/137.0.0.0 Safari/537.36","Macintosh","Chrome","137.0.0.0","OS X","10_15_7","https://app.prolific.com/","en-GB,en-US;q=0.9,en;q=0.8","5fe0b183d8918b2030aa99a0","683db6dfa200031b80f2a654","6865077ce0815de38f4df338","5fe0b183d8918b2030aa99a0","2025-07-02T10:28:23.082Z","","","","","","","","","","","","","","","","win-only","2","g1:SE,g2:NW","0.7","4","0","544255.5","1094.7","6096.2","36875.9","1","4","8","6","2","8","7","20","13","0.15151515151515152","1398.4","3000","65","[""left"",""up""]","{""num_key_presses"":9,""num_perfect"":6,""num_errors"":1,""num_randdir"":2,""num_randdir_good_moves"":1,""num_whilered"":0,""num_whileblue"":0,""num_blue"":2,""num_good_moves"":7}","[715.7142857142857,715.5111607142857,0.2,715.7142857142857,715.5111607142857,101.4,715.7142857142857,715.5111607142857,205.8,715.7142857142857,715.5111607142857,305.9,715.7142857142857,715.5111607142857,411.3,727.7142857142857,731.5111607142857,515.5,973.7142857142857,997.5111607142857,620.4,1049.7142857142858,1077.5111607142858,720.7,789.7142857142857,865.5111607142857,825.4,577.7142857142857,599.5111607142857,925.5,577.7142857142857,599.5111607142857,1025.6,353.7142857142857,439.5111607142857,1125.7,95.71428571428571,139.51116071428572,1226.4,95.71428571428571,119.51116071428571,1326.5,91.71428571428571,107.51116071428571,1426.6,91.71428571428571,107.51116071428571,1533.3,91.71428571428571,107.51116071428571,1635.6,91.71428571428571,107.51116071428571,1736.1,91.71428571428571,107.51116071428571,1841.4,91.71428571428571,107.51116071428571,1941.5,91.71428571428571,107.51116071428571,2041.5,91.71428571428571,107.51116071428571,2146.4,91.71428571428571,107.51116071428571,2247.2,91.71428571428571,107.51116071428571,2351.1,91.71428571428571,107.51116071428571,2451.1,91.71428571428571,107.51116071428571,2556.3,91.71428571428571,107.51116071428571,2656.3,91.71428571428571,107.51116071428571,2760.4,91.71428571428571,107.51116071428571,2860.9,91.71428571428571,107.51116071428571,2966.5,91.71428571428571,107.51116071428571,3071.2,91.71428571428571,107.51116071428571,3176.1,91.71428571428571,107.51116071428571,3276.2,91.71428571428571,107.51116071428571,3380.7,91.71428571428571,107.51116071428571,3481.1,91.71428571428571,107.51116071428571,3585.8,91.71428571428571,107.51116071428571,3691.5,91.71428571428571,107.51116071428571,3791.5,91.71428571428571,107.51116071428571,3895.8,91.71428571428571,107.51116071428571,3996.9,91.71428571428571,107.51116071428571,4100.7,91.71428571428571,107.51116071428571,4201.3,91.71428571428571,107.51116071428571,4301.4,91.71428571428571,107.51116071428571,4405.7,91.71428571428571,107.51116071428571,4510.5,91.71428571428571,107.51116071428571,4611.2,91.71428571428571,107.51116071428571,4715.8,91.71428571428571,107.51116071428571,4815.8,91.71428571428571,107.51116071428571,4917.7]","[1504.9,1504.9,1000,0,504.9,""smooth"",""up"",""up"",""good_move"",1597.5,92.4,2293.6,1505.1,-2201.2,""error"",""-"",""-"",""no_move"",6003.2,4405.5,3013.7,2599.7,389.8,""smooth"",""left"",""left"",""good_move"",12199.1,6195.3,2676.2,9154.3,368.6,""smooth"",""left"",""left"",""good_move"",18502.1,6302.8,2762.8,15389.4,349.9,""smooth"",""up"",""up"",""good_move"",21475.9,2973.6,2631.2,18502.4,342.3,""oops"",""up"",""right"",""bad_move"",24894.8,3418.7,3010.3,21476.1,408.4,""smooth"",""left"",""left"",""good_move"",27601.9,2706.7,2369.6,24895.2,337.1,""smooth"",""left"",""left"",""good_move"",30695.6,3093.5,2799.2,27602.1,294.3,""oops"",""up"",""up"",""good_move""]","","",""
"2855","","<div style=""width:500px;"">
  <p>What determined the result of this run?</p>
  </div>","57","html-slider-response","53","584936","0.0-10.0-1.3","35","1","2025-07-02 10:18:39","80fe4187154257d5fb01684ea91b68b9","192.76.8.198","Mozilla/5.0 (Macintosh; Intel Mac OS X 10_15_7) AppleWebKit/537.36 (KHTML, like Gecko) Chrome/137.0.0.0 Safari/537.36","Macintosh","Chrome","137.0.0.0","OS X","10_15_7","https://app.prolific.com/","en-GB,en-US;q=0.9,en;q=0.8","5fe0b183d8918b2030aa99a0","683db6dfa200031b80f2a654","6865077ce0815de38f4df338","5fe0b183d8918b2030aa99a0","2025-07-02T10:28:25.938Z","","","","","","AttribQ","","","","","","","","","","","","","","","","","","","","","","","","","","","","","","","","","","","","","","50",""
"2738","","<div style=""width:500px;"">
  <p>How much control did you have over the ball?</p>
  </div>","100","html-slider-response","54","587674","0.0-10.0-2.3","35","1","2025-07-02 10:18:39","80fe4187154257d5fb01684ea91b68b9","192.76.8.198","Mozilla/5.0 (Macintosh; Intel Mac OS X 10_15_7) AppleWebKit/537.36 (KHTML, like Gecko) Chrome/137.0.0.0 Safari/537.36","Macintosh","Chrome","137.0.0.0","OS X","10_15_7","https://app.prolific.com/","en-GB,en-US;q=0.9,en;q=0.8","5fe0b183d8918b2030aa99a0","683db6dfa200031b80f2a654","6865077ce0815de38f4df338","5fe0b183d8918b2030aa99a0","2025-07-02T10:28:28.676Z","","","","","","ControlQ","","","","","","","","","","","","","","","","","","","","","","","","","","","","","","","","","","","","","","50",""
"5195","","<div style=""width:500px;"">
  <p>How would you describe your current emotional state?</p>
  </div>","52","html-slider-response","55","592870","0.0-10.0-3.3","35","1","2025-07-02 10:18:39","80fe4187154257d5fb01684ea91b68b9","192.76.8.198","Mozilla/5.0 (Macintosh; Intel Mac OS X 10_15_7) AppleWebKit/537.36 (KHTML, like Gecko) Chrome/137.0.0.0 Safari/537.36","Macintosh","Chrome","137.0.0.0","OS X","10_15_7","https://app.prolific.com/","en-GB,en-US;q=0.9,en;q=0.8","5fe0b183d8918b2030aa99a0","683db6dfa200031b80f2a654","6865077ce0815de38f4df338","5fe0b183d8918b2030aa99a0","2025-07-02T10:28:33.872Z","","","","","","StressQ","","","","","","","","","","","","","","","","","","","","","","","","","","","","","","","","","","","","","","50",""
"4225","","<div style=""width:500px;"">
  <p>What best describes how you currently feel?</p>
  </div>","100","html-slider-response","56","597096","0.0-10.0-4.3","35","1","2025-07-02 10:18:39","80fe4187154257d5fb01684ea91b68b9","192.76.8.198","Mozilla/5.0 (Macintosh; Intel Mac OS X 10_15_7) AppleWebKit/537.36 (KHTML, like Gecko) Chrome/137.0.0.0 Safari/537.36","Macintosh","Chrome","137.0.0.0","OS X","10_15_7","https://app.prolific.com/","en-GB,en-US;q=0.9,en;q=0.8","5fe0b183d8918b2030aa99a0","683db6dfa200031b80f2a654","6865077ce0815de38f4df338","5fe0b183d8918b2030aa99a0","2025-07-02T10:28:38.098Z","","","","","","MotivationQ","","","","","","","","","","","","","","","","","","","","","","","","","","","","","","","","","","","","","","50",""
"","","","","ctl-task-cpt","57","642432","0.0-10.0-0.4","35","1","2025-07-02 10:18:39","80fe4187154257d5fb01684ea91b68b9","192.76.8.198","Mozilla/5.0 (Macintosh; Intel Mac OS X 10_15_7) AppleWebKit/537.36 (KHTML, like Gecko) Chrome/137.0.0.0 Safari/537.36","Macintosh","Chrome","137.0.0.0","OS X","10_15_7","https://app.prolific.com/","en-GB,en-US;q=0.9,en;q=0.8","5fe0b183d8918b2030aa99a0","683db6dfa200031b80f2a654","6865077ce0815de38f4df338","5fe0b183d8918b2030aa99a0","2025-07-02T10:29:23.434Z","","","","","","","","","","","","","","","","win-only","0","g1:NW,g2:SE","0.6","5","0","599156.6","1053.7","6056","42325.8","1","4","4","6","2","-4","-4","16","20","0.12121212121212122","1064.9","3000","-3000","[""down"",""right""]","{""num_key_presses"":9,""num_perfect"":5,""num_errors"":0,""num_randdir"":4,""num_randdir_good_moves"":1,""num_whilered"":0,""num_whileblue"":0,""num_blue"":3,""num_good_moves"":6}","[713.7142857142857,715.5111607142857,0,713.7142857142857,715.5111607142857,101.5,713.7142857142857,715.5111607142857,203.9,713.7142857142857,715.5111607142857,307.4,713.7142857142857,715.5111607142857,407.4,771.7142857142857,773.5111607142857,512.1,1107.7142857142858,1145.5111607142858,612.2,1151.7142857142858,1193.5111607142858,717.2,1151.7142857142858,1193.5111607142858,822.2,1199.7142857142858,1257.5111607142858,926.5,1223.7142857142858,1283.5111607142858,1027,1227.7142857142858,1291.5111607142858,1131.9,1227.7142857142858,1289.5111607142858,1237.2,1227.7142857142858,1289.5111607142858,1342.2,1227.7142857142858,1289.5111607142858,1447.5,1227.7142857142858,1289.5111607142858,1552.3,1227.7142857142858,1289.5111607142858,1657.3,1227.7142857142858,1289.5111607142858,1761.4,1227.7142857142858,1289.5111607142858,1862.5,1227.7142857142858,1289.5111607142858,1967,1227.7142857142858,1289.5111607142858,2067.4,1227.7142857142858,1289.5111607142858,2168.3,1227.7142857142858,1289.5111607142858,2272.2,1227.7142857142858,1289.5111607142858,2372.3,1227.7142857142858,1289.5111607142858,2476.8,1227.7142857142858,1289.5111607142858,2581.8,1227.7142857142858,1289.5111607142858,2682.1,1227.7142857142858,1289.5111607142858,2786.5,1227.7142857142858,1289.5111607142858,2887.3,1227.7142857142858,1289.5111607142858,2987.7,1227.7142857142858,1289.5111607142858,3089.4,1227.7142857142858,1289.5111607142858,3192.3,1227.7142857142858,1289.5111607142858,3296.6,1227.7142857142858,1289.5111607142858,3397,1227.7142857142858,1289.5111607142858,3497.5,1227.7142857142858,1289.5111607142858,3602,1227.7142857142858,1289.5111607142858,3702.3,1227.7142857142858,1289.5111607142858,3802.4,1227.7142857142858,1289.5111607142858,3907.5,1227.7142857142858,1289.5111607142858,4011.7,1227.7142857142858,1289.5111607142858,4112.4,1227.7142857142858,1289.5111607142858,4218.5,1227.7142857142858,1289.5111607142858,4321.7,1227.7142857142858,1289.5111607142858,4423.1,1227.7142857142858,1289.5111607142858,4527,1227.7142857142858,1289.5111607142858,4631.6,1227.7142857142858,1289.5111607142858,4731.7,1227.7142857142858,1289.5111607142858,4831.8,1227.7142857142858,1289.5111607142858,4934.9]","[4592.4,4592.4,2272.8,2009.9,309.7,""smooth"",""right"",""right"",""good_move"",6919.5,2326.9,2014.5,4592.6,312.4,""oops"",""right"",""left"",""bad_move"",9654.2,2734.5,2339.8,6919.7,394.7,""smooth"",""right"",""right"",""good_move"",12734.8,3080.2,2719.5,9654.6,360.7,""oops"",""right"",""left"",""bad_move"",23405.2,10670.3,2977.5,20080,347.7,""smooth"",""down"",""down"",""good_move"",25635.1,2229.5,1869,23405.6,360.5,""oops"",""down"",""up"",""bad_move"",28927,3291.7,2955.9,25635.3,335.8,""smooth"",""down"",""down"",""good_move"",31871.7,2944.6,2582,28927.1,362.6,""oops"",""right"",""down"",""good_move"",33900.6,2028.7,1696.7,31871.9,332,""smooth"",""right"",""right"",""good_move""]","","",""
"3600","","<div style=""width:500px;"">
  <p>What determined the result of this run?</p>
  </div>","41","html-slider-response","58","646033","0.0-10.0-1.4","35","1","2025-07-02 10:18:39","80fe4187154257d5fb01684ea91b68b9","192.76.8.198","Mozilla/5.0 (Macintosh; Intel Mac OS X 10_15_7) AppleWebKit/537.36 (KHTML, like Gecko) Chrome/137.0.0.0 Safari/537.36","Macintosh","Chrome","137.0.0.0","OS X","10_15_7","https://app.prolific.com/","en-GB,en-US;q=0.9,en;q=0.8","5fe0b183d8918b2030aa99a0","683db6dfa200031b80f2a654","6865077ce0815de38f4df338","5fe0b183d8918b2030aa99a0","2025-07-02T10:29:27.035Z","","","","","","AttribQ","","","","","","","","","","","","","","","","","","","","","","","","","","","","","","","","","","","","","","50",""
"2866","","<div style=""width:500px;"">
  <p>How much control did you have over the ball?</p>
  </div>","6","html-slider-response","59","648899","0.0-10.0-2.4","35","1","2025-07-02 10:18:39","80fe4187154257d5fb01684ea91b68b9","192.76.8.198","Mozilla/5.0 (Macintosh; Intel Mac OS X 10_15_7) AppleWebKit/537.36 (KHTML, like Gecko) Chrome/137.0.0.0 Safari/537.36","Macintosh","Chrome","137.0.0.0","OS X","10_15_7","https://app.prolific.com/","en-GB,en-US;q=0.9,en;q=0.8","5fe0b183d8918b2030aa99a0","683db6dfa200031b80f2a654","6865077ce0815de38f4df338","5fe0b183d8918b2030aa99a0","2025-07-02T10:29:29.902Z","","","","","","ControlQ","","","","","","","","","","","","","","","","","","","","","","","","","","","","","","","","","","","","","","50",""
"4378","","<div style=""width:500px;"">
  <p>How would you describe your current emotional state?</p>
  </div>","53","html-slider-response","60","653279","0.0-10.0-3.4","35","1","2025-07-02 10:18:39","80fe4187154257d5fb01684ea91b68b9","192.76.8.198","Mozilla/5.0 (Macintosh; Intel Mac OS X 10_15_7) AppleWebKit/537.36 (KHTML, like Gecko) Chrome/137.0.0.0 Safari/537.36","Macintosh","Chrome","137.0.0.0","OS X","10_15_7","https://app.prolific.com/","en-GB,en-US;q=0.9,en;q=0.8","5fe0b183d8918b2030aa99a0","683db6dfa200031b80f2a654","6865077ce0815de38f4df338","5fe0b183d8918b2030aa99a0","2025-07-02T10:29:34.281Z","","","","","","StressQ","","","","","","","","","","","","","","","","","","","","","","","","","","","","","","","","","","","","","","50",""
"3338","","<div style=""width:500px;"">
  <p>What best describes how you currently feel?</p>
  </div>","97","html-slider-response","61","656618","0.0-10.0-4.4","35","1","2025-07-02 10:18:39","80fe4187154257d5fb01684ea91b68b9","192.76.8.198","Mozilla/5.0 (Macintosh; Intel Mac OS X 10_15_7) AppleWebKit/537.36 (KHTML, like Gecko) Chrome/137.0.0.0 Safari/537.36","Macintosh","Chrome","137.0.0.0","OS X","10_15_7","https://app.prolific.com/","en-GB,en-US;q=0.9,en;q=0.8","5fe0b183d8918b2030aa99a0","683db6dfa200031b80f2a654","6865077ce0815de38f4df338","5fe0b183d8918b2030aa99a0","2025-07-02T10:29:37.620Z","","","","","","MotivationQ","","","","","","","","","","","","","","","","","","","","","","","","","","","","","","","","","","","","","","50",""
"","","","","ctl-task-cpt","62","690699","0.0-10.0-0.5","35","1","2025-07-02 10:18:39","80fe4187154257d5fb01684ea91b68b9","192.76.8.198","Mozilla/5.0 (Macintosh; Intel Mac OS X 10_15_7) AppleWebKit/537.36 (KHTML, like Gecko) Chrome/137.0.0.0 Safari/537.36","Macintosh","Chrome","137.0.0.0","OS X","10_15_7","https://app.prolific.com/","en-GB,en-US;q=0.9,en;q=0.8","5fe0b183d8918b2030aa99a0","683db6dfa200031b80f2a654","6865077ce0815de38f4df338","5fe0b183d8918b2030aa99a0","2025-07-02T10:30:11.701Z","","","","","","","","","","","","","","","","win-only","3","g1:SW,g2:NE","0.5","6","0","658678","966.6","5970.4","31070.9","1","4","8","6","2","8","7","23","16","0.17424242424242425","907.5","3000","15","[""up"",""right""]","{""num_key_presses"":10,""num_perfect"":4,""num_errors"":1,""num_randdir"":5,""num_randdir_good_moves"":3,""num_whilered"":0,""num_whileblue"":1,""num_blue"":1,""num_good_moves"":8}","[717.7142857142857,701.5111607142857,0,717.7142857142857,703.5111607142857,118.2,717.7142857142857,703.5111607142857,219.3,717.7142857142857,703.5111607142857,323.9,717.7142857142857,703.5111607142857,424.6,717.7142857142857,701.5111607142857,529,1213.7142857142858,207.51116071428572,629.4,1235.7142857142858,167.51116071428572,733.9,1279.7142857142858,137.51116071428572,834.1,1281.7142857142858,143.51116071428572,934.9,1281.7142857142858,143.51116071428572,1039.8,1281.7142857142858,143.51116071428572,1144,1281.7142857142858,143.51116071428572,1249,1281.7142857142858,143.51116071428572,1354.2,1281.7142857142858,143.51116071428572,1454.4,1281.7142857142858,143.51116071428572,1559.1,1281.7142857142858,143.51116071428572,1664.5,1281.7142857142858,143.51116071428572,1764.6,1281.7142857142858,143.51116071428572,1869,1281.7142857142858,143.51116071428572,1971.8,1281.7142857142858,143.51116071428572,2073.8,1281.7142857142858,143.51116071428572,2173.8,1281.7142857142858,143.51116071428572,2274.6,1281.7142857142858,143.51116071428572,2379.1,1281.7142857142858,143.51116071428572,2479.3,1281.7142857142858,143.51116071428572,2583.8,1281.7142857142858,143.51116071428572,2684.8,1281.7142857142858,143.51116071428572,2785.3,1281.7142857142858,143.51116071428572,2890.6,1281.7142857142858,143.51116071428572,2994.5,1281.7142857142858,143.51116071428572,3098.8,1281.7142857142858,143.51116071428572,3199.5,1281.7142857142858,143.51116071428572,3300.2,1281.7142857142858,143.51116071428572,3405.2,1281.7142857142858,143.51116071428572,3508.5,1281.7142857142858,143.51116071428572,3609.6,1281.7142857142858,143.51116071428572,3713.9,1281.7142857142858,143.51116071428572,3818.7,1281.7142857142858,143.51116071428572,3919.1,1281.7142857142858,143.51116071428572,4020.3,1281.7142857142858,143.51116071428572,4124.5,1281.7142857142858,143.51116071428572,4229.6,1281.7142857142858,143.51116071428572,4335.1,1281.7142857142858,143.51116071428572,4440.2,1281.7142857142858,143.51116071428572,4544.2,1281.7142857142858,143.51116071428572,4649,1281.7142857142858,143.51116071428572,4749.1,1281.7142857142858,143.51116071428572,4849.6,1281.7142857142858,143.51116071428572,4953.9]","[1468.7,1468.7,1000,0,468.7,""smooth"",""up"",""up"",""good_move"",4014,2545,2222.6,1469,322.4,""smooth"",""up"",""up"",""good_move"",7024.4,3010.3,2641.8,4014.1,368.5,""oops"",""up"",""down"",""bad_move"",9284.4,2259.8,1950.8,7024.6,309,""oops"",""right"",""right"",""good_move"",12083.2,2798.5,2506.9,9284.7,291.6,""oops"",""right"",""right"",""good_move"",15316.8,3233.5,2909.8,12083.3,323.7,""smooth"",""right"",""right"",""good_move"",17176.8,1859.9,1493.6,15316.9,366.3,""oops"",""up"",""up"",""good_move"",19651.3,2474.4,2199.8,17176.9,274.6,""oops"",""up"",""down"",""bad_move"",22185.1,2533.4,2223.5,19651.7,309.9,""while_blue"",""up"",""up"",""good_move"",25014.7,2829.3,2491.9,22185.4,337.4,""smooth"",""up"",""up"",""good_move""]","","",""
"1985","","<div style=""width:500px;"">
  <p>What determined the result of this run?</p>
  </div>","29","html-slider-response","63","692685","0.0-10.0-1.5","35","1","2025-07-02 10:18:39","80fe4187154257d5fb01684ea91b68b9","192.76.8.198","Mozilla/5.0 (Macintosh; Intel Mac OS X 10_15_7) AppleWebKit/537.36 (KHTML, like Gecko) Chrome/137.0.0.0 Safari/537.36","Macintosh","Chrome","137.0.0.0","OS X","10_15_7","https://app.prolific.com/","en-GB,en-US;q=0.9,en;q=0.8","5fe0b183d8918b2030aa99a0","683db6dfa200031b80f2a654","6865077ce0815de38f4df338","5fe0b183d8918b2030aa99a0","2025-07-02T10:30:13.687Z","","","","","","AttribQ","","","","","","","","","","","","","","","","","","","","","","","","","","","","","","","","","","","","","","50",""
"3760","","<div style=""width:500px;"">
  <p>How much control did you have over the ball?</p>
  </div>","33","html-slider-response","64","696445","0.0-10.0-2.5","35","1","2025-07-02 10:18:39","80fe4187154257d5fb01684ea91b68b9","192.76.8.198","Mozilla/5.0 (Macintosh; Intel Mac OS X 10_15_7) AppleWebKit/537.36 (KHTML, like Gecko) Chrome/137.0.0.0 Safari/537.36","Macintosh","Chrome","137.0.0.0","OS X","10_15_7","https://app.prolific.com/","en-GB,en-US;q=0.9,en;q=0.8","5fe0b183d8918b2030aa99a0","683db6dfa200031b80f2a654","6865077ce0815de38f4df338","5fe0b183d8918b2030aa99a0","2025-07-02T10:30:17.447Z","","","","","","ControlQ","","","","","","","","","","","","","","","","","","","","","","","","","","","","","","","","","","","","","","50",""
"3091","","<div style=""width:500px;"">
  <p>How would you describe your current emotional state?</p>
  </div>","54","html-slider-response","65","699537","0.0-10.0-3.5","35","1","2025-07-02 10:18:39","80fe4187154257d5fb01684ea91b68b9","192.76.8.198","Mozilla/5.0 (Macintosh; Intel Mac OS X 10_15_7) AppleWebKit/537.36 (KHTML, like Gecko) Chrome/137.0.0.0 Safari/537.36","Macintosh","Chrome","137.0.0.0","OS X","10_15_7","https://app.prolific.com/","en-GB,en-US;q=0.9,en;q=0.8","5fe0b183d8918b2030aa99a0","683db6dfa200031b80f2a654","6865077ce0815de38f4df338","5fe0b183d8918b2030aa99a0","2025-07-02T10:30:20.539Z","","","","","","StressQ","","","","","","","","","","","","","","","","","","","","","","","","","","","","","","","","","","","","","","50",""
"2687","","<div style=""width:500px;"">
  <p>What best describes how you currently feel?</p>
  </div>","98","html-slider-response","66","702225","0.0-10.0-4.5","35","1","2025-07-02 10:18:39","80fe4187154257d5fb01684ea91b68b9","192.76.8.198","Mozilla/5.0 (Macintosh; Intel Mac OS X 10_15_7) AppleWebKit/537.36 (KHTML, like Gecko) Chrome/137.0.0.0 Safari/537.36","Macintosh","Chrome","137.0.0.0","OS X","10_15_7","https://app.prolific.com/","en-GB,en-US;q=0.9,en;q=0.8","5fe0b183d8918b2030aa99a0","683db6dfa200031b80f2a654","6865077ce0815de38f4df338","5fe0b183d8918b2030aa99a0","2025-07-02T10:30:23.227Z","","","","","","MotivationQ","","","","","","","","","","","","","","","","","","","","","","","","","","","","","","","","","","","","","","50",""
"","","","","ctl-task-cpt","67","739898","0.0-10.0-0.6","35","1","2025-07-02 10:18:39","80fe4187154257d5fb01684ea91b68b9","192.76.8.198","Mozilla/5.0 (Macintosh; Intel Mac OS X 10_15_7) AppleWebKit/537.36 (KHTML, like Gecko) Chrome/137.0.0.0 Safari/537.36","Macintosh","Chrome","137.0.0.0","OS X","10_15_7","https://app.prolific.com/","en-GB,en-US;q=0.9,en;q=0.8","5fe0b183d8918b2030aa99a0","683db6dfa200031b80f2a654","6865077ce0815de38f4df338","5fe0b183d8918b2030aa99a0","2025-07-02T10:31:00.900Z","","","","","","","","","","","","","","","","win-only","3","g1:SW,g2:NE","0.4","7","0","704285.3","1183.9","6185.5","34661.6","1","4","4","6","1","-1","-1","22","23","0.16666666666666666","1276","3000","-2995","[""down"",""left""]","{""num_key_presses"":8,""num_perfect"":4,""num_errors"":0,""num_randdir"":4,""num_randdir_good_moves"":1,""num_whilered"":0,""num_whileblue"":0,""num_blue"":1,""num_good_moves"":5}","[707.7142857142857,713.5111607142857,0.1,707.7142857142857,713.5111607142857,102.1,707.7142857142857,713.5111607142857,202.3,707.7142857142857,713.5111607142857,307.1,707.7142857142857,713.5111607142857,411.7,707.7142857142857,713.5111607142857,511.8,1157.7142857142858,393.5111607142857,617.2,1353.7142857142858,187.51116071428572,722,1031.7142857142858,431.5111607142857,828.3,175.71428571428572,1295.5111607142858,932.3,63.71428571428571,1427.5111607142858,1037.5,61.71428571428571,1411.5111607142858,1142.1,97.71428571428571,1351.5111607142858,1246.7,99.71428571428571,1351.5111607142858,1346.8,99.71428571428571,1351.5111607142858,1451.9,99.71428571428571,1351.5111607142858,1552,99.71428571428571,1351.5111607142858,1656.4,99.71428571428571,1351.5111607142858,1756.8,99.71428571428571,1351.5111607142858,1861.5,99.71428571428571,1351.5111607142858,1966.7,99.71428571428571,1351.5111607142858,2066.8,99.71428571428571,1351.5111607142858,2166.8,99.71428571428571,1351.5111607142858,2267.1,99.71428571428571,1351.5111607142858,2372.2,99.71428571428571,1351.5111607142858,2476.4,99.71428571428571,1351.5111607142858,2576.5,99.71428571428571,1351.5111607142858,2677.8,99.71428571428571,1351.5111607142858,2778.1,99.71428571428571,1351.5111607142858,2879.4,99.71428571428571,1351.5111607142858,2982.1,99.71428571428571,1351.5111607142858,3082.1,99.71428571428571,1351.5111607142858,3182.1,99.71428571428571,1351.5111607142858,3286.4,99.71428571428571,1351.5111607142858,3387.3,99.71428571428571,1351.5111607142858,3491.6,99.71428571428571,1351.5111607142858,3591.7,99.71428571428571,1351.5111607142858,3691.7,99.71428571428571,1351.5111607142858,3791.8,99.71428571428571,1351.5111607142858,3897,99.71428571428571,1351.5111607142858,4001.9,99.71428571428571,1351.5111607142858,4106.7,99.71428571428571,1351.5111607142858,4206.8,99.71428571428571,1351.5111607142858,4312.1,99.71428571428571,1351.5111607142858,4416.9,99.71428571428571,1351.5111607142858,4521.7,99.71428571428571,1351.5111607142858,4626.6,99.71428571428571,1351.5111607142858,4731.9,99.71428571428571,1351.5111607142858,4833.6,99.71428571428571,1351.5111607142858,4937.1]","[1423.9,1423.9,1000,0,423.9,""smooth"",""left"",""left"",""good_move"",3585.4,2161.3,1793.7,1424.1,367.6,""smooth"",""left"",""left"",""good_move"",10827.7,7242.1,2885.7,7434.9,507.1,""oops"",""down"",""up"",""bad_move"",13715.7,2887,2514.2,10828.7,372.8,""smooth"",""down"",""down"",""good_move"",17312.9,3596,3250.8,13716.9,345.2,""oops"",""down"",""up"",""bad_move"",19643.4,2330.2,1967.5,17313.2,362.7,""oops"",""down"",""right"",""bad_move"",23554.2,3910.6,3621.1,19643.6,289.5,""oops"",""down"",""down"",""good_move"",26280.4,2725.9,2433,23554.5,292.9,""smooth"",""down"",""down"",""good_move""]","","",""
"4107","","<div style=""width:500px;"">
  <p>What determined the result of this run?</p>
  </div>","40","html-slider-response","68","744008","0.0-10.0-1.6","35","1","2025-07-02 10:18:39","80fe4187154257d5fb01684ea91b68b9","192.76.8.198","Mozilla/5.0 (Macintosh; Intel Mac OS X 10_15_7) AppleWebKit/537.36 (KHTML, like Gecko) Chrome/137.0.0.0 Safari/537.36","Macintosh","Chrome","137.0.0.0","OS X","10_15_7","https://app.prolific.com/","en-GB,en-US;q=0.9,en;q=0.8","5fe0b183d8918b2030aa99a0","683db6dfa200031b80f2a654","6865077ce0815de38f4df338","5fe0b183d8918b2030aa99a0","2025-07-02T10:31:05.010Z","","","","","","AttribQ","","","","","","","","","","","","","","","","","","","","","","","","","","","","","","","","","","","","","","50",""
"2695","","<div style=""width:500px;"">
  <p>How much control did you have over the ball?</p>
  </div>","20","html-slider-response","69","746705","0.0-10.0-2.6","35","1","2025-07-02 10:18:39","80fe4187154257d5fb01684ea91b68b9","192.76.8.198","Mozilla/5.0 (Macintosh; Intel Mac OS X 10_15_7) AppleWebKit/537.36 (KHTML, like Gecko) Chrome/137.0.0.0 Safari/537.36","Macintosh","Chrome","137.0.0.0","OS X","10_15_7","https://app.prolific.com/","en-GB,en-US;q=0.9,en;q=0.8","5fe0b183d8918b2030aa99a0","683db6dfa200031b80f2a654","6865077ce0815de38f4df338","5fe0b183d8918b2030aa99a0","2025-07-02T10:31:07.707Z","","","","","","ControlQ","","","","","","","","","","","","","","","","","","","","","","","","","","","","","","","","","","","","","","50",""
"2819","","<div style=""width:500px;"">
  <p>How would you describe your current emotional state?</p>
  </div>","57","html-slider-response","70","749524","0.0-10.0-3.6","35","1","2025-07-02 10:18:39","80fe4187154257d5fb01684ea91b68b9","192.76.8.198","Mozilla/5.0 (Macintosh; Intel Mac OS X 10_15_7) AppleWebKit/537.36 (KHTML, like Gecko) Chrome/137.0.0.0 Safari/537.36","Macintosh","Chrome","137.0.0.0","OS X","10_15_7","https://app.prolific.com/","en-GB,en-US;q=0.9,en;q=0.8","5fe0b183d8918b2030aa99a0","683db6dfa200031b80f2a654","6865077ce0815de38f4df338","5fe0b183d8918b2030aa99a0","2025-07-02T10:31:10.526Z","","","","","","StressQ","","","","","","","","","","","","","","","","","","","","","","","","","","","","","","","","","","","","","","50",""
"3018","","<div style=""width:500px;"">
  <p>What best describes how you currently feel?</p>
  </div>","100","html-slider-response","71","752543","0.0-10.0-4.6","35","1","2025-07-02 10:18:39","80fe4187154257d5fb01684ea91b68b9","192.76.8.198","Mozilla/5.0 (Macintosh; Intel Mac OS X 10_15_7) AppleWebKit/537.36 (KHTML, like Gecko) Chrome/137.0.0.0 Safari/537.36","Macintosh","Chrome","137.0.0.0","OS X","10_15_7","https://app.prolific.com/","en-GB,en-US;q=0.9,en;q=0.8","5fe0b183d8918b2030aa99a0","683db6dfa200031b80f2a654","6865077ce0815de38f4df338","5fe0b183d8918b2030aa99a0","2025-07-02T10:31:13.545Z","","","","","","MotivationQ","","","","","","","","","","","","","","","","","","","","","","","","","","","","","","","","","","","","","","50",""
"","","","","ctl-task-cpt","72","786000","0.0-10.0-0.7","35","1","2025-07-02 10:18:39","80fe4187154257d5fb01684ea91b68b9","192.76.8.198","Mozilla/5.0 (Macintosh; Intel Mac OS X 10_15_7) AppleWebKit/537.36 (KHTML, like Gecko) Chrome/137.0.0.0 Safari/537.36","Macintosh","Chrome","137.0.0.0","OS X","10_15_7","https://app.prolific.com/","en-GB,en-US;q=0.9,en;q=0.8","5fe0b183d8918b2030aa99a0","683db6dfa200031b80f2a654","6865077ce0815de38f4df338","5fe0b183d8918b2030aa99a0","2025-07-02T10:31:47.002Z","","","","","","","","","","","","","","","","win-only","1","g1:NE,g2:SW","0.3","8","0","754603.4","1110.8","6113.5","30446.2","1","4","8","6","2","8","7","29","22","0.2196969696969697","2315.9","3000","800","[""down"",""left""]","{""num_key_presses"":8,""num_perfect"":1,""num_errors"":1,""num_randdir"":6,""num_randdir_good_moves"":5,""num_whilered"":0,""num_whileblue"":1,""num_blue"":2,""num_good_moves"":7}","[709.7142857142857,709.5111607142857,0.1,709.7142857142857,709.5111607142857,100.3,709.7142857142857,709.5111607142857,200.4,709.7142857142857,709.5111607142857,302.3,709.7142857142857,709.5111607142857,405.6,709.7142857142857,709.5111607142857,510.3,559.7142857142857,899.5111607142857,614.7,405.7142857142857,1079.5111607142858,714.7,519.7142857142857,901.5111607142857,820.2,1605.7142857142858,-120.48883928571429,920.5,1657.7142857142858,-180.48883928571428,1025,1657.7142857142858,-180.48883928571428,1125.5,1429.7142857142858,19.511160714285708,1230.6,1297.7142857142858,137.51116071428572,1330.8,1295.7142857142858,139.51116071428572,1436.9,1295.7142857142858,137.51116071428572,1539.4,1295.7142857142858,137.51116071428572,1639.7,757.7142857142857,785.5111607142857,1740.4,511.7142857142857,1115.5111607142858,1845.3,511.7142857142857,1115.5111607142858,1945.9,73.71428571428571,1359.5111607142858,2051.6,21.714285714285708,1353.5111607142858,2154.8,35.71428571428571,1343.5111607142858,2255,49.71428571428571,1339.5111607142858,2355,49.71428571428571,1339.5111607142858,2459.7,49.71428571428571,1339.5111607142858,2560.5,49.71428571428571,1339.5111607142858,2665.2,49.71428571428571,1339.5111607142858,2770.2,49.71428571428571,1339.5111607142858,2870.3,49.71428571428571,1339.5111607142858,2975,49.71428571428571,1339.5111607142858,3080,49.71428571428571,1339.5111607142858,3180.5,49.71428571428571,1339.5111607142858,3285.3,49.71428571428571,1339.5111607142858,3390.2,49.71428571428571,1339.5111607142858,3490.2,49.71428571428571,1339.5111607142858,3595,49.71428571428571,1339.5111607142858,3701.4,49.71428571428571,1339.5111607142858,3805.1,49.71428571428571,1339.5111607142858,3909.7,49.71428571428571,1339.5111607142858,4010.5,49.71428571428571,1339.5111607142858,4115.5,49.71428571428571,1339.5111607142858,4220,49.71428571428571,1339.5111607142858,4320.6,49.71428571428571,1339.5111607142858,4425.3,49.71428571428571,1339.5111607142858,4529.3,49.71428571428571,1339.5111607142858,4631.7,49.71428571428571,1339.5111607142858,4734.7,49.71428571428571,1339.5111607142858,4835.2,49.71428571428571,1339.5111607142858,4938.6]","[1349.1,1349.1,1000,0,349.2,""oops"",""left"",""up"",""bad_move"",4148.4,2799.1,2486,1349.3,313.1,""oops"",""left"",""down"",""good_move"",7135,2986.4,2648,4148.6,338.4,""oops"",""down"",""down"",""good_move"",10040.1,2904.8,2598.3,7135.3,306.5,""oops"",""down"",""down"",""good_move"",15960.5,5920.2,2198.7,13457.7,304.1,""oops"",""left"",""down"",""good_move"",19327.8,3367.1,3033.8,15960.7,333.3,""oops"",""left"",""left"",""good_move"",21830.2,2502.3,2180.9,19327.9,321.4,""smooth"",""left"",""left"",""good_move"",24245.3,2414.9,2114.5,21830.4,300.4,""while_blue"",""left"",""left"",""good_move""]","","",""
"3401","","<div style=""width:500px;"">
  <p>What determined the result of this run?</p>
  </div>","20","html-slider-response","73","789402","0.0-10.0-1.7","35","1","2025-07-02 10:18:39","80fe4187154257d5fb01684ea91b68b9","192.76.8.198","Mozilla/5.0 (Macintosh; Intel Mac OS X 10_15_7) AppleWebKit/537.36 (KHTML, like Gecko) Chrome/137.0.0.0 Safari/537.36","Macintosh","Chrome","137.0.0.0","OS X","10_15_7","https://app.prolific.com/","en-GB,en-US;q=0.9,en;q=0.8","5fe0b183d8918b2030aa99a0","683db6dfa200031b80f2a654","6865077ce0815de38f4df338","5fe0b183d8918b2030aa99a0","2025-07-02T10:31:50.404Z","","","","","","AttribQ","","","","","","","","","","","","","","","","","","","","","","","","","","","","","","","","","","","","","","50",""
"2507","","<div style=""width:500px;"">
  <p>How much control did you have over the ball?</p>
  </div>","31","html-slider-response","74","791910","0.0-10.0-2.7","35","1","2025-07-02 10:18:39","80fe4187154257d5fb01684ea91b68b9","192.76.8.198","Mozilla/5.0 (Macintosh; Intel Mac OS X 10_15_7) AppleWebKit/537.36 (KHTML, like Gecko) Chrome/137.0.0.0 Safari/537.36","Macintosh","Chrome","137.0.0.0","OS X","10_15_7","https://app.prolific.com/","en-GB,en-US;q=0.9,en;q=0.8","5fe0b183d8918b2030aa99a0","683db6dfa200031b80f2a654","6865077ce0815de38f4df338","5fe0b183d8918b2030aa99a0","2025-07-02T10:31:52.912Z","","","","","","ControlQ","","","","","","","","","","","","","","","","","","","","","","","","","","","","","","","","","","","","","","50",""
"5843","","<div style=""width:500px;"">
  <p>How would you describe your current emotional state?</p>
  </div>","60","html-slider-response","75","797754","0.0-10.0-3.7","35","1","2025-07-02 10:18:39","80fe4187154257d5fb01684ea91b68b9","192.76.8.198","Mozilla/5.0 (Macintosh; Intel Mac OS X 10_15_7) AppleWebKit/537.36 (KHTML, like Gecko) Chrome/137.0.0.0 Safari/537.36","Macintosh","Chrome","137.0.0.0","OS X","10_15_7","https://app.prolific.com/","en-GB,en-US;q=0.9,en;q=0.8","5fe0b183d8918b2030aa99a0","683db6dfa200031b80f2a654","6865077ce0815de38f4df338","5fe0b183d8918b2030aa99a0","2025-07-02T10:31:58.756Z","","","","","","StressQ","","","","","","","","","","","","","","","","","","","","","","","","","","","","","","","","","","","","","","50",""
"2683","","<div style=""width:500px;"">
  <p>What best describes how you currently feel?</p>
  </div>","99","html-slider-response","76","800438","0.0-10.0-4.7","35","1","2025-07-02 10:18:39","80fe4187154257d5fb01684ea91b68b9","192.76.8.198","Mozilla/5.0 (Macintosh; Intel Mac OS X 10_15_7) AppleWebKit/537.36 (KHTML, like Gecko) Chrome/137.0.0.0 Safari/537.36","Macintosh","Chrome","137.0.0.0","OS X","10_15_7","https://app.prolific.com/","en-GB,en-US;q=0.9,en;q=0.8","5fe0b183d8918b2030aa99a0","683db6dfa200031b80f2a654","6865077ce0815de38f4df338","5fe0b183d8918b2030aa99a0","2025-07-02T10:32:01.440Z","","","","","","MotivationQ","","","","","","","","","","","","","","","","","","","","","","","","","","","","","","","","","","","","","","50",""
"","","","","ctl-task-cpt","77","840620","0.0-10.0-0.8","35","1","2025-07-02 10:18:39","80fe4187154257d5fb01684ea91b68b9","192.76.8.198","Mozilla/5.0 (Macintosh; Intel Mac OS X 10_15_7) AppleWebKit/537.36 (KHTML, like Gecko) Chrome/137.0.0.0 Safari/537.36","Macintosh","Chrome","137.0.0.0","OS X","10_15_7","https://app.prolific.com/","en-GB,en-US;q=0.9,en;q=0.8","5fe0b183d8918b2030aa99a0","683db6dfa200031b80f2a654","6865077ce0815de38f4df338","5fe0b183d8918b2030aa99a0","2025-07-02T10:32:41.622Z","","","","","","","","","","","","","","","","win-only","1","g1:NE,g2:SW","0.4","9","0","802497.4","1564.4","6565.9","37171.2","1","4","8","6","2","-8","-9","20","29","0.15151515151515152","1036.1","3000","-2955","[""down"",""left""]","{""num_key_presses"":10,""num_perfect"":4,""num_errors"":1,""num_randdir"":5,""num_randdir_good_moves"":1,""num_whilered"":0,""num_whileblue"":1,""num_blue"":2,""num_good_moves"":6}","[707.7142857142857,697.5111607142857,0.3,709.7142857142857,699.5111607142857,105.7,709.7142857142857,699.5111607142857,206,709.7142857142857,699.5111607142857,308.2,709.7142857142857,699.5111607142857,411,709.7142857142857,699.5111607142857,511.2,305.7142857142857,1199.5111607142858,611.7,179.71428571428572,1337.5111607142858,717.4,179.71428571428572,1337.5111607142858,821.2,179.71428571428572,1337.5111607142858,921.5,183.71428571428572,1297.5111607142858,1025.9,183.71428571428572,1297.5111607142858,1126.2,183.71428571428572,1297.5111607142858,1230,183.71428571428572,1297.5111607142858,1331.2,183.71428571428572,1297.5111607142858,1435.9,183.71428571428572,1297.5111607142858,1536.7,183.71428571428572,1297.5111607142858,1637.8,183.71428571428572,1297.5111607142858,1741.2,183.71428571428572,1297.5111607142858,1841.8,183.71428571428572,1297.5111607142858,1946.1,183.71428571428572,1297.5111607142858,2046.4,183.71428571428572,1297.5111607142858,2150.7,183.71428571428572,1297.5111607142858,2251.3,183.71428571428572,1297.5111607142858,2351.6,183.71428571428572,1297.5111607142858,2455.8,183.71428571428572,1297.5111607142858,2556.4,183.71428571428572,1297.5111607142858,2656.5,183.71428571428572,1297.5111607142858,2761.7,183.71428571428572,1297.5111607142858,2866.1,183.71428571428572,1297.5111607142858,2966.3,183.71428571428572,1297.5111607142858,3070.1,183.71428571428572,1297.5111607142858,3171.2,183.71428571428572,1297.5111607142858,3271.5,183.71428571428572,1297.5111607142858,3376.3,183.71428571428572,1297.5111607142858,3480.8,183.71428571428572,1297.5111607142858,3580.8,183.71428571428572,1297.5111607142858,3681,183.71428571428572,1297.5111607142858,3786.4,183.71428571428572,1297.5111607142858,3891.6,183.71428571428572,1297.5111607142858,3991.8,183.71428571428572,1297.5111607142858,4095.8,183.71428571428572,1297.5111607142858,4196.8,183.71428571428572,1297.5111607142858,4301.8,183.71428571428572,1297.5111607142858,4406.6,183.71428571428572,1297.5111607142858,4511.6,183.71428571428572,1297.5111607142858,4611.8,183.71428571428572,1297.5111607142858,4715.8,183.71428571428572,1297.5111607142858,4815.9,183.71428571428572,1297.5111607142858,4916.4]","[1380.8,1380.8,1000,0,380.8,""oops"",""down"",""down"",""good_move"",4057.9,2676.9,2387.8,1381,289.1,""smooth"",""down"",""down"",""good_move"",6176.9,2118.8,1809,4058.1,309.8,""smooth"",""down"",""down"",""good_move"",13012.5,6835.5,2915.2,9774.4,322.9,""while_blue"",""left"",""left"",""good_move"",15301,2288.2,1923,13012.8,365.2,""oops"",""left"",""right"",""bad_move"",17807.3,2506.1,2127.8,15301.2,378.3,""smooth"",""left"",""left"",""good_move"",20852.1,3044.6,2712,17807.5,332.6,""oops"",""left"",""right"",""bad_move"",23331.1,2478.8,2105.6,20852.3,373.2,""smooth"",""left"",""left"",""good_move"",25801.8,2470.5,2137.1,23331.3,333.4,""oops"",""left"",""up"",""bad_move"",29218.5,3416.5,3118.6,25802,297.9,""oops"",""left"",""up"",""bad_move""]","","",""
"2697","","<div style=""width:500px;"">
  <p>What determined the result of this run?</p>
  </div>","23","html-slider-response","78","843319","0.0-10.0-1.8","35","1","2025-07-02 10:18:39","80fe4187154257d5fb01684ea91b68b9","192.76.8.198","Mozilla/5.0 (Macintosh; Intel Mac OS X 10_15_7) AppleWebKit/537.36 (KHTML, like Gecko) Chrome/137.0.0.0 Safari/537.36","Macintosh","Chrome","137.0.0.0","OS X","10_15_7","https://app.prolific.com/","en-GB,en-US;q=0.9,en;q=0.8","5fe0b183d8918b2030aa99a0","683db6dfa200031b80f2a654","6865077ce0815de38f4df338","5fe0b183d8918b2030aa99a0","2025-07-02T10:32:44.321Z","","","","","","AttribQ","","","","","","","","","","","","","","","","","","","","","","","","","","","","","","","","","","","","","","50",""
"2880","","<div style=""width:500px;"">
  <p>How much control did you have over the ball?</p>
  </div>","5","html-slider-response","79","846200","0.0-10.0-2.8","35","1","2025-07-02 10:18:39","80fe4187154257d5fb01684ea91b68b9","192.76.8.198","Mozilla/5.0 (Macintosh; Intel Mac OS X 10_15_7) AppleWebKit/537.36 (KHTML, like Gecko) Chrome/137.0.0.0 Safari/537.36","Macintosh","Chrome","137.0.0.0","OS X","10_15_7","https://app.prolific.com/","en-GB,en-US;q=0.9,en;q=0.8","5fe0b183d8918b2030aa99a0","683db6dfa200031b80f2a654","6865077ce0815de38f4df338","5fe0b183d8918b2030aa99a0","2025-07-02T10:32:47.203Z","","","","","","ControlQ","","","","","","","","","","","","","","","","","","","","","","","","","","","","","","","","","","","","","","50",""
"2048","","<div style=""width:500px;"">
  <p>How would you describe your current emotional state?</p>
  </div>","62","html-slider-response","80","848250","0.0-10.0-3.8","35","1","2025-07-02 10:18:39","80fe4187154257d5fb01684ea91b68b9","192.76.8.198","Mozilla/5.0 (Macintosh; Intel Mac OS X 10_15_7) AppleWebKit/537.36 (KHTML, like Gecko) Chrome/137.0.0.0 Safari/537.36","Macintosh","Chrome","137.0.0.0","OS X","10_15_7","https://app.prolific.com/","en-GB,en-US;q=0.9,en;q=0.8","5fe0b183d8918b2030aa99a0","683db6dfa200031b80f2a654","6865077ce0815de38f4df338","5fe0b183d8918b2030aa99a0","2025-07-02T10:32:49.252Z","","","","","","StressQ","","","","","","","","","","","","","","","","","","","","","","","","","","","","","","","","","","","","","","50",""
"2622","","<div style=""width:500px;"">
  <p>What best describes how you currently feel?</p>
  </div>","99","html-slider-response","81","850874","0.0-10.0-4.8","35","1","2025-07-02 10:18:39","80fe4187154257d5fb01684ea91b68b9","192.76.8.198","Mozilla/5.0 (Macintosh; Intel Mac OS X 10_15_7) AppleWebKit/537.36 (KHTML, like Gecko) Chrome/137.0.0.0 Safari/537.36","Macintosh","Chrome","137.0.0.0","OS X","10_15_7","https://app.prolific.com/","en-GB,en-US;q=0.9,en;q=0.8","5fe0b183d8918b2030aa99a0","683db6dfa200031b80f2a654","6865077ce0815de38f4df338","5fe0b183d8918b2030aa99a0","2025-07-02T10:32:51.876Z","","","","","","MotivationQ","","","","","","","","","","","","","","","","","","","","","","","","","","","","","","","","","","","","","","50",""
