"rt","response_timestamp","stimulus","response","trial_type","trial_index","time_elapsed","internal_node_id","run_id","condition","recorded_at","source_code_version","ip","user_agent","device","browser","browser_version","platform","platform_version","referer","accept_language","PROLIFIC_PID","STUDY_ID","SESSION_ID","prolific_id","realtime","view_history","question_order","consent","success","question_id","eventType","responses","item_order","radio_event_ids","radio_event_times","key_event_times","mouse_event_times","straightlining","zigzagging","honeypot","which_type","canvas_config","goals_layout","control_level","trial_number","tutorial_trial_number","trial_start_time","phase1_start_time","phase2_start_time","phase3_start_time","goal_1_value","goal_1_distance","goal_2_value","goal_2_distance","goal_selected","outcome","outcome_total","participant_final_score","participant_initial_score","participant_final_score_prop","goal_choice_rt","allocated_time","allocated_time_remaining","goal_direction","counts","mouse_movements","key_presses","correct","slider_start"
"33045","1751451739251","<p style='font-size:40px;line-height:1.25'><strong>Welcome to the experiment!</strong></p><p style='font-size:1.1em;line-height:1.25'>Thank you for your interest in our experiment! Before you begin, it is important that we obtain your informed consent to participate in the study.</p><p style='font-size:1.1em;line-height:1.25'>On the next screen will be an <strong>information sheet</strong> for you to read. To participate in the study we need you to read this information sheet and the following consent form carefully. If you agree with all the statements, please click the <strong>I agree</strong> button.</p><p style='font-size:1.1em;line-height:1.25'>Press <strong>Next</strong> to read the information sheet.</p>","0","custom-html-button-response","0","33048","0.0-0.0","154","1","2025-07-02 10:21:44","80fe4187154257d5fb01684ea91b68b9","148.252.140.99","Mozilla/5.0 (Macintosh; Intel Mac OS X 10_15_7) AppleWebKit/537.36 (KHTML, like Gecko) Chrome/137.0.0.0 Safari/537.36","Macintosh","Chrome","137.0.0.0","OS X","10_15_7","https://app.prolific.com/","en-GB,en-US;q=0.9,en;q=0.8","603659d5c391045d1e4b332b","683db6dfa200031b80f2a654","68650775406987368201bd55","603659d5c391045d1e4b332b","2025-07-02T10:22:19.253Z","","","","","","","","","","","","","","","","","","","","","","","","","","","","","","","","","","","","","","","","","","","",""
"51980","","","","instructions","1","85031","0.0-1.0","154","1","2025-07-02 10:21:44","80fe4187154257d5fb01684ea91b68b9","148.252.140.99","Mozilla/5.0 (Macintosh; Intel Mac OS X 10_15_7) AppleWebKit/537.36 (KHTML, like Gecko) Chrome/137.0.0.0 Safari/537.36","Macintosh","Chrome","137.0.0.0","OS X","10_15_7","https://app.prolific.com/","en-GB,en-US;q=0.9,en;q=0.8","603659d5c391045d1e4b332b","683db6dfa200031b80f2a654","68650775406987368201bd55","603659d5c391045d1e4b332b","","[{""page_index"":0,""viewing_time"":46612},{""page_index"":1,""viewing_time"":5367}]","","","","","","","","","","","","","","","","","","","","","","","","","","","","","","","","","","","","","","","","","","",""
"14666","","","{""Q0"":"""",""Q1"":"""",""Q2"":"""",""Q3"":"""",""Q4"":"""",""Q5"":"""",""Q6"":""I agree""}","survey-multi-choice","2","99700","0.0-2.0","154","1","2025-07-02 10:21:44","80fe4187154257d5fb01684ea91b68b9","148.252.140.99","Mozilla/5.0 (Macintosh; Intel Mac OS X 10_15_7) AppleWebKit/537.36 (KHTML, like Gecko) Chrome/137.0.0.0 Safari/537.36","Macintosh","Chrome","137.0.0.0","OS X","10_15_7","https://app.prolific.com/","en-GB,en-US;q=0.9,en;q=0.8","603659d5c391045d1e4b332b","683db6dfa200031b80f2a654","68650775406987368201bd55","603659d5c391045d1e4b332b","","","[0,1,2,3,4,5,6]","true","","","","","","","","","","","","","","","","","","","","","","","","","","","","","","","","","","","","","","","","",""
"73212","","","","fullscreen","3","173917","0.0-4.0","154","1","2025-07-02 10:21:44","80fe4187154257d5fb01684ea91b68b9","148.252.140.99","Mozilla/5.0 (Macintosh; Intel Mac OS X 10_15_7) AppleWebKit/537.36 (KHTML, like Gecko) Chrome/137.0.0.0 Safari/537.36","Macintosh","Chrome","137.0.0.0","OS X","10_15_7","https://app.prolific.com/","en-GB,en-US;q=0.9,en;q=0.8","603659d5c391045d1e4b332b","683db6dfa200031b80f2a654","68650775406987368201bd55","603659d5c391045d1e4b332b","","","","","true","","","","","","","","","","","","","","","","","","","","","","","","","","","","","","","","","","","","","","","",""
"21629","1751451901752"," <p style='font-size:1.1em;line-height:1.25'>Thank you for completing the consent form and closing all other tabs.</p><p style='font-size:1.1em;line-height:1.25'>We will now invite you to fill in some demographic information and questionnaires, before starting the game.<br>This will take about 5 minutes.<br></p><p style='font-size:1.1em;line-height:1.25'>Press the <strong>Next</strong> button to continue.</p>","0","custom-html-button-response","4","195548","0.0-5.0","154","1","2025-07-02 10:21:44","80fe4187154257d5fb01684ea91b68b9","148.252.140.99","Mozilla/5.0 (Macintosh; Intel Mac OS X 10_15_7) AppleWebKit/537.36 (KHTML, like Gecko) Chrome/137.0.0.0 Safari/537.36","Macintosh","Chrome","137.0.0.0","OS X","10_15_7","https://app.prolific.com/","en-GB,en-US;q=0.9,en;q=0.8","603659d5c391045d1e4b332b","683db6dfa200031b80f2a654","68650775406987368201bd55","603659d5c391045d1e4b332b","2025-07-02T10:25:01.753Z","","","","","","","","","","","","","","","","","","","","","","","","","","","","","","","","","","","","","","","","","","","",""
"2078","","","{""age"":""23""}","survey-text","5","197632","0.0-6.0-0.0","154","1","2025-07-02 10:21:44","80fe4187154257d5fb01684ea91b68b9","148.252.140.99","Mozilla/5.0 (Macintosh; Intel Mac OS X 10_15_7) AppleWebKit/537.36 (KHTML, like Gecko) Chrome/137.0.0.0 Safari/537.36","Macintosh","Chrome","137.0.0.0","OS X","10_15_7","https://app.prolific.com/","en-GB,en-US;q=0.9,en;q=0.8","603659d5c391045d1e4b332b","683db6dfa200031b80f2a654","68650775406987368201bd55","603659d5c391045d1e4b332b","","","","","","0","demographics","","","","","","","","","","","","","","","","","","","","","","","","","","","","","","","","","","","","","",""
"1965","","","{""gender_identity"":""female/woman""}","survey-multi-choice","6","199598","0.0-6.0-1.0","154","1","2025-07-02 10:21:44","80fe4187154257d5fb01684ea91b68b9","148.252.140.99","Mozilla/5.0 (Macintosh; Intel Mac OS X 10_15_7) AppleWebKit/537.36 (KHTML, like Gecko) Chrome/137.0.0.0 Safari/537.36","Macintosh","Chrome","137.0.0.0","OS X","10_15_7","https://app.prolific.com/","en-GB,en-US;q=0.9,en;q=0.8","603659d5c391045d1e4b332b","683db6dfa200031b80f2a654","68650775406987368201bd55","603659d5c391045d1e4b332b","","","[0]","","","1","demographics","","","","","","","","","","","","","","","","","","","","","","","","","","","","","","","","","","","","","",""
"2165","","","{""assigned_sex"":""female""}","survey-multi-choice","7","201765","0.0-6.0-2.0","154","1","2025-07-02 10:21:44","80fe4187154257d5fb01684ea91b68b9","148.252.140.99","Mozilla/5.0 (Macintosh; Intel Mac OS X 10_15_7) AppleWebKit/537.36 (KHTML, like Gecko) Chrome/137.0.0.0 Safari/537.36","Macintosh","Chrome","137.0.0.0","OS X","10_15_7","https://app.prolific.com/","en-GB,en-US;q=0.9,en;q=0.8","603659d5c391045d1e4b332b","683db6dfa200031b80f2a654","68650775406987368201bd55","603659d5c391045d1e4b332b","","","[0]","","","2","demographics","","","","","","","","","","","","","","","","","","","","","","","","","","","","","","","","","","","","","",""
"2348","","","{""menstrual_cycle"":""Yes""}","survey-multi-choice","8","204115","0.0-6.0-3.0","154","1","2025-07-02 10:21:44","80fe4187154257d5fb01684ea91b68b9","148.252.140.99","Mozilla/5.0 (Macintosh; Intel Mac OS X 10_15_7) AppleWebKit/537.36 (KHTML, like Gecko) Chrome/137.0.0.0 Safari/537.36","Macintosh","Chrome","137.0.0.0","OS X","10_15_7","https://app.prolific.com/","en-GB,en-US;q=0.9,en;q=0.8","603659d5c391045d1e4b332b","683db6dfa200031b80f2a654","68650775406987368201bd55","603659d5c391045d1e4b332b","","","[0]","","","4","demographics","","","","","","","","","","","","","","","","","","","","","","","","","","","","","","","","","","","","","",""
"2115","","","{""education"":""Master's Degree (e.g., MSc)""}","survey-multi-choice","9","206232","0.0-6.0-4.0","154","1","2025-07-02 10:21:44","80fe4187154257d5fb01684ea91b68b9","148.252.140.99","Mozilla/5.0 (Macintosh; Intel Mac OS X 10_15_7) AppleWebKit/537.36 (KHTML, like Gecko) Chrome/137.0.0.0 Safari/537.36","Macintosh","Chrome","137.0.0.0","OS X","10_15_7","https://app.prolific.com/","en-GB,en-US;q=0.9,en;q=0.8","603659d5c391045d1e4b332b","683db6dfa200031b80f2a654","68650775406987368201bd55","603659d5c391045d1e4b332b","","","[0]","","","5","demographics","","","","","","","","","","","","","","","","","","","","","","","","","","","","","","","","","","","","","",""
"4315","","","{""education"":""Bachelor's Degree (e.g., BA)""}","survey-multi-choice","10","210549","0.0-6.0-5.0","154","1","2025-07-02 10:21:44","80fe4187154257d5fb01684ea91b68b9","148.252.140.99","Mozilla/5.0 (Macintosh; Intel Mac OS X 10_15_7) AppleWebKit/537.36 (KHTML, like Gecko) Chrome/137.0.0.0 Safari/537.36","Macintosh","Chrome","137.0.0.0","OS X","10_15_7","https://app.prolific.com/","en-GB,en-US;q=0.9,en;q=0.8","603659d5c391045d1e4b332b","683db6dfa200031b80f2a654","68650775406987368201bd55","603659d5c391045d1e4b332b","2025-07-02T10:25:16.754Z","","[0]","","","6","demographics","","","","","","","","","","","","","","","","","","","","","","","","","","","","","","","","","","","","","",""
"5979","","","{""mental_health_condition"":""No"",""mental_health_treatment"":""No"",""psychiatric_medication"":""No""}","survey-text","11","216531","0.0-7.0-0.0","154","1","2025-07-02 10:21:44","80fe4187154257d5fb01684ea91b68b9","148.252.140.99","Mozilla/5.0 (Macintosh; Intel Mac OS X 10_15_7) AppleWebKit/537.36 (KHTML, like Gecko) Chrome/137.0.0.0 Safari/537.36","Macintosh","Chrome","137.0.0.0","OS X","10_15_7","https://app.prolific.com/","en-GB,en-US;q=0.9,en;q=0.8","603659d5c391045d1e4b332b","683db6dfa200031b80f2a654","68650775406987368201bd55","603659d5c391045d1e4b332b","2025-07-02T10:25:22.736Z","","","","","1","mental_health","","","","","","","","","","","","","","","","","","","","","","","","","","","","","","","","","","","","","",""
"6398","","","{""depression_history"":[""No""]}","survey-multi-select","12","222932","0.0-7.0-1.0","154","1","2025-07-02 10:21:44","80fe4187154257d5fb01684ea91b68b9","148.252.140.99","Mozilla/5.0 (Macintosh; Intel Mac OS X 10_15_7) AppleWebKit/537.36 (KHTML, like Gecko) Chrome/137.0.0.0 Safari/537.36","Macintosh","Chrome","137.0.0.0","OS X","10_15_7","https://app.prolific.com/","en-GB,en-US;q=0.9,en;q=0.8","603659d5c391045d1e4b332b","683db6dfa200031b80f2a654","68650775406987368201bd55","603659d5c391045d1e4b332b","","","[0]","","","","mental_health","","","","","","","","","","","","","","","","","","","","","","","","","","","","","","","","","","","","","",""
"30632.30000001192","","","","survey-template","13","253570","0.0-7.0-3.0","154","1","2025-07-02 10:21:44","80fe4187154257d5fb01684ea91b68b9","148.252.140.99","Mozilla/5.0 (Macintosh; Intel Mac OS X 10_15_7) AppleWebKit/537.36 (KHTML, like Gecko) Chrome/137.0.0.0 Safari/537.36","Macintosh","Chrome","137.0.0.0","OS X","10_15_7","https://app.prolific.com/","en-GB,en-US;q=0.9,en;q=0.8","603659d5c391045d1e4b332b","683db6dfa200031b80f2a654","68650775406987368201bd55","603659d5c391045d1e4b332b","2025-07-02T10:25:59.775Z","","","","","","ius","{""Q01"":""1"",""Q02"":""2"",""Q03"":""1"",""Q04"":""2"",""Q05"":""1"",""Q06"":""0"",""Q07"":""2"",""Q08"":""0"",""Q09"":""2"",""Q10"":""1"",""Q11"":""2"",""Q12"":""2"",""Q13"":""1""}","[0,1,2,3,4,5,6,7,8,9,10,11,12]","[""Q01"",""Q02"",""Q03"",""Q04"",""Q05"",""Q06"",""Q07"",""Q08"",""Q09"",""Q10"",""Q11"",""Q12"",""Q13""]","[3160.800000011921,5294.100000023842,7160.400000035763,9343.900000035763,13193.699999988079,16060.400000035763,17626.30000001192,19743.69999998808,21994,23693.69999998808,25810.900000035763,28243.30000001192,29610.19999998808]","[]","[3160.800000011921,5294.100000023842,7160.400000035763,9343.900000035763,13193.699999988079,16060.400000035763,17626.30000001192,19743.69999998808,21994,23693.69999998808,25810.900000035763,28243.30000001192,29610.19999998808,30210.100000023842,30627.5]","0.46153846153846156","0.6666666666666666","0","","","","","","","","","","","","","","","","","","","","","","","","","","","","",""
"1392","1751451961169","<p style='font-size:1.1em;line-height:1.25'>In the following, we will ask you a few questions relating to your experiences over the past month.<br></p><p style='font-size:1.1em;line-height:1.25'>Press the <strong>Next</strong> button to continue.</p>","0","custom-html-button-response","14","254965","0.0-7.0-4.0","154","1","2025-07-02 10:21:44","80fe4187154257d5fb01684ea91b68b9","148.252.140.99","Mozilla/5.0 (Macintosh; Intel Mac OS X 10_15_7) AppleWebKit/537.36 (KHTML, like Gecko) Chrome/137.0.0.0 Safari/537.36","Macintosh","Chrome","137.0.0.0","OS X","10_15_7","https://app.prolific.com/","en-GB,en-US;q=0.9,en;q=0.8","603659d5c391045d1e4b332b","683db6dfa200031b80f2a654","68650775406987368201bd55","603659d5c391045d1e4b332b","2025-07-02T10:26:01.170Z","","","","","","","","","","","","","","","","","","","","","","","","","","","","","","","","","","","","","","","","","","","",""
"32885.10000002384","","","","survey-template","15","287853","0.0-7.0-5.0","154","1","2025-07-02 10:21:44","80fe4187154257d5fb01684ea91b68b9","148.252.140.99","Mozilla/5.0 (Macintosh; Intel Mac OS X 10_15_7) AppleWebKit/537.36 (KHTML, like Gecko) Chrome/137.0.0.0 Safari/537.36","Macintosh","Chrome","137.0.0.0","OS X","10_15_7","https://app.prolific.com/","en-GB,en-US;q=0.9,en;q=0.8","603659d5c391045d1e4b332b","683db6dfa200031b80f2a654","68650775406987368201bd55","603659d5c391045d1e4b332b","2025-07-02T10:26:34.058Z","","","","","","pss","{""Q01"":""1"",""Q02"":""0"",""Q03"":""2"",""Q04"":""1"",""Q05"":""1"",""Q06"":""1"",""Q07"":""1"",""Q08"":""1"",""Q09"":""1"",""Q10"":""1""}","[0,1,2,3,4,5,6,7,8,9]","[""Q01"",""Q02"",""Q03"",""Q04"",""Q05"",""Q06"",""Q07"",""Q08"",""Q09"",""Q10""]","[3480.5,5763.300000011921,7747,9963.300000011921,13680.100000023842,18797.200000047684,23214.200000047684,25430.200000047684,29830.400000035763,32096.900000035763]","[]","[5.100000023841858,3480.5,5763.300000011921,7747,9963.300000011921,13680.100000023842,18797.200000047684,23214.200000047684,25430.200000047684,29830.400000035763,32096.900000035763,32881.10000002384]","0.4","0.2222222222222222","0","","","","","","","","","","","","","","","","","","","","","","","","","","","","",""
"1326","1751451995385","<p style='font-size:1.1em;line-height:1.25'>Thank you for your answers! Now we will ask you a few more questions relating to your feelings in the last 24 hours.<br></p><p style='font-size:1.1em;line-height:1.25'>Press the <strong>Next</strong> button to continue.</p>","0","custom-html-button-response","16","289181","0.0-7.0-6.0","154","1","2025-07-02 10:21:44","80fe4187154257d5fb01684ea91b68b9","148.252.140.99","Mozilla/5.0 (Macintosh; Intel Mac OS X 10_15_7) AppleWebKit/537.36 (KHTML, like Gecko) Chrome/137.0.0.0 Safari/537.36","Macintosh","Chrome","137.0.0.0","OS X","10_15_7","https://app.prolific.com/","en-GB,en-US;q=0.9,en;q=0.8","603659d5c391045d1e4b332b","683db6dfa200031b80f2a654","68650775406987368201bd55","603659d5c391045d1e4b332b","2025-07-02T10:26:35.386Z","","","","","","","","","","","","","","","","","","","","","","","","","","","","","","","","","","","","","","","","","","","",""
"34271","","","","survey-template","17","323456","0.0-7.0-7.0","154","1","2025-07-02 10:21:44","80fe4187154257d5fb01684ea91b68b9","148.252.140.99","Mozilla/5.0 (Macintosh; Intel Mac OS X 10_15_7) AppleWebKit/537.36 (KHTML, like Gecko) Chrome/137.0.0.0 Safari/537.36","Macintosh","Chrome","137.0.0.0","OS X","10_15_7","https://app.prolific.com/","en-GB,en-US;q=0.9,en;q=0.8","603659d5c391045d1e4b332b","683db6dfa200031b80f2a654","68650775406987368201bd55","603659d5c391045d1e4b332b","2025-07-02T10:27:09.661Z","","","","","","drsp","{""Q01"":""1"",""Q02"":""0"",""Q03"":""0"",""Q04"":""2"",""Q05"":""0"",""Q06"":""0"",""Q07"":""1"",""Q08"":""0"",""Q09"":""1"",""Q10"":""2"",""Q11"":""3"",""Q12"":""1"",""Q13"":""0"",""Q14"":""2"",""Q15"":""1"",""Q16"":""2"",""Q17"":""0"",""Q18"":""1"",""Q19"":""0"",""Q20"":""0"",""Q21"":""0""}","[0,1,2,3,4,5,6,7,8,9,10,11,12,13,14,15,16,17,18,19,20]","[""Q01"",""Q02"",""Q03"",""Q04"",""Q05"",""Q06"",""Q07"",""Q08"",""Q09"",""Q10"",""Q11"",""Q12"",""Q13"",""Q14"",""Q15"",""Q16"",""Q17"",""Q18"",""Q18"",""Q19"",""Q20"",""Q21""]","[3247.100000023842,4047.300000011921,4846,5846.699999988079,6746.600000023842,8279.5,9812.900000035763,10630.199999988079,12430.100000023842,13529.5,14947.100000023842,16446.30000001192,17347.100000023842,19297.100000023842,21346.900000035763,22697.100000023842,23980,25830.80000001192,27263.400000035763,30629.900000035763,32513.19999998808,33647.30000001192]","[]","[7.199999988079071,3247.100000023842,4047.300000011921,4846,5846.699999988079,6746.600000023842,8279.5,9812.900000035763,10630.199999988079,12430.100000023842,13529.5,14947.100000023842,16446.30000001192,17347.100000023842,19297.100000023842,21346.900000035763,22697.100000023842,23980,25830.80000001192,27263.400000035763,30629.900000035763,32513.19999998808,33647.30000001192,34264.30000001192]","0.47619047619047616","0.55","0","","","","","","","","","","","","","","","","","","","","","","","","","","","","",""
"11959.300000011921","","","","survey-template","18","335417","0.0-7.0-8.0","154","1","2025-07-02 10:21:44","80fe4187154257d5fb01684ea91b68b9","148.252.140.99","Mozilla/5.0 (Macintosh; Intel Mac OS X 10_15_7) AppleWebKit/537.36 (KHTML, like Gecko) Chrome/137.0.0.0 Safari/537.36","Macintosh","Chrome","137.0.0.0","OS X","10_15_7","https://app.prolific.com/","en-GB,en-US;q=0.9,en;q=0.8","603659d5c391045d1e4b332b","683db6dfa200031b80f2a654","68650775406987368201bd55","603659d5c391045d1e4b332b","2025-07-02T10:27:21.622Z","","","","","","stress","{""Q01"":""2"",""Q02"":""1"",""Q03"":""0""}","[0,1,2]","[""Q01"",""Q02"",""Q03""]","[4090.2000000476837,6490,9923.900000035763]","[]","[4090.2000000476837,6490,9923.900000035763,11957.200000047684]","0.3333333333333333","0","0","","","","","","","","","","","","","","","","","","","","","","","","","","","","",""
"43304","","","","instructions","19","378722","0.0-8.0-0.0","154","1","2025-07-02 10:21:44","80fe4187154257d5fb01684ea91b68b9","148.252.140.99","Mozilla/5.0 (Macintosh; Intel Mac OS X 10_15_7) AppleWebKit/537.36 (KHTML, like Gecko) Chrome/137.0.0.0 Safari/537.36","Macintosh","Chrome","137.0.0.0","OS X","10_15_7","https://app.prolific.com/","en-GB,en-US;q=0.9,en;q=0.8","603659d5c391045d1e4b332b","683db6dfa200031b80f2a654","68650775406987368201bd55","603659d5c391045d1e4b332b","","[{""page_index"":0,""viewing_time"":10378},{""page_index"":1,""viewing_time"":13001},{""page_index"":2,""viewing_time"":3701},{""page_index"":3,""viewing_time"":16224}]","","","","","","","","","","","","","","","","","","","","","","","","","","","","","","","","","","","","","","","","","","",""
"","","","","ctl-task-cpt","20","412619","0.0-8.0-1.0","154","1","2025-07-02 10:21:44","80fe4187154257d5fb01684ea91b68b9","148.252.140.99","Mozilla/5.0 (Macintosh; Intel Mac OS X 10_15_7) AppleWebKit/537.36 (KHTML, like Gecko) Chrome/137.0.0.0 Safari/537.36","Macintosh","Chrome","137.0.0.0","OS X","10_15_7","https://app.prolific.com/","en-GB,en-US;q=0.9,en;q=0.8","603659d5c391045d1e4b332b","683db6dfa200031b80f2a654","68650775406987368201bd55","603659d5c391045d1e4b332b","","","","","","","","","","","","","","","","","win-only","0","g1:NW,g2:SE","1","0","1","381920.1","1374.1","5375.6","30886.9","2","4","4","6","2","4","3","3","0","0.022727272727272728","1050.2","4000","930","[""down"",""right""]","{""num_key_presses"":7,""num_perfect"":6,""num_errors"":1,""num_randdir"":0,""num_randdir_good_moves"":0,""num_whilered"":0,""num_whileblue"":0,""num_blue"":2,""num_good_moves"":6}","[698.2857142857143,692.0825892857143,0.3,698.2857142857143,692.0825892857143,101.9,698.2857142857143,692.0825892857143,202.1,698.2857142857143,692.0825892857143,307.4,618.2857142857143,638.0825892857143,412,84.28571428571429,218.08258928571428,516.9,382.2857142857143,390.0825892857143,621.4,1148.2857142857142,1128.0825892857142,722.5,1210.2857142857142,1184.0825892857142,827,1214.2857142857142,1194.0825892857142,927.4,1236.2857142857142,1226.0825892857142,1027.5,1236.2857142857142,1226.0825892857142,1127.5,1236.2857142857142,1226.0825892857142,1232.9,1236.2857142857142,1226.0825892857142,1333.4,1236.2857142857142,1226.0825892857142,1437.2,1236.2857142857142,1226.0825892857142,1542.8,1236.2857142857142,1226.0825892857142,1646.9,1236.2857142857142,1226.0825892857142,1747.3,1236.2857142857142,1226.0825892857142,1852.8,1236.2857142857142,1226.0825892857142,1957.1,1236.2857142857142,1226.0825892857142,2057.1,1236.2857142857142,1226.0825892857142,2162.2,1236.2857142857142,1226.0825892857142,2267,1236.2857142857142,1226.0825892857142,2372.2,1236.2857142857142,1226.0825892857142,2477.8,1236.2857142857142,1226.0825892857142,2582.7,1236.2857142857142,1226.0825892857142,2682.7,1236.2857142857142,1226.0825892857142,2786.7,1236.2857142857142,1226.0825892857142,2887.2,1236.2857142857142,1226.0825892857142,2991.8,1236.2857142857142,1226.0825892857142,3092.8,1236.2857142857142,1226.0825892857142,3197.1,1236.2857142857142,1226.0825892857142,3297.2,1236.2857142857142,1226.0825892857142,3401.4,1236.2857142857142,1226.0825892857142,3501.4,1236.2857142857142,1226.0825892857142,3602,1236.2857142857142,1226.0825892857142,3707.3,1236.2857142857142,1226.0825892857142,3811.9,1236.2857142857142,1226.0825892857142,3916.9]","[1839.6,1839.6,1000,0,839.6,""smooth"",""right"",""right"",""good_move"",1987,146.9,2921.9,1840.1,-2775,""error"",""-"",""-"",""no_move"",5803.2,3816,2345.9,2990.3,467,""smooth"",""down"",""down"",""good_move"",16369,10565.4,2813.5,12955.7,599.8,""smooth"",""down"",""down"",""good_move"",19040.6,2671.3,2033.2,16369.3,638.1,""smooth"",""right"",""right"",""good_move"",22736.5,3695.7,3292.6,19040.8,403.1,""smooth"",""right"",""right"",""good_move"",25414.8,2678,2317.1,22736.8,360.9,""smooth"",""down"",""down"",""good_move""]","",""
"6879","","","","instructions","21","419498","0.0-8.0-2.0","154","1","2025-07-02 10:21:44","80fe4187154257d5fb01684ea91b68b9","148.252.140.99","Mozilla/5.0 (Macintosh; Intel Mac OS X 10_15_7) AppleWebKit/537.36 (KHTML, like Gecko) Chrome/137.0.0.0 Safari/537.36","Macintosh","Chrome","137.0.0.0","OS X","10_15_7","https://app.prolific.com/","en-GB,en-US;q=0.9,en;q=0.8","603659d5c391045d1e4b332b","683db6dfa200031b80f2a654","68650775406987368201bd55","603659d5c391045d1e4b332b","","[{""page_index"":0,""viewing_time"":6878}]","","","","","","","","","","","","","","","","","","","","","","","","","","","","","","","","","","","","","","","","","","",""
"","","","","ctl-task-cpt","22","451627","0.0-8.0-3.0","154","1","2025-07-02 10:21:44","80fe4187154257d5fb01684ea91b68b9","148.252.140.99","Mozilla/5.0 (Macintosh; Intel Mac OS X 10_15_7) AppleWebKit/537.36 (KHTML, like Gecko) Chrome/137.0.0.0 Safari/537.36","Macintosh","Chrome","137.0.0.0","OS X","10_15_7","https://app.prolific.com/","en-GB,en-US;q=0.9,en;q=0.8","603659d5c391045d1e4b332b","683db6dfa200031b80f2a654","68650775406987368201bd55","603659d5c391045d1e4b332b","","","","","","","","","","","","","","","","","win-only","0","g1:NW,g2:SE","0.35","0","3","422693.9","951.1","4952.2","29120.7","2","4","8","6","2","8","8","8","0","0.06060606060606061","1550.2","4000","380","[""down"",""right""]","{""num_key_presses"":8,""num_perfect"":4,""num_errors"":0,""num_randdir"":4,""num_randdir_good_moves"":3,""num_whilered"":0,""num_whileblue"":0,""num_blue"":1,""num_good_moves"":7}","[692.2857142857143,674.0825892857143,0.2,692.2857142857143,674.0825892857143,104.9,692.2857142857143,674.0825892857143,205.4,692.2857142857143,674.0825892857143,310.3,692.2857142857143,674.0825892857143,410.3,692.2857142857143,674.0825892857143,515.2,692.2857142857143,674.0825892857143,619.3,692.2857142857143,674.0825892857143,720.4,692.2857142857143,674.0825892857143,820.4,692.2857142857143,674.0825892857143,925.7,692.2857142857143,674.0825892857143,1030.3,692.2857142857143,674.0825892857143,1135.2,988.2857142857143,832.0825892857143,1240.4,1202.2857142857142,1136.0825892857142,1344.6,1206.2857142857142,1186.0825892857142,1445.8,1212.2857142857142,1214.0825892857142,1551.8,1212.2857142857142,1214.0825892857142,1656,1212.2857142857142,1214.0825892857142,1760.4,1254.2857142857142,1162.0825892857142,1860.5,1646.2857142857142,888.0825892857143,1960.5,1730.2857142857142,830.0825892857143,2067.2,1730.2857142857142,830.0825892857143,2170.1,1730.2857142857142,830.0825892857143,2270.2,1730.2857142857142,830.0825892857143,2374.1,1730.2857142857142,830.0825892857143,2474.9,1730.2857142857142,830.0825892857143,2575.5,1730.2857142857142,830.0825892857143,2680.1,1730.2857142857142,830.0825892857143,2785.3,1730.2857142857142,830.0825892857143,2889.7,1730.2857142857142,830.0825892857143,2989.9,1730.2857142857142,830.0825892857143,3094.6,1730.2857142857142,830.0825892857143,3194.6,1730.2857142857142,830.0825892857143,3295.2,1730.2857142857142,830.0825892857143,3395.3,1730.2857142857142,830.0825892857143,3500.7,1730.2857142857142,830.0825892857143,3605.5,1730.2857142857142,830.0825892857143,3709.8,1730.2857142857142,830.0825892857143,3810.6,1730.2857142857142,830.0825892857143,3916.2]","[4985.6,4985.6,2398.6,2008.7,578.3,""smooth"",""down"",""down"",""good_move"",7483.9,2498,2023.7,4985.9,474.3,""oops"",""down"",""right"",""good_move"",10753.4,3269.2,2656.9,7484.2,612.3,""smooth"",""right"",""right"",""good_move"",13989,3235.4,2722.3,10753.6,513.1,""oops"",""down"",""down"",""good_move"",16401.1,2411.8,1968.1,13989.3,443.7,""oops"",""right"",""up"",""bad_move"",18901.1,2499.6,2191.7,16401.5,307.9,""smooth"",""right"",""right"",""good_move"",21013.9,2112.6,1746.4,18901.3,366.2,""oops"",""down"",""down"",""good_move"",24070.2,3056.1,2699.4,21014.1,356.7,""smooth"",""down"",""down"",""good_move""]","",""
"5003","","","","instructions","23","456631","0.0-8.0-4.0","154","1","2025-07-02 10:21:44","80fe4187154257d5fb01684ea91b68b9","148.252.140.99","Mozilla/5.0 (Macintosh; Intel Mac OS X 10_15_7) AppleWebKit/537.36 (KHTML, like Gecko) Chrome/137.0.0.0 Safari/537.36","Macintosh","Chrome","137.0.0.0","OS X","10_15_7","https://app.prolific.com/","en-GB,en-US;q=0.9,en;q=0.8","603659d5c391045d1e4b332b","683db6dfa200031b80f2a654","68650775406987368201bd55","603659d5c391045d1e4b332b","","[{""page_index"":0,""viewing_time"":2703},{""page_index"":1,""viewing_time"":2300}]","","","","","","","","","","","","","","","","","","","","","","","","","","","","","","","","","","","","","","","","","","",""
"6950","","","{""green_ball"":[""Ball sometimes shakes and moves in a random direction""]}","survey-multi-select","24","463584","0.0-8.0-5.0-0.0","154","1","2025-07-02 10:21:44","80fe4187154257d5fb01684ea91b68b9","148.252.140.99","Mozilla/5.0 (Macintosh; Intel Mac OS X 10_15_7) AppleWebKit/537.36 (KHTML, like Gecko) Chrome/137.0.0.0 Safari/537.36","Macintosh","Chrome","137.0.0.0","OS X","10_15_7","https://app.prolific.com/","en-GB,en-US;q=0.9,en;q=0.8","603659d5c391045d1e4b332b","683db6dfa200031b80f2a654","68650775406987368201bd55","603659d5c391045d1e4b332b","","","[0]","","","","quiz","","","","","","","","","","","","","","","","","","","","","","","","","","","","","","","","","","","","","true",""
"1562","","<p align='center'><b>CORRECT!</b> Indeed, the green ball may sometimes shake and move in a random direction.</p>","0","html-button-response","25","465149","0.0-8.0-5.0-1.0","154","1","2025-07-02 10:21:44","80fe4187154257d5fb01684ea91b68b9","148.252.140.99","Mozilla/5.0 (Macintosh; Intel Mac OS X 10_15_7) AppleWebKit/537.36 (KHTML, like Gecko) Chrome/137.0.0.0 Safari/537.36","Macintosh","Chrome","137.0.0.0","OS X","10_15_7","https://app.prolific.com/","en-GB,en-US;q=0.9,en;q=0.8","603659d5c391045d1e4b332b","683db6dfa200031b80f2a654","68650775406987368201bd55","603659d5c391045d1e4b332b","","","","","","","","","","","","","","","","","","","","","","","","","","","","","","","","","","","","","","","","","","","","",""
"10081","","","{""yellow_ball"":[""Ball doesn‘t move and I get -1 penalty point""]}","survey-multi-select","26","475232","0.0-8.0-6.0-0.0","154","1","2025-07-02 10:21:44","80fe4187154257d5fb01684ea91b68b9","148.252.140.99","Mozilla/5.0 (Macintosh; Intel Mac OS X 10_15_7) AppleWebKit/537.36 (KHTML, like Gecko) Chrome/137.0.0.0 Safari/537.36","Macintosh","Chrome","137.0.0.0","OS X","10_15_7","https://app.prolific.com/","en-GB,en-US;q=0.9,en;q=0.8","603659d5c391045d1e4b332b","683db6dfa200031b80f2a654","68650775406987368201bd55","603659d5c391045d1e4b332b","","","[0]","","","","quiz","","","","","","","","","","","","","","","","","","","","","","","","","","","","","","","","","","","","","true",""
"815","","<p align='center'><b>CORRECT!</b> Indeed, the yellow ball never moves and you receive a penalty.</p>","0","html-button-response","27","476048","0.0-8.0-6.0-1.0","154","1","2025-07-02 10:21:44","80fe4187154257d5fb01684ea91b68b9","148.252.140.99","Mozilla/5.0 (Macintosh; Intel Mac OS X 10_15_7) AppleWebKit/537.36 (KHTML, like Gecko) Chrome/137.0.0.0 Safari/537.36","Macintosh","Chrome","137.0.0.0","OS X","10_15_7","https://app.prolific.com/","en-GB,en-US;q=0.9,en;q=0.8","603659d5c391045d1e4b332b","683db6dfa200031b80f2a654","68650775406987368201bd55","603659d5c391045d1e4b332b","","","","","","","","","","","","","","","","","","","","","","","","","","","","","","","","","","","","","","","","","","","","",""
"6349","","","{""blue_ball"":[""Ball always shakes and moves in a random direction""]}","survey-multi-select","28","482398","0.0-8.0-7.0-0.0","154","1","2025-07-02 10:21:44","80fe4187154257d5fb01684ea91b68b9","148.252.140.99","Mozilla/5.0 (Macintosh; Intel Mac OS X 10_15_7) AppleWebKit/537.36 (KHTML, like Gecko) Chrome/137.0.0.0 Safari/537.36","Macintosh","Chrome","137.0.0.0","OS X","10_15_7","https://app.prolific.com/","en-GB,en-US;q=0.9,en;q=0.8","603659d5c391045d1e4b332b","683db6dfa200031b80f2a654","68650775406987368201bd55","603659d5c391045d1e4b332b","","","[0]","","","","quiz","","","","","","","","","","","","","","","","","","","","","","","","","","","","","","","","","","","","","true",""
"898","","<p align='center'><b>CORRECT!</b> Indeed, the blue ball always shakes and moves in a random direction. Also there is a penalty of -1 point.</p>","0","html-button-response","29","483298","0.0-8.0-7.0-1.0","154","1","2025-07-02 10:21:44","80fe4187154257d5fb01684ea91b68b9","148.252.140.99","Mozilla/5.0 (Macintosh; Intel Mac OS X 10_15_7) AppleWebKit/537.36 (KHTML, like Gecko) Chrome/137.0.0.0 Safari/537.36","Macintosh","Chrome","137.0.0.0","OS X","10_15_7","https://app.prolific.com/","en-GB,en-US;q=0.9,en;q=0.8","603659d5c391045d1e4b332b","683db6dfa200031b80f2a654","68650775406987368201bd55","603659d5c391045d1e4b332b","","","","","","","","","","","","","","","","","","","","","","","","","","","","","","","","","","","","","","","","","","","","",""
"2699","","","{""bonus"":[""When I reach 50% of points""]}","survey-multi-select","30","485998","0.0-8.0-8.0-0.0","154","1","2025-07-02 10:21:44","80fe4187154257d5fb01684ea91b68b9","148.252.140.99","Mozilla/5.0 (Macintosh; Intel Mac OS X 10_15_7) AppleWebKit/537.36 (KHTML, like Gecko) Chrome/137.0.0.0 Safari/537.36","Macintosh","Chrome","137.0.0.0","OS X","10_15_7","https://app.prolific.com/","en-GB,en-US;q=0.9,en;q=0.8","603659d5c391045d1e4b332b","683db6dfa200031b80f2a654","68650775406987368201bd55","603659d5c391045d1e4b332b","","","[0]","","","","quiz","","","","","","","","","","","","","","","","","","","","","","","","","","","","","","","","","","","","","true",""
"1099","","<p align='center'><b>CORRECT!</b> Indeed, you receive 2 pounds extra when you reach 50% of points.</p>","0","html-button-response","31","487098","0.0-8.0-8.0-1.0","154","1","2025-07-02 10:21:44","80fe4187154257d5fb01684ea91b68b9","148.252.140.99","Mozilla/5.0 (Macintosh; Intel Mac OS X 10_15_7) AppleWebKit/537.36 (KHTML, like Gecko) Chrome/137.0.0.0 Safari/537.36","Macintosh","Chrome","137.0.0.0","OS X","10_15_7","https://app.prolific.com/","en-GB,en-US;q=0.9,en;q=0.8","603659d5c391045d1e4b332b","683db6dfa200031b80f2a654","68650775406987368201bd55","603659d5c391045d1e4b332b","","","","","","","","","","","","","","","","","","","","","","","","","","","","","","","","","","","","","","","","","","","","",""
"1183","","","","instructions","32","488282","0.0-8.0-9.0","154","1","2025-07-02 10:21:44","80fe4187154257d5fb01684ea91b68b9","148.252.140.99","Mozilla/5.0 (Macintosh; Intel Mac OS X 10_15_7) AppleWebKit/537.36 (KHTML, like Gecko) Chrome/137.0.0.0 Safari/537.36","Macintosh","Chrome","137.0.0.0","OS X","10_15_7","https://app.prolific.com/","en-GB,en-US;q=0.9,en;q=0.8","603659d5c391045d1e4b332b","683db6dfa200031b80f2a654","68650775406987368201bd55","603659d5c391045d1e4b332b","","[{""page_index"":0,""viewing_time"":1183}]","","","","","","","","","","","","","","","","","","","","","","","","","","","","","","","","","","","","","","","","","","",""
"4897","","<p>Before you start with this game please answer the following three questions yourself. </p>
  <p>Through this game, we measure several aspects of your cognitive performance, such as reaction times, multi-tasking capabilities </p>
  <p>and the ability to assess the situation you are in.</p>
  <p></p>
  <p><b>How good do you usually are in such tasks?</b></p>","77","html-slider-response","33","493182","0.0-9.0-0.0","154","1","2025-07-02 10:21:44","80fe4187154257d5fb01684ea91b68b9","148.252.140.99","Mozilla/5.0 (Macintosh; Intel Mac OS X 10_15_7) AppleWebKit/537.36 (KHTML, like Gecko) Chrome/137.0.0.0 Safari/537.36","Macintosh","Chrome","137.0.0.0","OS X","10_15_7","https://app.prolific.com/","en-GB,en-US;q=0.9,en;q=0.8","603659d5c391045d1e4b332b","683db6dfa200031b80f2a654","68650775406987368201bd55","603659d5c391045d1e4b332b","2025-07-02T10:29:59.387Z","","","","","","PreSkillQ","","","","","","","","","","","","","","","","","","","","","","","","","","","","","","","","","","","","","","50"
"3515","","<div style=""width:500px;"">
  <p>How well do you think you will perform in this task compared to other participants?</p>
  </div>","60","html-slider-response","34","496698","0.0-9.0-1.0","154","1","2025-07-02 10:21:44","80fe4187154257d5fb01684ea91b68b9","148.252.140.99","Mozilla/5.0 (Macintosh; Intel Mac OS X 10_15_7) AppleWebKit/537.36 (KHTML, like Gecko) Chrome/137.0.0.0 Safari/537.36","Macintosh","Chrome","137.0.0.0","OS X","10_15_7","https://app.prolific.com/","en-GB,en-US;q=0.9,en;q=0.8","603659d5c391045d1e4b332b","683db6dfa200031b80f2a654","68650775406987368201bd55","603659d5c391045d1e4b332b","2025-07-02T10:30:02.903Z","","","","","","PrePerfQ","","","","","","","","","","","","","","","","","","","","","","","","","","","","","","","","","","","","","","50"
"2647","","<div style=""width:500px;"">
  <p>What best describes how you currently feel?</p>
  </div>","81","html-slider-response","35","499347","0.0-9.0-2.0","154","1","2025-07-02 10:21:44","80fe4187154257d5fb01684ea91b68b9","148.252.140.99","Mozilla/5.0 (Macintosh; Intel Mac OS X 10_15_7) AppleWebKit/537.36 (KHTML, like Gecko) Chrome/137.0.0.0 Safari/537.36","Macintosh","Chrome","137.0.0.0","OS X","10_15_7","https://app.prolific.com/","en-GB,en-US;q=0.9,en;q=0.8","603659d5c391045d1e4b332b","683db6dfa200031b80f2a654","68650775406987368201bd55","603659d5c391045d1e4b332b","2025-07-02T10:30:05.553Z","","","","","","PreMotivationQ","","","","","","","","","","","","","","","","","","","","","","","","","","","","","","","","","","","","","","50"
"","","","","ctl-task-cpt","36","524749","0.0-10.0-0.0","154","1","2025-07-02 10:21:44","80fe4187154257d5fb01684ea91b68b9","148.252.140.99","Mozilla/5.0 (Macintosh; Intel Mac OS X 10_15_7) AppleWebKit/537.36 (KHTML, like Gecko) Chrome/137.0.0.0 Safari/537.36","Macintosh","Chrome","137.0.0.0","OS X","10_15_7","https://app.prolific.com/","en-GB,en-US;q=0.9,en;q=0.8","603659d5c391045d1e4b332b","683db6dfa200031b80f2a654","68650775406987368201bd55","603659d5c391045d1e4b332b","2025-07-02T10:30:30.954Z","","","","","","","","","","","","","","","","win-only","2","g1:SE,g2:NW","1","1","0","502545.3","1236.2","6238.4","22390.9","1","4","4","6","2","4","4","4","0","0.030303030303030304","899","3000","880","[""left"",""up""]","{""num_key_presses"":6,""num_perfect"":6,""num_errors"":0,""num_randdir"":0,""num_randdir_good_moves"":0,""num_whilered"":0,""num_whileblue"":0,""num_blue"":0,""num_good_moves"":6}","[686.2857142857143,694.0825892857143,0.2,686.2857142857143,694.0825892857143,104.7,686.2857142857143,694.0825892857143,204.8,686.2857142857143,694.0825892857143,309.5,700.2857142857143,706.0825892857143,415.4,974.2857142857143,1004.0825892857143,520,398.2857142857143,358.0825892857143,624.7,170.28571428571428,80.08258928571429,729.2,170.28571428571428,80.08258928571429,829.9,170.28571428571428,80.08258928571429,930,170.28571428571428,80.08258928571429,1031.4,170.28571428571428,80.08258928571429,1132.9,170.28571428571428,80.08258928571429,1235.6,170.28571428571428,80.08258928571429,1340.1,170.28571428571428,80.08258928571429,1445.3,170.28571428571428,80.08258928571429,1549.7,170.28571428571428,80.08258928571429,1649.8,170.28571428571428,80.08258928571429,1750.8,170.28571428571428,80.08258928571429,1851.4,170.28571428571428,80.08258928571429,1952.5,170.28571428571428,80.08258928571429,2054.5,170.28571428571428,80.08258928571429,2155.1,170.28571428571428,80.08258928571429,2259.2,170.28571428571428,80.08258928571429,2360.1,170.28571428571428,80.08258928571429,2460.3,170.28571428571428,80.08258928571429,2566.5,170.28571428571428,80.08258928571429,2667.6,170.28571428571428,80.08258928571429,2767.7,170.28571428571428,80.08258928571429,2870,170.28571428571428,80.08258928571429,2970.5,170.28571428571428,80.08258928571429,3075.7,170.28571428571428,80.08258928571429,3181.8,170.28571428571428,80.08258928571429,3284.5,170.28571428571428,80.08258928571429,3384.7,170.28571428571428,80.08258928571429,3485.2,170.28571428571428,80.08258928571429,3589.7,170.28571428571428,80.08258928571429,3695.1,170.28571428571428,80.08258928571429,3795.3,170.28571428571428,80.08258928571429,3895.3,170.28571428571428,80.08258928571429,3995.5,170.28571428571428,80.08258928571429,4099.7,170.28571428571428,80.08258928571429,4200.4,170.28571428571428,80.08258928571429,4305,170.28571428571428,80.08258928571429,4409.2,170.28571428571428,80.08258928571429,4509.2,170.28571428571428,80.08258928571429,4610.4,170.28571428571428,80.08258928571429,4716.7,170.28571428571428,80.08258928571429,4817.3,170.28571428571428,80.08258928571429,4919.9]","[1568.9,1568.9,1000,0,568.9,""smooth"",""left"",""left"",""good_move"",4462.5,2893.3,2583.5,1569.2,309.8,""smooth"",""left"",""left"",""good_move"",6764.3,2301.5,1960.6,4462.8,340.9,""smooth"",""up"",""up"",""good_move"",10313.4,3548.8,3229.1,6764.6,319.7,""smooth"",""left"",""left"",""good_move"",13116.1,2802.4,2469.8,10313.7,332.6,""smooth"",""up"",""up"",""good_move"",16065,2948.7,2656.1,13116.3,292.6,""smooth"",""up"",""up"",""good_move""]","",""
"5631","","<div style=""width:500px;"">
  <p>What determined the result of this run?</p>
  </div>","100","html-slider-response","37","530381","0.0-10.0-1.0","154","1","2025-07-02 10:21:44","80fe4187154257d5fb01684ea91b68b9","148.252.140.99","Mozilla/5.0 (Macintosh; Intel Mac OS X 10_15_7) AppleWebKit/537.36 (KHTML, like Gecko) Chrome/137.0.0.0 Safari/537.36","Macintosh","Chrome","137.0.0.0","OS X","10_15_7","https://app.prolific.com/","en-GB,en-US;q=0.9,en;q=0.8","603659d5c391045d1e4b332b","683db6dfa200031b80f2a654","68650775406987368201bd55","603659d5c391045d1e4b332b","2025-07-02T10:30:36.587Z","","","","","","AttribQ","","","","","","","","","","","","","","","","","","","","","","","","","","","","","","","","","","","","","","50"
"2766","","<div style=""width:500px;"">
  <p>How much control did you have over the ball?</p>
  </div>","100","html-slider-response","38","533148","0.0-10.0-2.0","154","1","2025-07-02 10:21:44","80fe4187154257d5fb01684ea91b68b9","148.252.140.99","Mozilla/5.0 (Macintosh; Intel Mac OS X 10_15_7) AppleWebKit/537.36 (KHTML, like Gecko) Chrome/137.0.0.0 Safari/537.36","Macintosh","Chrome","137.0.0.0","OS X","10_15_7","https://app.prolific.com/","en-GB,en-US;q=0.9,en;q=0.8","603659d5c391045d1e4b332b","683db6dfa200031b80f2a654","68650775406987368201bd55","603659d5c391045d1e4b332b","2025-07-02T10:30:39.353Z","","","","","","ControlQ","","","","","","","","","","","","","","","","","","","","","","","","","","","","","","","","","","","","","","50"
"3532","","<div style=""width:500px;"">
  <p>How would you describe your current emotional state?</p>
  </div>","39","html-slider-response","39","536681","0.0-10.0-3.0","154","1","2025-07-02 10:21:44","80fe4187154257d5fb01684ea91b68b9","148.252.140.99","Mozilla/5.0 (Macintosh; Intel Mac OS X 10_15_7) AppleWebKit/537.36 (KHTML, like Gecko) Chrome/137.0.0.0 Safari/537.36","Macintosh","Chrome","137.0.0.0","OS X","10_15_7","https://app.prolific.com/","en-GB,en-US;q=0.9,en;q=0.8","603659d5c391045d1e4b332b","683db6dfa200031b80f2a654","68650775406987368201bd55","603659d5c391045d1e4b332b","2025-07-02T10:30:42.886Z","","","","","","StressQ","","","","","","","","","","","","","","","","","","","","","","","","","","","","","","","","","","","","","","50"
"3433","","<div style=""width:500px;"">
  <p>What best describes how you currently feel?</p>
  </div>","86","html-slider-response","40","540115","0.0-10.0-4.0","154","1","2025-07-02 10:21:44","80fe4187154257d5fb01684ea91b68b9","148.252.140.99","Mozilla/5.0 (Macintosh; Intel Mac OS X 10_15_7) AppleWebKit/537.36 (KHTML, like Gecko) Chrome/137.0.0.0 Safari/537.36","Macintosh","Chrome","137.0.0.0","OS X","10_15_7","https://app.prolific.com/","en-GB,en-US;q=0.9,en;q=0.8","603659d5c391045d1e4b332b","683db6dfa200031b80f2a654","68650775406987368201bd55","603659d5c391045d1e4b332b","2025-07-02T10:30:46.320Z","","","","","","MotivationQ","","","","","","","","","","","","","","","","","","","","","","","","","","","","","","","","","","","","","","50"
"","","","","ctl-task-cpt","41","564622","0.0-10.0-0.1","154","1","2025-07-02 10:21:44","80fe4187154257d5fb01684ea91b68b9","148.252.140.99","Mozilla/5.0 (Macintosh; Intel Mac OS X 10_15_7) AppleWebKit/537.36 (KHTML, like Gecko) Chrome/137.0.0.0 Safari/537.36","Macintosh","Chrome","137.0.0.0","OS X","10_15_7","https://app.prolific.com/","en-GB,en-US;q=0.9,en;q=0.8","603659d5c391045d1e4b332b","683db6dfa200031b80f2a654","68650775406987368201bd55","603659d5c391045d1e4b332b","2025-07-02T10:31:10.827Z","","","","","","","","","","","","","","","","win-only","0","g1:NW,g2:SE","0.9","2","0","543313.9","1046.3","6054.5","21501.1","1","4","8","6","2","8","8","12","4","0.09090909090909091","736.5","3000","795","[""down"",""right""]","{""num_key_presses"":6,""num_perfect"":6,""num_errors"":0,""num_randdir"":0,""num_randdir_good_moves"":0,""num_whilered"":0,""num_whileblue"":0,""num_blue"":0,""num_good_moves"":6}","[674.2857142857143,696.0825892857143,0.2,674.2857142857143,696.0825892857143,100.1,674.2857142857143,696.0825892857143,206.9,674.2857142857143,696.0825892857143,308.2,680.2857142857143,702.0825892857143,409.3,1106.2857142857142,1086.0825892857142,510.4,1210.2857142857142,1240.0825892857142,614.9,1214.2857142857142,1258.0825892857142,715.3,1214.2857142857142,1258.0825892857142,815.5,1214.2857142857142,1258.0825892857142,924.1,1476.2857142857142,1166.0825892857142,1024.9,1864.2857142857142,1068.0825892857142,1125.1,1874.2857142857142,1048.0825892857142,1230.3,1874.2857142857142,1048.0825892857142,1335.5,1874.2857142857142,1048.0825892857142,1435.6,1874.2857142857142,1048.0825892857142,1540.2,1874.2857142857142,1048.0825892857142,1644.6,1874.2857142857142,1048.0825892857142,1745.3,1874.2857142857142,1048.0825892857142,1849.9,1874.2857142857142,1048.0825892857142,1954.6,1874.2857142857142,1048.0825892857142,2054.6,1874.2857142857142,1048.0825892857142,2154.9,1874.2857142857142,1048.0825892857142,2257.1,1874.2857142857142,1048.0825892857142,2360.6,1874.2857142857142,1048.0825892857142,2465,1874.2857142857142,1048.0825892857142,2571.4,1874.2857142857142,1048.0825892857142,2674.7,1874.2857142857142,1048.0825892857142,2780.1,1874.2857142857142,1048.0825892857142,2880.1,1874.2857142857142,1048.0825892857142,2985,1874.2857142857142,1048.0825892857142,3088.7,1874.2857142857142,1048.0825892857142,3190.1,1874.2857142857142,1048.0825892857142,3290.3,1874.2857142857142,1048.0825892857142,3395.3,1874.2857142857142,1048.0825892857142,3495.8,1874.2857142857142,1048.0825892857142,3600.7,1874.2857142857142,1048.0825892857142,3704.7,1874.2857142857142,1048.0825892857142,3807.2,1874.2857142857142,1048.0825892857142,3909.8,1874.2857142857142,1048.0825892857142,4010.2,1874.2857142857142,1048.0825892857142,4115.7,1874.2857142857142,1048.0825892857142,4222.5,1874.2857142857142,1048.0825892857142,4325.6,1874.2857142857142,1048.0825892857142,4430.1,1874.2857142857142,1048.0825892857142,4530.4,1874.2857142857142,1048.0825892857142,4630.5,1874.2857142857142,1048.0825892857142,4735.4,1874.2857142857142,1048.0825892857142,4840.5,1874.2857142857142,1048.0825892857142,4945.1]","[1322.1,1322.1,1000,0,322.1,""smooth"",""down"",""down"",""good_move"",4404.2,3081.7,2582.5,1322.5,499.2,""smooth"",""down"",""down"",""good_move"",7763.8,3359.4,3040.3,4404.4,319.1,""smooth"",""right"",""right"",""good_move"",9868.5,2104.2,1721,7764.3,383.2,""smooth"",""right"",""right"",""good_move"",12816.2,2947.5,2542.4,9868.7,405.1,""smooth"",""down"",""down"",""good_move"",15348.2,2531.7,2158.4,12816.5,373.3,""smooth"",""right"",""right"",""good_move""]","",""
"2491","","<div style=""width:500px;"">
  <p>What determined the result of this run?</p>
  </div>","100","html-slider-response","42","567115","0.0-10.0-1.1","154","1","2025-07-02 10:21:44","80fe4187154257d5fb01684ea91b68b9","148.252.140.99","Mozilla/5.0 (Macintosh; Intel Mac OS X 10_15_7) AppleWebKit/537.36 (KHTML, like Gecko) Chrome/137.0.0.0 Safari/537.36","Macintosh","Chrome","137.0.0.0","OS X","10_15_7","https://app.prolific.com/","en-GB,en-US;q=0.9,en;q=0.8","603659d5c391045d1e4b332b","683db6dfa200031b80f2a654","68650775406987368201bd55","603659d5c391045d1e4b332b","2025-07-02T10:31:13.320Z","","","","","","AttribQ","","","","","","","","","","","","","","","","","","","","","","","","","","","","","","","","","","","","","","50"
"2182","","<div style=""width:500px;"">
  <p>How much control did you have over the ball?</p>
  </div>","100","html-slider-response","43","569297","0.0-10.0-2.1","154","1","2025-07-02 10:21:44","80fe4187154257d5fb01684ea91b68b9","148.252.140.99","Mozilla/5.0 (Macintosh; Intel Mac OS X 10_15_7) AppleWebKit/537.36 (KHTML, like Gecko) Chrome/137.0.0.0 Safari/537.36","Macintosh","Chrome","137.0.0.0","OS X","10_15_7","https://app.prolific.com/","en-GB,en-US;q=0.9,en;q=0.8","603659d5c391045d1e4b332b","683db6dfa200031b80f2a654","68650775406987368201bd55","603659d5c391045d1e4b332b","2025-07-02T10:31:15.502Z","","","","","","ControlQ","","","","","","","","","","","","","","","","","","","","","","","","","","","","","","","","","","","","","","50"
"3917","","<div style=""width:500px;"">
  <p>How would you describe your current emotional state?</p>
  </div>","26","html-slider-response","44","573215","0.0-10.0-3.1","154","1","2025-07-02 10:21:44","80fe4187154257d5fb01684ea91b68b9","148.252.140.99","Mozilla/5.0 (Macintosh; Intel Mac OS X 10_15_7) AppleWebKit/537.36 (KHTML, like Gecko) Chrome/137.0.0.0 Safari/537.36","Macintosh","Chrome","137.0.0.0","OS X","10_15_7","https://app.prolific.com/","en-GB,en-US;q=0.9,en;q=0.8","603659d5c391045d1e4b332b","683db6dfa200031b80f2a654","68650775406987368201bd55","603659d5c391045d1e4b332b","2025-07-02T10:31:19.420Z","","","","","","StressQ","","","","","","","","","","","","","","","","","","","","","","","","","","","","","","","","","","","","","","50"
"34166","","<div style=""width:500px;"">
  <p>What best describes how you currently feel?</p>
  </div>","73","html-slider-response","45","607381","0.0-10.0-4.1","154","1","2025-07-02 10:21:44","80fe4187154257d5fb01684ea91b68b9","148.252.140.99","Mozilla/5.0 (Macintosh; Intel Mac OS X 10_15_7) AppleWebKit/537.36 (KHTML, like Gecko) Chrome/137.0.0.0 Safari/537.36","Macintosh","Chrome","137.0.0.0","OS X","10_15_7","https://app.prolific.com/","en-GB,en-US;q=0.9,en;q=0.8","603659d5c391045d1e4b332b","683db6dfa200031b80f2a654","68650775406987368201bd55","603659d5c391045d1e4b332b","2025-07-02T10:31:53.586Z","","","","","","MotivationQ","","","","","","","","","","","","","","","","","","","","","","","","","","","","","","","","","","","","","","50"
"","","","","ctl-task-cpt","46","640121","0.0-10.0-0.2","154","1","2025-07-02 10:21:44","80fe4187154257d5fb01684ea91b68b9","148.252.140.99","Mozilla/5.0 (Macintosh; Intel Mac OS X 10_15_7) AppleWebKit/537.36 (KHTML, like Gecko) Chrome/137.0.0.0 Safari/537.36","Macintosh","Chrome","137.0.0.0","OS X","10_15_7","https://app.prolific.com/","en-GB,en-US;q=0.9,en;q=0.8","603659d5c391045d1e4b332b","683db6dfa200031b80f2a654","68650775406987368201bd55","603659d5c391045d1e4b332b","2025-07-02T10:32:26.326Z","","","","","","","","","","","","","","","","win-only","3","g1:SW,g2:NE","0.8","3","0","610580.6","752.3","5754.3","29726.2","1","4","8","6","2","8","8","20","12","0.15151515151515152","895.7","3000","715","[""up"",""right""]","{""num_key_presses"":6,""num_perfect"":6,""num_errors"":0,""num_randdir"":0,""num_randdir_good_moves"":0,""num_whilered"":0,""num_whileblue"":0,""num_blue"":2,""num_good_moves"":6}","[698.2857142857143,682.0825892857143,0.2,698.2857142857143,682.0825892857143,100.1,698.2857142857143,682.0825892857143,201.3,698.2857142857143,682.0825892857143,303.7,698.2857142857143,682.0825892857143,408.8,698.2857142857143,682.0825892857143,513,1214.2857142857142,250.08258928571428,616.3,1312.2857142857142,174.08258928571428,720.5,1304.2857142857142,144.08258928571428,824.1,1296.2857142857142,124.08258928571429,928.6,1296.2857142857142,124.08258928571429,1036.6,1296.2857142857142,124.08258928571429,1138,1304.2857142857142,216.08258928571428,1238.5,2008.2857142857142,566.0825892857143,1343,2088.285714285714,584.0825892857143,1444,1856.2857142857142,678.0825892857143,1552,1834.2857142857142,692.0825892857143,1653.1,1834.2857142857142,692.0825892857143,1755,1834.2857142857142,692.0825892857143,1858,1834.2857142857142,692.0825892857143,1958.9,1834.2857142857142,692.0825892857143,2063.4,1834.2857142857142,692.0825892857143,2166.9,1834.2857142857142,692.0825892857143,2270.1,1834.2857142857142,692.0825892857143,2370.2,1834.2857142857142,692.0825892857143,2473.8,1834.2857142857142,692.0825892857143,2579,1834.2857142857142,692.0825892857143,2679.1,1834.2857142857142,692.0825892857143,2787.2,1834.2857142857142,692.0825892857143,2889.3,1834.2857142857142,692.0825892857143,2993.1,1834.2857142857142,692.0825892857143,3093.2,1834.2857142857142,692.0825892857143,3194.8,1834.2857142857142,692.0825892857143,3298.3,1834.2857142857142,692.0825892857143,3401.2,1834.2857142857142,692.0825892857143,3503.9,1834.2857142857142,692.0825892857143,3606.5,1834.2857142857142,692.0825892857143,3708.5,1834.2857142857142,692.0825892857143,3812.9,1834.2857142857142,692.0825892857143,3913.3,1834.2857142857142,692.0825892857143,4014,1834.2857142857142,692.0825892857143,4114,1834.2857142857142,692.0825892857143,4216.4,1834.2857142857142,692.0825892857143,4321.6,1834.2857142857142,692.0825892857143,4424,1834.2857142857142,692.0825892857143,4524.5,1834.2857142857142,692.0825892857143,4628.3,1834.2857142857142,692.0825892857143,4728.8,1834.2857142857142,692.0825892857143,4833.3,1834.2857142857142,692.0825892857143,4936.2]","[5820.9,5820.9,3485.9,2001.5,333.5,""smooth"",""up"",""up"",""good_move"",9084.5,3263.2,2889.9,5821.3,373.3,""smooth"",""right"",""right"",""good_move"",11770,2685.2,2366.5,9084.8,318.7,""smooth"",""up"",""up"",""good_move"",17971.7,6201.6,2542,15006.1,423.6,""smooth"",""up"",""up"",""good_move"",20587.3,2615.4,2220.3,17971.9,395.1,""smooth"",""right"",""right"",""good_move"",23884.9,3297.4,2758.2,20587.5,539.2,""smooth"",""right"",""right"",""good_move""]","",""
"2442","","<div style=""width:500px;"">
  <p>What determined the result of this run?</p>
  </div>","100","html-slider-response","47","642564","0.0-10.0-1.2","154","1","2025-07-02 10:21:44","80fe4187154257d5fb01684ea91b68b9","148.252.140.99","Mozilla/5.0 (Macintosh; Intel Mac OS X 10_15_7) AppleWebKit/537.36 (KHTML, like Gecko) Chrome/137.0.0.0 Safari/537.36","Macintosh","Chrome","137.0.0.0","OS X","10_15_7","https://app.prolific.com/","en-GB,en-US;q=0.9,en;q=0.8","603659d5c391045d1e4b332b","683db6dfa200031b80f2a654","68650775406987368201bd55","603659d5c391045d1e4b332b","2025-07-02T10:32:28.769Z","","","","","","AttribQ","","","","","","","","","","","","","","","","","","","","","","","","","","","","","","","","","","","","","","50"
"1700","","<div style=""width:500px;"">
  <p>How much control did you have over the ball?</p>
  </div>","100","html-slider-response","48","644264","0.0-10.0-2.2","154","1","2025-07-02 10:21:44","80fe4187154257d5fb01684ea91b68b9","148.252.140.99","Mozilla/5.0 (Macintosh; Intel Mac OS X 10_15_7) AppleWebKit/537.36 (KHTML, like Gecko) Chrome/137.0.0.0 Safari/537.36","Macintosh","Chrome","137.0.0.0","OS X","10_15_7","https://app.prolific.com/","en-GB,en-US;q=0.9,en;q=0.8","603659d5c391045d1e4b332b","683db6dfa200031b80f2a654","68650775406987368201bd55","603659d5c391045d1e4b332b","2025-07-02T10:32:30.469Z","","","","","","ControlQ","","","","","","","","","","","","","","","","","","","","","","","","","","","","","","","","","","","","","","50"
"2615","","<div style=""width:500px;"">
  <p>How would you describe your current emotional state?</p>
  </div>","23","html-slider-response","49","646880","0.0-10.0-3.2","154","1","2025-07-02 10:21:44","80fe4187154257d5fb01684ea91b68b9","148.252.140.99","Mozilla/5.0 (Macintosh; Intel Mac OS X 10_15_7) AppleWebKit/537.36 (KHTML, like Gecko) Chrome/137.0.0.0 Safari/537.36","Macintosh","Chrome","137.0.0.0","OS X","10_15_7","https://app.prolific.com/","en-GB,en-US;q=0.9,en;q=0.8","603659d5c391045d1e4b332b","683db6dfa200031b80f2a654","68650775406987368201bd55","603659d5c391045d1e4b332b","2025-07-02T10:32:33.085Z","","","","","","StressQ","","","","","","","","","","","","","","","","","","","","","","","","","","","","","","","","","","","","","","50"
"1700","","<div style=""width:500px;"">
  <p>What best describes how you currently feel?</p>
  </div>","78","html-slider-response","50","648581","0.0-10.0-4.2","154","1","2025-07-02 10:21:44","80fe4187154257d5fb01684ea91b68b9","148.252.140.99","Mozilla/5.0 (Macintosh; Intel Mac OS X 10_15_7) AppleWebKit/537.36 (KHTML, like Gecko) Chrome/137.0.0.0 Safari/537.36","Macintosh","Chrome","137.0.0.0","OS X","10_15_7","https://app.prolific.com/","en-GB,en-US;q=0.9,en;q=0.8","603659d5c391045d1e4b332b","683db6dfa200031b80f2a654","68650775406987368201bd55","603659d5c391045d1e4b332b","2025-07-02T10:32:34.786Z","","","","","","MotivationQ","","","","","","","","","","","","","","","","","","","","","","","","","","","","","","","","","","","","","","50"
"","","","","ctl-task-cpt","51","684971","0.0-10.0-0.3","154","1","2025-07-02 10:21:44","80fe4187154257d5fb01684ea91b68b9","148.252.140.99","Mozilla/5.0 (Macintosh; Intel Mac OS X 10_15_7) AppleWebKit/537.36 (KHTML, like Gecko) Chrome/137.0.0.0 Safari/537.36","Macintosh","Chrome","137.0.0.0","OS X","10_15_7","https://app.prolific.com/","en-GB,en-US;q=0.9,en;q=0.8","603659d5c391045d1e4b332b","683db6dfa200031b80f2a654","68650775406987368201bd55","603659d5c391045d1e4b332b","2025-07-02T10:33:11.176Z","","","","","","","","","","","","","","","","win-only","0","g1:NW,g2:SE","0.7","4","0","651780.8","718.1","5720.8","33376.4","1","4","4","6","2","-4","-4","16","20","0.12121212121212122","719.1","3000","-2865","[""down"",""right""]","{""num_key_presses"":9,""num_perfect"":7,""num_errors"":0,""num_randdir"":2,""num_randdir_good_moves"":0,""num_whilered"":0,""num_whileblue"":0,""num_blue"":1,""num_good_moves"":7}","[700.2857142857143,702.0825892857143,0.1,700.2857142857143,702.0825892857143,101.3,700.2857142857143,702.0825892857143,205.3,700.2857142857143,702.0825892857143,305.5,822.2857142857143,850.0825892857143,407,1172.2857142857142,1190.0825892857142,507.7,1176.2857142857142,1238.0825892857142,612.9,1172.2857142857142,1248.0825892857142,720.9,1172.2857142857142,1250.0825892857142,822.9,1172.2857142857142,1250.0825892857142,927.1,1172.2857142857142,1250.0825892857142,1028.3,1268.2857142857142,1230.0825892857142,1128.6,1916.2857142857142,1096.0825892857142,1237.7,1920.2857142857142,1090.0825892857142,1338.9,1920.2857142857142,1090.0825892857142,1440.9,1920.2857142857142,1090.0825892857142,1542.4,1920.2857142857142,1090.0825892857142,1643.2,1920.2857142857142,1090.0825892857142,1751.4,1920.2857142857142,1090.0825892857142,1852.7,1920.2857142857142,1090.0825892857142,1957.7,1920.2857142857142,1090.0825892857142,2057.8,1920.2857142857142,1090.0825892857142,2158,1920.2857142857142,1090.0825892857142,2262.3,1920.2857142857142,1090.0825892857142,2362.3,1920.2857142857142,1090.0825892857142,2462.5,1920.2857142857142,1090.0825892857142,2562.7,1920.2857142857142,1090.0825892857142,2662.9,1920.2857142857142,1090.0825892857142,2763.3,1920.2857142857142,1090.0825892857142,2872.4,1920.2857142857142,1090.0825892857142,2974.5,1920.2857142857142,1090.0825892857142,3078,1920.2857142857142,1090.0825892857142,3182.8,1920.2857142857142,1090.0825892857142,3287.5,1920.2857142857142,1090.0825892857142,3388.8,1920.2857142857142,1090.0825892857142,3493.3,1920.2857142857142,1090.0825892857142,3597.6,1920.2857142857142,1090.0825892857142,3697.6,1920.2857142857142,1090.0825892857142,3801.2,1920.2857142857142,1090.0825892857142,3904.5,1920.2857142857142,1090.0825892857142,4006.7,1920.2857142857142,1090.0825892857142,4107.5,1920.2857142857142,1090.0825892857142,4207.6,1920.2857142857142,1090.0825892857142,4307.8,1920.2857142857142,1090.0825892857142,4408.1,1920.2857142857142,1090.0825892857142,4508.2,1920.2857142857142,1090.0825892857142,4613.2,1920.2857142857142,1090.0825892857142,4719.4,1920.2857142857142,1090.0825892857142,4826.6,1920.2857142857142,1090.0825892857142,4927.8]","[1404.3,1404.3,1000,0,404.3,""smooth"",""down"",""down"",""good_move"",7826.3,6421.6,2524.7,4975.2,326.4,""smooth"",""right"",""right"",""good_move"",10117.5,2290.9,1908.1,7826.6,382.8,""oops"",""down"",""left"",""bad_move"",12050.7,1932.9,1540.3,10117.8,392.6,""smooth"",""down"",""down"",""good_move"",14167.1,2116.3,1783,12050.9,333.2,""smooth"",""down"",""down"",""good_move"",17533.1,3365.9,3011,14167.2,354.9,""smooth"",""right"",""right"",""good_move"",20398.4,2865.2,2551.5,17533.2,313.7,""oops"",""right"",""left"",""bad_move"",22953.7,2555,2252,20398.7,303,""smooth"",""right"",""right"",""good_move"",25094.6,2140.8,1834,22953.8,306.8,""smooth"",""right"",""right"",""good_move""]","",""
"4126","","<div style=""width:500px;"">
  <p>What determined the result of this run?</p>
  </div>","64","html-slider-response","52","689098","0.0-10.0-1.3","154","1","2025-07-02 10:21:44","80fe4187154257d5fb01684ea91b68b9","148.252.140.99","Mozilla/5.0 (Macintosh; Intel Mac OS X 10_15_7) AppleWebKit/537.36 (KHTML, like Gecko) Chrome/137.0.0.0 Safari/537.36","Macintosh","Chrome","137.0.0.0","OS X","10_15_7","https://app.prolific.com/","en-GB,en-US;q=0.9,en;q=0.8","603659d5c391045d1e4b332b","683db6dfa200031b80f2a654","68650775406987368201bd55","603659d5c391045d1e4b332b","2025-07-02T10:33:15.303Z","","","","","","AttribQ","","","","","","","","","","","","","","","","","","","","","","","","","","","","","","","","","","","","","","50"
"2049","","<div style=""width:500px;"">
  <p>How much control did you have over the ball?</p>
  </div>","32","html-slider-response","53","691147","0.0-10.0-2.3","154","1","2025-07-02 10:21:44","80fe4187154257d5fb01684ea91b68b9","148.252.140.99","Mozilla/5.0 (Macintosh; Intel Mac OS X 10_15_7) AppleWebKit/537.36 (KHTML, like Gecko) Chrome/137.0.0.0 Safari/537.36","Macintosh","Chrome","137.0.0.0","OS X","10_15_7","https://app.prolific.com/","en-GB,en-US;q=0.9,en;q=0.8","603659d5c391045d1e4b332b","683db6dfa200031b80f2a654","68650775406987368201bd55","603659d5c391045d1e4b332b","2025-07-02T10:33:17.352Z","","","","","","ControlQ","","","","","","","","","","","","","","","","","","","","","","","","","","","","","","","","","","","","","","50"
"3167","","<div style=""width:500px;"">
  <p>How would you describe your current emotional state?</p>
  </div>","44","html-slider-response","54","694314","0.0-10.0-3.3","154","1","2025-07-02 10:21:44","80fe4187154257d5fb01684ea91b68b9","148.252.140.99","Mozilla/5.0 (Macintosh; Intel Mac OS X 10_15_7) AppleWebKit/537.36 (KHTML, like Gecko) Chrome/137.0.0.0 Safari/537.36","Macintosh","Chrome","137.0.0.0","OS X","10_15_7","https://app.prolific.com/","en-GB,en-US;q=0.9,en;q=0.8","603659d5c391045d1e4b332b","683db6dfa200031b80f2a654","68650775406987368201bd55","603659d5c391045d1e4b332b","2025-07-02T10:33:20.519Z","","","","","","StressQ","","","","","","","","","","","","","","","","","","","","","","","","","","","","","","","","","","","","","","50"
"2415","","<div style=""width:500px;"">
  <p>What best describes how you currently feel?</p>
  </div>","71","html-slider-response","55","696730","0.0-10.0-4.3","154","1","2025-07-02 10:21:44","80fe4187154257d5fb01684ea91b68b9","148.252.140.99","Mozilla/5.0 (Macintosh; Intel Mac OS X 10_15_7) AppleWebKit/537.36 (KHTML, like Gecko) Chrome/137.0.0.0 Safari/537.36","Macintosh","Chrome","137.0.0.0","OS X","10_15_7","https://app.prolific.com/","en-GB,en-US;q=0.9,en;q=0.8","603659d5c391045d1e4b332b","683db6dfa200031b80f2a654","68650775406987368201bd55","603659d5c391045d1e4b332b","2025-07-02T10:33:22.935Z","","","","","","MotivationQ","","","","","","","","","","","","","","","","","","","","","","","","","","","","","","","","","","","","","","50"
"","","","","ctl-task-cpt","56","734273","0.0-10.0-0.4","154","1","2025-07-02 10:21:44","80fe4187154257d5fb01684ea91b68b9","148.252.140.99","Mozilla/5.0 (Macintosh; Intel Mac OS X 10_15_7) AppleWebKit/537.36 (KHTML, like Gecko) Chrome/137.0.0.0 Safari/537.36","Macintosh","Chrome","137.0.0.0","OS X","10_15_7","https://app.prolific.com/","en-GB,en-US;q=0.9,en;q=0.8","603659d5c391045d1e4b332b","683db6dfa200031b80f2a654","68650775406987368201bd55","603659d5c391045d1e4b332b","2025-07-02T10:34:00.479Z","","","","","","","","","","","","","","","","win-only","0","g1:NW,g2:SE","0.6","5","0","699930.5","737.6","5741.8","34530.2","1","4","8","6","2","8","8","24","16","0.18181818181818182","961.8","3000","645","[""down"",""right""]","{""num_key_presses"":8,""num_perfect"":4,""num_errors"":0,""num_randdir"":4,""num_randdir_good_moves"":3,""num_whilered"":0,""num_whileblue"":0,""num_blue"":2,""num_good_moves"":7}","[700.2857142857143,704.0825892857143,0.1,700.2857142857143,704.0825892857143,101.9,700.2857142857143,704.0825892857143,203.6,700.2857142857143,704.0825892857143,307.5,700.2857142857143,704.0825892857143,408.2,920.2857142857143,898.0825892857143,508.4,1080.2857142857142,1050.0825892857142,608.5,1152.2857142857142,1152.0825892857142,708.5,1206.2857142857142,1202.0825892857142,813,1222.2857142857142,1220.0825892857142,913.4,1224.2857142857142,1220.0825892857142,1018.4,1224.2857142857142,1220.0825892857142,1118.8,1224.2857142857142,1220.0825892857142,1220.2,1528.2857142857142,1028.0825892857142,1323.5,1598.2857142857142,998.0825892857143,1428.3,1598.2857142857142,998.0825892857143,1528.4,1598.2857142857142,998.0825892857143,1636.1,1598.2857142857142,998.0825892857143,1738.1,1598.2857142857142,998.0825892857143,1838.3,1598.2857142857142,998.0825892857143,1943.2,1598.2857142857142,998.0825892857143,2047.6,1598.2857142857142,998.0825892857143,2148.1,1598.2857142857142,998.0825892857143,2253.4,1598.2857142857142,998.0825892857143,2353.4,1598.2857142857142,998.0825892857143,2453.4,1598.2857142857142,998.0825892857143,2558.6,1598.2857142857142,998.0825892857143,2666.4,1598.2857142857142,998.0825892857143,2768.3,1598.2857142857142,998.0825892857143,2871.2,1598.2857142857142,998.0825892857143,2972.7,1598.2857142857142,998.0825892857143,3073.7,1598.2857142857142,998.0825892857143,3178,1598.2857142857142,998.0825892857143,3278.6,1598.2857142857142,998.0825892857143,3386.8,1598.2857142857142,998.0825892857143,3487.6,1598.2857142857142,998.0825892857143,3587.8,1598.2857142857142,998.0825892857143,3688.5,1598.2857142857142,998.0825892857143,3793.6,1598.2857142857142,998.0825892857143,3897.8,1598.2857142857142,998.0825892857143,3998.3,1598.2857142857142,998.0825892857143,4102.3,1598.2857142857142,998.0825892857143,4203.3,1598.2857142857142,998.0825892857143,4308,1598.2857142857142,998.0825892857143,4413.1,1598.2857142857142,998.0825892857143,4513.7,1598.2857142857142,998.0825892857143,4618,1598.2857142857142,998.0825892857143,4718.9,1598.2857142857142,998.0825892857143,4823.8,1598.2857142857142,998.0825892857143,4928.3]","[1386.8,1386.8,1000,0,386.8,""smooth"",""right"",""right"",""good_move"",4149.3,2762.4,2446.6,1386.9,315.8,""smooth"",""right"",""right"",""good_move"",6746.5,2597.1,2314.6,4149.4,282.5,""smooth"",""right"",""right"",""good_move"",9896.5,3149.8,2867.4,6746.7,282.4,""oops"",""down"",""down"",""good_move"",12800.5,2903.7,2620.4,9896.8,283.3,""oops"",""down"",""up"",""bad_move"",22717.7,9917,2101.3,20314.3,302.1,""oops"",""down"",""down"",""good_move"",26015.4,3297.4,2985.5,22718,311.9,""oops"",""down"",""down"",""good_move"",28683.2,2667.7,2367,26015.5,300.8,""smooth"",""down"",""down"",""good_move""]","",""
"2890","","<div style=""width:500px;"">
  <p>What determined the result of this run?</p>
  </div>","85","html-slider-response","57","737164","0.0-10.0-1.4","154","1","2025-07-02 10:21:44","80fe4187154257d5fb01684ea91b68b9","148.252.140.99","Mozilla/5.0 (Macintosh; Intel Mac OS X 10_15_7) AppleWebKit/537.36 (KHTML, like Gecko) Chrome/137.0.0.0 Safari/537.36","Macintosh","Chrome","137.0.0.0","OS X","10_15_7","https://app.prolific.com/","en-GB,en-US;q=0.9,en;q=0.8","603659d5c391045d1e4b332b","683db6dfa200031b80f2a654","68650775406987368201bd55","603659d5c391045d1e4b332b","2025-07-02T10:34:03.369Z","","","","","","AttribQ","","","","","","","","","","","","","","","","","","","","","","","","","","","","","","","","","","","","","","50"
"3183","","<div style=""width:500px;"">
  <p>How much control did you have over the ball?</p>
  </div>","62","html-slider-response","58","740348","0.0-10.0-2.4","154","1","2025-07-02 10:21:44","80fe4187154257d5fb01684ea91b68b9","148.252.140.99","Mozilla/5.0 (Macintosh; Intel Mac OS X 10_15_7) AppleWebKit/537.36 (KHTML, like Gecko) Chrome/137.0.0.0 Safari/537.36","Macintosh","Chrome","137.0.0.0","OS X","10_15_7","https://app.prolific.com/","en-GB,en-US;q=0.9,en;q=0.8","603659d5c391045d1e4b332b","683db6dfa200031b80f2a654","68650775406987368201bd55","603659d5c391045d1e4b332b","2025-07-02T10:34:06.553Z","","","","","","ControlQ","","","","","","","","","","","","","","","","","","","","","","","","","","","","","","","","","","","","","","50"
"2098","","<div style=""width:500px;"">
  <p>How would you describe your current emotional state?</p>
  </div>","40","html-slider-response","59","742447","0.0-10.0-3.4","154","1","2025-07-02 10:21:44","80fe4187154257d5fb01684ea91b68b9","148.252.140.99","Mozilla/5.0 (Macintosh; Intel Mac OS X 10_15_7) AppleWebKit/537.36 (KHTML, like Gecko) Chrome/137.0.0.0 Safari/537.36","Macintosh","Chrome","137.0.0.0","OS X","10_15_7","https://app.prolific.com/","en-GB,en-US;q=0.9,en;q=0.8","603659d5c391045d1e4b332b","683db6dfa200031b80f2a654","68650775406987368201bd55","603659d5c391045d1e4b332b","2025-07-02T10:34:08.652Z","","","","","","StressQ","","","","","","","","","","","","","","","","","","","","","","","","","","","","","","","","","","","","","","50"
"2100","","<div style=""width:500px;"">
  <p>What best describes how you currently feel?</p>
  </div>","76","html-slider-response","60","744547","0.0-10.0-4.4","154","1","2025-07-02 10:21:44","80fe4187154257d5fb01684ea91b68b9","148.252.140.99","Mozilla/5.0 (Macintosh; Intel Mac OS X 10_15_7) AppleWebKit/537.36 (KHTML, like Gecko) Chrome/137.0.0.0 Safari/537.36","Macintosh","Chrome","137.0.0.0","OS X","10_15_7","https://app.prolific.com/","en-GB,en-US;q=0.9,en;q=0.8","603659d5c391045d1e4b332b","683db6dfa200031b80f2a654","68650775406987368201bd55","603659d5c391045d1e4b332b","2025-07-02T10:34:10.752Z","","","","","","MotivationQ","","","","","","","","","","","","","","","","","","","","","","","","","","","","","","","","","","","","","","50"
"","","","","ctl-task-cpt","61","789446","0.0-10.0-0.5","154","1","2025-07-02 10:21:44","80fe4187154257d5fb01684ea91b68b9","148.252.140.99","Mozilla/5.0 (Macintosh; Intel Mac OS X 10_15_7) AppleWebKit/537.36 (KHTML, like Gecko) Chrome/137.0.0.0 Safari/537.36","Macintosh","Chrome","137.0.0.0","OS X","10_15_7","https://app.prolific.com/","en-GB,en-US;q=0.9,en;q=0.8","603659d5c391045d1e4b332b","683db6dfa200031b80f2a654","68650775406987368201bd55","603659d5c391045d1e4b332b","2025-07-02T10:34:55.651Z","","","","","","","","","","","","","","","","win-only","1","g1:NE,g2:SW","0.5","6","0","747748.8","1015","6015.9","41891.2","1","4","4","6","2","-4","-5","19","24","0.14393939393939395","799.6","3000","-2980","[""down"",""left""]","{""num_key_presses"":10,""num_perfect"":5,""num_errors"":1,""num_randdir"":4,""num_randdir_good_moves"":0,""num_whilered"":0,""num_whileblue"":1,""num_blue"":3,""num_good_moves"":5}","[690.2857142857143,692.0825892857143,0.1,690.2857142857143,692.0825892857143,101.4,690.2857142857143,692.0825892857143,205.9,774.2857142857143,720.0825892857143,310,854.2857142857143,754.0825892857143,410.7,284.2857142857143,1060.0825892857142,511.5,188.28571428571428,1150.0825892857142,615.4,170.28571428571428,1204.0825892857142,716.3,148.28571428571428,1234.0825892857142,820.4,148.28571428571428,1234.0825892857142,925.8,148.28571428571428,1234.0825892857142,1026.1,212.28571428571428,1044.0825892857142,1127.6,162.28571428571428,846.0825892857143,1230.8,72.28571428571429,840.0825892857143,1331.2,72.28571428571429,840.0825892857143,1436.1,-59.71428571428571,798.0825892857143,1536.4,-91.71428571428571,782.0825892857143,1640.6,-91.71428571428571,782.0825892857143,1745.9,-91.71428571428571,782.0825892857143,1850.5,-91.71428571428571,782.0825892857143,1951.6,-91.71428571428571,782.0825892857143,2055.7,-91.71428571428571,782.0825892857143,2160.6,-91.71428571428571,782.0825892857143,2260.9,-91.71428571428571,782.0825892857143,2365.9,-91.71428571428571,782.0825892857143,2466.3,-91.71428571428571,782.0825892857143,2570.7,-91.71428571428571,782.0825892857143,2670.9,-91.71428571428571,782.0825892857143,2776.3,-91.71428571428571,782.0825892857143,2880.9,-91.71428571428571,782.0825892857143,2981,-91.71428571428571,782.0825892857143,3081.3,-91.71428571428571,782.0825892857143,3185.8,-91.71428571428571,782.0825892857143,3286.1,-91.71428571428571,782.0825892857143,3391.1,-91.71428571428571,782.0825892857143,3491.6,-91.71428571428571,782.0825892857143,3595.8,-91.71428571428571,782.0825892857143,3695.8,-91.71428571428571,782.0825892857143,3796.3,-91.71428571428571,782.0825892857143,3896.3,-91.71428571428571,782.0825892857143,4001,-91.71428571428571,782.0825892857143,4106,-91.71428571428571,782.0825892857143,4211.1,-91.71428571428571,782.0825892857143,4315.5,-91.71428571428571,782.0825892857143,4420.4,-91.71428571428571,782.0825892857143,4521.1,-91.71428571428571,782.0825892857143,4626,-91.71428571428571,782.0825892857143,4731,-91.71428571428571,782.0825892857143,4836.7,-91.71428571428571,782.0825892857143,4941.3]","[1376.6,1376.6,1000,0,376.6,""smooth"",""down"",""down"",""good_move"",4240.6,2863.8,2576.3,1376.8,287.5,""oops"",""down"",""up"",""bad_move"",7636.9,3396.2,3128.7,4240.7,267.5,""smooth"",""down"",""down"",""good_move"",13954.1,6317,2709.1,10910,335,""oops"",""left"",""up"",""bad_move"",16306.1,2351.9,2019.4,13954.2,332.5,""oops"",""left"",""right"",""bad_move"",18912.1,2605.7,2298.5,16306.4,307.2,""smooth"",""down"",""down"",""good_move"",21521.9,2609.5,2302.5,18912.4,307,""oops"",""down"",""right"",""bad_move"",24274.8,2752.7,2407,21522.1,345.7,""smooth"",""down"",""down"",""good_move"",26753.5,2478.6,2159.6,24274.9,319,""smooth"",""down"",""down"",""good_move"",29292.9,2539.2,2490.9,26753.7,48.3,""while_blue"",""left"",""up"",""bad_move""]","",""
"2450","","<div style=""width:500px;"">
  <p>What determined the result of this run?</p>
  </div>","47","html-slider-response","62","791897","0.0-10.0-1.5","154","1","2025-07-02 10:21:44","80fe4187154257d5fb01684ea91b68b9","148.252.140.99","Mozilla/5.0 (Macintosh; Intel Mac OS X 10_15_7) AppleWebKit/537.36 (KHTML, like Gecko) Chrome/137.0.0.0 Safari/537.36","Macintosh","Chrome","137.0.0.0","OS X","10_15_7","https://app.prolific.com/","en-GB,en-US;q=0.9,en;q=0.8","603659d5c391045d1e4b332b","683db6dfa200031b80f2a654","68650775406987368201bd55","603659d5c391045d1e4b332b","2025-07-02T10:34:58.102Z","","","","","","AttribQ","","","","","","","","","","","","","","","","","","","","","","","","","","","","","","","","","","","","","","50"
"2199","","<div style=""width:500px;"">
  <p>How much control did you have over the ball?</p>
  </div>","34","html-slider-response","63","794097","0.0-10.0-2.5","154","1","2025-07-02 10:21:44","80fe4187154257d5fb01684ea91b68b9","148.252.140.99","Mozilla/5.0 (Macintosh; Intel Mac OS X 10_15_7) AppleWebKit/537.36 (KHTML, like Gecko) Chrome/137.0.0.0 Safari/537.36","Macintosh","Chrome","137.0.0.0","OS X","10_15_7","https://app.prolific.com/","en-GB,en-US;q=0.9,en;q=0.8","603659d5c391045d1e4b332b","683db6dfa200031b80f2a654","68650775406987368201bd55","603659d5c391045d1e4b332b","2025-07-02T10:35:00.302Z","","","","","","ControlQ","","","","","","","","","","","","","","","","","","","","","","","","","","","","","","","","","","","","","","50"
"2132","","<div style=""width:500px;"">
  <p>How would you describe your current emotional state?</p>
  </div>","54","html-slider-response","64","796230","0.0-10.0-3.5","154","1","2025-07-02 10:21:44","80fe4187154257d5fb01684ea91b68b9","148.252.140.99","Mozilla/5.0 (Macintosh; Intel Mac OS X 10_15_7) AppleWebKit/537.36 (KHTML, like Gecko) Chrome/137.0.0.0 Safari/537.36","Macintosh","Chrome","137.0.0.0","OS X","10_15_7","https://app.prolific.com/","en-GB,en-US;q=0.9,en;q=0.8","603659d5c391045d1e4b332b","683db6dfa200031b80f2a654","68650775406987368201bd55","603659d5c391045d1e4b332b","2025-07-02T10:35:02.435Z","","","","","","StressQ","","","","","","","","","","","","","","","","","","","","","","","","","","","","","","","","","","","","","","50"
"2500","","<div style=""width:500px;"">
  <p>What best describes how you currently feel?</p>
  </div>","68","html-slider-response","65","798730","0.0-10.0-4.5","154","1","2025-07-02 10:21:44","80fe4187154257d5fb01684ea91b68b9","148.252.140.99","Mozilla/5.0 (Macintosh; Intel Mac OS X 10_15_7) AppleWebKit/537.36 (KHTML, like Gecko) Chrome/137.0.0.0 Safari/537.36","Macintosh","Chrome","137.0.0.0","OS X","10_15_7","https://app.prolific.com/","en-GB,en-US;q=0.9,en;q=0.8","603659d5c391045d1e4b332b","683db6dfa200031b80f2a654","68650775406987368201bd55","603659d5c391045d1e4b332b","2025-07-02T10:35:04.935Z","","","","","","MotivationQ","","","","","","","","","","","","","","","","","","","","","","","","","","","","","","","","","","","","","","50"
"","","","","ctl-task-cpt","66","836105","0.0-10.0-0.6","154","1","2025-07-02 10:21:44","80fe4187154257d5fb01684ea91b68b9","148.252.140.99","Mozilla/5.0 (Macintosh; Intel Mac OS X 10_15_7) AppleWebKit/537.36 (KHTML, like Gecko) Chrome/137.0.0.0 Safari/537.36","Macintosh","Chrome","137.0.0.0","OS X","10_15_7","https://app.prolific.com/","en-GB,en-US;q=0.9,en;q=0.8","603659d5c391045d1e4b332b","683db6dfa200031b80f2a654","68650775406987368201bd55","603659d5c391045d1e4b332b","2025-07-02T10:35:42.310Z","","","","","","","","","","","","","","","","win-only","0","g1:NW,g2:SE","0.4","7","0","801932.1","832.7","5838.2","34365.3","1","4","8","6","2","-8","-8","11","19","0.08333333333333333","750.4","3000","-2980","[""down"",""right""]","{""num_key_presses"":9,""num_perfect"":3,""num_errors"":0,""num_randdir"":6,""num_randdir_good_moves"":2,""num_whilered"":0,""num_whileblue"":0,""num_blue"":1,""num_good_moves"":5}","[708.2857142857143,702.0825892857143,0,708.2857142857143,702.0825892857143,102.7,708.2857142857143,702.0825892857143,209.6,708.2857142857143,702.0825892857143,313,920.2857142857143,956.0825892857143,417.7,1224.2857142857142,1206.0825892857142,518,1236.2857142857142,1214.0825892857142,618.2,1260.2857142857142,1246.0825892857142,718.3,1260.2857142857142,1248.0825892857142,821.7,1260.2857142857142,1248.0825892857142,922.8,1314.2857142857142,1214.0825892857142,1023.2,1658.2857142857142,1030.0825892857142,1127.8,1672.2857142857142,1016.0825892857143,1227.8,1672.2857142857142,1016.0825892857143,1333.2,1672.2857142857142,1016.0825892857143,1433.7,1672.2857142857142,1016.0825892857143,1538.9,1672.2857142857142,1016.0825892857143,1640.5,1672.2857142857142,1016.0825892857143,1741.5,1672.2857142857142,1016.0825892857143,1843.5,1672.2857142857142,1016.0825892857143,1947.5,1672.2857142857142,1016.0825892857143,2048.2,1672.2857142857142,1016.0825892857143,2152.6,1672.2857142857142,1016.0825892857143,2252.8,1672.2857142857142,1016.0825892857143,2358,1672.2857142857142,1016.0825892857143,2459.3,1672.2857142857142,1016.0825892857143,2560,1672.2857142857142,1016.0825892857143,2662.6,1672.2857142857142,1016.0825892857143,2763.2,1672.2857142857142,1016.0825892857143,2868.2,1672.2857142857142,1016.0825892857143,2972.9,1672.2857142857142,1016.0825892857143,3073.3,1672.2857142857142,1016.0825892857143,3177.9,1672.2857142857142,1016.0825892857143,3278.2,1672.2857142857142,1016.0825892857143,3383.5,1672.2857142857142,1016.0825892857143,3491.7,1672.2857142857142,1016.0825892857143,3593.4,1672.2857142857142,1016.0825892857143,3698,1672.2857142857142,1016.0825892857143,3803.1,1672.2857142857142,1016.0825892857143,3907.7,1672.2857142857142,1016.0825892857143,4013.1,1672.2857142857142,1016.0825892857143,4113.3,1672.2857142857142,1016.0825892857143,4217.6,1672.2857142857142,1016.0825892857143,4318.2,1672.2857142857142,1016.0825892857143,4423.2,1672.2857142857142,1016.0825892857143,4528.3,1672.2857142857142,1016.0825892857143,4633.4,1672.2857142857142,1016.0825892857143,4743.3,1672.2857142857142,1016.0825892857143,4843.5,1672.2857142857142,1016.0825892857143,4948.2]","[1418.4,1418.4,1000,0,418.4,""smooth"",""right"",""right"",""good_move"",3667.4,2248.7,1901.5,1418.7,347.2,""oops"",""right"",""up"",""bad_move"",7251.1,3583.6,3269.7,3667.5,313.9,""smooth"",""right"",""right"",""good_move"",9450.9,2199.8,1903.7,7251.2,296.1,""oops"",""right"",""right"",""good_move"",11917.6,2466.4,2180.2,9451.2,286.2,""oops"",""down"",""up"",""bad_move"",17666,5748.2,2290.2,15054.7,321.1,""oops"",""down"",""down"",""good_move"",20597.9,2931.6,2637.8,17666.3,293.8,""smooth"",""down"",""down"",""good_move"",23351.8,2753.8,2449.5,20598,304.3,""oops"",""down"",""left"",""bad_move"",26552.3,3200.3,2942,23352,258.3,""oops"",""right"",""up"",""bad_move""]","",""
"2757","","<div style=""width:500px;"">
  <p>What determined the result of this run?</p>
  </div>","31","html-slider-response","67","838863","0.0-10.0-1.6","154","1","2025-07-02 10:21:44","80fe4187154257d5fb01684ea91b68b9","148.252.140.99","Mozilla/5.0 (Macintosh; Intel Mac OS X 10_15_7) AppleWebKit/537.36 (KHTML, like Gecko) Chrome/137.0.0.0 Safari/537.36","Macintosh","Chrome","137.0.0.0","OS X","10_15_7","https://app.prolific.com/","en-GB,en-US;q=0.9,en;q=0.8","603659d5c391045d1e4b332b","683db6dfa200031b80f2a654","68650775406987368201bd55","603659d5c391045d1e4b332b","2025-07-02T10:35:45.068Z","","","","","","AttribQ","","","","","","","","","","","","","","","","","","","","","","","","","","","","","","","","","","","","","","50"
"2249","","<div style=""width:500px;"">
  <p>How much control did you have over the ball?</p>
  </div>","30","html-slider-response","68","841113","0.0-10.0-2.6","154","1","2025-07-02 10:21:44","80fe4187154257d5fb01684ea91b68b9","148.252.140.99","Mozilla/5.0 (Macintosh; Intel Mac OS X 10_15_7) AppleWebKit/537.36 (KHTML, like Gecko) Chrome/137.0.0.0 Safari/537.36","Macintosh","Chrome","137.0.0.0","OS X","10_15_7","https://app.prolific.com/","en-GB,en-US;q=0.9,en;q=0.8","603659d5c391045d1e4b332b","683db6dfa200031b80f2a654","68650775406987368201bd55","603659d5c391045d1e4b332b","2025-07-02T10:35:47.318Z","","","","","","ControlQ","","","","","","","","","","","","","","","","","","","","","","","","","","","","","","","","","","","","","","50"
"2049","","<div style=""width:500px;"">
  <p>How would you describe your current emotional state?</p>
  </div>","74","html-slider-response","69","843163","0.0-10.0-3.6","154","1","2025-07-02 10:21:44","80fe4187154257d5fb01684ea91b68b9","148.252.140.99","Mozilla/5.0 (Macintosh; Intel Mac OS X 10_15_7) AppleWebKit/537.36 (KHTML, like Gecko) Chrome/137.0.0.0 Safari/537.36","Macintosh","Chrome","137.0.0.0","OS X","10_15_7","https://app.prolific.com/","en-GB,en-US;q=0.9,en;q=0.8","603659d5c391045d1e4b332b","683db6dfa200031b80f2a654","68650775406987368201bd55","603659d5c391045d1e4b332b","2025-07-02T10:35:49.368Z","","","","","","StressQ","","","","","","","","","","","","","","","","","","","","","","","","","","","","","","","","","","","","","","50"
"2483","","<div style=""width:500px;"">
  <p>What best describes how you currently feel?</p>
  </div>","72","html-slider-response","70","845647","0.0-10.0-4.6","154","1","2025-07-02 10:21:44","80fe4187154257d5fb01684ea91b68b9","148.252.140.99","Mozilla/5.0 (Macintosh; Intel Mac OS X 10_15_7) AppleWebKit/537.36 (KHTML, like Gecko) Chrome/137.0.0.0 Safari/537.36","Macintosh","Chrome","137.0.0.0","OS X","10_15_7","https://app.prolific.com/","en-GB,en-US;q=0.9,en;q=0.8","603659d5c391045d1e4b332b","683db6dfa200031b80f2a654","68650775406987368201bd55","603659d5c391045d1e4b332b","2025-07-02T10:35:51.852Z","","","","","","MotivationQ","","","","","","","","","","","","","","","","","","","","","","","","","","","","","","","","","","","","","","50"
"","","","","ctl-task-cpt","71","876998","0.0-10.0-0.7","154","1","2025-07-02 10:21:44","80fe4187154257d5fb01684ea91b68b9","148.252.140.99","Mozilla/5.0 (Macintosh; Intel Mac OS X 10_15_7) AppleWebKit/537.36 (KHTML, like Gecko) Chrome/137.0.0.0 Safari/537.36","Macintosh","Chrome","137.0.0.0","OS X","10_15_7","https://app.prolific.com/","en-GB,en-US;q=0.9,en;q=0.8","603659d5c391045d1e4b332b","683db6dfa200031b80f2a654","68650775406987368201bd55","603659d5c391045d1e4b332b","2025-07-02T10:36:23.203Z","","","","","","","","","","","","","","","","win-only","3","g1:SW,g2:NE","0.3","8","0","848850","665.3","5666.1","28341","1","4","4","6","2","4","4","15","11","0.11363636363636363","899.4","3000","870","[""up"",""right""]","{""num_key_presses"":6,""num_perfect"":2,""num_errors"":0,""num_randdir"":4,""num_randdir_good_moves"":4,""num_whilered"":0,""num_whileblue"":0,""num_blue"":2,""num_good_moves"":6}","[706.2857142857143,690.0825892857143,0.1,706.2857142857143,690.0825892857143,100.7,706.2857142857143,690.0825892857143,200.8,706.2857142857143,690.0825892857143,304.9,706.2857142857143,690.0825892857143,410.2,852.2857142857143,536.0825892857143,510.5,1266.2857142857142,264.0825892857143,610.9,1332.2857142857142,198.08258928571428,715.9,1336.2857142857142,186.08258928571428,820.4,1336.2857142857142,182.08258928571428,921,1336.2857142857142,182.08258928571428,1021.2,1336.2857142857142,182.08258928571428,1129,1338.2857142857142,188.08258928571428,1230.7,1646.2857142857142,448.0825892857143,1336,1816.2857142857142,452.0825892857143,1440.6,1816.2857142857142,436.0825892857143,1545,1816.2857142857142,436.0825892857143,1645.1,1816.2857142857142,436.0825892857143,1745.1,1816.2857142857142,436.0825892857143,1845.7,1816.2857142857142,436.0825892857143,1950.6,1816.2857142857142,436.0825892857143,2055.4,1816.2857142857142,436.0825892857143,2155.7,1816.2857142857142,436.0825892857143,2255.8,1816.2857142857142,436.0825892857143,2359.9,1816.2857142857142,436.0825892857143,2460.4,1816.2857142857142,436.0825892857143,2560.8,1816.2857142857142,436.0825892857143,2665.4,1816.2857142857142,436.0825892857143,2773.1,1816.2857142857142,436.0825892857143,2875.2,1816.2857142857142,436.0825892857143,2980.1,1816.2857142857142,436.0825892857143,3080.1,1816.2857142857142,436.0825892857143,3180.6,1816.2857142857142,436.0825892857143,3280.8,1816.2857142857142,436.0825892857143,3385.1,1816.2857142857142,436.0825892857143,3485.7,1816.2857142857142,436.0825892857143,3585.9,1816.2857142857142,436.0825892857143,3691.9,1816.2857142857142,436.0825892857143,3795.8,1816.2857142857142,436.0825892857143,3895.9,1816.2857142857142,436.0825892857143,3995.9,1816.2857142857142,436.0825892857143,4100.8,1816.2857142857142,436.0825892857143,4205.7,1816.2857142857142,436.0825892857143,4309.9,1816.2857142857142,436.0825892857143,4410.3,1816.2857142857142,436.0825892857143,4510.3,1816.2857142857142,436.0825892857143,4610.9,1816.2857142857142,436.0825892857143,4711,1816.2857142857142,436.0825892857143,4816,1816.2857142857142,436.0825892857143,4920]","[1404.1,1404.1,1000,0,404.1,""oops"",""up"",""right"",""good_move"",4208.6,2804.3,2463.6,1404.3,340.7,""oops"",""up"",""right"",""good_move"",6854,2645.4,2243.5,4208.6,401.9,""oops"",""up"",""up"",""good_move"",13583.5,6729.2,2346.5,10909.9,327.1,""oops"",""up"",""up"",""good_move"",16804.9,3221.3,2820.5,13583.6,400.8,""smooth"",""up"",""up"",""good_move"",22574.2,5769.2,2091.7,20174.6,307.9,""smooth"",""right"",""right"",""good_move""]","",""
"1946","","<div style=""width:500px;"">
  <p>What determined the result of this run?</p>
  </div>","64","html-slider-response","72","878945","0.0-10.0-1.7","154","1","2025-07-02 10:21:44","80fe4187154257d5fb01684ea91b68b9","148.252.140.99","Mozilla/5.0 (Macintosh; Intel Mac OS X 10_15_7) AppleWebKit/537.36 (KHTML, like Gecko) Chrome/137.0.0.0 Safari/537.36","Macintosh","Chrome","137.0.0.0","OS X","10_15_7","https://app.prolific.com/","en-GB,en-US;q=0.9,en;q=0.8","603659d5c391045d1e4b332b","683db6dfa200031b80f2a654","68650775406987368201bd55","603659d5c391045d1e4b332b","2025-07-02T10:36:25.150Z","","","","","","AttribQ","","","","","","","","","","","","","","","","","","","","","","","","","","","","","","","","","","","","","","50"
"2250","","<div style=""width:500px;"">
  <p>How much control did you have over the ball?</p>
  </div>","43","html-slider-response","73","881196","0.0-10.0-2.7","154","1","2025-07-02 10:21:44","80fe4187154257d5fb01684ea91b68b9","148.252.140.99","Mozilla/5.0 (Macintosh; Intel Mac OS X 10_15_7) AppleWebKit/537.36 (KHTML, like Gecko) Chrome/137.0.0.0 Safari/537.36","Macintosh","Chrome","137.0.0.0","OS X","10_15_7","https://app.prolific.com/","en-GB,en-US;q=0.9,en;q=0.8","603659d5c391045d1e4b332b","683db6dfa200031b80f2a654","68650775406987368201bd55","603659d5c391045d1e4b332b","2025-07-02T10:36:27.401Z","","","","","","ControlQ","","","","","","","","","","","","","","","","","","","","","","","","","","","","","","","","","","","","","","50"
"2615","","<div style=""width:500px;"">
  <p>How would you describe your current emotional state?</p>
  </div>","59","html-slider-response","74","883812","0.0-10.0-3.7","154","1","2025-07-02 10:21:44","80fe4187154257d5fb01684ea91b68b9","148.252.140.99","Mozilla/5.0 (Macintosh; Intel Mac OS X 10_15_7) AppleWebKit/537.36 (KHTML, like Gecko) Chrome/137.0.0.0 Safari/537.36","Macintosh","Chrome","137.0.0.0","OS X","10_15_7","https://app.prolific.com/","en-GB,en-US;q=0.9,en;q=0.8","603659d5c391045d1e4b332b","683db6dfa200031b80f2a654","68650775406987368201bd55","603659d5c391045d1e4b332b","2025-07-02T10:36:30.017Z","","","","","","StressQ","","","","","","","","","","","","","","","","","","","","","","","","","","","","","","","","","","","","","","50"
"1650","","<div style=""width:500px;"">
  <p>What best describes how you currently feel?</p>
  </div>","78","html-slider-response","75","885462","0.0-10.0-4.7","154","1","2025-07-02 10:21:44","80fe4187154257d5fb01684ea91b68b9","148.252.140.99","Mozilla/5.0 (Macintosh; Intel Mac OS X 10_15_7) AppleWebKit/537.36 (KHTML, like Gecko) Chrome/137.0.0.0 Safari/537.36","Macintosh","Chrome","137.0.0.0","OS X","10_15_7","https://app.prolific.com/","en-GB,en-US;q=0.9,en;q=0.8","603659d5c391045d1e4b332b","683db6dfa200031b80f2a654","68650775406987368201bd55","603659d5c391045d1e4b332b","2025-07-02T10:36:31.667Z","","","","","","MotivationQ","","","","","","","","","","","","","","","","","","","","","","","","","","","","","","","","","","","","","","50"
"","","","","ctl-task-cpt","76","924832","0.0-10.0-0.8","154","1","2025-07-02 10:21:44","80fe4187154257d5fb01684ea91b68b9","148.252.140.99","Mozilla/5.0 (Macintosh; Intel Mac OS X 10_15_7) AppleWebKit/537.36 (KHTML, like Gecko) Chrome/137.0.0.0 Safari/537.36","Macintosh","Chrome","137.0.0.0","OS X","10_15_7","https://app.prolific.com/","en-GB,en-US;q=0.9,en;q=0.8","603659d5c391045d1e4b332b","683db6dfa200031b80f2a654","68650775406987368201bd55","603659d5c391045d1e4b332b","2025-07-02T10:37:11.037Z","","","","","","","","","","","","","","","","win-only","3","g1:SW,g2:NE","0.4","9","0","888665.8","787.9","5790.4","36360.9","1","4","4","6","2","4","3","18","15","0.13636363636363635","861.6","3000","20","[""up"",""right""]","{""num_key_presses"":10,""num_perfect"":4,""num_errors"":1,""num_randdir"":5,""num_randdir_good_moves"":3,""num_whilered"":0,""num_whileblue"":1,""num_blue"":2,""num_good_moves"":8}","[704.2857142857143,702.0825892857143,0.1,704.2857142857143,702.0825892857143,103.7,704.2857142857143,702.0825892857143,208.2,704.2857142857143,702.0825892857143,308.7,704.2857142857143,708.0825892857143,413.7,926.2857142857143,666.0825892857143,522.3,1174.2857142857142,182.08258928571428,623.4,1174.2857142857142,182.08258928571428,728.3,1174.2857142857142,182.08258928571428,836,1174.2857142857142,182.08258928571428,937.8,1174.2857142857142,182.08258928571428,1037.9,1174.2857142857142,182.08258928571428,1138.6,1272.2857142857142,200.08258928571428,1242.7,1924.2857142857142,478.0825892857143,1343.8,1924.2857142857142,478.0825892857143,1453.5,1924.2857142857142,478.0825892857143,1556.3,1924.2857142857142,478.0825892857143,1659.1,1924.2857142857142,478.0825892857143,1763.7,1924.2857142857142,478.0825892857143,1871.2,1924.2857142857142,478.0825892857143,1972.3,1924.2857142857142,478.0825892857143,2073.6,1924.2857142857142,478.0825892857143,2179,1924.2857142857142,478.0825892857143,2284.3,1924.2857142857142,478.0825892857143,2388.3,1924.2857142857142,478.0825892857143,2493.2,1924.2857142857142,478.0825892857143,2593.9,1924.2857142857142,478.0825892857143,2698.4,1924.2857142857142,478.0825892857143,2805.1,1924.2857142857142,478.0825892857143,2906.2,1924.2857142857142,478.0825892857143,3008.4,1924.2857142857142,478.0825892857143,3113,1924.2857142857142,478.0825892857143,3213.7,1924.2857142857142,478.0825892857143,3319.5,1924.2857142857142,478.0825892857143,3422.9,1924.2857142857142,478.0825892857143,3523.2,1924.2857142857142,478.0825892857143,3623.3,1924.2857142857142,478.0825892857143,3727.9,1924.2857142857142,478.0825892857143,3835.9,1924.2857142857142,478.0825892857143,3936.2,1924.2857142857142,478.0825892857143,4039.1,1924.2857142857142,478.0825892857143,4142.6,1924.2857142857142,478.0825892857143,4242.7,1924.2857142857142,478.0825892857143,4342.9,1924.2857142857142,478.0825892857143,4443.5,1924.2857142857142,478.0825892857143,4551.8,1924.2857142857142,478.0825892857143,4653,1924.2857142857142,478.0825892857143,4753.3,1924.2857142857142,478.0825892857143,4855.9,1924.2857142857142,478.0825892857143,4958.1]","[1369,1369,1000,0,369,""oops"",""up"",""down"",""bad_move"",4554.3,3184.9,2856.4,1369.4,328.5,""while_blue"",""right"",""up"",""good_move"",7449.4,2894.7,2515.2,4554.7,379.5,""oops"",""right"",""down"",""bad_move"",9918.7,2469.2,2136.5,7449.5,332.7,""oops"",""right"",""right"",""good_move"",12731.1,2812.2,2482,9918.9,330.2,""oops"",""right"",""up"",""good_move"",18968.4,6237.1,2372,16282.5,313.9,""oops"",""right"",""up"",""good_move"",22216.6,3248.1,2873.5,18968.5,374.6,""smooth"",""right"",""right"",""good_move"",24985.4,2768.7,2410.2,22216.7,358.5,""smooth"",""right"",""right"",""good_move"",27401.8,2416.2,2088.8,24985.6,327.4,""smooth"",""up"",""up"",""good_move"",30469.2,3067.2,2756.1,27402,311.1,""smooth"",""up"",""up"",""good_move""]","",""
"1995","","<div style=""width:500px;"">
  <p>What determined the result of this run?</p>
  </div>","47","html-slider-response","77","926829","0.0-10.0-1.8","154","1","2025-07-02 10:21:44","80fe4187154257d5fb01684ea91b68b9","148.252.140.99","Mozilla/5.0 (Macintosh; Intel Mac OS X 10_15_7) AppleWebKit/537.36 (KHTML, like Gecko) Chrome/137.0.0.0 Safari/537.36","Macintosh","Chrome","137.0.0.0","OS X","10_15_7","https://app.prolific.com/","en-GB,en-US;q=0.9,en;q=0.8","603659d5c391045d1e4b332b","683db6dfa200031b80f2a654","68650775406987368201bd55","603659d5c391045d1e4b332b","2025-07-02T10:37:13.034Z","","","","","","AttribQ","","","","","","","","","","","","","","","","","","","","","","","","","","","","","","","","","","","","","","50"
"1915","","<div style=""width:500px;"">
  <p>How much control did you have over the ball?</p>
  </div>","59","html-slider-response","78","928745","0.0-10.0-2.8","154","1","2025-07-02 10:21:44","80fe4187154257d5fb01684ea91b68b9","148.252.140.99","Mozilla/5.0 (Macintosh; Intel Mac OS X 10_15_7) AppleWebKit/537.36 (KHTML, like Gecko) Chrome/137.0.0.0 Safari/537.36","Macintosh","Chrome","137.0.0.0","OS X","10_15_7","https://app.prolific.com/","en-GB,en-US;q=0.9,en;q=0.8","603659d5c391045d1e4b332b","683db6dfa200031b80f2a654","68650775406987368201bd55","603659d5c391045d1e4b332b","2025-07-02T10:37:14.950Z","","","","","","ControlQ","","","","","","","","","","","","","","","","","","","","","","","","","","","","","","","","","","","","","","50"
"3065","","<div style=""width:500px;"">
  <p>How would you describe your current emotional state?</p>
  </div>","58","html-slider-response","79","931811","0.0-10.0-3.8","154","1","2025-07-02 10:21:44","80fe4187154257d5fb01684ea91b68b9","148.252.140.99","Mozilla/5.0 (Macintosh; Intel Mac OS X 10_15_7) AppleWebKit/537.36 (KHTML, like Gecko) Chrome/137.0.0.0 Safari/537.36","Macintosh","Chrome","137.0.0.0","OS X","10_15_7","https://app.prolific.com/","en-GB,en-US;q=0.9,en;q=0.8","603659d5c391045d1e4b332b","683db6dfa200031b80f2a654","68650775406987368201bd55","603659d5c391045d1e4b332b","2025-07-02T10:37:18.016Z","","","","","","StressQ","","","","","","","","","","","","","","","","","","","","","","","","","","","","","","","","","","","","","","50"
"1749","","<div style=""width:500px;"">
  <p>What best describes how you currently feel?</p>
  </div>","80","html-slider-response","80","933561","0.0-10.0-4.8","154","1","2025-07-02 10:21:44","80fe4187154257d5fb01684ea91b68b9","148.252.140.99","Mozilla/5.0 (Macintosh; Intel Mac OS X 10_15_7) AppleWebKit/537.36 (KHTML, like Gecko) Chrome/137.0.0.0 Safari/537.36","Macintosh","Chrome","137.0.0.0","OS X","10_15_7","https://app.prolific.com/","en-GB,en-US;q=0.9,en;q=0.8","603659d5c391045d1e4b332b","683db6dfa200031b80f2a654","68650775406987368201bd55","603659d5c391045d1e4b332b","2025-07-02T10:37:19.766Z","","","","","","MotivationQ","","","","","","","","","","","","","","","","","","","","","","","","","","","","","","","","","","","","","","50"
"","","","","ctl-task-cpt","81","1000531","0.0-10.0-0.9","154","1","2025-07-02 10:21:44","80fe4187154257d5fb01684ea91b68b9","148.252.140.99","Mozilla/5.0 (Macintosh; Intel Mac OS X 10_15_7) AppleWebKit/537.36 (KHTML, like Gecko) Chrome/137.0.0.0 Safari/537.36","Macintosh","Chrome","137.0.0.0","OS X","10_15_7","https://app.prolific.com/","en-GB,en-US;q=0.9,en;q=0.8","603659d5c391045d1e4b332b","683db6dfa200031b80f2a654","68650775406987368201bd55","603659d5c391045d1e4b332b","2025-07-02T10:38:26.736Z","","","","","","","","","","","","","","","","win-only","1","g1:NE,g2:SW","0.5","10","0","936765.4","1818.3","6824.1","63960.6","1","4","8","6","2","-8","-8","10","18","0.07575757575757576","831.8","3000","-2975","[""down"",""left""]","{""num_key_presses"":8,""num_perfect"":3,""num_errors"":0,""num_randdir"":5,""num_randdir_good_moves"":2,""num_whilered"":0,""num_whileblue"":0,""num_blue"":9,""num_good_moves"":5}","[700.2857142857143,698.0825892857143,0,700.2857142857143,698.0825892857143,102.2,700.2857142857143,698.0825892857143,203.3,700.2857142857143,698.0825892857143,303.4,694.2857142857143,702.0825892857143,403.8,260.2857142857143,1008.0825892857143,508.3,98.28571428571429,1150.0825892857142,613.1,80.28571428571429,1202.0825892857142,713.5,74.28571428571429,1216.0825892857142,817.8,74.28571428571429,1216.0825892857142,923.6,74.28571428571429,1216.0825892857142,1028,80.28571428571429,1210.0825892857142,1133.2,166.28571428571428,1120.0825892857142,1239.3,-179.71428571428572,908.0825892857143,1342.5,-189.71428571428572,892.0825892857143,1447.8,-189.71428571428572,892.0825892857143,1552.5,-189.71428571428572,892.0825892857143,1652.5,-189.71428571428572,892.0825892857143,1753,-189.71428571428572,892.0825892857143,1856.1,-189.71428571428572,892.0825892857143,1957.6,-189.71428571428572,892.0825892857143,2057.6,-189.71428571428572,892.0825892857143,2162.9,-189.71428571428572,892.0825892857143,2267.4,-189.71428571428572,892.0825892857143,2367.6,-189.71428571428572,892.0825892857143,2473.2,-189.71428571428572,892.0825892857143,2577.3,-189.71428571428572,892.0825892857143,2682.1,-189.71428571428572,892.0825892857143,2782.8,-189.71428571428572,892.0825892857143,2887.4,-189.71428571428572,892.0825892857143,2988.3,-189.71428571428572,892.0825892857143,3093.3,-189.71428571428572,892.0825892857143,3197.4,-189.71428571428572,892.0825892857143,3298.1,-189.71428571428572,892.0825892857143,3403.3,-189.71428571428572,892.0825892857143,3508.2,-189.71428571428572,892.0825892857143,3610.1,-189.71428571428572,892.0825892857143,3712.5,-189.71428571428572,892.0825892857143,3817.2,-189.71428571428572,892.0825892857143,3917.8,-189.71428571428572,892.0825892857143,4023.9,-189.71428571428572,892.0825892857143,4127.6,-189.71428571428572,892.0825892857143,4233.2,-189.71428571428572,892.0825892857143,4337.4,-189.71428571428572,892.0825892857143,4437.7,-189.71428571428572,892.0825892857143,4538,-189.71428571428572,892.0825892857143,4638.1,-189.71428571428572,892.0825892857143,4742.1,-189.71428571428572,892.0825892857143,4842.2,-189.71428571428572,892.0825892857143,4942.5]","[1383.4,1383.4,1000,0,383.4,""oops"",""down"",""left"",""good_move"",10568.9,9185.4,2261.9,8021.7,285.3,""oops"",""down"",""right"",""bad_move"",16921.3,6352.3,2666.8,13856.7,397.8,""smooth"",""left"",""left"",""good_move"",19703.9,2782.5,2353.7,16921.4,428.8,""oops"",""left"",""down"",""good_move"",23003.7,3299.7,2939.9,19704.1,359.8,""smooth"",""left"",""left"",""good_move"",42054.4,19050.4,2718,39032.9,303.5,""smooth"",""left"",""left"",""good_move"",44749.5,2694.9,2368.7,42054.7,326.1,""oops"",""down"",""right"",""bad_move"",54235.1,9485.4,2640.5,51317.4,277.2,""oops"",""left"",""right"",""bad_move""]","",""
"2994","","<div style=""width:500px;"">
  <p>What determined the result of this run?</p>
