"rt","response_timestamp","stimulus","response","trial_type","trial_index","time_elapsed","internal_node_id","run_id","condition","recorded_at","source_code_version","ip","user_agent","device","browser","browser_version","platform","platform_version","referer","accept_language","PROLIFIC_PID","STUDY_ID","SESSION_ID","prolific_id","realtime","view_history","question_order","consent","success","question_id","eventType","responses","item_order","radio_event_ids","radio_event_times","key_event_times","mouse_event_times","straightlining","zigzagging","honeypot","which_type","canvas_config","goals_layout","control_level","trial_number","tutorial_trial_number","trial_start_time","phase1_start_time","phase2_start_time","phase3_start_time","goal_1_value","goal_1_distance","goal_2_value","goal_2_distance","goal_selected","outcome","outcome_total","participant_final_score","participant_initial_score","participant_final_score_prop","goal_choice_rt","allocated_time","allocated_time_remaining","goal_direction","counts","mouse_movements","key_presses","correct","slider_start"
"96116","1751451883181","<p style='font-size:40px;line-height:1.25'><strong>Welcome to the experiment!</strong></p><p style='font-size:1.1em;line-height:1.25'>Thank you for your interest in our experiment! Before you begin, it is important that we obtain your informed consent to participate in the study.</p><p style='font-size:1.1em;line-height:1.25'>On the next screen will be an <strong>information sheet</strong> for you to read. To participate in the study we need you to read this information sheet and the following consent form carefully. If you agree with all the statements, please click the <strong>I agree</strong> button.</p><p style='font-size:1.1em;line-height:1.25'>Press <strong>Next</strong> to read the information sheet.</p>","0","custom-html-button-response","0","96124","0.0-0.0","170","1","2025-07-02 10:23:05","80fe4187154257d5fb01684ea91b68b9","37.225.83.44","Mozilla/5.0 (Windows NT 10.0; Win64; x64) AppleWebKit/537.36 (KHTML, like Gecko) Chrome/137.0.0.0 Safari/537.36","WebKit","Chrome","137.0.0.0","Windows","10.0","https://app.prolific.com/","en-US,en;q=0.9,pl-PL;q=0.8,pl;q=0.7","603a293ee62ae15da2674441","683db6dfa200031b80f2a654","6865077bc46aa966522f723a","603a293ee62ae15da2674441","2025-07-02T10:24:43.182Z","","","","","","","","","","","","","","","","","","","","","","","","","","","","","","","","","","","","","","","","","","","",""
"47048","","","","instructions","1","143179","0.0-1.0","170","1","2025-07-02 10:23:05","80fe4187154257d5fb01684ea91b68b9","37.225.83.44","Mozilla/5.0 (Windows NT 10.0; Win64; x64) AppleWebKit/537.36 (KHTML, like Gecko) Chrome/137.0.0.0 Safari/537.36","WebKit","Chrome","137.0.0.0","Windows","10.0","https://app.prolific.com/","en-US,en;q=0.9,pl-PL;q=0.8,pl;q=0.7","603a293ee62ae15da2674441","683db6dfa200031b80f2a654","6865077bc46aa966522f723a","603a293ee62ae15da2674441","","[{""page_index"":0,""viewing_time"":28978},{""page_index"":1,""viewing_time"":18069}]","","","","","","","","","","","","","","","","","","","","","","","","","","","","","","","","","","","","","","","","","","",""
"6573","","","{""Q0"":"""",""Q1"":"""",""Q2"":"""",""Q3"":"""",""Q4"":"""",""Q5"":"""",""Q6"":""I agree""}","survey-multi-choice","2","149754","0.0-2.0","170","1","2025-07-02 10:23:05","80fe4187154257d5fb01684ea91b68b9","37.225.83.44","Mozilla/5.0 (Windows NT 10.0; Win64; x64) AppleWebKit/537.36 (KHTML, like Gecko) Chrome/137.0.0.0 Safari/537.36","WebKit","Chrome","137.0.0.0","Windows","10.0","https://app.prolific.com/","en-US,en;q=0.9,pl-PL;q=0.8,pl;q=0.7","603a293ee62ae15da2674441","683db6dfa200031b80f2a654","6865077bc46aa966522f723a","603a293ee62ae15da2674441","","","[0,1,2,3,4,5,6]","true","","","","","","","","","","","","","","","","","","","","","","","","","","","","","","","","","","","","","","","","",""
"6201","","","","fullscreen","3","156960","0.0-4.0","170","1","2025-07-02 10:23:05","80fe4187154257d5fb01684ea91b68b9","37.225.83.44","Mozilla/5.0 (Windows NT 10.0; Win64; x64) AppleWebKit/537.36 (KHTML, like Gecko) Chrome/137.0.0.0 Safari/537.36","WebKit","Chrome","137.0.0.0","Windows","10.0","https://app.prolific.com/","en-US,en;q=0.9,pl-PL;q=0.8,pl;q=0.7","603a293ee62ae15da2674441","683db6dfa200031b80f2a654","6865077bc46aa966522f723a","603a293ee62ae15da2674441","","","","","true","","","","","","","","","","","","","","","","","","","","","","","","","","","","","","","","","","","","","","","",""
"5524","1751451949542"," <p style='font-size:1.1em;line-height:1.25'>Thank you for completing the consent form and closing all other tabs.</p><p style='font-size:1.1em;line-height:1.25'>We will now invite you to fill in some demographic information and questionnaires, before starting the game.<br>This will take about 5 minutes.<br></p><p style='font-size:1.1em;line-height:1.25'>Press the <strong>Next</strong> button to continue.</p>","0","custom-html-button-response","4","162486","0.0-5.0","170","1","2025-07-02 10:23:05","80fe4187154257d5fb01684ea91b68b9","37.225.83.44","Mozilla/5.0 (Windows NT 10.0; Win64; x64) AppleWebKit/537.36 (KHTML, like Gecko) Chrome/137.0.0.0 Safari/537.36","WebKit","Chrome","137.0.0.0","Windows","10.0","https://app.prolific.com/","en-US,en;q=0.9,pl-PL;q=0.8,pl;q=0.7","603a293ee62ae15da2674441","683db6dfa200031b80f2a654","6865077bc46aa966522f723a","603a293ee62ae15da2674441","2025-07-02T10:25:49.543Z","","","","","","","","","","","","","","","","","","","","","","","","","","","","","","","","","","","","","","","","","","","",""
"3622","","","{""age"":""22""}","survey-text","5","166110","0.0-6.0-0.0","170","1","2025-07-02 10:23:05","80fe4187154257d5fb01684ea91b68b9","37.225.83.44","Mozilla/5.0 (Windows NT 10.0; Win64; x64) AppleWebKit/537.36 (KHTML, like Gecko) Chrome/137.0.0.0 Safari/537.36","WebKit","Chrome","137.0.0.0","Windows","10.0","https://app.prolific.com/","en-US,en;q=0.9,pl-PL;q=0.8,pl;q=0.7","603a293ee62ae15da2674441","683db6dfa200031b80f2a654","6865077bc46aa966522f723a","603a293ee62ae15da2674441","","","","","","0","demographics","","","","","","","","","","","","","","","","","","","","","","","","","","","","","","","","","","","","","",""
"3347","","","{""gender_identity"":""male/man""}","survey-multi-choice","6","169458","0.0-6.0-1.0","170","1","2025-07-02 10:23:05","80fe4187154257d5fb01684ea91b68b9","37.225.83.44","Mozilla/5.0 (Windows NT 10.0; Win64; x64) AppleWebKit/537.36 (KHTML, like Gecko) Chrome/137.0.0.0 Safari/537.36","WebKit","Chrome","137.0.0.0","Windows","10.0","https://app.prolific.com/","en-US,en;q=0.9,pl-PL;q=0.8,pl;q=0.7","603a293ee62ae15da2674441","683db6dfa200031b80f2a654","6865077bc46aa966522f723a","603a293ee62ae15da2674441","","","[0]","","","1","demographics","","","","","","","","","","","","","","","","","","","","","","","","","","","","","","","","","","","","","",""
"9207","","","{""assigned_sex"":""male""}","survey-multi-choice","7","178665","0.0-6.0-2.0","170","1","2025-07-02 10:23:05","80fe4187154257d5fb01684ea91b68b9","37.225.83.44","Mozilla/5.0 (Windows NT 10.0; Win64; x64) AppleWebKit/537.36 (KHTML, like Gecko) Chrome/137.0.0.0 Safari/537.36","WebKit","Chrome","137.0.0.0","Windows","10.0","https://app.prolific.com/","en-US,en;q=0.9,pl-PL;q=0.8,pl;q=0.7","603a293ee62ae15da2674441","683db6dfa200031b80f2a654","6865077bc46aa966522f723a","603a293ee62ae15da2674441","","","[0]","","","2","demographics","","","","","","","","","","","","","","","","","","","","","","","","","","","","","","","","","","","","","",""
"2311","","","{""menstrual_cycle"":""No""}","survey-multi-choice","8","180978","0.0-6.0-3.0","170","1","2025-07-02 10:23:05","80fe4187154257d5fb01684ea91b68b9","37.225.83.44","Mozilla/5.0 (Windows NT 10.0; Win64; x64) AppleWebKit/537.36 (KHTML, like Gecko) Chrome/137.0.0.0 Safari/537.36","WebKit","Chrome","137.0.0.0","Windows","10.0","https://app.prolific.com/","en-US,en;q=0.9,pl-PL;q=0.8,pl;q=0.7","603a293ee62ae15da2674441","683db6dfa200031b80f2a654","6865077bc46aa966522f723a","603a293ee62ae15da2674441","","","[0]","","","4","demographics","","","","","","","","","","","","","","","","","","","","","","","","","","","","","","","","","","","","","",""
"15588","","","{""education"":""Higher National Diploma""}","survey-multi-choice","9","196572","0.0-6.0-4.0","170","1","2025-07-02 10:23:05","80fe4187154257d5fb01684ea91b68b9","37.225.83.44","Mozilla/5.0 (Windows NT 10.0; Win64; x64) AppleWebKit/537.36 (KHTML, like Gecko) Chrome/137.0.0.0 Safari/537.36","WebKit","Chrome","137.0.0.0","Windows","10.0","https://app.prolific.com/","en-US,en;q=0.9,pl-PL;q=0.8,pl;q=0.7","603a293ee62ae15da2674441","683db6dfa200031b80f2a654","6865077bc46aa966522f723a","603a293ee62ae15da2674441","","","[0]","","","5","demographics","","","","","","","","","","","","","","","","","","","","","","","","","","","","","","","","","","","","","",""
"3428","","","{""education"":""Master's Degree (e.g., MSc)""}","survey-multi-choice","10","200001","0.0-6.0-5.0","170","1","2025-07-02 10:23:05","80fe4187154257d5fb01684ea91b68b9","37.225.83.44","Mozilla/5.0 (Windows NT 10.0; Win64; x64) AppleWebKit/537.36 (KHTML, like Gecko) Chrome/137.0.0.0 Safari/537.36","WebKit","Chrome","137.0.0.0","Windows","10.0","https://app.prolific.com/","en-US,en;q=0.9,pl-PL;q=0.8,pl;q=0.7","603a293ee62ae15da2674441","683db6dfa200031b80f2a654","6865077bc46aa966522f723a","603a293ee62ae15da2674441","2025-07-02T10:26:27.058Z","","[0]","","","6","demographics","","","","","","","","","","","","","","","","","","","","","","","","","","","","","","","","","","","","","",""
"17167","","","{""mental_health_condition"":"""",""mental_health_treatment"":"""",""psychiatric_medication"":""""}","survey-text","11","217170","0.0-7.0-0.0","170","1","2025-07-02 10:23:05","80fe4187154257d5fb01684ea91b68b9","37.225.83.44","Mozilla/5.0 (Windows NT 10.0; Win64; x64) AppleWebKit/537.36 (KHTML, like Gecko) Chrome/137.0.0.0 Safari/537.36","WebKit","Chrome","137.0.0.0","Windows","10.0","https://app.prolific.com/","en-US,en;q=0.9,pl-PL;q=0.8,pl;q=0.7","603a293ee62ae15da2674441","683db6dfa200031b80f2a654","6865077bc46aa966522f723a","603a293ee62ae15da2674441","2025-07-02T10:26:44.227Z","","","","","1","mental_health","","","","","","","","","","","","","","","","","","","","","","","","","","","","","","","","","","","","","",""
"7008","","","{""depression_history"":[""Yes""]}","survey-multi-select","12","224179","0.0-7.0-1.0","170","1","2025-07-02 10:23:05","80fe4187154257d5fb01684ea91b68b9","37.225.83.44","Mozilla/5.0 (Windows NT 10.0; Win64; x64) AppleWebKit/537.36 (KHTML, like Gecko) Chrome/137.0.0.0 Safari/537.36","WebKit","Chrome","137.0.0.0","Windows","10.0","https://app.prolific.com/","en-US,en;q=0.9,pl-PL;q=0.8,pl;q=0.7","603a293ee62ae15da2674441","683db6dfa200031b80f2a654","6865077bc46aa966522f723a","603a293ee62ae15da2674441","","","[0]","","","","mental_health","","","","","","","","","","","","","","","","","","","","","","","","","","","","","","","","","","","","","",""
"6042","","","{""depression_episodes"":""1-2"",""depression_recent"":""More than 1 year ago""}","survey-multi-choice","13","230222","0.0-7.0-2.0-0.0","170","1","2025-07-02 10:23:05","80fe4187154257d5fb01684ea91b68b9","37.225.83.44","Mozilla/5.0 (Windows NT 10.0; Win64; x64) AppleWebKit/537.36 (KHTML, like Gecko) Chrome/137.0.0.0 Safari/537.36","WebKit","Chrome","137.0.0.0","Windows","10.0","https://app.prolific.com/","en-US,en;q=0.9,pl-PL;q=0.8,pl;q=0.7","603a293ee62ae15da2674441","683db6dfa200031b80f2a654","6865077bc46aa966522f723a","603a293ee62ae15da2674441","2025-07-02T10:26:57.279Z","","[0,1]","","","3","mental_health","","","","","","","","","","","","","","","","","","","","","","","","","","","","","","","","","","","","","",""
"78147.70000000019","","","","survey-template","14","308383","0.0-7.0-3.0","170","1","2025-07-02 10:23:05","80fe4187154257d5fb01684ea91b68b9","37.225.83.44","Mozilla/5.0 (Windows NT 10.0; Win64; x64) AppleWebKit/537.36 (KHTML, like Gecko) Chrome/137.0.0.0 Safari/537.36","WebKit","Chrome","137.0.0.0","Windows","10.0","https://app.prolific.com/","en-US,en;q=0.9,pl-PL;q=0.8,pl;q=0.7","603a293ee62ae15da2674441","683db6dfa200031b80f2a654","6865077bc46aa966522f723a","603a293ee62ae15da2674441","2025-07-02T10:28:15.440Z","","","","","","ius","{""Q01"":""1"",""Q02"":""1"",""Q03"":""2"",""Q04"":""2"",""Q05"":""1"",""Q06"":""2"",""Q07"":""2"",""Q08"":""0"",""Q09"":""2"",""Q10"":""1"",""Q11"":""1"",""Q12"":""3"",""Q13"":""4""}","[0,1,2,3,4,5,6,7,8,9,10,11,12]","[""Q01"",""Q02"",""Q03"",""Q04"",""Q05"",""Q06"",""Q07"",""Q08"",""Q09"",""Q10"",""Q11"",""Q12"",""Q13""]","[42884.60000000009,43971.700000000186,45831.60000000009,47577.60000000009,52792.700000000186,55462.5,57413.5,60628.799999999814,69253.6000000001,72520.6000000001,74094.70000000019,77310.5,77745.5]","[]","[40206.89999999991,42884.60000000009,43971.700000000186,45831.60000000009,47577.60000000009,51058.89999999991,51724.700000000186,52792.700000000186,54462.60000000009,55462.5,56449.5,56808.5,57413.5,60628.799999999814,69253.6000000001,72520.6000000001,74094.70000000019,75489.8999999999,76983.3999999999,77310.5,77745.5,78146.5]","0.38461538461538464","0.4166666666666667","0","","","","","","","","","","","","","","","","","","","","","","","","","","","","",""
"10328","1751452105769","<p style='font-size:1.1em;line-height:1.25'>In the following, we will ask you a few questions relating to your experiences over the past month.<br></p><p style='font-size:1.1em;line-height:1.25'>Press the <strong>Next</strong> button to continue.</p>","0","custom-html-button-response","15","318712","0.0-7.0-4.0","170","1","2025-07-02 10:23:05","80fe4187154257d5fb01684ea91b68b9","37.225.83.44","Mozilla/5.0 (Windows NT 10.0; Win64; x64) AppleWebKit/537.36 (KHTML, like Gecko) Chrome/137.0.0.0 Safari/537.36","WebKit","Chrome","137.0.0.0","Windows","10.0","https://app.prolific.com/","en-US,en;q=0.9,pl-PL;q=0.8,pl;q=0.7","603a293ee62ae15da2674441","683db6dfa200031b80f2a654","6865077bc46aa966522f723a","603a293ee62ae15da2674441","2025-07-02T10:28:25.769Z","","","","","","","","","","","","","","","","","","","","","","","","","","","","","","","","","","","","","","","","","","","",""
"33980.80000000028","","","","survey-template","16","352695","0.0-7.0-5.0","170","1","2025-07-02 10:23:05","80fe4187154257d5fb01684ea91b68b9","37.225.83.44","Mozilla/5.0 (Windows NT 10.0; Win64; x64) AppleWebKit/537.36 (KHTML, like Gecko) Chrome/137.0.0.0 Safari/537.36","WebKit","Chrome","137.0.0.0","Windows","10.0","https://app.prolific.com/","en-US,en;q=0.9,pl-PL;q=0.8,pl;q=0.7","603a293ee62ae15da2674441","683db6dfa200031b80f2a654","6865077bc46aa966522f723a","603a293ee62ae15da2674441","2025-07-02T10:28:59.752Z","","","","","","pss","{""Q01"":""2"",""Q02"":""2"",""Q03"":""3"",""Q04"":""2"",""Q05"":""2"",""Q06"":""2"",""Q07"":""3"",""Q08"":""2"",""Q09"":""4"",""Q10"":""1""}","[0,1,2,3,4,5,6,7,8,9]","[""Q01"",""Q02"",""Q03"",""Q04"",""Q05"",""Q06"",""Q07"",""Q08"",""Q09"",""Q10""]","[4616.700000000186,6258.800000000279,7942.600000000093,9097.600000000093,11698.600000000093,13153.899999999907,15549.600000000093,29735.600000000093,30995.700000000186,33432.60000000009]","[]","[0.5,4616.700000000186,5397.800000000279,6258.800000000279,7942.600000000093,9097.600000000093,11120.899999999907,11698.600000000093,13153.899999999907,15549.600000000093,27079.899999999907,27689.700000000186,27924.700000000186,29735.600000000093,30995.700000000186,33432.60000000009,33979.700000000186]","0.6","0.4444444444444444","0","","","","","","","","","","","","","","","","","","","","","","","","","","","","",""
"2992","1751452142745","<p style='font-size:1.1em;line-height:1.25'>Thank you for your answers! Now we will ask you a few more questions relating to your feelings in the last 24 hours.<br></p><p style='font-size:1.1em;line-height:1.25'>Press the <strong>Next</strong> button to continue.</p>","0","custom-html-button-response","17","355688","0.0-7.0-6.0","170","1","2025-07-02 10:23:05","80fe4187154257d5fb01684ea91b68b9","37.225.83.44","Mozilla/5.0 (Windows NT 10.0; Win64; x64) AppleWebKit/537.36 (KHTML, like Gecko) Chrome/137.0.0.0 Safari/537.36","WebKit","Chrome","137.0.0.0","Windows","10.0","https://app.prolific.com/","en-US,en;q=0.9,pl-PL;q=0.8,pl;q=0.7","603a293ee62ae15da2674441","683db6dfa200031b80f2a654","6865077bc46aa966522f723a","603a293ee62ae15da2674441","2025-07-02T10:29:02.745Z","","","","","","","","","","","","","","","","","","","","","","","","","","","","","","","","","","","","","","","","","","","",""
"70726.29999999981","","","","survey-template","18","426422","0.0-7.0-7.0","170","1","2025-07-02 10:23:05","80fe4187154257d5fb01684ea91b68b9","37.225.83.44","Mozilla/5.0 (Windows NT 10.0; Win64; x64) AppleWebKit/537.36 (KHTML, like Gecko) Chrome/137.0.0.0 Safari/537.36","WebKit","Chrome","137.0.0.0","Windows","10.0","https://app.prolific.com/","en-US,en;q=0.9,pl-PL;q=0.8,pl;q=0.7","603a293ee62ae15da2674441","683db6dfa200031b80f2a654","6865077bc46aa966522f723a","603a293ee62ae15da2674441","2025-07-02T10:30:13.479Z","","","","","","drsp","{""Q01"":""3"",""Q02"":""3"",""Q03"":""3"",""Q04"":""2"",""Q05"":""1"",""Q06"":""1"",""Q07"":""2"",""Q08"":""1"",""Q09"":""3"",""Q10"":""3"",""Q11"":""2"",""Q12"":""2"",""Q13"":""1"",""Q14"":""3"",""Q15"":""2"",""Q16"":""3"",""Q17"":""2"",""Q18"":""0"",""Q19"":""4"",""Q20"":""4"",""Q21"":""5""}","[0,1,2,3,4,5,6,7,8,9,10,11,12,13,14,15,16,17,18,19,20]","[""Q05"",""Q04"",""Q03"",""Q01"",""Q02"",""Q06"",""Q07"",""Q08"",""Q09"",""Q10"",""Q11"",""Q12"",""Q13"",""Q14"",""Q15"",""Q16"",""Q17"",""Q18"",""Q19"",""Q20"",""Q21""]","[3413.399999999907,4734.200000000186,6002.299999999814,7967.200000000186,8609,14996.100000000093,16798.799999999814,18028.100000000093,22858.100000000093,24077,35738.200000000186,36737.200000000186,53565.10000000009,54625.89999999991,55715.200000000186,57382.39999999991,61155.10000000009,62976.200000000186,65449.89999999991,67058.8999999999,70321.8999999999]","[]","[0.7999999998137355,3413.399999999907,4734.200000000186,5510.299999999814,6002.299999999814,6653.200000000186,7967.200000000186,8309.200000000186,8609,14996.100000000093,16377.299999999814,16798.799999999814,18028.100000000093,19682.899999999907,21897.899999999907,22482,22858.100000000093,24077,35738.200000000186,36737.200000000186,52543.200000000186,53334.700000000186,53565.10000000009,54012.10000000009,54227,54625.89999999991,55715.200000000186,57092.10000000009,57382.39999999991,61155.10000000009,62425.89999999991,62653,62976.200000000186,65119.10000000009,65449.89999999991,67058.8999999999,68057.1000000001,69906.1000000001,70321.8999999999,70723.8999999999]","0.3333333333333333","0.5","0","","","","","","","","","","","","","","","","","","","","","","","","","","","","",""
"38218.60000000009","","","","survey-template","19","464650","0.0-7.0-8.0","170","1","2025-07-02 10:23:05","80fe4187154257d5fb01684ea91b68b9","37.225.83.44","Mozilla/5.0 (Windows NT 10.0; Win64; x64) AppleWebKit/537.36 (KHTML, like Gecko) Chrome/137.0.0.0 Safari/537.36","WebKit","Chrome","137.0.0.0","Windows","10.0","https://app.prolific.com/","en-US,en;q=0.9,pl-PL;q=0.8,pl;q=0.7","603a293ee62ae15da2674441","683db6dfa200031b80f2a654","6865077bc46aa966522f723a","603a293ee62ae15da2674441","2025-07-02T10:30:51.707Z","","","","","","stress","{""Q01"":""2"",""Q02"":""3"",""Q03"":""3""}","[0,1,2]","[""Q01"",""Q02"",""Q03""]","[32914.89999999991,33455.89999999991,36657.799999999814]","[]","[32914.89999999991,33455.89999999991,34982,36282.69999999972,36657.799999999814,38218.10000000009]","0.6666666666666666","0.5","0","","","","","","","","","","","","","","","","","","","","","","","","","","","","",""
"91390","","","","instructions","20","556046","0.0-8.0-0.0","170","1","2025-07-02 10:23:05","80fe4187154257d5fb01684ea91b68b9","37.225.83.44","Mozilla/5.0 (Windows NT 10.0; Win64; x64) AppleWebKit/537.36 (KHTML, like Gecko) Chrome/137.0.0.0 Safari/537.36","WebKit","Chrome","137.0.0.0","Windows","10.0","https://app.prolific.com/","en-US,en;q=0.9,pl-PL;q=0.8,pl;q=0.7","603a293ee62ae15da2674441","683db6dfa200031b80f2a654","6865077bc46aa966522f723a","603a293ee62ae15da2674441","","[{""page_index"":0,""viewing_time"":23373},{""page_index"":1,""viewing_time"":14908},{""page_index"":2,""viewing_time"":34966},{""page_index"":3,""viewing_time"":18142}]","","","","","","","","","","","","","","","","","","","","","","","","","","","","","","","","","","","","","","","","","","",""
"","","","","ctl-task-cpt","21","590158","0.0-8.0-1.0","170","1","2025-07-02 10:23:05","80fe4187154257d5fb01684ea91b68b9","37.225.83.44","Mozilla/5.0 (Windows NT 10.0; Win64; x64) AppleWebKit/537.36 (KHTML, like Gecko) Chrome/137.0.0.0 Safari/537.36","WebKit","Chrome","137.0.0.0","Windows","10.0","https://app.prolific.com/","en-US,en;q=0.9,pl-PL;q=0.8,pl;q=0.7","603a293ee62ae15da2674441","683db6dfa200031b80f2a654","6865077bc46aa966522f723a","603a293ee62ae15da2674441","","","","","","","","","","","","","","","","","win-only","2","g1:SE,g2:NW","1","0","1","558260.7","1812.5","5815.8","31102.8","2","4","4","6","1","2","-1","0","0","0","2904","4000","1475","[""down"",""right""]","{""num_key_presses"":9,""num_perfect"":5,""num_errors"":3,""num_randdir"":0,""num_randdir_good_moves"":0,""num_whilered"":1,""num_whileblue"":1,""num_blue"":2,""num_good_moves"":5}","[417.57142857142856,416.47767857142856,0.2,417.57142857142856,416.47767857142856,103.4,417.57142857142856,416.47767857142856,207.7,432.57142857142856,424.47767857142856,307.9,441.57142857142856,436.47767857142856,408.3,451.57142857142856,456.47767857142856,513,460.57142857142856,477.47767857142856,617.8,406.57142857142856,439.47767857142856,718.3,363.57142857142856,398.47767857142856,818.7,370.57142857142856,409.47767857142856,929.5,433.57142857142856,454.47767857142856,1033.2,479.57142857142856,478.47767857142856,1138.2,451.57142857142856,456.47767857142856,1239,391.57142857142856,407.47767857142856,1343,239.57142857142856,247.47767857142856,1447.7,167.57142857142856,173.47767857142856,1548,167.57142857142856,173.47767857142856,1653.6,175.57142857142856,179.47767857142856,1758.6,363.57142857142856,325.47767857142856,1863.2,499.57142857142856,448.47767857142856,1967.9,493.57142857142856,474.47767857142856,2072.6,486.57142857142856,471.47767857142856,2173.1,486.57142857142856,471.47767857142856,2278.1,486.57142857142856,471.47767857142856,2383.5,485.57142857142856,471.47767857142856,2487.7,484.57142857142856,472.47767857142856,2587.7,518.5714285714286,535.4776785714286,2688.4,705.5714285714286,699.4776785714286,2796.3,763.5714285714286,737.4776785714286,2898.9,763.5714285714286,737.4776785714286,2999.2,763.5714285714286,737.4776785714286,3103.2,763.5714285714286,737.4776785714286,3203.2,763.5714285714286,737.4776785714286,3308,746.5714285714286,717.4776785714286,3409.1,542.5714285714286,552.4776785714286,3512.8,489.57142857142856,496.47767857142856,3612.9,489.57142857142856,496.47767857142856,3713.2,489.57142857142856,496.47767857142856,3813.2,489.57142857142856,496.47767857142856,3918.2]","[525.3,525.3,1000,0,-474.7,""error"",""-"",""-"",""no_move"",4198.4,3673,2327.5,1529.6,341.3,""smooth"",""right"",""right"",""good_move"",4761.2,562.5,2471.2,4198.7,-1908.7,""error"",""-"",""-"",""no_move"",5076.3,315,2471.2,4198.7,-1593.6,""while_red"",""-"",""-"",""no_move"",8596.3,3835,2524.4,5765.2,306.7,""smooth"",""down"",""down"",""good_move"",11850.2,3253.7,2868.1,8596.5,385.6,""while_blue"",""down"",""left"",""bad_move"",15061.4,3211,2628.7,11850.5,582.2,""smooth"",""down"",""down"",""good_move"",22061.3,6999.7,3134.1,18595.4,331.8,""smooth"",""right"",""right"",""good_move"",25199.5,3138.1,2150,22061.4,988.1,""smooth"",""right"",""right"",""good_move""]","",""
"53992","","","","instructions","22","644151","0.0-8.0-2.0","170","1","2025-07-02 10:23:05","80fe4187154257d5fb01684ea91b68b9","37.225.83.44","Mozilla/5.0 (Windows NT 10.0; Win64; x64) AppleWebKit/537.36 (KHTML, like Gecko) Chrome/137.0.0.0 Safari/537.36","WebKit","Chrome","137.0.0.0","Windows","10.0","https://app.prolific.com/","en-US,en;q=0.9,pl-PL;q=0.8,pl;q=0.7","603a293ee62ae15da2674441","683db6dfa200031b80f2a654","6865077bc46aa966522f723a","603a293ee62ae15da2674441","","[{""page_index"":0,""viewing_time"":53992}]","","","","","","","","","","","","","","","","","","","","","","","","","","","","","","","","","","","","","","","","","","",""
"","","","","ctl-task-cpt","23","682274","0.0-8.0-3.0","170","1","2025-07-02 10:23:05","80fe4187154257d5fb01684ea91b68b9","37.225.83.44","Mozilla/5.0 (Windows NT 10.0; Win64; x64) AppleWebKit/537.36 (KHTML, like Gecko) Chrome/137.0.0.0 Safari/537.36","WebKit","Chrome","137.0.0.0","Windows","10.0","https://app.prolific.com/","en-US,en;q=0.9,pl-PL;q=0.8,pl;q=0.7","603a293ee62ae15da2674441","683db6dfa200031b80f2a654","6865077bc46aa966522f723a","603a293ee62ae15da2674441","","","","","","","","","","","","","","","","","win-only","2","g1:SE,g2:NW","0.35","0","3","646360.5","1152.6","5155.5","35101.2","2","4","8","6","2","8","8","8","0","0.06060606060606061","949.4","4000","1160","[""left"",""up""]","{""num_key_presses"":8,""num_perfect"":4,""num_errors"":0,""num_randdir"":4,""num_randdir_good_moves"":3,""num_whilered"":0,""num_whileblue"":0,""num_blue"":3,""num_good_moves"":7}","[411.57142857142856,429.47767857142856,0.1,411.57142857142856,429.47767857142856,103.8,412.57142857142856,428.47767857142856,207.7,412.57142857142856,428.47767857142856,313.3,412.57142857142856,428.47767857142856,413.8,413.57142857142856,430.47767857142856,517.7,336.57142857142856,312.47767857142856,618.3,105.57142857142857,121.47767857142857,724.3,90.57142857142857,103.47767857142857,827.7,90.57142857142857,101.47767857142857,928.4,90.57142857142857,101.47767857142857,1029,90.57142857142857,101.47767857142857,1133.8,90.57142857142857,101.47767857142857,1238,146.57142857142856,163.47767857142856,1338.5,330.57142857142856,357.47767857142856,1438.8,341.57142857142856,381.47767857142856,1543.6,318.57142857142856,357.47767857142856,1648.1,314.57142857142856,338.47767857142856,1748.6,314.57142857142856,338.47767857142856,1853.6,314.57142857142856,338.47767857142856,1957.7,314.57142857142856,338.47767857142856,2063.4,314.57142857142856,338.47767857142856,2163.4,314.57142857142856,338.47767857142856,2264.1,314.57142857142856,338.47767857142856,2367.9,329.57142857142856,328.47767857142856,2468.3,350.57142857142856,335.47767857142856,2568.3,433.57142857142856,395.47767857142856,2674,399.57142857142856,390.47767857142856,2778.8,265.57142857142856,336.47767857142856,2882.8,264.57142857142856,337.47767857142856,2982.9,264.57142857142856,337.47767857142856,3083.4,266.57142857142856,335.47767857142856,3187.9,276.57142857142856,318.47767857142856,3292.8,285.57142857142856,311.47767857142856,3398,291.57142857142856,305.47767857142856,3502.7,291.57142857142856,305.47767857142856,3603.4,291.57142857142856,305.47767857142856,3707.9,291.57142857142856,305.47767857142856,3813.6,291.57142857142856,305.47767857142856,3918]","[1318.9,1318.9,1000,0,318.9,""oops"",""up"",""up"",""good_move"",7521.9,6202.7,2739.5,4355.9,426.5,""oops"",""up"",""left"",""good_move"",9979.9,2457.7,1846.1,7522.2,611.6,""oops"",""left"",""right"",""bad_move"",15983.7,6003.4,2526.1,13195.8,261.8,""smooth"",""up"",""up"",""good_move"",18363.8,2379.9,1951.7,15983.9,428.2,""oops"",""up"",""up"",""good_move"",24632,6268,2610.9,21730.8,290.3,""smooth"",""left"",""left"",""good_move"",27549,2916.9,2581.9,24632.1,335,""smooth"",""left"",""left"",""good_move"",29859.8,2310.5,2015,27549.3,295.5,""smooth"",""left"",""left"",""good_move""]","",""
"60518","","","","instructions","24","742799","0.0-8.0-4.0","170","1","2025-07-02 10:23:05","80fe4187154257d5fb01684ea91b68b9","37.225.83.44","Mozilla/5.0 (Windows NT 10.0; Win64; x64) AppleWebKit/537.36 (KHTML, like Gecko) Chrome/137.0.0.0 Safari/537.36","WebKit","Chrome","137.0.0.0","Windows","10.0","https://app.prolific.com/","en-US,en;q=0.9,pl-PL;q=0.8,pl;q=0.7","603a293ee62ae15da2674441","683db6dfa200031b80f2a654","6865077bc46aa966522f723a","603a293ee62ae15da2674441","","[{""page_index"":0,""viewing_time"":53542},{""page_index"":1,""viewing_time"":6975}]","","","","","","","","","","","","","","","","","","","","","","","","","","","","","","","","","","","","","","","","","","",""
"17845","","","{""green_ball"":[""Ball sometimes shakes and moves in a random direction""]}","survey-multi-select","25","760647","0.0-8.0-5.0-0.0","170","1","2025-07-02 10:23:05","80fe4187154257d5fb01684ea91b68b9","37.225.83.44","Mozilla/5.0 (Windows NT 10.0; Win64; x64) AppleWebKit/537.36 (KHTML, like Gecko) Chrome/137.0.0.0 Safari/537.36","WebKit","Chrome","137.0.0.0","Windows","10.0","https://app.prolific.com/","en-US,en;q=0.9,pl-PL;q=0.8,pl;q=0.7","603a293ee62ae15da2674441","683db6dfa200031b80f2a654","6865077bc46aa966522f723a","603a293ee62ae15da2674441","","","[0]","","","","quiz","","","","","","","","","","","","","","","","","","","","","","","","","","","","","","","","","","","","","true",""
"1925","","<p align='center'><b>CORRECT!</b> Indeed, the green ball may sometimes shake and move in a random direction.</p>","0","html-button-response","26","762573","0.0-8.0-5.0-1.0","170","1","2025-07-02 10:23:05","80fe4187154257d5fb01684ea91b68b9","37.225.83.44","Mozilla/5.0 (Windows NT 10.0; Win64; x64) AppleWebKit/537.36 (KHTML, like Gecko) Chrome/137.0.0.0 Safari/537.36","WebKit","Chrome","137.0.0.0","Windows","10.0","https://app.prolific.com/","en-US,en;q=0.9,pl-PL;q=0.8,pl;q=0.7","603a293ee62ae15da2674441","683db6dfa200031b80f2a654","6865077bc46aa966522f723a","603a293ee62ae15da2674441","","","","","","","","","","","","","","","","","","","","","","","","","","","","","","","","","","","","","","","","","","","","",""
"7591","","","{""yellow_ball"":[""Ball doesn‘t move and I get -1 penalty point""]}","survey-multi-select","27","770166","0.0-8.0-6.0-0.0","170","1","2025-07-02 10:23:05","80fe4187154257d5fb01684ea91b68b9","37.225.83.44","Mozilla/5.0 (Windows NT 10.0; Win64; x64) AppleWebKit/537.36 (KHTML, like Gecko) Chrome/137.0.0.0 Safari/537.36","WebKit","Chrome","137.0.0.0","Windows","10.0","https://app.prolific.com/","en-US,en;q=0.9,pl-PL;q=0.8,pl;q=0.7","603a293ee62ae15da2674441","683db6dfa200031b80f2a654","6865077bc46aa966522f723a","603a293ee62ae15da2674441","","","[0]","","","","quiz","","","","","","","","","","","","","","","","","","","","","","","","","","","","","","","","","","","","","true",""
"712","","<p align='center'><b>CORRECT!</b> Indeed, the yellow ball never moves and you receive a penalty.</p>","0","html-button-response","28","770879","0.0-8.0-6.0-1.0","170","1","2025-07-02 10:23:05","80fe4187154257d5fb01684ea91b68b9","37.225.83.44","Mozilla/5.0 (Windows NT 10.0; Win64; x64) AppleWebKit/537.36 (KHTML, like Gecko) Chrome/137.0.0.0 Safari/537.36","WebKit","Chrome","137.0.0.0","Windows","10.0","https://app.prolific.com/","en-US,en;q=0.9,pl-PL;q=0.8,pl;q=0.7","603a293ee62ae15da2674441","683db6dfa200031b80f2a654","6865077bc46aa966522f723a","603a293ee62ae15da2674441","","","","","","","","","","","","","","","","","","","","","","","","","","","","","","","","","","","","","","","","","","","","",""
"13666","","","{""blue_ball"":[""Ball always shakes and moves in a random direction""]}","survey-multi-select","29","784547","0.0-8.0-7.0-0.0","170","1","2025-07-02 10:23:05","80fe4187154257d5fb01684ea91b68b9","37.225.83.44","Mozilla/5.0 (Windows NT 10.0; Win64; x64) AppleWebKit/537.36 (KHTML, like Gecko) Chrome/137.0.0.0 Safari/537.36","WebKit","Chrome","137.0.0.0","Windows","10.0","https://app.prolific.com/","en-US,en;q=0.9,pl-PL;q=0.8,pl;q=0.7","603a293ee62ae15da2674441","683db6dfa200031b80f2a654","6865077bc46aa966522f723a","603a293ee62ae15da2674441","","","[0]","","","","quiz","","","","","","","","","","","","","","","","","","","","","","","","","","","","","","","","","","","","","true",""
"1346","","<p align='center'><b>CORRECT!</b> Indeed, the blue ball always shakes and moves in a random direction. Also there is a penalty of -1 point.</p>","0","html-button-response","30","785894","0.0-8.0-7.0-1.0","170","1","2025-07-02 10:23:05","80fe4187154257d5fb01684ea91b68b9","37.225.83.44","Mozilla/5.0 (Windows NT 10.0; Win64; x64) AppleWebKit/537.36 (KHTML, like Gecko) Chrome/137.0.0.0 Safari/537.36","WebKit","Chrome","137.0.0.0","Windows","10.0","https://app.prolific.com/","en-US,en;q=0.9,pl-PL;q=0.8,pl;q=0.7","603a293ee62ae15da2674441","683db6dfa200031b80f2a654","6865077bc46aa966522f723a","603a293ee62ae15da2674441","","","","","","","","","","","","","","","","","","","","","","","","","","","","","","","","","","","","","","","","","","","","",""
"7187","","","{""bonus"":[""When I reach 80% of points""]}","survey-multi-select","31","793088","0.0-8.0-8.0-0.0","170","1","2025-07-02 10:23:05","80fe4187154257d5fb01684ea91b68b9","37.225.83.44","Mozilla/5.0 (Windows NT 10.0; Win64; x64) AppleWebKit/537.36 (KHTML, like Gecko) Chrome/137.0.0.0 Safari/537.36","WebKit","Chrome","137.0.0.0","Windows","10.0","https://app.prolific.com/","en-US,en;q=0.9,pl-PL;q=0.8,pl;q=0.7","603a293ee62ae15da2674441","683db6dfa200031b80f2a654","6865077bc46aa966522f723a","603a293ee62ae15da2674441","","","[0]","","","","quiz","","","","","","","","","","","","","","","","","","","","","","","","","","","","","","","","","","","","","false",""
"2055","","<p align='center'><b>INCORRECT.</b> You receive 2 pounds extra when you reach 50% of points </p>","0","html-button-response","32","795144","0.0-8.0-8.0-1.0","170","1","2025-07-02 10:23:05","80fe4187154257d5fb01684ea91b68b9","37.225.83.44","Mozilla/5.0 (Windows NT 10.0; Win64; x64) AppleWebKit/537.36 (KHTML, like Gecko) Chrome/137.0.0.0 Safari/537.36","WebKit","Chrome","137.0.0.0","Windows","10.0","https://app.prolific.com/","en-US,en;q=0.9,pl-PL;q=0.8,pl;q=0.7","603a293ee62ae15da2674441","683db6dfa200031b80f2a654","6865077bc46aa966522f723a","603a293ee62ae15da2674441","","","","","","","","","","","","","","","","","","","","","","","","","","","","","","","","","","","","","","","","","","","","",""
"1452","","","{""bonus"":[""When I reach 50% of points""]}","survey-multi-select","33","796597","0.0-8.0-8.1-0.1","170","1","2025-07-02 10:23:05","80fe4187154257d5fb01684ea91b68b9","37.225.83.44","Mozilla/5.0 (Windows NT 10.0; Win64; x64) AppleWebKit/537.36 (KHTML, like Gecko) Chrome/137.0.0.0 Safari/537.36","WebKit","Chrome","137.0.0.0","Windows","10.0","https://app.prolific.com/","en-US,en;q=0.9,pl-PL;q=0.8,pl;q=0.7","603a293ee62ae15da2674441","683db6dfa200031b80f2a654","6865077bc46aa966522f723a","603a293ee62ae15da2674441","","","[0]","","","","quiz","","","","","","","","","","","","","","","","","","","","","","","","","","","","","","","","","","","","","true",""
"759","","<p align='center'><b>CORRECT!</b> Indeed, you receive 2 pounds extra when you reach 50% of points.</p>","0","html-button-response","34","797357","0.0-8.0-8.1-1.1","170","1","2025-07-02 10:23:05","80fe4187154257d5fb01684ea91b68b9","37.225.83.44","Mozilla/5.0 (Windows NT 10.0; Win64; x64) AppleWebKit/537.36 (KHTML, like Gecko) Chrome/137.0.0.0 Safari/537.36","WebKit","Chrome","137.0.0.0","Windows","10.0","https://app.prolific.com/","en-US,en;q=0.9,pl-PL;q=0.8,pl;q=0.7","603a293ee62ae15da2674441","683db6dfa200031b80f2a654","6865077bc46aa966522f723a","603a293ee62ae15da2674441","","","","","","","","","","","","","","","","","","","","","","","","","","","","","","","","","","","","","","","","","","","","",""
"11717","","","","instructions","35","809075","0.0-8.0-9.0","170","1","2025-07-02 10:23:05","80fe4187154257d5fb01684ea91b68b9","37.225.83.44","Mozilla/5.0 (Windows NT 10.0; Win64; x64) AppleWebKit/537.36 (KHTML, like Gecko) Chrome/137.0.0.0 Safari/537.36","WebKit","Chrome","137.0.0.0","Windows","10.0","https://app.prolific.com/","en-US,en;q=0.9,pl-PL;q=0.8,pl;q=0.7","603a293ee62ae15da2674441","683db6dfa200031b80f2a654","6865077bc46aa966522f723a","603a293ee62ae15da2674441","","[{""page_index"":0,""viewing_time"":11717}]","","","","","","","","","","","","","","","","","","","","","","","","","","","","","","","","","","","","","","","","","","",""
"2876","","<p>Before you start with this game please answer the following three questions yourself. </p>
  <p>Through this game, we measure several aspects of your cognitive performance, such as reaction times, multi-tasking capabilities </p>
  <p>and the ability to assess the situation you are in.</p>
  <p></p>
  <p><b>How good do you usually are in such tasks?</b></p>","81","html-slider-response","36","811952","0.0-9.0-0.0","170","1","2025-07-02 10:23:05","80fe4187154257d5fb01684ea91b68b9","37.225.83.44","Mozilla/5.0 (Windows NT 10.0; Win64; x64) AppleWebKit/537.36 (KHTML, like Gecko) Chrome/137.0.0.0 Safari/537.36","WebKit","Chrome","137.0.0.0","Windows","10.0","https://app.prolific.com/","en-US,en;q=0.9,pl-PL;q=0.8,pl;q=0.7","603a293ee62ae15da2674441","683db6dfa200031b80f2a654","6865077bc46aa966522f723a","603a293ee62ae15da2674441","2025-07-02T10:36:39.009Z","","","","","","PreSkillQ","","","","","","","","","","","","","","","","","","","","","","","","","","","","","","","","","","","","","","50"
"2223","","<div style=""width:500px;"">
  <p>How well do you think you will perform in this task compared to other participants?</p>
  </div>","85","html-slider-response","37","814175","0.0-9.0-1.0","170","1","2025-07-02 10:23:05","80fe4187154257d5fb01684ea91b68b9","37.225.83.44","Mozilla/5.0 (Windows NT 10.0; Win64; x64) AppleWebKit/537.36 (KHTML, like Gecko) Chrome/137.0.0.0 Safari/537.36","WebKit","Chrome","137.0.0.0","Windows","10.0","https://app.prolific.com/","en-US,en;q=0.9,pl-PL;q=0.8,pl;q=0.7","603a293ee62ae15da2674441","683db6dfa200031b80f2a654","6865077bc46aa966522f723a","603a293ee62ae15da2674441","2025-07-02T10:36:41.233Z","","","","","","PrePerfQ","","","","","","","","","","","","","","","","","","","","","","","","","","","","","","","","","","","","","","50"
"3246","","<div style=""width:500px;"">
  <p>What best describes how you currently feel?</p>
  </div>","65","html-slider-response","38","817423","0.0-9.0-2.0","170","1","2025-07-02 10:23:05","80fe4187154257d5fb01684ea91b68b9","37.225.83.44","Mozilla/5.0 (Windows NT 10.0; Win64; x64) AppleWebKit/537.36 (KHTML, like Gecko) Chrome/137.0.0.0 Safari/537.36","WebKit","Chrome","137.0.0.0","Windows","10.0","https://app.prolific.com/","en-US,en;q=0.9,pl-PL;q=0.8,pl;q=0.7","603a293ee62ae15da2674441","683db6dfa200031b80f2a654","6865077bc46aa966522f723a","603a293ee62ae15da2674441","2025-07-02T10:36:44.480Z","","","","","","PreMotivationQ","","","","","","","","","","","","","","","","","","","","","","","","","","","","","","","","","","","","","","50"
"","","","","ctl-task-cpt","39","847616","0.0-10.0-0.0","170","1","2025-07-02 10:23:05","80fe4187154257d5fb01684ea91b68b9","37.225.83.44","Mozilla/5.0 (Windows NT 10.0; Win64; x64) AppleWebKit/537.36 (KHTML, like Gecko) Chrome/137.0.0.0 Safari/537.36","WebKit","Chrome","137.0.0.0","Windows","10.0","https://app.prolific.com/","en-US,en;q=0.9,pl-PL;q=0.8,pl;q=0.7","603a293ee62ae15da2674441","683db6dfa200031b80f2a654","6865077bc46aa966522f723a","603a293ee62ae15da2674441","2025-07-02T10:37:14.673Z","","","","","","","","","","","","","","","","win-only","2","g1:SE,g2:NW","1","1","0","819614.8","1117.3","6120.7","27176","1","4","4","6","2","4","4","4","0","0.030303030303030304","898.8","3000","1055","[""left"",""up""]","{""num_key_presses"":6,""num_perfect"":6,""num_errors"":0,""num_randdir"":0,""num_randdir_good_moves"":0,""num_whilered"":0,""num_whileblue"":0,""num_blue"":2,""num_good_moves"":6}","[419.57142857142856,411.47767857142856,0.2,419.57142857142856,411.47767857142856,103,419.57142857142856,412.47767857142856,203.2,417.57142857142856,418.47767857142856,303.9,297.57142857142856,204.47767857142856,404.2,84.57142857142857,50.47767857142857,504.2,87.57142857142857,50.47767857142857,609.7,103.57142857142857,64.47767857142857,714.2,125.57142857142857,80.47767857142857,818.5,126.57142857142857,81.47767857142857,922.1,152.57142857142856,101.47767857142857,1023.7,437.57142857142856,367.47767857142856,1123.9,429.57142857142856,483.47767857142856,1228.9,392.57142857142856,480.47767857142856,1333.1,392.57142857142856,480.47767857142856,1434.1,392.57142857142856,480.47767857142856,1538.4,392.57142857142856,480.47767857142856,1639,392.57142857142856,480.47767857142856,1743.2,392.57142857142856,480.47767857142856,1848.5,392.57142857142856,480.47767857142856,1948.6,392.57142857142856,480.47767857142856,2053.3,392.57142857142856,480.47767857142856,2153.4,392.57142857142856,480.47767857142856,2253.6,392.57142857142856,480.47767857142856,2358.5,392.57142857142856,480.47767857142856,2459.3,392.57142857142856,480.47767857142856,2559.3,392.57142857142856,480.47767857142856,2663.6,392.57142857142856,480.47767857142856,2763.6,392.57142857142856,480.47767857142856,2869.4,392.57142857142856,480.47767857142856,2973.6,392.57142857142856,480.47767857142856,3077.9,392.57142857142856,480.47767857142856,3178.8,392.57142857142856,480.47767857142856,3284.5,392.57142857142856,480.47767857142856,3388.9,392.57142857142856,480.47767857142856,3493.8,392.57142857142856,480.47767857142856,3598.4,392.57142857142856,480.47767857142856,3699.8,392.57142857142856,480.47767857142856,3803.9,392.57142857142856,480.47767857142856,3903.9,392.57142857142856,480.47767857142856,4004,392.57142857142856,480.47767857142856,4104.1,392.57142857142856,480.47767857142856,4208,392.57142857142856,480.47767857142856,4308.5,392.57142857142856,480.47767857142856,4408.6,392.57142857142856,480.47767857142856,4514.1,392.57142857142856,480.47767857142856,4618.8,392.57142857142856,480.47767857142856,4723.5,392.57142857142856,480.47767857142856,4823.6,392.57142857142856,480.47767857142856,4923.9]","[1373.3,1373.3,1000,0.1,373.2,""smooth"",""up"",""up"",""good_move"",3677.2,2303.5,1932.9,1373.7,370.6,""smooth"",""left"",""left"",""good_move"",7076.8,3399.4,3094.9,3677.4,304.5,""smooth"",""up"",""up"",""good_move"",15426.1,8349,1468.1,13650.1,307.9,""smooth"",""left"",""left"",""good_move"",18148.4,2722.3,2342.3,15426.1,380,""smooth"",""left"",""left"",""good_move"",20967,2818.4,2500.5,18148.6,317.9,""smooth"",""up"",""up"",""good_move""]","",""
"3573","","<div style=""width:500px;"">
  <p>What determined the result of this run?</p>
  </div>","95","html-slider-response","40","851190","0.0-10.0-1.0","170","1","2025-07-02 10:23:05","80fe4187154257d5fb01684ea91b68b9","37.225.83.44","Mozilla/5.0 (Windows NT 10.0; Win64; x64) AppleWebKit/537.36 (KHTML, like Gecko) Chrome/137.0.0.0 Safari/537.36","WebKit","Chrome","137.0.0.0","Windows","10.0","https://app.prolific.com/","en-US,en;q=0.9,pl-PL;q=0.8,pl;q=0.7","603a293ee62ae15da2674441","683db6dfa200031b80f2a654","6865077bc46aa966522f723a","603a293ee62ae15da2674441","2025-07-02T10:37:18.247Z","","","","","","AttribQ","","","","","","","","","","","","","","","","","","","","","","","","","","","","","","","","","","","","","","50"
"1906","","<div style=""width:500px;"">
  <p>How much control did you have over the ball?</p>
  </div>","87","html-slider-response","41","853102","0.0-10.0-2.0","170","1","2025-07-02 10:23:05","80fe4187154257d5fb01684ea91b68b9","37.225.83.44","Mozilla/5.0 (Windows NT 10.0; Win64; x64) AppleWebKit/537.36 (KHTML, like Gecko) Chrome/137.0.0.0 Safari/537.36","WebKit","Chrome","137.0.0.0","Windows","10.0","https://app.prolific.com/","en-US,en;q=0.9,pl-PL;q=0.8,pl;q=0.7","603a293ee62ae15da2674441","683db6dfa200031b80f2a654","6865077bc46aa966522f723a","603a293ee62ae15da2674441","2025-07-02T10:37:20.159Z","","","","","","ControlQ","","","","","","","","","","","","","","","","","","","","","","","","","","","","","","","","","","","","","","50"
"2791","","<div style=""width:500px;"">
  <p>How would you describe your current emotional state?</p>
  </div>","25","html-slider-response","42","855894","0.0-10.0-3.0","170","1","2025-07-02 10:23:05","80fe4187154257d5fb01684ea91b68b9","37.225.83.44","Mozilla/5.0 (Windows NT 10.0; Win64; x64) AppleWebKit/537.36 (KHTML, like Gecko) Chrome/137.0.0.0 Safari/537.36","WebKit","Chrome","137.0.0.0","Windows","10.0","https://app.prolific.com/","en-US,en;q=0.9,pl-PL;q=0.8,pl;q=0.7","603a293ee62ae15da2674441","683db6dfa200031b80f2a654","6865077bc46aa966522f723a","603a293ee62ae15da2674441","2025-07-02T10:37:22.951Z","","","","","","StressQ","","","","","","","","","","","","","","","","","","","","","","","","","","","","","","","","","","","","","","50"
"2821","","<div style=""width:500px;"">
  <p>What best describes how you currently feel?</p>
  </div>","30","html-slider-response","43","858716","0.0-10.0-4.0","170","1","2025-07-02 10:23:05","80fe4187154257d5fb01684ea91b68b9","37.225.83.44","Mozilla/5.0 (Windows NT 10.0; Win64; x64) AppleWebKit/537.36 (KHTML, like Gecko) Chrome/137.0.0.0 Safari/537.36","WebKit","Chrome","137.0.0.0","Windows","10.0","https://app.prolific.com/","en-US,en;q=0.9,pl-PL;q=0.8,pl;q=0.7","603a293ee62ae15da2674441","683db6dfa200031b80f2a654","6865077bc46aa966522f723a","603a293ee62ae15da2674441","2025-07-02T10:37:25.773Z","","","","","","MotivationQ","","","","","","","","","","","","","","","","","","","","","","","","","","","","","","","","","","","","","","50"
"","","","","ctl-task-cpt","44","916117","0.0-10.0-0.1","170","1","2025-07-02 10:23:05","80fe4187154257d5fb01684ea91b68b9","37.225.83.44","Mozilla/5.0 (Windows NT 10.0; Win64; x64) AppleWebKit/537.36 (KHTML, like Gecko) Chrome/137.0.0.0 Safari/537.36","WebKit","Chrome","137.0.0.0","Windows","10.0","https://app.prolific.com/","en-US,en;q=0.9,pl-PL;q=0.8,pl;q=0.7","603a293ee62ae15da2674441","683db6dfa200031b80f2a654","6865077bc46aa966522f723a","603a293ee62ae15da2674441","2025-07-02T10:38:23.174Z","","","","","","","","","","","","","","","","win-only","1","g1:NE,g2:SW","0.9","2","0","860904","764.1","5765.5","54375.7","1","4","8","6","2","8","7","11","4","0.08333333333333333","609.8","3000","520","[""down"",""left""]","{""num_key_presses"":9,""num_perfect"":7,""num_errors"":1,""num_randdir"":1,""num_randdir_good_moves"":0,""num_whilered"":0,""num_whileblue"":0,""num_blue"":7,""num_good_moves"":7}","[412.57142857142856,416.47767857142856,0.1,412.57142857142856,416.47767857142856,101.3,412.57142857142856,416.47767857142856,201.7,396.57142857142856,431.47767857142856,302.2,258.57142857142856,612.4776785714286,402.7,128.57142857142856,716.4776785714286,506.9,18.57142857142857,762.4776785714286,607.3,20.57142857142857,762.4776785714286,711.3,81.57142857142857,730.4776785714286,812.3,91.57142857142857,704.4776785714286,916.7,91.57142857142857,704.4776785714286,1021.9,91.57142857142857,704.4776785714286,1126.8,91.57142857142857,704.4776785714286,1231.8,91.57142857142857,704.4776785714286,1336.4,91.57142857142857,704.4776785714286,1437.9,91.57142857142857,704.4776785714286,1541.5,91.57142857142857,704.4776785714286,1641.7,91.57142857142857,704.4776785714286,1746.3,91.57142857142857,704.4776785714286,1846.3,91.57142857142857,704.4776785714286,1946.3,91.57142857142857,704.4776785714286,2051.8,91.57142857142857,704.4776785714286,2152.2,91.57142857142857,704.4776785714286,2256.8,91.57142857142857,704.4776785714286,2362.1,91.57142857142857,704.4776785714286,2466.3,91.57142857142857,704.4776785714286,2571.2,91.57142857142857,704.4776785714286,2672,91.57142857142857,704.4776785714286,2777,91.57142857142857,704.4776785714286,2881.5,91.57142857142857,704.4776785714286,2981.6,91.57142857142857,704.4776785714286,3086.1,91.57142857142857,704.4776785714286,3187.5,91.57142857142857,704.4776785714286,3292,91.57142857142857,704.4776785714286,3396.2,91.57142857142857,704.4776785714286,3496.4,91.57142857142857,704.4776785714286,3601.4,91.57142857142857,704.4776785714286,3702.1,91.57142857142857,704.4776785714286,3807,91.57142857142857,704.4776785714286,3911.9,91.57142857142857,704.4776785714286,4016.5,91.57142857142857,704.4776785714286,4121.4,91.57142857142857,704.4776785714286,4226.3,91.57142857142857,704.4776785714286,4326.8,91.57142857142857,704.4776785714286,4431.2,91.57142857142857,704.4776785714286,4537.3,91.57142857142857,704.4776785714286,4641.7,91.57142857142857,704.4776785714286,4741.9,91.57142857142857,704.4776785714286,4847.6,91.57142857142857,704.4776785714286,4952]","[241.2,241.2,1000,0,-758.8,""error"",""-"",""-"",""no_move"",8086.3,7844.9,2157,5580.7,348.6,""smooth"",""down"",""down"",""good_move"",11406.5,3319.8,3008.4,8086.7,311.4,""smooth"",""down"",""down"",""good_move"",13873.2,2466.5,2162.4,11406.7,304.1,""smooth"",""left"",""left"",""good_move"",20467,6593.4,2931.2,17229.7,306.1,""oops"",""left"",""right"",""bad_move"",25970.2,5503,2037,23615.2,318.1,""smooth"",""left"",""left"",""good_move"",28904,2933.6,2643.7,25970.4,289.9,""smooth"",""left"",""left"",""good_move"",35483.4,6579.2,2425.8,32730.5,327.1,""smooth"",""down"",""down"",""good_move"",48521.3,13037.4,2428.7,45785.2,307.4,""smooth"",""left"",""left"",""good_move""]","",""
"3176","","<div style=""width:500px;"">
  <p>What determined the result of this run?</p>
  </div>","62","html-slider-response","45","919295","0.0-10.0-1.1","170","1","2025-07-02 10:23:05","80fe4187154257d5fb01684ea91b68b9","37.225.83.44","Mozilla/5.0 (Windows NT 10.0; Win64; x64) AppleWebKit/537.36 (KHTML, like Gecko) Chrome/137.0.0.0 Safari/537.36","WebKit","Chrome","137.0.0.0","Windows","10.0","https://app.prolific.com/","en-US,en;q=0.9,pl-PL;q=0.8,pl;q=0.7","603a293ee62ae15da2674441","683db6dfa200031b80f2a654","6865077bc46aa966522f723a","603a293ee62ae15da2674441","2025-07-02T10:38:26.352Z","","","","","","AttribQ","","","","","","","","","","","","","","","","","","","","","","","","","","","","","","","","","","","","","","50"
"1655","","<div style=""width:500px;"">
  <p>How much control did you have over the ball?</p>
  </div>","69","html-slider-response","46","920951","0.0-10.0-2.1","170","1","2025-07-02 10:23:05","80fe4187154257d5fb01684ea91b68b9","37.225.83.44","Mozilla/5.0 (Windows NT 10.0; Win64; x64) AppleWebKit/537.36 (KHTML, like Gecko) Chrome/137.0.0.0 Safari/537.36","WebKit","Chrome","137.0.0.0","Windows","10.0","https://app.prolific.com/","en-US,en;q=0.9,pl-PL;q=0.8,pl;q=0.7","603a293ee62ae15da2674441","683db6dfa200031b80f2a654","6865077bc46aa966522f723a","603a293ee62ae15da2674441","2025-07-02T10:38:28.008Z","","","","","","ControlQ","","","","","","","","","","","","","","","","","","","","","","","","","","","","","","","","","","","","","","50"
"1410","","<div style=""width:500px;"">
  <p>How would you describe your current emotional state?</p>
  </div>","31","html-slider-response","47","922362","0.0-10.0-3.1","170","1","2025-07-02 10:23:05","80fe4187154257d5fb01684ea91b68b9","37.225.83.44","Mozilla/5.0 (Windows NT 10.0; Win64; x64) AppleWebKit/537.36 (KHTML, like Gecko) Chrome/137.0.0.0 Safari/537.36","WebKit","Chrome","137.0.0.0","Windows","10.0","https://app.prolific.com/","en-US,en;q=0.9,pl-PL;q=0.8,pl;q=0.7","603a293ee62ae15da2674441","683db6dfa200031b80f2a654","6865077bc46aa966522f723a","603a293ee62ae15da2674441","2025-07-02T10:38:29.419Z","","","","","","StressQ","","","","","","","","","","","","","","","","","","","","","","","","","","","","","","","","","","","","","","50"
"1271","","<div style=""width:500px;"">
  <p>What best describes how you currently feel?</p>
  </div>","33","html-slider-response","48","923634","0.0-10.0-4.1","170","1","2025-07-02 10:23:05","80fe4187154257d5fb01684ea91b68b9","37.225.83.44","Mozilla/5.0 (Windows NT 10.0; Win64; x64) AppleWebKit/537.36 (KHTML, like Gecko) Chrome/137.0.0.0 Safari/537.36","WebKit","Chrome","137.0.0.0","Windows","10.0","https://app.prolific.com/","en-US,en;q=0.9,pl-PL;q=0.8,pl;q=0.7","603a293ee62ae15da2674441","683db6dfa200031b80f2a654","6865077bc46aa966522f723a","603a293ee62ae15da2674441","2025-07-02T10:38:30.691Z","","","","","","MotivationQ","","","","","","","","","","","","","","","","","","","","","","","","","","","","","","","","","","","","","","50"
"","","","","ctl-task-cpt","49","958661","0.0-10.0-0.2","170","1","2025-07-02 10:23:05","80fe4187154257d5fb01684ea91b68b9","37.225.83.44","Mozilla/5.0 (Windows NT 10.0; Win64; x64) AppleWebKit/537.36 (KHTML, like Gecko) Chrome/137.0.0.0 Safari/537.36","WebKit","Chrome","137.0.0.0","Windows","10.0","https://app.prolific.com/","en-US,en;q=0.9,pl-PL;q=0.8,pl;q=0.7","603a293ee62ae15da2674441","683db6dfa200031b80f2a654","6865077bc46aa966522f723a","603a293ee62ae15da2674441","2025-07-02T10:39:05.719Z","","","","","","","","","","","","","","","","win-only","2","g1:SE,g2:NW","0.8","3","0","925816.5","725.5","5731.4","32010.4","1","4","8","6","2","8","7","18","11","0.13636363636363635","686.8","3000","340","[""left"",""up""]","{""num_key_presses"":10,""num_perfect"":7,""num_errors"":1,""num_randdir"":2,""num_randdir_good_moves"":1,""num_whilered"":0,""num_whileblue"":1,""num_blue"":1,""num_good_moves"":8}","[419.57142857142856,413.47767857142856,0.2,419.57142857142856,413.47767857142856,105.5,438.57142857142856,444.47767857142856,209.9,481.57142857142856,486.47767857142856,315.5,494.57142857142856,472.47767857142856,419.7,177.57142857142856,154.47767857142856,520,142.57142857142856,110.47767857142857,620.3,132.57142857142856,103.47767857142857,720.6,117.57142857142857,94.47767857142857,825,117.57142857142857,94.47767857142857,930,117.57142857142857,94.47767857142857,1030.2,117.57142857142857,94.47767857142857,1130.5,214.57142857142856,184.47767857142856,1231.1,350.57142857142856,358.47767857142856,1335.6,316.57142857142856,356.47767857142856,1440.3,316.57142857142856,356.47767857142856,1545.1,316.57142857142856,356.47767857142856,1650.5,316.57142857142856,356.47767857142856,1754.8,316.57142857142856,356.47767857142856,1855.5,316.57142857142856,356.47767857142856,1955.5,316.57142857142856,356.47767857142856,2059.8,316.57142857142856,356.47767857142856,2161,316.57142857142856,356.47767857142856,2265.2,316.57142857142856,356.47767857142856,2370.2,316.57142857142856,356.47767857142856,2474.7,316.57142857142856,356.47767857142856,2575,316.57142857142856,356.47767857142856,2675.2,316.57142857142856,356.47767857142856,2775.4,316.57142857142856,356.47767857142856,2875.4,316.57142857142856,356.47767857142856,2975.6,316.57142857142856,356.47767857142856,3080.6,316.57142857142856,356.47767857142856,3185.6,316.57142857142856,356.47767857142856,3289.7,316.57142857142856,356.47767857142856,3390.1,316.57142857142856,356.47767857142856,3495,316.57142857142856,356.47767857142856,3600.8,316.57142857142856,356.47767857142856,3704.7,316.57142857142856,356.47767857142856,3804.9,316.57142857142856,356.47767857142856,3904.9,316.57142857142856,356.47767857142856,4005.5,316.57142857142856,356.47767857142856,4109.9,316.57142857142856,356.47767857142856,4210.6,316.57142857142856,356.47767857142856,4315.5,316.57142857142856,356.47767857142856,4419.8,316.57142857142856,356.47767857142856,4519.8,316.57142857142856,356.47767857142856,4620.2,316.57142857142856,356.47767857142856,4725.1,316.57142857142856,356.47767857142856,4830.2,316.57142857142856,356.47767857142856,4935.3]","[1405.6,1405.6,1000,0,405.6,""oops"",""up"",""down"",""bad_move"",4223.5,2817.6,2535.3,1405.9,282.3,""smooth"",""left"",""left"",""good_move"",7245.6,3021.8,2732.7,4223.8,289.1,""smooth"",""left"",""left"",""good_move"",10157.8,2911.9,2632.2,7245.9,279.7,""smooth"",""left"",""left"",""good_move"",12698.1,2540.1,2298.5,10158,241.6,""smooth"",""up"",""up"",""good_move"",15281.8,2583.4,2347.9,12698.4,235.5,""smooth"",""up"",""up"",""good_move"",17938.7,2656.8,2387.1,15281.9,269.7,""while_blue"",""up"",""down"",""bad_move"",20599.8,2660.7,2273,17939.1,387.7,""smooth"",""up"",""up"",""good_move"",23444.6,2844.6,2532,20600,312.6,""oops"",""up"",""up"",""good_move"",26193.8,2748.9,2466.8,23444.9,282.1,""smooth"",""up"",""up"",""good_move""]","",""
"6060","","<div style=""width:500px;"">
  <p>What determined the result of this run?</p>
  </div>","63","html-slider-response","50","964724","0.0-10.0-1.2","170","1","2025-07-02 10:23:05","80fe4187154257d5fb01684ea91b68b9","37.225.83.44","Mozilla/5.0 (Windows NT 10.0; Win64; x64) AppleWebKit/537.36 (KHTML, like Gecko) Chrome/137.0.0.0 Safari/537.36","WebKit","Chrome","137.0.0.0","Windows","10.0","https://app.prolific.com/","en-US,en;q=0.9,pl-PL;q=0.8,pl;q=0.7","603a293ee62ae15da2674441","683db6dfa200031b80f2a654","6865077bc46aa966522f723a","603a293ee62ae15da2674441","2025-07-02T10:39:11.781Z","","","","","","AttribQ","","","","","","","","","","","","","","","","","","","","","","","","","","","","","","","","","","","","","","50"
"1931","","<div style=""width:500px;"">
  <p>How much control did you have over the ball?</p>
  </div>","77","html-slider-response","51","966655","0.0-10.0-2.2","170","1","2025-07-02 10:23:05","80fe4187154257d5fb01684ea91b68b9","37.225.83.44","Mozilla/5.0 (Windows NT 10.0; Win64; x64) AppleWebKit/537.36 (KHTML, like Gecko) Chrome/137.0.0.0 Safari/537.36","WebKit","Chrome","137.0.0.0","Windows","10.0","https://app.prolific.com/","en-US,en;q=0.9,pl-PL;q=0.8,pl;q=0.7","603a293ee62ae15da2674441","683db6dfa200031b80f2a654","6865077bc46aa966522f723a","603a293ee62ae15da2674441","2025-07-02T10:39:13.712Z","","","","","","ControlQ","","","","","","","","","","","","","","","","","","","","","","","","","","","","","","","","","","","","","","50"
"2033","","<div style=""width:500px;"">
  <p>How would you describe your current emotional state?</p>
  </div>","35","html-slider-response","52","968689","0.0-10.0-3.2","170","1","2025-07-02 10:23:05","80fe4187154257d5fb01684ea91b68b9","37.225.83.44","Mozilla/5.0 (Windows NT 10.0; Win64; x64) AppleWebKit/537.36 (KHTML, like Gecko) Chrome/137.0.0.0 Safari/537.36","WebKit","Chrome","137.0.0.0","Windows","10.0","https://app.prolific.com/","en-US,en;q=0.9,pl-PL;q=0.8,pl;q=0.7","603a293ee62ae15da2674441","683db6dfa200031b80f2a654","6865077bc46aa966522f723a","603a293ee62ae15da2674441","2025-07-02T10:39:15.746Z","","","","","","StressQ","","","","","","","","","","","","","","","","","","","","","","","","","","","","","","","","","","","","","","50"
"1394","","<div style=""width:500px;"">
  <p>What best describes how you currently feel?</p>
  </div>","33","html-slider-response","53","970085","0.0-10.0-4.2","170","1","2025-07-02 10:23:05","80fe4187154257d5fb01684ea91b68b9","37.225.83.44","Mozilla/5.0 (Windows NT 10.0; Win64; x64) AppleWebKit/537.36 (KHTML, like Gecko) Chrome/137.0.0.0 Safari/537.36","WebKit","Chrome","137.0.0.0","Windows","10.0","https://app.prolific.com/","en-US,en;q=0.9,pl-PL;q=0.8,pl;q=0.7","603a293ee62ae15da2674441","683db6dfa200031b80f2a654","6865077bc46aa966522f723a","603a293ee62ae15da2674441","2025-07-02T10:39:17.142Z","","","","","","MotivationQ","","","","","","","","","","","","","","","","","","","","","","","","","","","","","","","","","","","","","","50"
"","","","","ctl-task-cpt","54","1015221","0.0-10.0-0.3","170","1","2025-07-02 10:23:05","80fe4187154257d5fb01684ea91b68b9","37.225.83.44","Mozilla/5.0 (Windows NT 10.0; Win64; x64) AppleWebKit/537.36 (KHTML, like Gecko) Chrome/137.0.0.0 Safari/537.36","WebKit","Chrome","137.0.0.0","Windows","10.0","https://app.prolific.com/","en-US,en;q=0.9,pl-PL;q=0.8,pl;q=0.7","603a293ee62ae15da2674441","683db6dfa200031b80f2a654","6865077bc46aa966522f723a","603a293ee62ae15da2674441","2025-07-02T10:40:02.278Z","","","","","","","","","","","","","","","","win-only","0","g1:NW,g2:SE","0.7","4","0","972267.3","769","5770.5","42115.1","1","4","4","6","2","4","4","22","18","0.16666666666666666","911.7","3000","900","[""down"",""right""]","{""num_key_presses"":6,""num_perfect"":5,""num_errors"":0,""num_randdir"":1,""num_randdir_good_moves"":1,""num_whilered"":0,""num_whileblue"":0,""num_blue"":6,""num_good_moves"":6}","[415.57142857142856,416.47767857142856,0.1,415.57142857142856,416.47767857142856,101.8,420.57142857142856,426.47767857142856,201.8,447.57142857142856,466.47767857142856,301.9,320.57142857142856,289.47767857142856,406.6,224.57142857142856,204.47767857142856,506.7,281.57142857142856,241.47767857142856,606.8,492.57142857142856,485.47767857142856,711.6,708.5714285714286,711.4776785714286,816.3,707.5714285714286,722.4776785714286,917,707.5714285714286,722.4776785714286,1022.2,507.57142857142856,610.4776785714286,1126.6,385.57142857142856,320.47767857142856,1226.6,374.57142857142856,295.47767857142856,1327.3,374.57142857142856,295.47767857142856,1431.6,374.57142857142856,295.47767857142856,1532.1,374.57142857142856,295.47767857142856,1637,374.57142857142856,295.47767857142856,1737.1,374.57142857142856,295.47767857142856,1841.4,374.57142857142856,295.47767857142856,1941.5,374.57142857142856,295.47767857142856,2046.7,374.57142857142856,295.47767857142856,2146.8,374.57142857142856,295.47767857142856,2247.4,374.57142857142856,295.47767857142856,2352.2,374.57142857142856,295.47767857142856,2456.4,374.57142857142856,295.47767857142856,2556.8,374.57142857142856,295.47767857142856,2656.8,374.57142857142856,295.47767857142856,2757.3,374.57142857142856,295.47767857142856,2862.4,374.57142857142856,295.47767857142856,2966.8,374.57142857142856,295.47767857142856,3066.8,374.57142857142856,295.47767857142856,3171.2,374.57142857142856,295.47767857142856,3271.8,374.57142857142856,295.47767857142856,3376.8,374.57142857142856,295.47767857142856,3481.7,374.57142857142856,295.47767857142856,3581.7,374.57142857142856,295.47767857142856,3686.2,374.57142857142856,295.47767857142856,3786.3,374.57142857142856,295.47767857142856,3886.4,374.57142857142856,295.47767857142856,3991.1,374.57142857142856,295.47767857142856,4091.7,374.57142857142856,295.47767857142856,4197.6,374.57142857142856,295.47767857142856,4302.2,374.57142857142856,295.47767857142856,4406.5,374.57142857142856,295.47767857142856,4511.9,374.57142857142856,295.47767857142856,4616.2,374.57142857142856,295.47767857142856,4716.4,374.57142857142856,295.47767857142856,4816.7,374.57142857142856,295.47767857142856,4921.9]","[5201.6,5201.6,2753.2,2010.6,437.8,""smooth"",""down"",""down"",""good_move"",7539.3,2337.3,1989.4,5202,347.9,""smooth"",""down"",""down"",""good_move"",14100.7,6561.1,2731.9,11005.9,362.9,""smooth"",""right"",""right"",""good_move"",27228.9,13127.7,2446.8,24485.3,296.8,""smooth"",""right"",""right"",""good_move"",29637.8,2408.6,2030.5,27229.2,378.1,""oops"",""down"",""down"",""good_move"",36259.6,6621.5,3075.3,32870.2,314.1,""smooth"",""right"",""right"",""good_move""]","",""
"2734","","<div style=""width:500px;"">
  <p>What determined the result of this run?</p>
  </div>","75","html-slider-response","55","1017956","0.0-10.0-1.3","170","1","2025-07-02 10:23:05","80fe4187154257d5fb01684ea91b68b9","37.225.83.44","Mozilla/5.0 (Windows NT 10.0; Win64; x64) AppleWebKit/537.36 (KHTML, like Gecko) Chrome/137.0.0.0 Safari/537.36","WebKit","Chrome","137.0.0.0","Windows","10.0","https://app.prolific.com/","en-US,en;q=0.9,pl-PL;q=0.8,pl;q=0.7","603a293ee62ae15da2674441","683db6dfa200031b80f2a654","6865077bc46aa966522f723a","603a293ee62ae15da2674441","2025-07-02T10:40:05.013Z","","","","","","AttribQ","","","","","","","","","","","","","","","","","","","","","","","","","","","","","","","","","","","","","","50"
"1845","","<div style=""width:500px;"">
  <p>How much control did you have over the ball?</p>
  </div>","70","html-slider-response","56","1019802","0.0-10.0-2.3","170","1","2025-07-02 10:23:05","80fe4187154257d5fb01684ea91b68b9","37.225.83.44","Mozilla/5.0 (Windows NT 10.0; Win64; x64) AppleWebKit/537.36 (KHTML, like Gecko) Chrome/137.0.0.0 Safari/537.36","WebKit","Chrome","137.0.0.0","Windows","10.0","https://app.prolific.com/","en-US,en;q=0.9,pl-PL;q=0.8,pl;q=0.7","603a293ee62ae15da2674441","683db6dfa200031b80f2a654","6865077bc46aa966522f723a","603a293ee62ae15da2674441","2025-07-02T10:40:06.859Z","","","","","","ControlQ","","","","","","","","","","","","","","","","","","","","","","","","","","","","","","","","","","","","","","50"
"1664","","<div style=""width:500px;"">
  <p>How would you describe your current emotional state?</p>
  </div>","32","html-slider-response","57","1021467","0.0-10.0-3.3","170","1","2025-07-02 10:23:05","80fe4187154257d5fb01684ea91b68b9","37.225.83.44","Mozilla/5.0 (Windows NT 10.0; Win64; x64) AppleWebKit/537.36 (KHTML, like Gecko) Chrome/137.0.0.0 Safari/537.36","WebKit","Chrome","137.0.0.0","Windows","10.0","https://app.prolific.com/","en-US,en;q=0.9,pl-PL;q=0.8,pl;q=0.7","603a293ee62ae15da2674441","683db6dfa200031b80f2a654","6865077bc46aa966522f723a","603a293ee62ae15da2674441","2025-07-02T10:40:08.524Z","","","","","","StressQ","","","","","","","","","","","","","","","","","","","","","","","","","","","","","","","","","","","","","","50"
"1326","","<div style=""width:500px;"">
  <p>What best describes how you currently feel?</p>
  </div>","30","html-slider-response","58","1022794","0.0-10.0-4.3","170","1","2025-07-02 10:23:05","80fe4187154257d5fb01684ea91b68b9","37.225.83.44","Mozilla/5.0 (Windows NT 10.0; Win64; x64) AppleWebKit/537.36 (KHTML, like Gecko) Chrome/137.0.0.0 Safari/537.36","WebKit","Chrome","137.0.0.0","Windows","10.0","https://app.prolific.com/","en-US,en;q=0.9,pl-PL;q=0.8,pl;q=0.7","603a293ee62ae15da2674441","683db6dfa200031b80f2a654","6865077bc46aa966522f723a","603a293ee62ae15da2674441","2025-07-02T10:40:09.851Z","","","","","","MotivationQ","","","","","","","","","","","","","","","","","","","","","","","","","","","","","","","","","","","","","","50"
"","","","","ctl-task-cpt","59","1056542","0.0-10.0-0.4","170","1","2025-07-02 10:23:05","80fe4187154257d5fb01684ea91b68b9","37.225.83.44","Mozilla/5.0 (Windows NT 10.0; Win64; x64) AppleWebKit/537.36 (KHTML, like Gecko) Chrome/137.0.0.0 Safari/537.36","WebKit","Chrome","137.0.0.0","Windows","10.0","https://app.prolific.com/","en-US,en;q=0.9,pl-PL;q=0.8,pl;q=0.7","603a293ee62ae15da2674441","683db6dfa200031b80f2a654","6865077bc46aa966522f723a","603a293ee62ae15da2674441","2025-07-02T10:40:43.599Z","","","","","","","","","","","","","","","","win-only","2","g1:SE,g2:NW","0.6","5","0","1024973.4","970.3","5970.6","30725.8","1","4","8","6","2","8","8","30","22","0.22727272727272727","790","3000","170","[""left"",""up""]","{""num_key_presses"":8,""num_perfect"":5,""num_errors"":0,""num_randdir"":3,""num_randdir_good_moves"":2,""num_whilered"":0,""num_whileblue"":0,""num_blue"":1,""num_good_moves"":7}","[416.57142857142856,419.47767857142856,0.3,416.57142857142856,419.47767857142856,100.4,416.57142857142856,419.47767857142856,205,416.57142857142856,419.47767857142856,305.6,417.57142857142856,419.47767857142856,410,324.57142857142856,274.47767857142856,510.9,166.57142857142856,135.47767857142856,615.3,131.57142857142856,105.47767857142857,715.5,107.57142857142857,87.47767857142857,815.5,169.57142857142856,156.47767857142856,921.5,294.57142857142856,281.47767857142856,1025,294.57142857142856,281.47767857142856,1125,294.57142857142856,281.47767857142856,1225,294.57142857142856,281.47767857142856,1325.8,294.57142857142856,281.47767857142856,1430.4,294.57142857142856,281.47767857142856,1535.4,294.57142857142856,281.47767857142856,1636.5,294.57142857142856,281.47767857142856,1741.1,294.57142857142856,281.47767857142856,1841.1,294.57142857142856,281.47767857142856,1945.8,294.57142857142856,281.47767857142856,2049.9,294.57142857142856,281.47767857142856,2149.9,294.57142857142856,281.47767857142856,2250.6,294.57142857142856,281.47767857142856,2355.5,294.57142857142856,281.47767857142856,2460,294.57142857142856,281.47767857142856,2565.2,294.57142857142856,281.47767857142856,2665.2,294.57142857142856,281.47767857142856,2770.5,294.57142857142856,281.47767857142856,2875.3,294.57142857142856,281.47767857142856,2975.6,294.57142857142856,281.47767857142856,3080.1,294.57142857142856,281.47767857142856,3180.7,294.57142857142856,281.47767857142856,3281.2,294.57142857142856,281.47767857142856,3385.6,294.57142857142856,281.47767857142856,3490.3,294.57142857142856,281.47767857142856,3595.4,294.57142857142856,281.47767857142856,3700,294.57142857142856,281.47767857142856,3800,294.57142857142856,281.47767857142856,3900.7,294.57142857142856,281.47767857142856,4005.6,294.57142857142856,281.47767857142856,4110.7,294.57142857142856,281.47767857142856,4215.5,294.57142857142856,281.47767857142856,4320.3,294.57142857142856,281.47767857142856,4424.9,294.57142857142856,281.47767857142856,4525.7,294.57142857142856,281.47767857142856,4629.9,294.57142857142856,281.47767857142856,4730,294.57142857142856,281.47767857142856,4830.8,294.57142857142856,281.47767857142856,4930.9]","[1858.8,1858.8,1000,0,858.8,""smooth"",""left"",""left"",""good_move"",4511.5,2652.4,2346.6,1859.1,305.8,""smooth"",""up"",""up"",""good_move"",11304,6792.2,2542,8445.3,316.7,""oops"",""left"",""right"",""bad_move"",14111.8,2807.4,2512.4,11304.4,295,""smooth"",""up"",""up"",""good_move"",16850.5,2738.4,2470,14112.1,268.4,""oops"",""left"",""left"",""good_move"",19039.6,2188.7,1874.7,16850.9,314,""smooth"",""left"",""left"",""good_move"",21585.8,2546,2297.3,19039.8,248.7,""smooth"",""up"",""up"",""good_move"",24666.9,3081,2808.6,21585.9,272.4,""oops"",""left"",""left"",""good_move""]","",""
"2940","","<div style=""width:500px;"">
  <p>What determined the result of this run?</p>
  </div>","78","html-slider-response","60","1059484","0.0-10.0-1.4","170","1","2025-07-02 10:23:05","80fe4187154257d5fb01684ea91b68b9","37.225.83.44","Mozilla/5.0 (Windows NT 10.0; Win64; x64) AppleWebKit/537.36 (KHTML, like Gecko) Chrome/137.0.0.0 Safari/537.36","WebKit","Chrome","137.0.0.0","Windows","10.0","https://app.prolific.com/","en-US,en;q=0.9,pl-PL;q=0.8,pl;q=0.7","603a293ee62ae15da2674441","683db6dfa200031b80f2a654","6865077bc46aa966522f723a","603a293ee62ae15da2674441","2025-07-02T10:40:46.541Z","","","","","","AttribQ","","","","","","","","","","","","","","","","","","","","","","","","","","","","","","","","","","","","","","50"
"11595","","<div style=""width:500px;"">
  <p>How much control did you have over the ball?</p>
  </div>","74","html-slider-response","61","1071080","0.0-10.0-2.4","170","1","2025-07-02 10:23:05","80fe4187154257d5fb01684ea91b68b9","37.225.83.44","Mozilla/5.0 (Windows NT 10.0; Win64; x64) AppleWebKit/537.36 (KHTML, like Gecko) Chrome/137.0.0.0 Safari/537.36","WebKit","Chrome","137.0.0.0","Windows","10.0","https://app.prolific.com/","en-US,en;q=0.9,pl-PL;q=0.8,pl;q=0.7","603a293ee62ae15da2674441","683db6dfa200031b80f2a654","6865077bc46aa966522f723a","603a293ee62ae15da2674441","2025-07-02T10:40:58.137Z","","","","","","ControlQ","","","","","","","","","","","","","","","","","","","","","","","","","","","","","","","","","","","","","","50"
"1693","","<div style=""width:500px;"">
  <p>How would you describe your current emotional state?</p>
  </div>","34","html-slider-response","62","1072774","0.0-10.0-3.4","170","1","2025-07-02 10:23:05","80fe4187154257d5fb01684ea91b68b9","37.225.83.44","Mozilla/5.0 (Windows NT 10.0; Win64; x64) AppleWebKit/537.36 (KHTML, like Gecko) Chrome/137.0.0.0 Safari/537.36","WebKit","Chrome","137.0.0.0","Windows","10.0","https://app.prolific.com/","en-US,en;q=0.9,pl-PL;q=0.8,pl;q=0.7","603a293ee62ae15da2674441","683db6dfa200031b80f2a654","6865077bc46aa966522f723a","603a293ee62ae15da2674441","2025-07-02T10:40:59.831Z","","","","","","StressQ","","","","","","","","","","","","","","","","","","","","","","","","","","","","","","","","","","","","","","50"
"5603","","<div style=""width:500px;"">
  <p>What best describes how you currently feel?</p>
  </div>","32","html-slider-response","63","1078379","0.0-10.0-4.4","170","1","2025-07-02 10:23:05","80fe4187154257d5fb01684ea91b68b9","37.225.83.44","Mozilla/5.0 (Windows NT 10.0; Win64; x64) AppleWebKit/537.36 (KHTML, like Gecko) Chrome/137.0.0.0 Safari/537.36","WebKit","Chrome","137.0.0.0","Windows","10.0","https://app.prolific.com/","en-US,en;q=0.9,pl-PL;q=0.8,pl;q=0.7","603a293ee62ae15da2674441","683db6dfa200031b80f2a654","6865077bc46aa966522f723a","603a293ee62ae15da2674441","2025-07-02T10:41:05.436Z","","","","","","MotivationQ","","","","","","","","","","","","","","","","","","","","","","","","","","","","","","","","","","","","","","50"
"","","","","ctl-task-cpt","64","1105710","0.0-10.0-0.5","170","1","2025-07-02 10:23:05","80fe4187154257d5fb01684ea91b68b9","37.225.83.44","Mozilla/5.0 (Windows NT 10.0; Win64; x64) AppleWebKit/537.36 (KHTML, like Gecko) Chrome/137.0.0.0 Safari/537.36","WebKit","Chrome","137.0.0.0","Windows","10.0","https://app.prolific.com/","en-US,en;q=0.9,pl-PL;q=0.8,pl;q=0.7","603a293ee62ae15da2674441","683db6dfa200031b80f2a654","6865077bc46aa966522f723a","603a293ee62ae15da2674441","2025-07-02T10:41:32.767Z","","","","","","","","","","","","","","","","win-only","1","g1:NE,g2:SW","0.5","6","0","1080554.7","3769.6","8770.2","24309.6","1","4","4","6","2","4","4","34","30","0.25757575757575757","561.5","3000","2255","[""down"",""left""]","{""num_key_presses"":6,""num_perfect"":4,""num_errors"":0,""num_randdir"":2,""num_randdir_good_moves"":2,""num_whilered"":0,""num_whileblue"":0,""num_blue"":0,""num_good_moves"":6}","[417.57142857142856,415.47767857142856,0.2,417.57142857142856,415.47767857142856,105.2,414.57142857142856,418.47767857142856,208.7,370.57142857142856,489.47767857142856,319.3,178.57142857142856,693.4776785714286,426,106.57142857142857,752.4776785714286,530.4,91.57142857142857,754.4776785714286,631.4,171.57142857142856,727.4776785714286,739.4,309.57142857142856,668.4776785714286,845.1,312.57142857142856,649.4776785714286,950.1,312.57142857142856,649.4776785714286,1053.4,312.57142857142856,649.4776785714286,1159.4,312.57142857142856,649.4776785714286,1264.8,312.57142857142856,649.4776785714286,1367.9,312.57142857142856,649.4776785714286,1475.4,312.57142857142856,649.4776785714286,1578.9,312.57142857142856,649.4776785714286,1680.4,312.57142857142856,649.4776785714286,1786.6,312.57142857142856,649.4776785714286,1894.9,312.57142857142856,649.4776785714286,1995.6,312.57142857142856,649.4776785714286,2101.9,312.57142857142856,649.4776785714286,2206.3,312.57142857142856,649.4776785714286,2315.6,312.57142857142856,649.4776785714286,2421.9,312.57142857142856,649.4776785714286,2557.4,312.57142857142856,649.4776785714286,2663.5,312.57142857142856,649.4776785714286,2771.7,312.57142857142856,649.4776785714286,2875.5,312.57142857142856,649.4776785714286,2985.3,312.57142857142856,649.4776785714286,3091.9,312.57142857142856,649.4776785714286,3193.9,312.57142857142856,649.4776785714286,3293.9,312.57142857142856,649.4776785714286,3404.5,312.57142857142856,649.4776785714286,3509.4,312.57142857142856,649.4776785714286,3615.5,312.57142857142856,649.4776785714286,3716.1,312.57142857142856,649.4776785714286,3822.3,312.57142857142856,649.4776785714286,3924.8,312.57142857142856,649.4776785714286,4028,312.57142857142856,649.4776785714286,4138.1,312.57142857142856,649.4776785714286,4251.7,312.57142857142856,649.4776785714286,4366.7,312.57142857142856,649.4776785714286,4471.6,312.57142857142856,649.4776785714286,4618.3,312.57142857142856,649.4776785714286,4719.8,312.57142857142856,649.4776785714286,4822.6,312.57142857142856,649.4776785714286,4931.1]","[1419.1,1419.1,1000,0,419.1,""smooth"",""down"",""down"",""good_move"",4188,2768.5,2405.2,1419.5,363.3,""smooth"",""left"",""left"",""good_move"",7047.4,2859.1,2537.8,4188.3,321.3,""oops"",""down"",""down"",""good_move"",9382.3,2334.7,2020.8,7047.6,313.9,""oops"",""left"",""left"",""good_move"",12249.3,2866.6,2311.9,9382.7,554.7,""smooth"",""down"",""down"",""good_move"",15258.8,3009.1,2725.7,12249.7,283.4,""smooth"",""left"",""left"",""good_move""]","",""
"1283","","<div style=""width:500px;"">
  <p>What determined the result of this run?</p>
  </div>","99","html-slider-response","65","1106995","0.0-10.0-1.5","170","1","2025-07-02 10:23:05","80fe4187154257d5fb01684ea91b68b9","37.225.83.44","Mozilla/5.0 (Windows NT 10.0; Win64; x64) AppleWebKit/537.36 (KHTML, like Gecko) Chrome/137.0.0.0 Safari/537.36","WebKit","Chrome","137.0.0.0","Windows","10.0","https://app.prolific.com/","en-US,en;q=0.9,pl-PL;q=0.8,pl;q=0.7","603a293ee62ae15da2674441","683db6dfa200031b80f2a654","6865077bc46aa966522f723a","603a293ee62ae15da2674441","2025-07-02T10:41:34.052Z","","","","","","AttribQ","","","","","","","","","","","","","","","","","","","","","","","","","","","","","","","","","","","","","","50"
"1539","","<div style=""width:500px;"">
  <p>How much control did you have over the ball?</p>
  </div>","98","html-slider-response","66","1108537","0.0-10.0-2.5","170","1","2025-07-02 10:23:05","80fe4187154257d5fb01684ea91b68b9","37.225.83.44","Mozilla/5.0 (Windows NT 10.0; Win64; x64) AppleWebKit/537.36 (KHTML, like Gecko) Chrome/137.0.0.0 Safari/537.36","WebKit","Chrome","137.0.0.0","Windows","10.0","https://app.prolific.com/","en-US,en;q=0.9,pl-PL;q=0.8,pl;q=0.7","603a293ee62ae15da2674441","683db6dfa200031b80f2a654","6865077bc46aa966522f723a","603a293ee62ae15da2674441","2025-07-02T10:41:35.594Z","","","","","","ControlQ","","","","","","","","","","","","","","","","","","","","","","","","","","","","","","","","","","","","","","50"
"1507","","<div style=""width:500px;"">
  <p>How would you describe your current emotional state?</p>
  </div>","9","html-slider-response","67","1110046","0.0-10.0-3.5","170","1","2025-07-02 10:23:05","80fe4187154257d5fb01684ea91b68b9","37.225.83.44","Mozilla/5.0 (Windows NT 10.0; Win64; x64) AppleWebKit/537.36 (KHTML, like Gecko) Chrome/137.0.0.0 Safari/537.36","WebKit","Chrome","137.0.0.0","Windows","10.0","https://app.prolific.com/","en-US,en;q=0.9,pl-PL;q=0.8,pl;q=0.7","603a293ee62ae15da2674441","683db6dfa200031b80f2a654","6865077bc46aa966522f723a","603a293ee62ae15da2674441","2025-07-02T10:41:37.103Z","","","","","","StressQ","","","","","","","","","","","","","","","","","","","","","","","","","","","","","","","","","","","","","","50"
"1628","","<div style=""width:500px;"">
  <p>What best describes how you currently feel?</p>
  </div>","17","html-slider-response","68","1111675","0.0-10.0-4.5","170","1","2025-07-02 10:23:05","80fe4187154257d5fb01684ea91b68b9","37.225.83.44","Mozilla/5.0 (Windows NT 10.0; Win64; x64) AppleWebKit/537.36 (KHTML, like Gecko) Chrome/137.0.0.0 Safari/537.36","WebKit","Chrome","137.0.0.0","Windows","10.0","https://app.prolific.com/","en-US,en;q=0.9,pl-PL;q=0.8,pl;q=0.7","603a293ee62ae15da2674441","683db6dfa200031b80f2a654","6865077bc46aa966522f723a","603a293ee62ae15da2674441","2025-07-02T10:41:38.732Z","","","","","","MotivationQ","","","","","","","","","","","","","","","","","","","","","","","","","","","","","","","","","","","","","","50"
"","","","","ctl-task-cpt","69","1148434","0.0-10.0-0.6","170","1","2025-07-02 10:23:05","80fe4187154257d5fb01684ea91b68b9","37.225.83.44","Mozilla/5.0 (Windows NT 10.0; Win64; x64) AppleWebKit/537.36 (KHTML, like Gecko) Chrome/137.0.0.0 Safari/537.36","WebKit","Chrome","137.0.0.0","Windows","10.0","https://app.prolific.com/","en-US,en;q=0.9,pl-PL;q=0.8,pl;q=0.7","603a293ee62ae15da2674441","683db6dfa200031b80f2a654","6865077bc46aa966522f723a","603a293ee62ae15da2674441","2025-07-02T10:42:15.491Z","","","","","","","","","","","","","","","","win-only","3","g1:SW,g2:NE","0.4","7","0","1113846.1","723.7","5726.4","33741.4","1","4","8","6","2","8","8","42","34","0.3181818181818182","971.1","3000","620","[""up"",""right""]","{""num_key_presses"":8,""num_perfect"":3,""num_errors"":0,""num_randdir"":5,""num_randdir_good_moves"":4,""num_whilered"":0,""num_whileblue"":0,""num_blue"":2,""num_good_moves"":7}","[421.57142857142856,413.47767857142856,0.2,421.57142857142856,414.47767857142856,102.3,419.57142857142856,414.47767857142856,207,346.57142857142856,491.47767857142856,311.9,218.57142857142856,632.4776785714286,412,186.57142857142856,671.4776785714286,516.5,402.57142857142856,480.47767857142856,618,644.5714285714286,80.47767857142857,722.1,650.5714285714286,60.47767857142857,826.6,727.5714285714286,68.47767857142857,926.7,753.5714285714286,68.47767857142857,1027,730.5714285714286,371.47767857142856,1127.4,707.5714285714286,479.47767857142856,1231.7,707.5714285714286,479.47767857142856,1332.4,707.5714285714286,479.47767857142856,1436.8,707.5714285714286,479.47767857142856,1537.2,707.5714285714286,479.47767857142856,1641.7,707.5714285714286,479.47767857142856,1743,707.5714285714286,479.47767857142856,1847.2,707.5714285714286,479.47767857142856,1951.7,707.5714285714286,479.47767857142856,2057.8,707.5714285714286,479.47767857142856,2161.8,707.5714285714286,479.47767857142856,2261.9,707.5714285714286,479.47767857142856,2361.9,707.5714285714286,479.47767857142856,2462,707.5714285714286,479.47767857142856,2562,707.5714285714286,479.47767857142856,2662.2,707.5714285714286,479.47767857142856,2762.6,707.5714285714286,479.47767857142856,2868.4,707.5714285714286,479.47767857142856,2971.7,707.5714285714286,479.47767857142856,3072.2,707.5714285714286,479.47767857142856,3176.9,707.5714285714286,479.47767857142856,3277.1,707.5714285714286,479.47767857142856,3381.6,707.5714285714286,479.47767857142856,3482.4,707.5714285714286,479.47767857142856,3582.6,707.5714285714286,479.47767857142856,3687.8,707.5714285714286,479.47767857142856,3791.9,707.5714285714286,479.47767857142856,3896.7,707.5714285714286,479.47767857142856,3997.1,707.5714285714286,479.47767857142856,4102.2,707.5714285714286,479.47767857142856,4206.7,707.5714285714286,479.47767857142856,4308.3,707.5714285714286,479.47767857142856,4411.7,707.5714285714286,479.47767857142856,4511.8,707.5714285714286,479.47767857142856,4611.9,707.5714285714286,479.47767857142856,4711.9,707.5714285714286,479.47767857142856,4817.1,707.5714285714286,479.47767857142856,4921.6]","[4976.4,4976.4,2660.9,2004.7,310.8,""smooth"",""right"",""right"",""good_move"",7179,2202.3,1898.8,4976.7,303.5,""oops"",""right"",""right"",""good_move"",9953.9,2774.6,2521.8,7179.3,252.8,""oops"",""up"",""right"",""good_move"",12554,2599.7,2275.8,9954.3,323.9,""smooth"",""up"",""up"",""good_move"",15498.3,2944,2697.8,12554.4,246.1,""oops"",""up"",""up"",""good_move"",22850.8,7352.4,3144.3,19343.9,362.7,""oops"",""up"",""left"",""bad_move"",25870,3018.9,2693,22851.1,325.9,""smooth"",""up"",""up"",""good_move"",27927.9,2057.7,1633.3,25870.2,424.4,""oops"",""right"",""right"",""good_move""]","",""
"1866","","<div style=""width:500px;"">
  <p>What determined the result of this run?</p>
  </div>","73","html-slider-response","70","1150300","0.0-10.0-1.6","170","1","2025-07-02 10:23:05","80fe4187154257d5fb01684ea91b68b9","37.225.83.44","Mozilla/5.0 (Windows NT 10.0; Win64; x64) AppleWebKit/537.36 (KHTML, like Gecko) Chrome/137.0.0.0 Safari/537.36","WebKit","Chrome","137.0.0.0","Windows","10.0","https://app.prolific.com/","en-US,en;q=0.9,pl-PL;q=0.8,pl;q=0.7","603a293ee62ae15da2674441","683db6dfa200031b80f2a654","6865077bc46aa966522f723a","603a293ee62ae15da2674441","2025-07-02T10:42:17.357Z","","","","","","AttribQ","","","","","","","","","","","","","","","","","","","","","","","","","","","","","","","","","","","","","","50"
"1447","","<div style=""width:500px;"">
  <p>How much control did you have over the ball?</p>
  </div>","73","html-slider-response","71","1151749","0.0-10.0-2.6","170","1","2025-07-02 10:23:05","80fe4187154257d5fb01684ea91b68b9","37.225.83.44","Mozilla/5.0 (Windows NT 10.0; Win64; x64) AppleWebKit/537.36 (KHTML, like Gecko) Chrome/137.0.0.0 Safari/537.36","WebKit","Chrome","137.0.0.0","Windows","10.0","https://app.prolific.com/","en-US,en;q=0.9,pl-PL;q=0.8,pl;q=0.7","603a293ee62ae15da2674441","683db6dfa200031b80f2a654","6865077bc46aa966522f723a","603a293ee62ae15da2674441","2025-07-02T10:42:18.806Z","","","","","","ControlQ","","","","","","","","","","","","","","","","","","","","","","","","","","","","","","","","","","","","","","50"
"1005","","<div style=""width:500px;"">
  <p>How would you describe your current emotional state?</p>
  </div>","26","html-slider-response","72","1152755","0.0-10.0-3.6","170","1","2025-07-02 10:23:05","80fe4187154257d5fb01684ea91b68b9","37.225.83.44","Mozilla/5.0 (Windows NT 10.0; Win64; x64) AppleWebKit/537.36 (KHTML, like Gecko) Chrome/137.0.0.0 Safari/537.36","WebKit","Chrome","137.0.0.0","Windows","10.0","https://app.prolific.com/","en-US,en;q=0.9,pl-PL;q=0.8,pl;q=0.7","603a293ee62ae15da2674441","683db6dfa200031b80f2a654","6865077bc46aa966522f723a","603a293ee62ae15da2674441","2025-07-02T10:42:19.812Z","","","","","","StressQ","","","","","","","","","","","","","","","","","","","","","","","","","","","","","","","","","","","","","","50"
"1689","","<div style=""width:500px;"">
  <p>What best describes how you currently feel?</p>
  </div>","24","html-slider-response","73","1154449","0.0-10.0-4.6","170","1","2025-07-02 10:23:05","80fe4187154257d5fb01684ea91b68b9","37.225.83.44","Mozilla/5.0 (Windows NT 10.0; Win64; x64) AppleWebKit/537.36 (KHTML, like Gecko) Chrome/137.0.0.0 Safari/537.36","WebKit","Chrome","137.0.0.0","Windows","10.0","https://app.prolific.com/","en-US,en;q=0.9,pl-PL;q=0.8,pl;q=0.7","603a293ee62ae15da2674441","683db6dfa200031b80f2a654","6865077bc46aa966522f723a","603a293ee62ae15da2674441","2025-07-02T10:42:21.506Z","","","","","","MotivationQ","","","","","","","","","","","","","","","","","","","","","","","","","","","","","","","","","","","","","","50"
"","","","","ctl-task-cpt","74","1201662","0.0-10.0-0.7","170","1","2025-07-02 10:23:05","80fe4187154257d5fb01684ea91b68b9","37.225.83.44","Mozilla/5.0 (Windows NT 10.0; Win64; x64) AppleWebKit/537.36 (KHTML, like Gecko) Chrome/137.0.0.0 Safari/537.36","WebKit","Chrome","137.0.0.0","Windows","10.0","https://app.prolific.com/","en-US,en;q=0.9,pl-PL;q=0.8,pl;q=0.7","603a293ee62ae15da2674441","683db6dfa200031b80f2a654","6865077bc46aa966522f723a","603a293ee62ae15da2674441","2025-07-02T10:43:08.719Z","","","","","","","","","","","","","","","","win-only","2","g1:SE,g2:NW","0.3","8","0","1156618.5","708.1","5711.1","44193.2","1","4","4","6","2","4","3","45","42","0.3409090909090909","883.2","3000","335","[""left"",""up""]","{""num_key_presses"":12,""num_perfect"":4,""num_errors"":1,""num_randdir"":7,""num_randdir_good_moves"":4,""num_whilered"":0,""num_whileblue"":1,""num_blue"":3,""num_good_moves"":9}","[416.57142857142856,414.47767857142856,0.3,416.57142857142856,414.47767857142856,103.7,418.57142857142856,415.47767857142856,207.1,482.57142857142856,453.47767857142856,307.7,478.57142857142856,454.47767857142856,408.4,556.5714285714286,582.4776785714286,512.5,285.57142857142856,321.47767857142856,618.8,88.57142857142857,115.47767857142857,722.5,84.57142857142857,106.47767857142857,823.3,78.57142857142857,93.47767857142857,927.6,166.57142857142856,202.47767857142856,1028.2,315.57142857142856,327.47767857142856,1132.5,315.57142857142856,327.47767857142856,1232.7,315.57142857142856,327.47767857142856,1334.1,315.57142857142856,327.47767857142856,1437.4,315.57142857142856,327.47767857142856,1537.8,315.57142857142856,327.47767857142856,1638,315.57142857142856,327.47767857142856,1742.3,315.57142857142856,327.47767857142856,1843.4,315.57142857142856,327.47767857142856,1943.4,315.57142857142856,327.47767857142856,2047.7,315.57142857142856,327.47767857142856,2153.2,315.57142857142856,327.47767857142856,2258.4,315.57142857142856,327.47767857142856,2363.3,315.57142857142856,327.47767857142856,2463.3,315.57142857142856,327.47767857142856,2567.7,315.57142857142856,327.47767857142856,2667.7,315.57142857142856,327.47767857142856,2767.7,315.57142857142856,327.47767857142856,2867.8,315.57142857142856,327.47767857142856,2968,315.57142857142856,327.47767857142856,3068.4,315.57142857142856,327.47767857142856,3172.9,315.57142857142856,327.47767857142856,3278.3,315.57142857142856,327.47767857142856,3378.7,315.57142857142856,327.47767857142856,3482.3,315.57142857142856,327.47767857142856,3582.6,315.57142857142856,327.47767857142856,3683.3,315.57142857142856,327.47767857142856,3783.6,315.57142857142856,327.47767857142856,3888.3,315.57142857142856,327.47767857142856,3988.7,315.57142857142856,327.47767857142856,4093.4,315.57142857142856,327.47767857142856,4197.3,315.57142857142856,327.47767857142856,4297.8,315.57142857142856,327.47767857142856,4402.2,315.57142857142856,327.47767857142856,4503,315.57142857142856,327.47767857142856,4607.5,315.57142857142856,327.47767857142856,4712.5,315.57142857142856,327.47767857142856,4813.6,315.57142857142856,327.47767857142856,4921.9]","[1498.9,1498.9,1000,0,498.9,""smooth"",""left"",""left"",""good_move"",4373,2873.7,2415.9,1499.4,457.8,""oops"",""up"",""left"",""good_move"",10542.5,6169.2,1959.5,8264.9,318.1,""smooth"",""up"",""up"",""good_move"",12676.1,2133.3,1670.6,10542.8,462.7,""oops"",""up"",""right"",""bad_move"",18689.3,6012.7,1925.3,16411.2,352.8,""oops"",""up"",""down"",""bad_move"",21520.3,2830.8,2488.7,18689.5,342.1,""oops"",""left"",""left"",""good_move"",24557.9,3037.3,2760.3,21520.6,277,""oops"",""left"",""left"",""good_move"",27229,2670.9,2403.7,24558.2,267.2,""oops"",""up"",""down"",""bad_move"",30147.1,2917.6,2668,27229.6,249.5,""smooth"",""up"",""up"",""good_move"",33248.8,3101,2887,30147.8,214,""oops"",""up"",""up"",""good_move"",36048.1,2799,2506.8,33249.1,292.2,""smooth"",""up"",""up"",""good_move"",38336,2287.8,2037.6,36048.2,250.2,""while_blue"",""up"",""up"",""good_move""]","",""
"38008","","<div style=""width:500px;"">
  <p>What determined the result of this run?</p>
  </div>","43","html-slider-response","75","1239677","0.0-10.0-1.7","170","1","2025-07-02 10:23:05","80fe4187154257d5fb01684ea91b68b9","37.225.83.44","Mozilla/5.0 (Windows NT 10.0; Win64; x64) AppleWebKit/537.36 (KHTML, like Gecko) Chrome/137.0.0.0 Safari/537.36","WebKit","Chrome","137.0.0.0","Windows","10.0","https://app.prolific.com/","en-US,en;q=0.9,pl-PL;q=0.8,pl;q=0.7","603a293ee62ae15da2674441","683db6dfa200031b80f2a654","6865077bc46aa966522f723a","603a293ee62ae15da2674441","2025-07-02T10:43:46.734Z","","","","","","AttribQ","","","","","","","","","","","","","","","","","","","","","","","","","","","","","","","","","","","","","","50"
"1140","","<div style=""width:500px;"">
  <p>How much control did you have over the ball?</p>
  </div>","63","html-slider-response","76","1240819","0.0-10.0-2.7","170","1","2025-07-02 10:23:05","80fe4187154257d5fb01684ea91b68b9","37.225.83.44","Mozilla/5.0 (Windows NT 10.0; Win64; x64) AppleWebKit/537.36 (KHTML, like Gecko) Chrome/137.0.0.0 Safari/537.36","WebKit","Chrome","137.0.0.0","Windows","10.0","https://app.prolific.com/","en-US,en;q=0.9,pl-PL;q=0.8,pl;q=0.7","603a293ee62ae15da2674441","683db6dfa200031b80f2a654","6865077bc46aa966522f723a","603a293ee62ae15da2674441","2025-07-02T10:43:47.876Z","","","","","","ControlQ","","","","","","","","","","","","","","","","","","","","","","","","","","","","","","","","","","","","","","50"
"908","","<div style=""width:500px;"">
  <p>How would you describe your current emotional state?</p>
  </div>","22","html-slider-response","77","1241728","0.0-10.0-3.7","170","1","2025-07-02 10:23:05","80fe4187154257d5fb01684ea91b68b9","37.225.83.44","Mozilla/5.0 (Windows NT 10.0; Win64; x64) AppleWebKit/537.36 (KHTML, like Gecko) Chrome/137.0.0.0 Safari/537.36","WebKit","Chrome","137.0.0.0","Windows","10.0","https://app.prolific.com/","en-US,en;q=0.9,pl-PL;q=0.8,pl;q=0.7","603a293ee62ae15da2674441","683db6dfa200031b80f2a654","6865077bc46aa966522f723a","603a293ee62ae15da2674441","2025-07-02T10:43:48.785Z","","","","","","StressQ","","","","","","","","","","","","","","","","","","","","","","","","","","","","","","","","","","","","","","50"
"889","","<div style=""width:500px;"">
  <p>What best describes how you currently feel?</p>
  </div>","31","html-slider-response","78","1242618","0.0-10.0-4.7","170","1","2025-07-02 10:23:05","80fe4187154257d5fb01684ea91b68b9","37.225.83.44","Mozilla/5.0 (Windows NT 10.0; Win64; x64) AppleWebKit/537.36 (KHTML, like Gecko) Chrome/137.0.0.0 Safari/537.36","WebKit","Chrome","137.0.0.0","Windows","10.0","https://app.prolific.com/","en-US,en;q=0.9,pl-PL;q=0.8,pl;q=0.7","603a293ee62ae15da2674441","683db6dfa200031b80f2a654","6865077bc46aa966522f723a","603a293ee62ae15da2674441","2025-07-02T10:43:49.675Z","","","","","","MotivationQ","","","","","","","","","","","","","","","","","","","","","","","","","","","","","","","","","","","","","","50"
"","","","","ctl-task-cpt","79","1309356","0.0-10.0-0.8","170","1","2025-07-02 10:23:05","80fe4187154257d5fb01684ea91b68b9","37.225.83.44","Mozilla/5.0 (Windows NT 10.0; Win64; x64) AppleWebKit/537.36 (KHTML, like Gecko) Chrome/137.0.0.0 Safari/537.36","WebKit","Chrome","137.0.0.0","Windows","10.0","https://app.prolific.com/","en-US,en;q=0.9,pl-PL;q=0.8,pl;q=0.7","603a293ee62ae15da2674441","683db6dfa200031b80f2a654","6865077bc46aa966522f723a","603a293ee62ae15da2674441","2025-07-02T10:44:56.413Z","","","","","","","","","","","","","","","","win-only","1","g1:NE,g2:SW","0.4","9","0","1244781","968.9","5970.7","63715.8","1","4","8","6","2","-8","-10","35","45","0.26515151515151514","708.8","3000","-3010","[""down"",""left""]","{""num_key_presses"":14,""num_perfect"":5,""num_errors"":2,""num_randdir"":7,""num_randdir_good_moves"":2,""num_whilered"":0,""num_whileblue"":0,""num_blue"":5,""num_good_moves"":7}","[413.57142857142856,412.47767857142856,0.3,413.57142857142856,412.47767857142856,102,412.57142857142856,416.47767857142856,206.4,383.57142857142856,487.47767857142856,306.6,119.57142857142857,706.4776785714286,406.6,68.57142857142857,757.4776785714286,506.7,68.57142857142857,759.4776785714286,607.1,79.57142857142857,759.4776785714286,714.9,80.57142857142857,759.4776785714286,819,228.57142857142856,740.4776785714286,922.1,391.57142857142856,700.4776785714286,1027.4,391.57142857142856,700.4776785714286,1131.4,391.57142857142856,700.4776785714286,1236.5,391.57142857142856,700.4776785714286,1336.5,391.57142857142856,700.4776785714286,1437.9,391.57142857142856,700.4776785714286,1542.2,391.57142857142856,700.4776785714286,1642.3,391.57142857142856,700.4776785714286,1747.1,391.57142857142856,700.4776785714286,1851.6,391.57142857142856,700.4776785714286,1957.6,391.57142857142856,700.4776785714286,2061.2,391.57142857142856,700.4776785714286,2161.8,391.57142857142856,700.4776785714286,2262.3,391.57142857142856,700.4776785714286,2366.2,391.57142857142856,700.4776785714286,2467.1,391.57142857142856,700.4776785714286,2572.1,391.57142857142856,700.4776785714286,2678,391.57142857142856,700.4776785714286,2781.4,391.57142857142856,700.4776785714286,2882.1,391.57142857142856,700.4776785714286,2986.5,391.57142857142856,700.4776785714286,3086.7,391.57142857142856,700.4776785714286,3187.7,391.57142857142856,700.4776785714286,3291.7,391.57142857142856,700.4776785714286,3396.9,391.57142857142856,700.4776785714286,3501.6,391.57142857142856,700.4776785714286,3607,391.57142857142856,700.4776785714286,3711.4,391.57142857142856,700.4776785714286,3812.5,391.57142857142856,700.4776785714286,3917.8,391.57142857142856,700.4776785714286,4018.2,391.57142857142856,700.4776785714286,4121.6,391.57142857142856,700.4776785714286,4226.6,391.57142857142856,700.4776785714286,4327.7,391.57142857142856,700.4776785714286,4432.1,391.57142857142856,700.4776785714286,4532.4,391.57142857142856,700.4776785714286,4632.8,391.57142857142856,700.4776785714286,4736.9,391.57142857142856,700.4776785714286,4837.1,391.57142857142856,700.4776785714286,4937.3]","[1387.9,1387.9,1000,0,387.9,""oops"",""down"",""up"",""bad_move"",4352.6,2964.3,2704.8,1388.3,259.5,""oops"",""down"",""left"",""good_move"",7538.8,3185.8,2898.9,4353,286.9,""smooth"",""down"",""down"",""good_move"",9910.8,2371.7,2088.3,7539.1,283.4,""oops"",""down"",""right"",""bad_move"",12402,2490.7,2214.5,9911.3,276.2,""smooth"",""down"",""down"",""good_move"",15397.1,2994.9,2718.6,12402.2,276.3,""smooth"",""down"",""down"",""good_move"",26263.3,10865.9,3488.2,22465.9,309.2,""oops"",""left"",""up"",""bad_move"",28784.8,2521.2,2009.2,26263.6,512,""oops"",""left"",""right"",""bad_move"",31767.9,2982.8,2684.9,28785.1,297.9,""oops"",""down"",""up"",""bad_move"",40497.2,8729,2200.3,38000.2,296.7,""smooth"",""down"",""down"",""good_move"",43261.3,2763.8,2388.1,40497.5,375.7,""smooth"",""down"",""down"",""good_move"",46336.5,3074.8,2824.4,43261.7,250.4,""oops"",""left"",""down"",""good_move"",47202.5,865.8,2815.9,46336.8,-1950.2,""error"",""-"",""-"",""no_move"",49921.7,2718.9,2852.4,48205,-1135.7,""error"",""-"",""-"",""no_move""]","",""
"2560","","<div style=""width:500px;"">
  <p>What determined the result of this run?</p>
  </div>","0","html-slider-response","80","1311917","0.0-10.0-1.8","170","1","2025-07-02 10:23:05","80fe4187154257d5fb01684ea91b68b9","37.225.83.44","Mozilla/5.0 (Windows NT 10.0; Win64; x64) AppleWebKit/537.36 (KHTML, like Gecko) Chrome/137.0.0.0 Safari/537.36","WebKit","Chrome","137.0.0.0","Windows","10.0","https://app.prolific.com/","en-US,en;q=0.9,pl-PL;q=0.8,pl;q=0.7","603a293ee62ae15da2674441","683db6dfa200031b80f2a654","6865077bc46aa966522f723a","603a293ee62ae15da2674441","2025-07-02T10:44:58.974Z","","","","","","AttribQ","","","","","","","","","","","","","","","","","","","","","","","","","","","","","","","","","","","","","","50"
"2629","","<div style=""width:500px;"">
  <p>How much control did you have over the ball?</p>
  </div>","0","html-slider-response","81","1314547","0.0-10.0-2.8","170","1","2025-07-02 10:23:05","80fe4187154257d5fb01684ea91b68b9","37.225.83.44","Mozilla/5.0 (Windows NT 10.0; Win64; x64) AppleWebKit/537.36 (KHTML, like Gecko) Chrome/137.0.0.0 Safari/537.36","WebKit","Chrome","137.0.0.0","Windows","10.0","https://app.prolific.com/","en-US,en;q=0.9,pl-PL;q=0.8,pl;q=0.7","603a293ee62ae15da2674441","683db6dfa200031b80f2a654","6865077bc46aa966522f723a","603a293ee62ae15da2674441","2025-07-02T10:45:01.604Z","","","","","","ControlQ","","","","","","","","","","","","","","","","","","","","","","","","","","","","","","","","","","","","","","50"
"1768","","<div style=""width:500px;"">
  <p>How would you describe your current emotional state?</p>
  </div>","7","html-slider-response","82","1316316","0.0-10.0-3.8","170","1","2025-07-02 10:23:05","80fe4187154257d5fb01684ea91b68b9","37.225.83.44","Mozilla/5.0 (Windows NT 10.0; Win64; x64) AppleWebKit/537.36 (KHTML, like Gecko) Chrome/137.0.0.0 Safari/537.36","WebKit","Chrome","137.0.0.0","Windows","10.0","https://app.prolific.com/","en-US,en;q=0.9,pl-PL;q=0.8,pl;q=0.7","603a293ee62ae15da2674441","683db6dfa200031b80f2a654","6865077bc46aa966522f723a","603a293ee62ae15da2674441","2025-07-02T10:45:03.373Z","","","","","","StressQ","","","","","","","","","","","","","","","","","","","","","","","","","","","","","","","","","","","","","","50"
"1766","","<div style=""width:500px;"">
  <p>What best describes how you currently feel?</p>
  </div>","14","html-slider-response","83","1318083","0.0-10.0-4.8","170","1","2025-07-02 10:23:05","80fe4187154257d5fb01684ea91b68b9","37.225.83.44","Mozilla/5.0 (Windows NT 10.0; Win64; x64) AppleWebKit/537.36 (KHTML, like Gecko) Chrome/137.0.0.0 Safari/537.36","WebKit","Chrome","137.0.0.0","Windows","10.0","https://app.prolific.com/","en-US,en;q=0.9,pl-PL;q=0.8,pl;q=0.7","603a293ee62ae15da2674441","683db6dfa200031b80f2a654","6865077bc46aa966522f723a","603a293ee62ae15da2674441","2025-07-02T10:45:05.140Z","","","","","","MotivationQ","","","","","","","","","","","","","","","","","","","","","","","","","","","","","","","","","","","","","","50"
