"rt","response_timestamp","stimulus","response","trial_type","trial_index","time_elapsed","internal_node_id","run_id","condition","recorded_at","source_code_version","ip","user_agent","device","browser","browser_version","platform","platform_version","referer","accept_language","PROLIFIC_PID","STUDY_ID","SESSION_ID","prolific_id","realtime","view_history","question_order","consent","success","question_id","eventType","responses","item_order","radio_event_ids","radio_event_times","key_event_times","mouse_event_times","straightlining","zigzagging","honeypot","which_type","canvas_config","goals_layout","control_level","trial_number","tutorial_trial_number","trial_start_time","phase1_start_time","phase2_start_time","phase3_start_time","goal_1_value","goal_1_distance","goal_2_value","goal_2_distance","goal_selected","outcome","outcome_total","participant_final_score","participant_initial_score","participant_final_score_prop","goal_choice_rt","allocated_time","allocated_time_remaining","goal_direction","counts","mouse_movements","key_presses","correct","slider_start","sub_question"
"45491","1751451836812","<p style='font-size:40px;line-height:1.25'><strong>Welcome to the experiment!</strong></p><p style='font-size:1.1em;line-height:1.25'>Thank you for your interest in our experiment! Before you begin, it is important that we obtain your informed consent to participate in the study.</p><p style='font-size:1.1em;line-height:1.25'>On the next screen will be an <strong>information sheet</strong> for you to read. To participate in the study we need you to read this information sheet and the following consent form carefully. If you agree with all the statements, please click the <strong>I agree</strong> button.</p><p style='font-size:1.1em;line-height:1.25'>Press <strong>Next</strong> to read the information sheet.</p>","0","custom-html-button-response","0","45502","0.0-0.0","172","1","2025-07-02 10:23:09","80fe4187154257d5fb01684ea91b68b9","160.19.36.2","Mozilla/5.0 (Windows NT 10.0; Win64; x64) AppleWebKit/537.36 (KHTML, like Gecko) Chrome/109.0.0.0 Safari/537.36","WebKit","Chrome","109.0.0.0","Windows","10.0","https://app.prolific.com/","en-US,en;q=0.9","609b9e5b48f112f4cc38fb76","683db6dfa200031b80f2a654","6865076871653395530ac936","609b9e5b48f112f4cc38fb76","2025-07-02T10:23:56.821Z","","","","","","","","","","","","","","","","","","","","","","","","","","","","","","","","","","","","","","","","","","","","",""
"217788","","","","instructions","1","263298","0.0-1.0","172","1","2025-07-02 10:23:09","80fe4187154257d5fb01684ea91b68b9","160.19.36.2","Mozilla/5.0 (Windows NT 10.0; Win64; x64) AppleWebKit/537.36 (KHTML, like Gecko) Chrome/109.0.0.0 Safari/537.36","WebKit","Chrome","109.0.0.0","Windows","10.0","https://app.prolific.com/","en-US,en;q=0.9","609b9e5b48f112f4cc38fb76","683db6dfa200031b80f2a654","6865076871653395530ac936","609b9e5b48f112f4cc38fb76","","[{""page_index"":0,""viewing_time"":178567},{""page_index"":1,""viewing_time"":39218}]","","","","","","","","","","","","","","","","","","","","","","","","","","","","","","","","","","","","","","","","","","","",""
"24058","","","{""Q0"":"""",""Q1"":"""",""Q2"":"""",""Q3"":"""",""Q4"":"""",""Q5"":"""",""Q6"":""I agree""}","survey-multi-choice","2","287363","0.0-2.0","172","1","2025-07-02 10:23:09","80fe4187154257d5fb01684ea91b68b9","160.19.36.2","Mozilla/5.0 (Windows NT 10.0; Win64; x64) AppleWebKit/537.36 (KHTML, like Gecko) Chrome/109.0.0.0 Safari/537.36","WebKit","Chrome","109.0.0.0","Windows","10.0","https://app.prolific.com/","en-US,en;q=0.9","609b9e5b48f112f4cc38fb76","683db6dfa200031b80f2a654","6865076871653395530ac936","609b9e5b48f112f4cc38fb76","","","[0,1,2,3,4,5,6]","true","","","","","","","","","","","","","","","","","","","","","","","","","","","","","","","","","","","","","","","","","",""
"32979","","","","fullscreen","3","321383","0.0-4.0","172","1","2025-07-02 10:23:09","80fe4187154257d5fb01684ea91b68b9","160.19.36.2","Mozilla/5.0 (Windows NT 10.0; Win64; x64) AppleWebKit/537.36 (KHTML, like Gecko) Chrome/109.0.0.0 Safari/537.36","WebKit","Chrome","109.0.0.0","Windows","10.0","https://app.prolific.com/","en-US,en;q=0.9","609b9e5b48f112f4cc38fb76","683db6dfa200031b80f2a654","6865076871653395530ac936","609b9e5b48f112f4cc38fb76","","","","","true","","","","","","","","","","","","","","","","","","","","","","","","","","","","","","","","","","","","","","","","",""
"15340","1751452128043"," <p style='font-size:1.1em;line-height:1.25'>Thank you for completing the consent form and closing all other tabs.</p><p style='font-size:1.1em;line-height:1.25'>We will now invite you to fill in some demographic information and questionnaires, before starting the game.<br>This will take about 5 minutes.<br></p><p style='font-size:1.1em;line-height:1.25'>Press the <strong>Next</strong> button to continue.</p>","0","custom-html-button-response","4","336726","0.0-5.0","172","1","2025-07-02 10:23:09","80fe4187154257d5fb01684ea91b68b9","160.19.36.2","Mozilla/5.0 (Windows NT 10.0; Win64; x64) AppleWebKit/537.36 (KHTML, like Gecko) Chrome/109.0.0.0 Safari/537.36","WebKit","Chrome","109.0.0.0","Windows","10.0","https://app.prolific.com/","en-US,en;q=0.9","609b9e5b48f112f4cc38fb76","683db6dfa200031b80f2a654","6865076871653395530ac936","609b9e5b48f112f4cc38fb76","2025-07-02T10:28:48.045Z","","","","","","","","","","","","","","","","","","","","","","","","","","","","","","","","","","","","","","","","","","","","",""
"10814","","","{""age"":""35""}","survey-text","5","347553","0.0-6.0-0.0","172","1","2025-07-02 10:23:09","80fe4187154257d5fb01684ea91b68b9","160.19.36.2","Mozilla/5.0 (Windows NT 10.0; Win64; x64) AppleWebKit/537.36 (KHTML, like Gecko) Chrome/109.0.0.0 Safari/537.36","WebKit","Chrome","109.0.0.0","Windows","10.0","https://app.prolific.com/","en-US,en;q=0.9","609b9e5b48f112f4cc38fb76","683db6dfa200031b80f2a654","6865076871653395530ac936","609b9e5b48f112f4cc38fb76","","","","","","0","demographics","","","","","","","","","","","","","","","","","","","","","","","","","","","","","","","","","","","","","","",""
"6302","","","{""gender_identity"":""female/woman""}","survey-multi-choice","6","353858","0.0-6.0-1.0","172","1","2025-07-02 10:23:09","80fe4187154257d5fb01684ea91b68b9","160.19.36.2","Mozilla/5.0 (Windows NT 10.0; Win64; x64) AppleWebKit/537.36 (KHTML, like Gecko) Chrome/109.0.0.0 Safari/537.36","WebKit","Chrome","109.0.0.0","Windows","10.0","https://app.prolific.com/","en-US,en;q=0.9","609b9e5b48f112f4cc38fb76","683db6dfa200031b80f2a654","6865076871653395530ac936","609b9e5b48f112f4cc38fb76","","","[0]","","","1","demographics","","","","","","","","","","","","","","","","","","","","","","","","","","","","","","","","","","","","","","",""
"7991","","","{""assigned_sex"":""female""}","survey-multi-choice","7","361862","0.0-6.0-2.0","172","1","2025-07-02 10:23:09","80fe4187154257d5fb01684ea91b68b9","160.19.36.2","Mozilla/5.0 (Windows NT 10.0; Win64; x64) AppleWebKit/537.36 (KHTML, like Gecko) Chrome/109.0.0.0 Safari/537.36","WebKit","Chrome","109.0.0.0","Windows","10.0","https://app.prolific.com/","en-US,en;q=0.9","609b9e5b48f112f4cc38fb76","683db6dfa200031b80f2a654","6865076871653395530ac936","609b9e5b48f112f4cc38fb76","","","[0]","","","2","demographics","","","","","","","","","","","","","","","","","","","","","","","","","","","","","","","","","","","","","","",""
"11656","","","{""menstrual_cycle"":""Yes""}","survey-multi-choice","8","373530","0.0-6.0-3.0","172","1","2025-07-02 10:23:09","80fe4187154257d5fb01684ea91b68b9","160.19.36.2","Mozilla/5.0 (Windows NT 10.0; Win64; x64) AppleWebKit/537.36 (KHTML, like Gecko) Chrome/109.0.0.0 Safari/537.36","WebKit","Chrome","109.0.0.0","Windows","10.0","https://app.prolific.com/","en-US,en;q=0.9","609b9e5b48f112f4cc38fb76","683db6dfa200031b80f2a654","6865076871653395530ac936","609b9e5b48f112f4cc38fb76","","","[0]","","","4","demographics","","","","","","","","","","","","","","","","","","","","","","","","","","","","","","","","","","","","","","",""
"19962","","","{""education"":""Higher National Diploma""}","survey-multi-choice","9","393493","0.0-6.0-4.0","172","1","2025-07-02 10:23:09","80fe4187154257d5fb01684ea91b68b9","160.19.36.2","Mozilla/5.0 (Windows NT 10.0; Win64; x64) AppleWebKit/537.36 (KHTML, like Gecko) Chrome/109.0.0.0 Safari/537.36","WebKit","Chrome","109.0.0.0","Windows","10.0","https://app.prolific.com/","en-US,en;q=0.9","609b9e5b48f112f4cc38fb76","683db6dfa200031b80f2a654","6865076871653395530ac936","609b9e5b48f112f4cc38fb76","","","[0]","","","5","demographics","","","","","","","","","","","","","","","","","","","","","","","","","","","","","","","","","","","","","","",""
"20030","","","{""education"":""Higher National Certificate""}","survey-multi-choice","10","413537","0.0-6.0-5.0","172","1","2025-07-02 10:23:09","80fe4187154257d5fb01684ea91b68b9","160.19.36.2","Mozilla/5.0 (Windows NT 10.0; Win64; x64) AppleWebKit/537.36 (KHTML, like Gecko) Chrome/109.0.0.0 Safari/537.36","WebKit","Chrome","109.0.0.0","Windows","10.0","https://app.prolific.com/","en-US,en;q=0.9","609b9e5b48f112f4cc38fb76","683db6dfa200031b80f2a654","6865076871653395530ac936","609b9e5b48f112f4cc38fb76","2025-07-02T10:30:04.856Z","","[0]","","","6","demographics","","","","","","","","","","","","","","","","","","","","","","","","","","","","","","","","","","","","","","",""
"53157","","","{""mental_health_condition"":""No."",""mental_health_treatment"":""No."",""psychiatric_medication"":""N/A""}","survey-text","11","466729","0.0-7.0-0.0","172","1","2025-07-02 10:23:09","80fe4187154257d5fb01684ea91b68b9","160.19.36.2","Mozilla/5.0 (Windows NT 10.0; Win64; x64) AppleWebKit/537.36 (KHTML, like Gecko) Chrome/109.0.0.0 Safari/537.36","WebKit","Chrome","109.0.0.0","Windows","10.0","https://app.prolific.com/","en-US,en;q=0.9","609b9e5b48f112f4cc38fb76","683db6dfa200031b80f2a654","6865076871653395530ac936","609b9e5b48f112f4cc38fb76","2025-07-02T10:30:58.047Z","","","","","1","mental_health","","","","","","","","","","","","","","","","","","","","","","","","","","","","","","","","","","","","","","",""
"17901","","","{""depression_history"":[""No""]}","survey-multi-select","12","484642","0.0-7.0-1.0","172","1","2025-07-02 10:23:09","80fe4187154257d5fb01684ea91b68b9","160.19.36.2","Mozilla/5.0 (Windows NT 10.0; Win64; x64) AppleWebKit/537.36 (KHTML, like Gecko) Chrome/109.0.0.0 Safari/537.36","WebKit","Chrome","109.0.0.0","Windows","10.0","https://app.prolific.com/","en-US,en;q=0.9","609b9e5b48f112f4cc38fb76","683db6dfa200031b80f2a654","6865076871653395530ac936","609b9e5b48f112f4cc38fb76","","","[0]","","","","mental_health","","","","","","","","","","","","","","","","","","","","","","","","","","","","","","","","","","","","","","",""
"127926.70000000112","","","","survey-template","13","612582","0.0-7.0-3.0","172","1","2025-07-02 10:23:09","80fe4187154257d5fb01684ea91b68b9","160.19.36.2","Mozilla/5.0 (Windows NT 10.0; Win64; x64) AppleWebKit/537.36 (KHTML, like Gecko) Chrome/109.0.0.0 Safari/537.36","WebKit","Chrome","109.0.0.0","Windows","10.0","https://app.prolific.com/","en-US,en;q=0.9","609b9e5b48f112f4cc38fb76","683db6dfa200031b80f2a654","6865076871653395530ac936","609b9e5b48f112f4cc38fb76","2025-07-02T10:33:23.901Z","","","","","","ius","{""Q01"":""3"",""Q02"":""2"",""Q03"":""3"",""Q04"":""3"",""Q05"":""3"",""Q06"":""3"",""Q07"":""4"",""Q08"":""0"",""Q09"":""3"",""Q10"":""3"",""Q11"":""2"",""Q12"":""4"",""Q13"":""2""}","[0,1,2,3,4,5,6,7,8,9,10,11,12]","[""Q01"",""Q02"",""Q03"",""Q04"",""Q05"",""Q06"",""Q07"",""Q08"",""Q09"",""Q10"",""Q11"",""Q12"",""Q13""]","[16546.10000000149,26746.60000000149,33119.70000000112,37093.800000000745,43264,58948.300000000745,62995.20000000112,68954,90439.10000000149,98538.60000000149,106742.80000000075,110757.5,119370]","[]","[16546.10000000149,26746.60000000149,33119.70000000112,37093.800000000745,43264,58948.300000000745,62995.20000000112,68954,90439.10000000149,98538.60000000149,106742.80000000075,110757.5,119370,127921.60000000149]","0.5384615384615384","0.4166666666666667","0","","","","","","","","","","","","","","","","","","","","","","","","","","","","","",""
"6697","1751452410612","<p style='font-size:1.1em;line-height:1.25'>In the following, we will ask you a few questions relating to your experiences over the past month.<br></p><p style='font-size:1.1em;line-height:1.25'>Press the <strong>Next</strong> button to continue.</p>","0","custom-html-button-response","14","619296","0.0-7.0-4.0","172","1","2025-07-02 10:23:09","80fe4187154257d5fb01684ea91b68b9","160.19.36.2","Mozilla/5.0 (Windows NT 10.0; Win64; x64) AppleWebKit/537.36 (KHTML, like Gecko) Chrome/109.0.0.0 Safari/537.36","WebKit","Chrome","109.0.0.0","Windows","10.0","https://app.prolific.com/","en-US,en;q=0.9","609b9e5b48f112f4cc38fb76","683db6dfa200031b80f2a654","6865076871653395530ac936","609b9e5b48f112f4cc38fb76","2025-07-02T10:33:30.615Z","","","","","","","","","","","","","","","","","","","","","","","","","","","","","","","","","","","","","","","","","","","","",""
"129094.59999999963","","","","survey-template","15","748403","0.0-7.0-5.0","172","1","2025-07-02 10:23:09","80fe4187154257d5fb01684ea91b68b9","160.19.36.2","Mozilla/5.0 (Windows NT 10.0; Win64; x64) AppleWebKit/537.36 (KHTML, like Gecko) Chrome/109.0.0.0 Safari/537.36","WebKit","Chrome","109.0.0.0","Windows","10.0","https://app.prolific.com/","en-US,en;q=0.9","609b9e5b48f112f4cc38fb76","683db6dfa200031b80f2a654","6865076871653395530ac936","609b9e5b48f112f4cc38fb76","2025-07-02T10:35:39.722Z","","","","","","pss","{""Q01"":""2"",""Q02"":""2"",""Q03"":""2"",""Q04"":""1"",""Q05"":""1"",""Q06"":""1"",""Q07"":""2"",""Q08"":""1"",""Q09"":""2"",""Q10"":""1""}","[0,1,2,3,4,5,6,7,8,9]","[""Q01"",""Q02"",""Q03"",""Q04"",""Q05"",""Q06"",""Q06"",""Q07"",""Q08"",""Q09"",""Q10""]","[18035.199999999255,25164.299999998882,31241,38369,46789.39999999851,63578.09999999963,80158.09999999963,91900,101157.89999999851,109343.69999999925,126738.79999999888]","[]","[0.09999999962747097,18035.199999999255,25164.299999998882,31241,38369,46789.39999999851,63578.09999999963,80158.09999999963,91900,101157.89999999851,109343.69999999925,126738.79999999888,129091.19999999925]","0.5","0.5555555555555556","0","","","","","","","","","","","","","","","","","","","","","","","","","","","","","",""
"7206","1751452546941","<p style='font-size:1.1em;line-height:1.25'>Thank you for your answers! Now we will ask you a few more questions relating to your feelings in the last 24 hours.<br></p><p style='font-size:1.1em;line-height:1.25'>Press the <strong>Next</strong> button to continue.</p>","0","custom-html-button-response","16","755625","0.0-7.0-6.0","172","1","2025-07-02 10:23:09","80fe4187154257d5fb01684ea91b68b9","160.19.36.2","Mozilla/5.0 (Windows NT 10.0; Win64; x64) AppleWebKit/537.36 (KHTML, like Gecko) Chrome/109.0.0.0 Safari/537.36","WebKit","Chrome","109.0.0.0","Windows","10.0","https://app.prolific.com/","en-US,en;q=0.9","609b9e5b48f112f4cc38fb76","683db6dfa200031b80f2a654","6865076871653395530ac936","609b9e5b48f112f4cc38fb76","2025-07-02T10:35:46.944Z","","","","","","","","","","","","","","","","","","","","","","","","","","","","","","","","","","","","","","","","","","","","",""
"131609.80000000075","","","","survey-template","17","887253","0.0-7.0-7.0","172","1","2025-07-02 10:23:09","80fe4187154257d5fb01684ea91b68b9","160.19.36.2","Mozilla/5.0 (Windows NT 10.0; Win64; x64) AppleWebKit/537.36 (KHTML, like Gecko) Chrome/109.0.0.0 Safari/537.36","WebKit","Chrome","109.0.0.0","Windows","10.0","https://app.prolific.com/","en-US,en;q=0.9","609b9e5b48f112f4cc38fb76","683db6dfa200031b80f2a654","6865076871653395530ac936","609b9e5b48f112f4cc38fb76","2025-07-02T10:37:58.571Z","","","","","","drsp","{""Q01"":""0"",""Q02"":""0"",""Q03"":""0"",""Q04"":""2"",""Q05"":""0"",""Q06"":""0"",""Q07"":""0"",""Q08"":""0"",""Q09"":""0"",""Q10"":""1"",""Q11"":""3"",""Q12"":""1"",""Q13"":""4"",""Q14"":""0"",""Q15"":""3"",""Q16"":""2"",""Q17"":""0"",""Q18"":""4"",""Q19"":""3"",""Q20"":""3"",""Q21"":""1""}","[0,1,2,3,4,5,6,7,8,9,10,11,12,13,14,15,16,17,18,19,20]","[""Q01"",""Q02"",""Q03"",""Q04"",""Q05"",""Q06"",""Q07"",""Q08"",""Q09"",""Q10"",""Q11"",""Q12"",""Q13"",""Q14"",""Q15"",""Q16"",""Q17"",""Q18"",""Q19"",""Q20"",""Q21""]","[4460.60000000149,6713.200000001118,10420.200000001118,14859.200000001118,21158.300000000745,25888.60000000149,29365.700000001118,32053.800000000745,39872.10000000149,43004.800000000745,51187.70000000112,57831.70000000112,62332.10000000149,70310.90000000037,77418.30000000075,83448.60000000149,92088.10000000149,98983.5,112383,117569.90000000037,126690.90000000037]","[]","[0.10000000149011612,4460.60000000149,6713.200000001118,10420.200000001118,14859.200000001118,21158.300000000745,25888.60000000149,29365.700000001118,32053.800000000745,39872.10000000149,43004.800000000745,51187.70000000112,57831.70000000112,62332.10000000149,70310.90000000037,77418.30000000075,83448.60000000149,92088.10000000149,98983.5,112383,117569.90000000037,126690.90000000037,131601]","0.47619047619047616","0.15","0","","","","","","","","","","","","","","","","","","","","","","","","","","","","","",""
"24512.300000000745","","","","survey-template","18","911784","0.0-7.0-8.0","172","1","2025-07-02 10:23:09","80fe4187154257d5fb01684ea91b68b9","160.19.36.2","Mozilla/5.0 (Windows NT 10.0; Win64; x64) AppleWebKit/537.36 (KHTML, like Gecko) Chrome/109.0.0.0 Safari/537.36","WebKit","Chrome","109.0.0.0","Windows","10.0","https://app.prolific.com/","en-US,en;q=0.9","609b9e5b48f112f4cc38fb76","683db6dfa200031b80f2a654","6865076871653395530ac936","609b9e5b48f112f4cc38fb76","2025-07-02T10:38:23.102Z","","","","","","stress","{""Q01"":""3"",""Q02"":""1"",""Q03"":""0""}","[0,1,2]","[""Q01"",""Q02"",""Q03""]","[11557.200000001118,16893.300000000745,22430.099999999627]","[]","[11557.200000001118,16893.300000000745,22430.099999999627,24511.099999999627]","0.3333333333333333","0.5","0","","","","","","","","","","","","","","","","","","","","","","","","","","","","","",""
"262981","","","","instructions","19","1174789","0.0-8.0-0.0","172","1","2025-07-02 10:23:09","80fe4187154257d5fb01684ea91b68b9","160.19.36.2","Mozilla/5.0 (Windows NT 10.0; Win64; x64) AppleWebKit/537.36 (KHTML, like Gecko) Chrome/109.0.0.0 Safari/537.36","WebKit","Chrome","109.0.0.0","Windows","10.0","https://app.prolific.com/","en-US,en;q=0.9","609b9e5b48f112f4cc38fb76","683db6dfa200031b80f2a654","6865076871653395530ac936","609b9e5b48f112f4cc38fb76","","[{""page_index"":0,""viewing_time"":137924},{""page_index"":1,""viewing_time"":52714},{""page_index"":2,""viewing_time"":39600},{""page_index"":3,""viewing_time"":32743}]","","","","","","","","","","","","","","","","","","","","","","","","","","","","","","","","","","","","","","","","","","","",""
"","","","","ctl-task-cpt","20","1216183","0.0-8.0-1.0","172","1","2025-07-02 10:23:09","80fe4187154257d5fb01684ea91b68b9","160.19.36.2","Mozilla/5.0 (Windows NT 10.0; Win64; x64) AppleWebKit/537.36 (KHTML, like Gecko) Chrome/109.0.0.0 Safari/537.36","WebKit","Chrome","109.0.0.0","Windows","10.0","https://app.prolific.com/","en-US,en;q=0.9","609b9e5b48f112f4cc38fb76","683db6dfa200031b80f2a654","6865076871653395530ac936","609b9e5b48f112f4cc38fb76","","","","","","","","","","","","","","","","","win-only","0","g1:NW,g2:SE","1","0","1","1177581.9","7124.2","11127.5","38379.4","2","4","4","6","2","-4","-9","0","0","0","4003.2","4000","-2530","[""down"",""right""]","{""num_key_presses"":16,""num_perfect"":5,""num_errors"":5,""num_randdir"":0,""num_randdir_good_moves"":0,""num_whilered"":6,""num_whileblue"":1,""num_blue"":1,""num_good_moves"":5}","[295.22232142857143,295.12857142857143,0.6,295.22232142857143,295.12857142857143,110,295.22232142857143,295.12857142857143,218.6,295.22232142857143,295.12857142857143,320.2,295.22232142857143,295.12857142857143,422.5,295.22232142857143,295.12857142857143,524.4,295.22232142857143,295.12857142857143,626.8,295.22232142857143,295.12857142857143,727.7,295.22232142857143,295.12857142857143,834.6,295.22232142857143,295.12857142857143,937.4,295.22232142857143,295.12857142857143,1038.4,295.22232142857143,295.12857142857143,1140.2,295.22232142857143,295.12857142857143,1243.9,295.22232142857143,295.12857142857143,1353.1,295.22232142857143,295.12857142857143,1458.7,295.22232142857143,295.12857142857143,1563.3,295.22232142857143,295.12857142857143,1665,295.22232142857143,295.12857142857143,1766.2,295.22232142857143,295.12857142857143,1870.4,295.22232142857143,295.12857142857143,1978.8,295.22232142857143,295.12857142857143,2080.1,295.22232142857143,295.12857142857143,2186.2,295.22232142857143,295.12857142857143,2287.6,295.22232142857143,295.12857142857143,2390.1,295.22232142857143,295.12857142857143,2494.1,295.22232142857143,295.12857142857143,2594.8,295.22232142857143,295.12857142857143,2696.9,295.22232142857143,295.12857142857143,2797.7,295.22232142857143,295.12857142857143,2898.7,295.22232142857143,295.12857142857143,3002.8,295.22232142857143,295.12857142857143,3103.2,295.22232142857143,295.12857142857143,3206.7,295.22232142857143,295.12857142857143,3309.8,295.22232142857143,295.12857142857143,3410.7,295.22232142857143,295.12857142857143,3514.9,295.22232142857143,295.12857142857143,3618.7,295.22232142857143,295.12857142857143,3724.2,295.22232142857143,295.12857142857143,3827.1,295.22232142857143,295.12857142857143,3928.3]","[462.1,462,1000,0.2,-538.1,""error"",""-"",""-"",""no_move"",5028.3,4565.8,2198.4,1463.7,1366.3,""smooth"",""down"",""down"",""good_move"",5169,138.9,3204.1,5030.1,-3065.2,""error"",""-"",""-"",""no_move"",5310.8,141.3,3204.1,5030.1,-2923.4,""while_red"",""-"",""-"",""no_move"",5444.8,275.3,3204.1,5030.1,-2789.4,""while_red"",""-"",""-"",""no_move"",5594.1,424.6,3204.1,5030.1,-2640.1,""while_red"",""-"",""-"",""no_move"",5720,550.5,3204.1,5030.1,-2514.1,""while_red"",""-"",""-"",""no_move"",5859.7,690.2,3204.1,5030.1,-2374.5,""while_red"",""-"",""-"",""no_move"",9796.5,4627.1,2618.1,6170,1008.5,""smooth"",""down"",""down"",""good_move"",10148.5,351.1,2266.4,9797.4,-1915,""error"",""-"",""-"",""no_move"",10319,168.5,2266.4,9797.4,-1744.7,""while_red"",""-"",""-"",""no_move"",14230.8,4080.3,2554.4,11159.9,516.5,""smooth"",""down"",""down"",""good_move"",14551.3,319.9,2387.9,14231.4,-2068,""error"",""-"",""-"",""no_move"",18368.7,3816.8,2367.2,15553.5,448.1,""while_blue"",""right"",""up"",""bad_move"",21717.4,3346.4,2288.2,18371.1,1058.1,""smooth"",""down"",""down"",""good_move"",25205.4,3487.6,2957.6,21717.9,529.9,""smooth"",""right"",""right"",""good_move""]","","",""
"36633","","","","instructions","21","1252824","0.0-8.0-2.0","172","1","2025-07-02 10:23:09","80fe4187154257d5fb01684ea91b68b9","160.19.36.2","Mozilla/5.0 (Windows NT 10.0; Win64; x64) AppleWebKit/537.36 (KHTML, like Gecko) Chrome/109.0.0.0 Safari/537.36","WebKit","Chrome","109.0.0.0","Windows","10.0","https://app.prolific.com/","en-US,en;q=0.9","609b9e5b48f112f4cc38fb76","683db6dfa200031b80f2a654","6865076871653395530ac936","609b9e5b48f112f4cc38fb76","","[{""page_index"":0,""viewing_time"":36633}]","","","","","","","","","","","","","","","","","","","","","","","","","","","","","","","","","","","","","","","","","","","",""
"","","","","ctl-task-cpt","22","1283271","0.0-8.0-3.0","172","1","2025-07-02 10:23:09","80fe4187154257d5fb01684ea91b68b9","160.19.36.2","Mozilla/5.0 (Windows NT 10.0; Win64; x64) AppleWebKit/537.36 (KHTML, like Gecko) Chrome/109.0.0.0 Safari/537.36","WebKit","Chrome","109.0.0.0","Windows","10.0","https://app.prolific.com/","en-US,en;q=0.9","609b9e5b48f112f4cc38fb76","683db6dfa200031b80f2a654","6865076871653395530ac936","609b9e5b48f112f4cc38fb76","","","","","","","","","","","","","","","","","win-only","0","g1:NW,g2:SE","0.35","0","3","1255605.6","6951.5","10952.9","27439.5","2","4","8","6","2","-8","-8","0","0","0","4001.4","4000","-2910","[""down"",""right""]","{""num_key_presses"":5,""num_perfect"":1,""num_errors"":0,""num_randdir"":4,""num_randdir_good_moves"":2,""num_whilered"":0,""num_whileblue"":0,""num_blue"":0,""num_good_moves"":3}","[296.22232142857143,296.12857142857143,0.4,296.22232142857143,296.12857142857143,102.4,296.22232142857143,296.12857142857143,209.9,296.22232142857143,296.12857142857143,312.3,296.22232142857143,296.12857142857143,414.7,296.22232142857143,296.12857142857143,517.2,296.22232142857143,296.12857142857143,618.1,296.22232142857143,296.12857142857143,718.7,296.22232142857143,296.12857142857143,821.6,296.22232142857143,296.12857142857143,927.4,296.22232142857143,296.12857142857143,1033.4,296.22232142857143,296.12857142857143,1135.9,296.22232142857143,296.12857142857143,1241.6,296.22232142857143,296.12857142857143,1343,296.22232142857143,296.12857142857143,1444.6,296.22232142857143,296.12857142857143,1546.1,296.22232142857143,296.12857142857143,1646.1,296.22232142857143,296.12857142857143,1752.7,296.22232142857143,296.12857142857143,1858.5,296.22232142857143,296.12857142857143,1959.9,296.22232142857143,296.12857142857143,2060.8,296.22232142857143,296.12857142857143,2165.3,296.22232142857143,296.12857142857143,2265.3,296.22232142857143,296.12857142857143,2365.4,296.22232142857143,296.12857142857143,2470.6,296.22232142857143,296.12857142857143,2575.4,296.22232142857143,296.12857142857143,2675.9,296.22232142857143,296.12857142857143,2777.2,296.22232142857143,296.12857142857143,2879.7,296.22232142857143,296.12857142857143,2984.3,296.22232142857143,296.12857142857143,3084.7,296.22232142857143,296.12857142857143,3187.4,296.22232142857143,296.12857142857143,3288.9,296.22232142857143,296.12857142857143,3393.1,296.22232142857143,296.12857142857143,3495.9,296.22232142857143,296.12857142857143,3599.5,296.22232142857143,296.12857142857143,3699.6,296.22232142857143,296.12857142857143,3806.1,296.22232142857143,296.12857142857143,3909.3]","[1410.8,1410.8,1000,0,410.8,""oops"",""down"",""left"",""bad_move"",5732.5,4320.2,3022.9,1412.4,1297.4,""smooth"",""down"",""down"",""good_move"",7912.2,2179.2,1698.3,5733.1,480.9,""oops"",""down"",""right"",""good_move"",10807.7,2894.8,2416.6,7913.2,478,""oops"",""down"",""left"",""bad_move"",14004.2,3195.6,2559.1,10808.6,636.6,""oops"",""down"",""right"",""good_move""]","","",""
"81315","","","","instructions","23","1364588","0.0-8.0-4.0","172","1","2025-07-02 10:23:09","80fe4187154257d5fb01684ea91b68b9","160.19.36.2","Mozilla/5.0 (Windows NT 10.0; Win64; x64) AppleWebKit/537.36 (KHTML, like Gecko) Chrome/109.0.0.0 Safari/537.36","WebKit","Chrome","109.0.0.0","Windows","10.0","https://app.prolific.com/","en-US,en;q=0.9","609b9e5b48f112f4cc38fb76","683db6dfa200031b80f2a654","6865076871653395530ac936","609b9e5b48f112f4cc38fb76","","[{""page_index"":0,""viewing_time"":26947},{""page_index"":1,""viewing_time"":54367}]","","","","","","","","","","","","","","","","","","","","","","","","","","","","","","","","","","","","","","","","","","","",""
"44340","","","{""green_ball"":[""Ball always moves in the direction I press""]}","survey-multi-select","24","1408936","0.0-8.0-5.0-0.0","172","1","2025-07-02 10:23:09","80fe4187154257d5fb01684ea91b68b9","160.19.36.2","Mozilla/5.0 (Windows NT 10.0; Win64; x64) AppleWebKit/537.36 (KHTML, like Gecko) Chrome/109.0.0.0 Safari/537.36","WebKit","Chrome","109.0.0.0","Windows","10.0","https://app.prolific.com/","en-US,en;q=0.9","609b9e5b48f112f4cc38fb76","683db6dfa200031b80f2a654","6865076871653395530ac936","609b9e5b48f112f4cc38fb76","","","[0]","","","","quiz","","","","","","","","","","","","","","","","","","","","","","","","","","","","","","","","","","","","","false","",""
"7590","","<p align='center'><b>INCORRECT.</b> Usually the green ball moves in the indicated direction, but sometimes it shakes and moves randomly. </p>","0","html-button-response","25","1416543","0.0-8.0-5.0-1.0","172","1","2025-07-02 10:23:09","80fe4187154257d5fb01684ea91b68b9","160.19.36.2","Mozilla/5.0 (Windows NT 10.0; Win64; x64) AppleWebKit/537.36 (KHTML, like Gecko) Chrome/109.0.0.0 Safari/537.36","WebKit","Chrome","109.0.0.0","Windows","10.0","https://app.prolific.com/","en-US,en;q=0.9","609b9e5b48f112f4cc38fb76","683db6dfa200031b80f2a654","6865076871653395530ac936","609b9e5b48f112f4cc38fb76","","","","","","","","","","","","","","","","","","","","","","","","","","","","","","","","","","","","","","","","","","","","","",""
"19058","","","{""green_ball"":[""Ball sometimes shakes and moves in a random direction""]}","survey-multi-select","26","1435613","0.0-8.0-5.1-0.1","172","1","2025-07-02 10:23:09","80fe4187154257d5fb01684ea91b68b9","160.19.36.2","Mozilla/5.0 (Windows NT 10.0; Win64; x64) AppleWebKit/537.36 (KHTML, like Gecko) Chrome/109.0.0.0 Safari/537.36","WebKit","Chrome","109.0.0.0","Windows","10.0","https://app.prolific.com/","en-US,en;q=0.9","609b9e5b48f112f4cc38fb76","683db6dfa200031b80f2a654","6865076871653395530ac936","609b9e5b48f112f4cc38fb76","","","[0]","","","","quiz","","","","","","","","","","","","","","","","","","","","","","","","","","","","","","","","","","","","","true","",""
"18477","","<p align='center'><b>CORRECT!</b> Indeed, the green ball may sometimes shake and move in a random direction.</p>","0","html-button-response","27","1454105","0.0-8.0-5.1-1.1","172","1","2025-07-02 10:23:09","80fe4187154257d5fb01684ea91b68b9","160.19.36.2","Mozilla/5.0 (Windows NT 10.0; Win64; x64) AppleWebKit/537.36 (KHTML, like Gecko) Chrome/109.0.0.0 Safari/537.36","WebKit","Chrome","109.0.0.0","Windows","10.0","https://app.prolific.com/","en-US,en;q=0.9","609b9e5b48f112f4cc38fb76","683db6dfa200031b80f2a654","6865076871653395530ac936","609b9e5b48f112f4cc38fb76","","","","","","","","","","","","","","","","","","","","","","","","","","","","","","","","","","","","","","","","","","","","","",""
"22661","","","{""yellow_ball"":[""Ball doesn‘t move and I get -1 penalty point""]}","survey-multi-select","28","1476774","0.0-8.0-6.0-0.0","172","1","2025-07-02 10:23:09","80fe4187154257d5fb01684ea91b68b9","160.19.36.2","Mozilla/5.0 (Windows NT 10.0; Win64; x64) AppleWebKit/537.36 (KHTML, like Gecko) Chrome/109.0.0.0 Safari/537.36","WebKit","Chrome","109.0.0.0","Windows","10.0","https://app.prolific.com/","en-US,en;q=0.9","609b9e5b48f112f4cc38fb76","683db6dfa200031b80f2a654","6865076871653395530ac936","609b9e5b48f112f4cc38fb76","","","[0]","","","","quiz","","","","","","","","","","","","","","","","","","","","","","","","","","","","","","","","","","","","","true","",""
"3795","","<p align='center'><b>CORRECT!</b> Indeed, the yellow ball never moves and you receive a penalty.</p>","0","html-button-response","29","1480584","0.0-8.0-6.0-1.0","172","1","2025-07-02 10:23:09","80fe4187154257d5fb01684ea91b68b9","160.19.36.2","Mozilla/5.0 (Windows NT 10.0; Win64; x64) AppleWebKit/537.36 (KHTML, like Gecko) Chrome/109.0.0.0 Safari/537.36","WebKit","Chrome","109.0.0.0","Windows","10.0","https://app.prolific.com/","en-US,en;q=0.9","609b9e5b48f112f4cc38fb76","683db6dfa200031b80f2a654","6865076871653395530ac936","609b9e5b48f112f4cc38fb76","","","","","","","","","","","","","","","","","","","","","","","","","","","","","","","","","","","","","","","","","","","","","",""
"24142","","","{""blue_ball"":[""Ball always shakes and moves in a random direction""]}","survey-multi-select","30","1504731","0.0-8.0-7.0-0.0","172","1","2025-07-02 10:23:09","80fe4187154257d5fb01684ea91b68b9","160.19.36.2","Mozilla/5.0 (Windows NT 10.0; Win64; x64) AppleWebKit/537.36 (KHTML, like Gecko) Chrome/109.0.0.0 Safari/537.36","WebKit","Chrome","109.0.0.0","Windows","10.0","https://app.prolific.com/","en-US,en;q=0.9","609b9e5b48f112f4cc38fb76","683db6dfa200031b80f2a654","6865076871653395530ac936","609b9e5b48f112f4cc38fb76","","","[0]","","","","quiz","","","","","","","","","","","","","","","","","","","","","","","","","","","","","","","","","","","","","true","",""
"5366","","<p align='center'><b>CORRECT!</b> Indeed, the blue ball always shakes and moves in a random direction. Also there is a penalty of -1 point.</p>","0","html-button-response","31","1510113","0.0-8.0-7.0-1.0","172","1","2025-07-02 10:23:09","80fe4187154257d5fb01684ea91b68b9","160.19.36.2","Mozilla/5.0 (Windows NT 10.0; Win64; x64) AppleWebKit/537.36 (KHTML, like Gecko) Chrome/109.0.0.0 Safari/537.36","WebKit","Chrome","109.0.0.0","Windows","10.0","https://app.prolific.com/","en-US,en;q=0.9","609b9e5b48f112f4cc38fb76","683db6dfa200031b80f2a654","6865076871653395530ac936","609b9e5b48f112f4cc38fb76","","","","","","","","","","","","","","","","","","","","","","","","","","","","","","","","","","","","","","","","","","","","","",""
"9796","","","{""bonus"":[""When I reach 50% of points""]}","survey-multi-select","32","1519917","0.0-8.0-8.0-0.0","172","1","2025-07-02 10:23:09","80fe4187154257d5fb01684ea91b68b9","160.19.36.2","Mozilla/5.0 (Windows NT 10.0; Win64; x64) AppleWebKit/537.36 (KHTML, like Gecko) Chrome/109.0.0.0 Safari/537.36","WebKit","Chrome","109.0.0.0","Windows","10.0","https://app.prolific.com/","en-US,en;q=0.9","609b9e5b48f112f4cc38fb76","683db6dfa200031b80f2a654","6865076871653395530ac936","609b9e5b48f112f4cc38fb76","","","[0]","","","","quiz","","","","","","","","","","","","","","","","","","","","","","","","","","","","","","","","","","","","","true","",""
"3615","","<p align='center'><b>CORRECT!</b> Indeed, you receive 2 pounds extra when you reach 50% of points.</p>","0","html-button-response","33","1523546","0.0-8.0-8.0-1.0","172","1","2025-07-02 10:23:09","80fe4187154257d5fb01684ea91b68b9","160.19.36.2","Mozilla/5.0 (Windows NT 10.0; Win64; x64) AppleWebKit/537.36 (KHTML, like Gecko) Chrome/109.0.0.0 Safari/537.36","WebKit","Chrome","109.0.0.0","Windows","10.0","https://app.prolific.com/","en-US,en;q=0.9","609b9e5b48f112f4cc38fb76","683db6dfa200031b80f2a654","6865076871653395530ac936","609b9e5b48f112f4cc38fb76","","","","","","","","","","","","","","","","","","","","","","","","","","","","","","","","","","","","","","","","","","","","","",""
"10172","","","","instructions","34","1533720","0.0-8.0-9.0","172","1","2025-07-02 10:23:09","80fe4187154257d5fb01684ea91b68b9","160.19.36.2","Mozilla/5.0 (Windows NT 10.0; Win64; x64) AppleWebKit/537.36 (KHTML, like Gecko) Chrome/109.0.0.0 Safari/537.36","WebKit","Chrome","109.0.0.0","Windows","10.0","https://app.prolific.com/","en-US,en;q=0.9","609b9e5b48f112f4cc38fb76","683db6dfa200031b80f2a654","6865076871653395530ac936","609b9e5b48f112f4cc38fb76","","[{""page_index"":0,""viewing_time"":10171}]","","","","","","","","","","","","","","","","","","","","","","","","","","","","","","","","","","","","","","","","","","","",""
"22218","","<p>Before you start with this game please answer the following three questions yourself. </p>
  <p>Through this game, we measure several aspects of your cognitive performance, such as reaction times, multi-tasking capabilities </p>
  <p>and the ability to assess the situation you are in.</p>
  <p></p>
  <p><b>How good do you usually are in such tasks?</b></p>","73","html-slider-response","35","1555942","0.0-9.0-0.0","172","1","2025-07-02 10:23:09","80fe4187154257d5fb01684ea91b68b9","160.19.36.2","Mozilla/5.0 (Windows NT 10.0; Win64; x64) AppleWebKit/537.36 (KHTML, like Gecko) Chrome/109.0.0.0 Safari/537.36","WebKit","Chrome","109.0.0.0","Windows","10.0","https://app.prolific.com/","en-US,en;q=0.9","609b9e5b48f112f4cc38fb76","683db6dfa200031b80f2a654","6865076871653395530ac936","609b9e5b48f112f4cc38fb76","2025-07-02T10:49:07.261Z","","","","","","PreSkillQ","","","","","","","","","","","","","","","","","","","","","","","","","","","","","","","","","","","","","","50",""
"11239","","<div style=""width:500px;"">
  <p>How well do you think you will perform in this task compared to other participants?</p>
  </div>","74","html-slider-response","36","1567185","0.0-9.0-1.0","172","1","2025-07-02 10:23:09","80fe4187154257d5fb01684ea91b68b9","160.19.36.2","Mozilla/5.0 (Windows NT 10.0; Win64; x64) AppleWebKit/537.36 (KHTML, like Gecko) Chrome/109.0.0.0 Safari/537.36","WebKit","Chrome","109.0.0.0","Windows","10.0","https://app.prolific.com/","en-US,en;q=0.9","609b9e5b48f112f4cc38fb76","683db6dfa200031b80f2a654","6865076871653395530ac936","609b9e5b48f112f4cc38fb76","2025-07-02T10:49:18.504Z","","","","","","PrePerfQ","","","","","","","","","","","","","","","","","","","","","","","","","","","","","","","","","","","","","","50",""
"7813","","<div style=""width:500px;"">
  <p>What best describes how you currently feel?</p>
  </div>","87","html-slider-response","37","1575004","0.0-9.0-2.0","172","1","2025-07-02 10:23:09","80fe4187154257d5fb01684ea91b68b9","160.19.36.2","Mozilla/5.0 (Windows NT 10.0; Win64; x64) AppleWebKit/537.36 (KHTML, like Gecko) Chrome/109.0.0.0 Safari/537.36","WebKit","Chrome","109.0.0.0","Windows","10.0","https://app.prolific.com/","en-US,en;q=0.9","609b9e5b48f112f4cc38fb76","683db6dfa200031b80f2a654","6865076871653395530ac936","609b9e5b48f112f4cc38fb76","2025-07-02T10:49:26.322Z","","","","","","PreMotivationQ","","","","","","","","","","","","","","","","","","","","","","","","","","","","","","","","","","","","","","50",""
"","","","","ctl-task-cpt","38","1607330","0.0-10.0-0.0","172","1","2025-07-02 10:23:09","80fe4187154257d5fb01684ea91b68b9","160.19.36.2","Mozilla/5.0 (Windows NT 10.0; Win64; x64) AppleWebKit/537.36 (KHTML, like Gecko) Chrome/109.0.0.0 Safari/537.36","WebKit","Chrome","109.0.0.0","Windows","10.0","https://app.prolific.com/","en-US,en;q=0.9","609b9e5b48f112f4cc38fb76","683db6dfa200031b80f2a654","6865076871653395530ac936","609b9e5b48f112f4cc38fb76","2025-07-02T10:49:58.648Z","","","","","","","","","","","","","","","","win-only","3","g1:SW,g2:NE","1","1","0","1577790.2","3222.4","8225","29301.5","1","4","8","6","1","1","0","0","0","0","5002.6","3000","1420","[""down"",""left""]","{""num_key_presses"":5,""num_perfect"":4,""num_errors"":1,""num_randdir"":0,""num_randdir_good_moves"":0,""num_whilered"":0,""num_whileblue"":0,""num_blue"":2,""num_good_moves"":4}","[292.22232142857143,300.12857142857143,0.5,292.22232142857143,300.12857142857143,102.8,292.22232142857143,300.12857142857143,206.8,292.22232142857143,300.12857142857143,311.1,292.22232142857143,300.12857142857143,418,292.22232142857143,300.12857142857143,521,292.22232142857143,300.12857142857143,626.2,292.22232142857143,300.12857142857143,729.2,292.22232142857143,300.12857142857143,831.3,292.22232142857143,300.12857142857143,942.4,292.22232142857143,300.12857142857143,1044,292.22232142857143,300.12857142857143,1144.3,292.22232142857143,300.12857142857143,1247.5,292.22232142857143,300.12857142857143,1353.9,292.22232142857143,300.12857142857143,1460,292.22232142857143,300.12857142857143,1562.9,292.22232142857143,300.12857142857143,1667.1,292.22232142857143,300.12857142857143,1775.8,292.22232142857143,300.12857142857143,1880.3,292.22232142857143,300.12857142857143,1987.6,292.22232142857143,300.12857142857143,2092.9,292.22232142857143,300.12857142857143,2196.1,292.22232142857143,300.12857142857143,2302.3,292.22232142857143,300.12857142857143,2408.9,292.22232142857143,300.12857142857143,2513.1,292.22232142857143,300.12857142857143,2614.2,292.22232142857143,300.12857142857143,2716.7,292.22232142857143,300.12857142857143,2823,292.22232142857143,300.12857142857143,2924.6,292.22232142857143,300.12857142857143,3025.7,292.22232142857143,300.12857142857143,3128.9,292.22232142857143,300.12857142857143,3232.4,292.22232142857143,300.12857142857143,3341.2,292.22232142857143,300.12857142857143,3443.7,292.22232142857143,300.12857142857143,3547.9,292.22232142857143,300.12857142857143,3654.1,292.22232142857143,300.12857142857143,3758.9,292.22232142857143,300.12857142857143,3865,292.22232142857143,300.12857142857143,3966.1,292.22232142857143,300.12857142857143,4067,292.22232142857143,300.12857142857143,4167.2,292.22232142857143,300.12857142857143,4274.8,292.22232142857143,300.12857142857143,4381,292.22232142857143,300.12857142857143,4482.5,292.22232142857143,300.12857142857143,4586,292.22232142857143,300.12857142857143,4690.4,292.22232142857143,300.12857142857143,4793.3,292.22232142857143,300.12857142857143,4897.9]","[888.4,888.4,1000,0,-111.6,""error"",""-"",""-"",""no_move"",5283.4,4394.5,2934.2,1891.8,457.4,""smooth"",""down"",""down"",""good_move"",11694.4,6409.1,2086.6,9171.7,436.1,""smooth"",""down"",""down"",""good_move"",17825.3,6130.5,2385.7,14985.5,454.2,""smooth"",""left"",""left"",""good_move"",20967.9,3140.8,2513.6,17827.1,627.2,""smooth"",""left"",""left"",""good_move""]","","",""
"10865","","<div style=""width:500px;"">
  <p>What determined the result of this run?</p>
  </div>","61","html-slider-response","39","1618199","0.0-10.0-1.0","172","1","2025-07-02 10:23:09","80fe4187154257d5fb01684ea91b68b9","160.19.36.2","Mozilla/5.0 (Windows NT 10.0; Win64; x64) AppleWebKit/537.36 (KHTML, like Gecko) Chrome/109.0.0.0 Safari/537.36","WebKit","Chrome","109.0.0.0","Windows","10.0","https://app.prolific.com/","en-US,en;q=0.9","609b9e5b48f112f4cc38fb76","683db6dfa200031b80f2a654","6865076871653395530ac936","609b9e5b48f112f4cc38fb76","2025-07-02T10:50:09.518Z","","","","","","AttribQ","","","","","","","","","","","","","","","","","","","","","","","","","","","","","","","","","","","","","","50",""
"7671","","<div style=""width:500px;"">
  <p>How much control did you have over the ball?</p>
  </div>","64","html-slider-response","40","1625875","0.0-10.0-2.0","172","1","2025-07-02 10:23:09","80fe4187154257d5fb01684ea91b68b9","160.19.36.2","Mozilla/5.0 (Windows NT 10.0; Win64; x64) AppleWebKit/537.36 (KHTML, like Gecko) Chrome/109.0.0.0 Safari/537.36","WebKit","Chrome","109.0.0.0","Windows","10.0","https://app.prolific.com/","en-US,en;q=0.9","609b9e5b48f112f4cc38fb76","683db6dfa200031b80f2a654","6865076871653395530ac936","609b9e5b48f112f4cc38fb76","2025-07-02T10:50:17.193Z","","","","","","ControlQ","","","","","","","","","","","","","","","","","","","","","","","","","","","","","","","","","","","","","","50",""
"8476","","<div style=""width:500px;"">
  <p>How would you describe your current emotional state?</p>
  </div>","20","html-slider-response","41","1634355","0.0-10.0-3.0","172","1","2025-07-02 10:23:09","80fe4187154257d5fb01684ea91b68b9","160.19.36.2","Mozilla/5.0 (Windows NT 10.0; Win64; x64) AppleWebKit/537.36 (KHTML, like Gecko) Chrome/109.0.0.0 Safari/537.36","WebKit","Chrome","109.0.0.0","Windows","10.0","https://app.prolific.com/","en-US,en;q=0.9","609b9e5b48f112f4cc38fb76","683db6dfa200031b80f2a654","6865076871653395530ac936","609b9e5b48f112f4cc38fb76","2025-07-02T10:50:25.674Z","","","","","","StressQ","","","","","","","","","","","","","","","","","","","","","","","","","","","","","","","","","","","","","","50",""
"8079","","<div style=""width:500px;"">
  <p>What best describes how you currently feel?</p>
  </div>","87","html-slider-response","42","1642440","0.0-10.0-4.0","172","1","2025-07-02 10:23:09","80fe4187154257d5fb01684ea91b68b9","160.19.36.2","Mozilla/5.0 (Windows NT 10.0; Win64; x64) AppleWebKit/537.36 (KHTML, like Gecko) Chrome/109.0.0.0 Safari/537.36","WebKit","Chrome","109.0.0.0","Windows","10.0","https://app.prolific.com/","en-US,en;q=0.9","609b9e5b48f112f4cc38fb76","683db6dfa200031b80f2a654","6865076871653395530ac936","609b9e5b48f112f4cc38fb76","2025-07-02T10:50:33.759Z","","","","","","MotivationQ","","","","","","","","","","","","","","","","","","","","","","","","","","","","","","","","","","","","","","50",""
"","","","","ctl-task-cpt","43","1674391","0.0-10.0-0.1","172","1","2025-07-02 10:23:09","80fe4187154257d5fb01684ea91b68b9","160.19.36.2","Mozilla/5.0 (Windows NT 10.0; Win64; x64) AppleWebKit/537.36 (KHTML, like Gecko) Chrome/109.0.0.0 Safari/537.36","WebKit","Chrome","109.0.0.0","Windows","10.0","https://app.prolific.com/","en-US,en;q=0.9","609b9e5b48f112f4cc38fb76","683db6dfa200031b80f2a654","6865076871653395530ac936","609b9e5b48f112f4cc38fb76","2025-07-02T10:51:05.709Z","","","","","","","","","","","","","","","","win-only","0","g1:NW,g2:SE","0.9","2","0","1645217.5","3045.1","8051.7","28939.4","1","4","4","6","1","1","1","1","0","0.007575757575757576","5006.6","3000","1155","[""left"",""up""]","{""num_key_presses"":6,""num_perfect"":5,""num_errors"":0,""num_randdir"":1,""num_randdir_good_moves"":1,""num_whilered"":0,""num_whileblue"":0,""num_blue"":1,""num_good_moves"":5}","[296.22232142857143,294.12857142857143,0.4,296.22232142857143,294.12857142857143,100.1,296.22232142857143,294.12857142857143,201.7,296.22232142857143,294.12857142857143,304.3,296.22232142857143,294.12857142857143,411.8,296.22232142857143,294.12857142857143,511.8,296.22232142857143,294.12857142857143,612.3,296.22232142857143,294.12857142857143,716.1,296.22232142857143,294.12857142857143,820.8,296.22232142857143,294.12857142857143,923.3,296.22232142857143,294.12857142857143,1026.6,296.22232142857143,294.12857142857143,1133,296.22232142857143,294.12857142857143,1233.3,296.22232142857143,294.12857142857143,1337.7,296.22232142857143,294.12857142857143,1440.3,296.22232142857143,294.12857142857143,1544.5,296.22232142857143,294.12857142857143,1651.5,296.22232142857143,294.12857142857143,1752.8,296.22232142857143,294.12857142857143,1853.6,296.22232142857143,294.12857142857143,1958.6,296.22232142857143,294.12857142857143,2060.5,296.22232142857143,294.12857142857143,2166.2,296.22232142857143,294.12857142857143,2272,296.22232142857143,294.12857142857143,2375,296.22232142857143,294.12857142857143,2481,296.22232142857143,294.12857142857143,2585.1,296.22232142857143,294.12857142857143,2692.5,296.22232142857143,294.12857142857143,2798.1,296.22232142857143,294.12857142857143,2904.3,296.22232142857143,294.12857142857143,3005.5,296.22232142857143,294.12857142857143,3111.9,296.22232142857143,294.12857142857143,3216.2,296.22232142857143,294.12857142857143,3318.2,296.22232142857143,294.12857142857143,3422.6,296.22232142857143,294.12857142857143,3523.9,296.22232142857143,294.12857142857143,3630.3,296.22232142857143,294.12857142857143,3734.7,296.22232142857143,294.12857142857143,3837.1,296.22232142857143,294.12857142857143,3937.7,296.22232142857143,294.12857142857143,4045.3,296.22232142857143,294.12857142857143,4151.1,296.22232142857143,294.12857142857143,4252,296.22232142857143,294.12857142857143,4356.2,296.22232142857143,294.12857142857143,4457.6,296.22232142857143,294.12857142857143,4558.4,296.22232142857143,294.12857142857143,4666.4,296.22232142857143,294.12857142857143,4772.7,296.22232142857143,294.12857142857143,4877.4,296.22232142857143,294.12857142857143,4979.5]","[1410.9,1410.9,1000,0,410.9,""smooth"",""down"",""down"",""bad_move"",8034.2,6623.1,2884.2,4793.7,356.4,""oops"",""down"",""up"",""good_move"",11275.8,3240.1,2732.3,8035.7,507.8,""smooth"",""up"",""up"",""good_move"",14644.9,3368.6,2894.1,11276.3,474.5,""smooth"",""up"",""up"",""good_move"",17768.7,3123.4,2678.7,14645.4,444.7,""smooth"",""left"",""left"",""good_move"",20751.6,2982.4,2555.1,17769.3,427.2,""smooth"",""left"",""left"",""good_move""]","","",""
"7462","","<div style=""width:500px;"">
  <p>What determined the result of this run?</p>
  </div>","79","html-slider-response","44","1681856","0.0-10.0-1.1","172","1","2025-07-02 10:23:09","80fe4187154257d5fb01684ea91b68b9","160.19.36.2","Mozilla/5.0 (Windows NT 10.0; Win64; x64) AppleWebKit/537.36 (KHTML, like Gecko) Chrome/109.0.0.0 Safari/537.36","WebKit","Chrome","109.0.0.0","Windows","10.0","https://app.prolific.com/","en-US,en;q=0.9","609b9e5b48f112f4cc38fb76","683db6dfa200031b80f2a654","6865076871653395530ac936","609b9e5b48f112f4cc38fb76","2025-07-02T10:51:13.173Z","","","","","","AttribQ","","","","","","","","","","","","","","","","","","","","","","","","","","","","","","","","","","","","","","50",""
"12292","","<div style=""width:500px;"">
  <p>How much control did you have over the ball?</p>
  </div>","36","html-slider-response","45","1694150","0.0-10.0-2.1","172","1","2025-07-02 10:23:09","80fe4187154257d5fb01684ea91b68b9","160.19.36.2","Mozilla/5.0 (Windows NT 10.0; Win64; x64) AppleWebKit/537.36 (KHTML, like Gecko) Chrome/109.0.0.0 Safari/537.36","WebKit","Chrome","109.0.0.0","Windows","10.0","https://app.prolific.com/","en-US,en;q=0.9","609b9e5b48f112f4cc38fb76","683db6dfa200031b80f2a654","6865076871653395530ac936","609b9e5b48f112f4cc38fb76","2025-07-02T10:51:25.467Z","","","","","","ControlQ","","","","","","","","","","","","","","","","","","","","","","","","","","","","","","","","","","","","","","50",""
"7972","","<div style=""width:500px;"">
  <p>How would you describe your current emotional state?</p>
  </div>","17","html-slider-response","46","1702126","0.0-10.0-3.1","172","1","2025-07-02 10:23:09","80fe4187154257d5fb01684ea91b68b9","160.19.36.2","Mozilla/5.0 (Windows NT 10.0; Win64; x64) AppleWebKit/537.36 (KHTML, like Gecko) Chrome/109.0.0.0 Safari/537.36","WebKit","Chrome","109.0.0.0","Windows","10.0","https://app.prolific.com/","en-US,en;q=0.9","609b9e5b48f112f4cc38fb76","683db6dfa200031b80f2a654","6865076871653395530ac936","609b9e5b48f112f4cc38fb76","2025-07-02T10:51:33.443Z","","","","","","StressQ","","","","","","","","","","","","","","","","","","","","","","","","","","","","","","","","","","","","","","50",""
"6045","","<div style=""width:500px;"">
  <p>What best describes how you currently feel?</p>
  </div>","86","html-slider-response","47","1708174","0.0-10.0-4.1","172","1","2025-07-02 10:23:09","80fe4187154257d5fb01684ea91b68b9","160.19.36.2","Mozilla/5.0 (Windows NT 10.0; Win64; x64) AppleWebKit/537.36 (KHTML, like Gecko) Chrome/109.0.0.0 Safari/537.36","WebKit","Chrome","109.0.0.0","Windows","10.0","https://app.prolific.com/","en-US,en;q=0.9","609b9e5b48f112f4cc38fb76","683db6dfa200031b80f2a654","6865076871653395530ac936","609b9e5b48f112f4cc38fb76","2025-07-02T10:51:39.491Z","","","","","","MotivationQ","","","","","","","","","","","","","","","","","","","","","","","","","","","","","","","","","","","","","","50",""
"","","","","ctl-task-cpt","48","1739898","0.0-10.0-0.2","172","1","2025-07-02 10:23:09","80fe4187154257d5fb01684ea91b68b9","160.19.36.2","Mozilla/5.0 (Windows NT 10.0; Win64; x64) AppleWebKit/537.36 (KHTML, like Gecko) Chrome/109.0.0.0 Safari/537.36","WebKit","Chrome","109.0.0.0","Windows","10.0","https://app.prolific.com/","en-US,en;q=0.9","609b9e5b48f112f4cc38fb76","683db6dfa200031b80f2a654","6865076871653395530ac936","609b9e5b48f112f4cc38fb76","2025-07-02T10:52:11.216Z","","","","","","","","","","","","","","","","win-only","3","g1:SW,g2:NE","0.8","3","0","1710944.9","2338.1","7342.7","28710","1","4","4","6","1","1","1","2","1","0.015151515151515152","5004.6","3000","1950","[""down"",""left""]","{""num_key_presses"":4,""num_perfect"":4,""num_errors"":0,""num_randdir"":0,""num_randdir_good_moves"":0,""num_whilered"":0,""num_whileblue"":0,""num_blue"":3,""num_good_moves"":4}","[295.22232142857143,295.12857142857143,0.4,295.22232142857143,295.12857142857143,105.8,295.22232142857143,295.12857142857143,214.8,295.22232142857143,295.12857142857143,316.6,295.22232142857143,295.12857142857143,430,295.22232142857143,295.12857142857143,533,295.22232142857143,295.12857142857143,636.3,295.22232142857143,295.12857142857143,742,295.22232142857143,295.12857142857143,843.1,295.22232142857143,295.12857142857143,950,295.22232142857143,295.12857142857143,1050.1,295.22232142857143,295.12857142857143,1155.4,295.22232142857143,295.12857142857143,1264.7,295.22232142857143,295.12857142857143,1372.7,295.22232142857143,295.12857142857143,1474.1,295.22232142857143,295.12857142857143,1584.7,295.22232142857143,295.12857142857143,1686.5,295.22232142857143,295.12857142857143,1786.9,295.22232142857143,295.12857142857143,1897,295.22232142857143,295.12857142857143,2003.4,295.22232142857143,295.12857142857143,2115.8,295.22232142857143,295.12857142857143,2227.6,295.22232142857143,295.12857142857143,2332.2,295.22232142857143,295.12857142857143,2434.6,295.22232142857143,295.12857142857143,2535.1,295.22232142857143,295.12857142857143,2645,295.22232142857143,295.12857142857143,2756.5,295.22232142857143,295.12857142857143,2867.7,295.22232142857143,295.12857142857143,2969.7,295.22232142857143,295.12857142857143,3080.2,295.22232142857143,295.12857142857143,3182.1,295.22232142857143,295.12857142857143,3293.4,295.22232142857143,295.12857142857143,3394.4,295.22232142857143,295.12857142857143,3504.8,295.22232142857143,295.12857142857143,3614.7,295.22232142857143,295.12857142857143,3720.9,295.22232142857143,295.12857142857143,3827.7,295.22232142857143,295.12857142857143,3935.4,295.22232142857143,295.12857142857143,4043.6,295.22232142857143,295.12857142857143,4149.2,295.22232142857143,295.12857142857143,4249.9,295.22232142857143,295.12857142857143,4350.4,295.22232142857143,295.12857142857143,4466,295.22232142857143,295.12857142857143,4580.8,295.22232142857143,295.12857142857143,4683.4,295.22232142857143,295.12857142857143,4787.8,295.22232142857143,295.12857142857143,4898.2]","[1843.4,1843.4,1000,0.1,843.3,""smooth"",""down"",""down"",""good_move"",4652.7,2805.6,2301.8,1847.2,503.8,""smooth"",""down"",""down"",""good_move"",10587.5,5934.2,2354.2,7785.9,447.4,""smooth"",""left"",""left"",""good_move"",21157.3,10569.5,2713.2,17995.7,448.4,""smooth"",""left"",""left"",""good_move""]","","",""
"8033","","<div style=""width:500px;"">
  <p>What determined the result of this run?</p>
  </div>","73","html-slider-response","49","1747935","0.0-10.0-1.2","172","1","2025-07-02 10:23:09","80fe4187154257d5fb01684ea91b68b9","160.19.36.2","Mozilla/5.0 (Windows NT 10.0; Win64; x64) AppleWebKit/537.36 (KHTML, like Gecko) Chrome/109.0.0.0 Safari/537.36","WebKit","Chrome","109.0.0.0","Windows","10.0","https://app.prolific.com/","en-US,en;q=0.9","609b9e5b48f112f4cc38fb76","683db6dfa200031b80f2a654","6865076871653395530ac936","609b9e5b48f112f4cc38fb76","2025-07-02T10:52:19.253Z","","","","","","AttribQ","","","","","","","","","","","","","","","","","","","","","","","","","","","","","","","","","","","","","","50",""
"7960","","<div style=""width:500px;"">
  <p>How much control did you have over the ball?</p>
  </div>","73","html-slider-response","50","1755898","0.0-10.0-2.2","172","1","2025-07-02 10:23:09","80fe4187154257d5fb01684ea91b68b9","160.19.36.2","Mozilla/5.0 (Windows NT 10.0; Win64; x64) AppleWebKit/537.36 (KHTML, like Gecko) Chrome/109.0.0.0 Safari/537.36","WebKit","Chrome","109.0.0.0","Windows","10.0","https://app.prolific.com/","en-US,en;q=0.9","609b9e5b48f112f4cc38fb76","683db6dfa200031b80f2a654","6865076871653395530ac936","609b9e5b48f112f4cc38fb76","2025-07-02T10:52:27.215Z","","","","","","ControlQ","","","","","","","","","","","","","","","","","","","","","","","","","","","","","","","","","","","","","","50",""
"8755","","<div style=""width:500px;"">
  <p>How would you describe your current emotional state?</p>
  </div>","13","html-slider-response","51","1764656","0.0-10.0-3.2","172","1","2025-07-02 10:23:09","80fe4187154257d5fb01684ea91b68b9","160.19.36.2","Mozilla/5.0 (Windows NT 10.0; Win64; x64) AppleWebKit/537.36 (KHTML, like Gecko) Chrome/109.0.0.0 Safari/537.36","WebKit","Chrome","109.0.0.0","Windows","10.0","https://app.prolific.com/","en-US,en;q=0.9","609b9e5b48f112f4cc38fb76","683db6dfa200031b80f2a654","6865076871653395530ac936","609b9e5b48f112f4cc38fb76","2025-07-02T10:52:35.973Z","","","","","","StressQ","","","","","","","","","","","","","","","","","","","","","","","","","","","","","","","","","","","","","","50",""
"7193","","<div style=""width:500px;"">
  <p>What best describes how you currently feel?</p>
  </div>","83","html-slider-response","52","1771851","0.0-10.0-4.2","172","1","2025-07-02 10:23:09","80fe4187154257d5fb01684ea91b68b9","160.19.36.2","Mozilla/5.0 (Windows NT 10.0; Win64; x64) AppleWebKit/537.36 (KHTML, like Gecko) Chrome/109.0.0.0 Safari/537.36","WebKit","Chrome","109.0.0.0","Windows","10.0","https://app.prolific.com/","en-US,en;q=0.9","609b9e5b48f112f4cc38fb76","683db6dfa200031b80f2a654","6865076871653395530ac936","609b9e5b48f112f4cc38fb76","2025-07-02T10:52:43.168Z","","","","","","MotivationQ","","","","","","","","","","","","","","","","","","","","","","","","","","","","","","","","","","","","","","50",""
"","","","","ctl-task-cpt","53","1812868","0.0-10.0-0.3","172","1","2025-07-02 10:23:09","80fe4187154257d5fb01684ea91b68b9","160.19.36.2","Mozilla/5.0 (Windows NT 10.0; Win64; x64) AppleWebKit/537.36 (KHTML, like Gecko) Chrome/109.0.0.0 Safari/537.36","WebKit","Chrome","109.0.0.0","Windows","10.0","https://app.prolific.com/","en-US,en;q=0.9","609b9e5b48f112f4cc38fb76","683db6dfa200031b80f2a654","6865076871653395530ac936","609b9e5b48f112f4cc38fb76","2025-07-02T10:53:24.185Z","","","","","","","","","","","","","","","","win-only","3","g1:SW,g2:NE","0.7","4","0","1774620.9","2476","7477.6","38005.3","1","4","8","6","2","8","8","10","2","0.07575757575757576","5001.6","3000","1565","[""up"",""right""]","{""num_key_presses"":6,""num_perfect"":4,""num_errors"":0,""num_randdir"":2,""num_randdir_good_moves"":2,""num_whilered"":0,""num_whileblue"":0,""num_blue"":4,""num_good_moves"":6}","[297.22232142857143,302.12857142857143,0.4,297.22232142857143,302.12857142857143,107,297.22232142857143,302.12857142857143,215.6,297.22232142857143,302.12857142857143,317.8,297.22232142857143,302.12857142857143,422.4,297.22232142857143,302.12857142857143,530.7,297.22232142857143,302.12857142857143,639.4,297.22232142857143,302.12857142857143,747.8,297.22232142857143,302.12857142857143,856.8,297.22232142857143,302.12857142857143,963.7,297.22232142857143,302.12857142857143,1071.1,297.22232142857143,302.12857142857143,1172.4,297.22232142857143,302.12857142857143,1273.3,297.22232142857143,302.12857142857143,1373.7,297.22232142857143,302.12857142857143,1479.1,297.22232142857143,302.12857142857143,1583.6,297.22232142857143,302.12857142857143,1686.4,297.22232142857143,302.12857142857143,1794.6,297.22232142857143,302.12857142857143,1897.4,297.22232142857143,302.12857142857143,1999,297.22232142857143,302.12857142857143,2108.1,297.22232142857143,302.12857142857143,2215.5,297.22232142857143,302.12857142857143,2321.6,297.22232142857143,302.12857142857143,2429,297.22232142857143,302.12857142857143,2529,297.22232142857143,302.12857142857143,2632.2,297.22232142857143,302.12857142857143,2738.9,297.22232142857143,302.12857142857143,2845.2,297.22232142857143,302.12857142857143,2952.3,297.22232142857143,302.12857142857143,3057,297.22232142857143,302.12857142857143,3162.1,297.22232142857143,302.12857142857143,3267.2,297.22232142857143,302.12857142857143,3371.5,297.22232142857143,302.12857142857143,3474.2,297.22232142857143,302.12857142857143,3582.1,297.22232142857143,302.12857142857143,3692.9,297.22232142857143,302.12857142857143,3796.9,297.22232142857143,302.12857142857143,3896.9,297.22232142857143,302.12857142857143,3998.7,297.22232142857143,302.12857142857143,4107.3,297.22232142857143,302.12857142857143,4212.6,297.22232142857143,302.12857142857143,4325.9,297.22232142857143,302.12857142857143,4429.2,297.22232142857143,302.12857142857143,4540.1,297.22232142857143,302.12857142857143,4646.2,297.22232142857143,302.12857142857143,4751.7,297.22232142857143,302.12857142857143,4859,297.22232142857143,302.12857142857143,4959.3]","[11597.6,11597.6,2138.2,8990.1,469.3,""smooth"",""up"",""up"",""good_move"",14339.1,2740.4,2131.5,11598.7,608.9,""oops"",""up"",""right"",""good_move"",20441.7,6102,2136.3,17846.2,459.2,""smooth"",""up"",""up"",""good_move"",23890.4,3448.3,2864.3,20442.2,583.9,""smooth"",""up"",""up"",""good_move"",26662.1,2771.3,2258.3,23890.8,513,""oops"",""right"",""right"",""good_move"",30331.1,3668.6,3201.1,26662.5,467.5,""smooth"",""right"",""right"",""good_move""]","","",""
"6397","","<div style=""width:500px;"">
  <p>What determined the result of this run?</p>
  </div>","73","html-slider-response","54","1819267","0.0-10.0-1.3","172","1","2025-07-02 10:23:09","80fe4187154257d5fb01684ea91b68b9","160.19.36.2","Mozilla/5.0 (Windows NT 10.0; Win64; x64) AppleWebKit/537.36 (KHTML, like Gecko) Chrome/109.0.0.0 Safari/537.36","WebKit","Chrome","109.0.0.0","Windows","10.0","https://app.prolific.com/","en-US,en;q=0.9","609b9e5b48f112f4cc38fb76","683db6dfa200031b80f2a654","6865076871653395530ac936","609b9e5b48f112f4cc38fb76","2025-07-02T10:53:30.584Z","","","","","","AttribQ","","","","","","","","","","","","","","","","","","","","","","","","","","","","","","","","","","","","","","50",""
"5194","","<div style=""width:500px;"">
  <p>How much control did you have over the ball?</p>
  </div>","75","html-slider-response","55","1824465","0.0-10.0-2.3","172","1","2025-07-02 10:23:09","80fe4187154257d5fb01684ea91b68b9","160.19.36.2","Mozilla/5.0 (Windows NT 10.0; Win64; x64) AppleWebKit/537.36 (KHTML, like Gecko) Chrome/109.0.0.0 Safari/537.36","WebKit","Chrome","109.0.0.0","Windows","10.0","https://app.prolific.com/","en-US,en;q=0.9","609b9e5b48f112f4cc38fb76","683db6dfa200031b80f2a654","6865076871653395530ac936","609b9e5b48f112f4cc38fb76","2025-07-02T10:53:35.782Z","","","","","","ControlQ","","","","","","","","","","","","","","","","","","","","","","","","","","","","","","","","","","","","","","50",""
"6515","","<div style=""width:500px;"">
  <p>How would you describe your current emotional state?</p>
  </div>","15","html-slider-response","56","1830982","0.0-10.0-3.3","172","1","2025-07-02 10:23:09","80fe4187154257d5fb01684ea91b68b9","160.19.36.2","Mozilla/5.0 (Windows NT 10.0; Win64; x64) AppleWebKit/537.36 (KHTML, like Gecko) Chrome/109.0.0.0 Safari/537.36","WebKit","Chrome","109.0.0.0","Windows","10.0","https://app.prolific.com/","en-US,en;q=0.9","609b9e5b48f112f4cc38fb76","683db6dfa200031b80f2a654","6865076871653395530ac936","609b9e5b48f112f4cc38fb76","2025-07-02T10:53:42.299Z","","","","","","StressQ","","","","","","","","","","","","","","","","","","","","","","","","","","","","","","","","","","","","","","50",""
"6380","","<div style=""width:500px;"">
  <p>What best describes how you currently feel?</p>
  </div>","93","html-slider-response","57","1837364","0.0-10.0-4.3","172","1","2025-07-02 10:23:09","80fe4187154257d5fb01684ea91b68b9","160.19.36.2","Mozilla/5.0 (Windows NT 10.0; Win64; x64) AppleWebKit/537.36 (KHTML, like Gecko) Chrome/109.0.0.0 Safari/537.36","WebKit","Chrome","109.0.0.0","Windows","10.0","https://app.prolific.com/","en-US,en;q=0.9","609b9e5b48f112f4cc38fb76","683db6dfa200031b80f2a654","6865076871653395530ac936","609b9e5b48f112f4cc38fb76","2025-07-02T10:53:48.681Z","","","","","","MotivationQ","","","","","","","","","","","","","","","","","","","","","","","","","","","","","","","","","","","","","","50",""
"","","","","ctl-task-cpt","58","1870872","0.0-10.0-0.4","172","1","2025-07-02 10:23:09","80fe4187154257d5fb01684ea91b68b9","160.19.36.2","Mozilla/5.0 (Windows NT 10.0; Win64; x64) AppleWebKit/537.36 (KHTML, like Gecko) Chrome/109.0.0.0 Safari/537.36","WebKit","Chrome","109.0.0.0","Windows","10.0","https://app.prolific.com/","en-US,en;q=0.9","609b9e5b48f112f4cc38fb76","683db6dfa200031b80f2a654","6865076871653395530ac936","609b9e5b48f112f4cc38fb76","2025-07-02T10:54:22.190Z","","","","","","","","","","","","","","","","win-only","1","g1:NE,g2:SW","0.6","5","0","1840131.7","3280","8289.8","30494.6","1","4","8","6","2","8","8","18","10","0.13636363636363635","1853.4","3000","1955","[""down"",""left""]","{""num_key_presses"":6,""num_perfect"":5,""num_errors"":0,""num_randdir"":1,""num_randdir_good_moves"":1,""num_whilered"":0,""num_whileblue"":0,""num_blue"":2,""num_good_moves"":6}","[293.22232142857143,296.12857142857143,0.4,293.22232142857143,296.12857142857143,102.7,293.22232142857143,296.12857142857143,208.1,293.22232142857143,296.12857142857143,309.5,293.22232142857143,296.12857142857143,420.7,293.22232142857143,296.12857142857143,528.2,290.22232142857143,296.12857142857143,640.3,23.222321428571426,559.1285714285714,743,-61.777678571428574,637.1285714285714,849.6,-61.777678571428574,637.1285714285714,960.9,-61.777678571428574,637.1285714285714,1062.7,33.222321428571426,570.1285714285714,1164,69.22232142857143,540.1285714285714,1266.5,69.22232142857143,540.1285714285714,1369.7,69.22232142857143,541.1285714285714,1475.4,69.22232142857143,541.1285714285714,1576,69.22232142857143,541.1285714285714,1679.9,69.22232142857143,541.1285714285714,1790.7,69.22232142857143,541.1285714285714,1896.1,69.22232142857143,541.1285714285714,2008,69.22232142857143,541.1285714285714,2116.8,69.22232142857143,541.1285714285714,2227.3,69.22232142857143,541.1285714285714,2334.4,69.22232142857143,541.1285714285714,2446.4,69.22232142857143,541.1285714285714,2548.6,69.22232142857143,541.1285714285714,2649.3,69.22232142857143,541.1285714285714,2755.1,69.22232142857143,541.1285714285714,2859.5,69.22232142857143,541.1285714285714,2966.3,69.22232142857143,541.1285714285714,3073.1,69.22232142857143,541.1285714285714,3182.7,69.22232142857143,541.1285714285714,3289.4,69.22232142857143,541.1285714285714,3393.5,69.22232142857143,541.1285714285714,3497.9,69.22232142857143,541.1285714285714,3607.2,69.22232142857143,541.1285714285714,3715.1,69.22232142857143,541.1285714285714,3821.9,69.22232142857143,541.1285714285714,3922.5,69.22232142857143,541.1285714285714,4023.3,69.22232142857143,541.1285714285714,4132.9,69.22232142857143,541.1285714285714,4236,69.22232142857143,541.1285714285714,4336.3,69.22232142857143,541.1285714285714,4443.4,69.22232142857143,541.1285714285714,4548,69.22232142857143,541.1285714285714,4659.1,69.22232142857143,541.1285714285714,4768.7,69.22232142857143,541.1285714285714,4880.5,69.22232142857143,541.1285714285714,4983.4]","[1459.9,1459.9,1000,0,459.9,""smooth"",""down"",""down"",""good_move"",6886.3,5424.9,1694.7,4696.9,494.7,""smooth"",""down"",""down"",""good_move"",9758.2,2871.4,2362.8,6886.8,508.6,""smooth"",""down"",""down"",""good_move"",16010.1,6251.1,2312.7,13229,468.5,""smooth"",""left"",""left"",""good_move"",19246.1,3234.4,2694.2,16011.7,540.2,""oops"",""left"",""left"",""good_move"",21979.7,2733.2,2187.1,19246.5,546.1,""smooth"",""left"",""left"",""good_move""]","","",""
"7250","","<div style=""width:500px;"">
  <p>What determined the result of this run?</p>
  </div>","88","html-slider-response","59","1878124","0.0-10.0-1.4","172","1","2025-07-02 10:23:09","80fe4187154257d5fb01684ea91b68b9","160.19.36.2","Mozilla/5.0 (Windows NT 10.0; Win64; x64) AppleWebKit/537.36 (KHTML, like Gecko) Chrome/109.0.0.0 Safari/537.36","WebKit","Chrome","109.0.0.0","Windows","10.0","https://app.prolific.com/","en-US,en;q=0.9","609b9e5b48f112f4cc38fb76","683db6dfa200031b80f2a654","6865076871653395530ac936","609b9e5b48f112f4cc38fb76","2025-07-02T10:54:29.442Z","","","","","","AttribQ","","","","","","","","","","","","","","","","","","","","","","","","","","","","","","","","","","","","","","50",""
"5715","","<div style=""width:500px;"">
  <p>How much control did you have over the ball?</p>
  </div>","86","html-slider-response","60","1883841","0.0-10.0-2.4","172","1","2025-07-02 10:23:09","80fe4187154257d5fb01684ea91b68b9","160.19.36.2","Mozilla/5.0 (Windows NT 10.0; Win64; x64) AppleWebKit/537.36 (KHTML, like Gecko) Chrome/109.0.0.0 Safari/537.36","WebKit","Chrome","109.0.0.0","Windows","10.0","https://app.prolific.com/","en-US,en;q=0.9","609b9e5b48f112f4cc38fb76","683db6dfa200031b80f2a654","6865076871653395530ac936","609b9e5b48f112f4cc38fb76","2025-07-02T10:54:35.159Z","","","","","","ControlQ","","","","","","","","","","","","","","","","","","","","","","","","","","","","","","","","","","","","","","50",""
"6801","","<div style=""width:500px;"">
  <p>How would you describe your current emotional state?</p>
  </div>","9","html-slider-response","61","1890645","0.0-10.0-3.4","172","1","2025-07-02 10:23:09","80fe4187154257d5fb01684ea91b68b9","160.19.36.2","Mozilla/5.0 (Windows NT 10.0; Win64; x64) AppleWebKit/537.36 (KHTML, like Gecko) Chrome/109.0.0.0 Safari/537.36","WebKit","Chrome","109.0.0.0","Windows","10.0","https://app.prolific.com/","en-US,en;q=0.9","609b9e5b48f112f4cc38fb76","683db6dfa200031b80f2a654","6865076871653395530ac936","609b9e5b48f112f4cc38fb76","2025-07-02T10:54:41.962Z","","","","","","StressQ","","","","","","","","","","","","","","","","","","","","","","","","","","","","","","","","","","","","","","50",""
"5713","","<div style=""width:500px;"">
  <p>What best describes how you currently feel?</p>
  </div>","84","html-slider-response","62","1896361","0.0-10.0-4.4","172","1","2025-07-02 10:23:09","80fe4187154257d5fb01684ea91b68b9","160.19.36.2","Mozilla/5.0 (Windows NT 10.0; Win64; x64) AppleWebKit/537.36 (KHTML, like Gecko) Chrome/109.0.0.0 Safari/537.36","WebKit","Chrome","109.0.0.0","Windows","10.0","https://app.prolific.com/","en-US,en;q=0.9","609b9e5b48f112f4cc38fb76","683db6dfa200031b80f2a654","6865076871653395530ac936","609b9e5b48f112f4cc38fb76","2025-07-02T10:54:47.678Z","","","","","","MotivationQ","","","","","","","","","","","","","","","","","","","","","","","","","","","","","","","","","","","","","","50",""
"","","","","ctl-task-cpt","63","1965609","0.0-10.0-0.5","172","1","2025-07-02 10:23:09","80fe4187154257d5fb01684ea91b68b9","160.19.36.2","Mozilla/5.0 (Windows NT 10.0; Win64; x64) AppleWebKit/537.36 (KHTML, like Gecko) Chrome/109.0.0.0 Safari/537.36","WebKit","Chrome","109.0.0.0","Windows","10.0","https://app.prolific.com/","en-US,en;q=0.9","609b9e5b48f112f4cc38fb76","683db6dfa200031b80f2a654","6865076871653395530ac936","609b9e5b48f112f4cc38fb76","2025-07-02T10:55:56.926Z","","","","","","","","","","","","","","","","win-only","1","g1:NE,g2:SW","0.5","6","0","1899128.9","2065.9","7068.1","66236.6","1","4","4","6","2","4","4","22","18","0.16666666666666666","1793","3000","210","[""down"",""left""]","{""num_key_presses"":16,""num_perfect"":8,""num_errors"":0,""num_randdir"":8,""num_randdir_good_moves"":3,""num_whilered"":0,""num_whileblue"":0,""num_blue"":3,""num_good_moves"":11}","[294.22232142857143,296.12857142857143,0.5,294.22232142857143,296.12857142857143,111,294.22232142857143,296.12857142857143,225.1,294.22232142857143,296.12857142857143,335.7,294.22232142857143,296.12857142857143,453.8,294.22232142857143,296.12857142857143,573.3,250.22232142857143,341.12857142857143,692.1,155.22232142857143,448.12857142857143,794.6,121.22232142857143,467.12857142857143,912.6,121.22232142857143,467.12857142857143,1033,89.22232142857143,499.12857142857143,1151.1,73.22232142857143,510.12857142857143,1263.5,69.22232142857143,516.1285714285714,1367.2,65.22232142857143,520.1285714285714,1471.7,65.22232142857143,520.1285714285714,1590.8,65.22232142857143,520.1285714285714,1702.5,65.22232142857143,520.1285714285714,1823.7,65.22232142857143,520.1285714285714,1939.8,65.22232142857143,520.1285714285714,2053.1,65.22232142857143,520.1285714285714,2165.9,65.22232142857143,520.1285714285714,2277.3,65.22232142857143,520.1285714285714,2385.7,65.22232142857143,520.1285714285714,2496.9,65.22232142857143,520.1285714285714,2610.9,65.22232142857143,520.1285714285714,2722.5,65.22232142857143,520.1285714285714,2831.1,65.22232142857143,520.1285714285714,2939.9,65.22232142857143,520.1285714285714,3055.2,65.22232142857143,520.1285714285714,3167.1,65.22232142857143,520.1285714285714,3278.4,65.22232142857143,520.1285714285714,3386.4,65.22232142857143,520.1285714285714,3497,65.22232142857143,520.1285714285714,3603.1,65.22232142857143,520.1285714285714,3710.2,65.22232142857143,520.1285714285714,3819.7,65.22232142857143,520.1285714285714,3928.8,65.22232142857143,520.1285714285714,4036.7,65.22232142857143,520.1285714285714,4150.2,65.22232142857143,520.1285714285714,4254.7,65.22232142857143,520.1285714285714,4357,65.22232142857143,520.1285714285714,4458.7,65.22232142857143,520.1285714285714,4567.6,65.22232142857143,520.1285714285714,4677,65.22232142857143,520.1285714285714,4784.6,65.22232142857143,520.1285714285714,4892.9]","[1528.3,1528.3,1000,0,528.3,""oops"",""left"",""up"",""bad_move"",5024.7,3494.6,2370.4,1530.2,1124.2,""smooth"",""left"",""left"",""good_move"",8646.7,3621.5,3167.8,5025.2,453.7,""oops"",""left"",""up"",""bad_move"",15322.3,6674.9,2682.3,12138.8,501.2,""oops"",""left"",""right"",""bad_move"",18838.6,3516,2880.3,15322.7,635.7,""smooth"",""down"",""down"",""good_move"",21578.5,2739,2288.8,18839.5,450.2,""smooth"",""down"",""down"",""good_move"",25904.7,4325.9,3871.9,21578.8,454,""smooth"",""down"",""down"",""good_move"",28080.3,2175.3,1672.2,25905,503.1,""oops"",""down"",""right"",""bad_move"",31197.2,3116.7,2710,28080.7,406.7,""smooth"",""down"",""down"",""good_move"",33725.1,2527.5,2048.7,31197.7,478.8,""oops"",""down"",""left"",""good_move"",36290.2,2564.8,1991.2,33725.4,573.6,""smooth"",""down"",""down"",""good_move"",38919.7,2627.7,2243.4,36292,384.3,""smooth"",""left"",""left"",""good_move"",49536.6,10615.5,2948.6,46159.9,428.1,""oops"",""left"",""up"",""bad_move"",52688.8,3152,2656.3,49536.9,495.7,""smooth"",""left"",""left"",""good_move"",55598.3,2908.7,2411.3,52689.6,497.4,""oops"",""left"",""left"",""good_move"",58931.3,3332.5,2907.4,55598.8,425.1,""oops"",""down"",""down"",""good_move""]","","",""
"8457","","<div style=""width:500px;"">
  <p>What determined the result of this run?</p>
  </div>","44","html-slider-response","64","1974069","0.0-10.0-1.5","172","1","2025-07-02 10:23:09","80fe4187154257d5fb01684ea91b68b9","160.19.36.2","Mozilla/5.0 (Windows NT 10.0; Win64; x64) AppleWebKit/537.36 (KHTML, like Gecko) Chrome/109.0.0.0 Safari/537.36","WebKit","Chrome","109.0.0.0","Windows","10.0","https://app.prolific.com/","en-US,en;q=0.9","609b9e5b48f112f4cc38fb76","683db6dfa200031b80f2a654","6865076871653395530ac936","609b9e5b48f112f4cc38fb76","2025-07-02T10:56:05.386Z","","","","","","AttribQ","","","","","","","","","","","","","","","","","","","","","","","","","","","","","","","","","","","","","","50",""
"11381","","<div style=""width:500px;"">
  <p>How much control did you have over the ball?</p>
  </div>","47","html-slider-response","65","1985453","0.0-10.0-2.5","172","1","2025-07-02 10:23:09","80fe4187154257d5fb01684ea91b68b9","160.19.36.2","Mozilla/5.0 (Windows NT 10.0; Win64; x64) AppleWebKit/537.36 (KHTML, like Gecko) Chrome/109.0.0.0 Safari/537.36","WebKit","Chrome","109.0.0.0","Windows","10.0","https://app.prolific.com/","en-US,en;q=0.9","609b9e5b48f112f4cc38fb76","683db6dfa200031b80f2a654","6865076871653395530ac936","609b9e5b48f112f4cc38fb76","2025-07-02T10:56:16.770Z","","","","","","ControlQ","","","","","","","","","","","","","","","","","","","","","","","","","","","","","","","","","","","","","","50",""
"5981","","<div style=""width:500px;"">
  <p>How would you describe your current emotional state?</p>
  </div>","24","html-slider-response","66","1991435","0.0-10.0-3.5","172","1","2025-07-02 10:23:09","80fe4187154257d5fb01684ea91b68b9","160.19.36.2","Mozilla/5.0 (Windows NT 10.0; Win64; x64) AppleWebKit/537.36 (KHTML, like Gecko) Chrome/109.0.0.0 Safari/537.36","WebKit","Chrome","109.0.0.0","Windows","10.0","https://app.prolific.com/","en-US,en;q=0.9","609b9e5b48f112f4cc38fb76","683db6dfa200031b80f2a654","6865076871653395530ac936","609b9e5b48f112f4cc38fb76","2025-07-02T10:56:22.752Z","","","","","","StressQ","","","","","","","","","","","","","","","","","","","","","","","","","","","","","","","","","","","","","","50",""
"5040","","<div style=""width:500px;"">
  <p>What best describes how you currently feel?</p>
  </div>","93","html-slider-response","67","1996478","0.0-10.0-4.5","172","1","2025-07-02 10:23:09","80fe4187154257d5fb01684ea91b68b9","160.19.36.2","Mozilla/5.0 (Windows NT 10.0; Win64; x64) AppleWebKit/537.36 (KHTML, like Gecko) Chrome/109.0.0.0 Safari/537.36","WebKit","Chrome","109.0.0.0","Windows","10.0","https://app.prolific.com/","en-US,en;q=0.9","609b9e5b48f112f4cc38fb76","683db6dfa200031b80f2a654","6865076871653395530ac936","609b9e5b48f112f4cc38fb76","2025-07-02T10:56:27.795Z","","","","","","MotivationQ","","","","","","","","","","","","","","","","","","","","","","","","","","","","","","","","","","","","","","50",""
"","","","","ctl-task-cpt","68","2079939","0.0-10.0-0.6","172","1","2025-07-02 10:23:09","80fe4187154257d5fb01684ea91b68b9","160.19.36.2","Mozilla/5.0 (Windows NT 10.0; Win64; x64) AppleWebKit/537.36 (KHTML, like Gecko) Chrome/109.0.0.0 Safari/537.36","WebKit","Chrome","109.0.0.0","Windows","10.0","https://app.prolific.com/","en-US,en;q=0.9","609b9e5b48f112f4cc38fb76","683db6dfa200031b80f2a654","6865076871653395530ac936","609b9e5b48f112f4cc38fb76","2025-07-02T10:57:51.256Z","","","","","","","","","","","","","","","","win-only","3","g1:SW,g2:NE","0.4","7","0","1999243.1","2238.4","7241.4","80440.4","1","4","4","6","2","-4","-4","18","22","0.13636363636363635","2387.3","3000","-1015","[""up"",""right""]","{""num_key_presses"":18,""num_perfect"":7,""num_errors"":0,""num_randdir"":11,""num_randdir_good_moves"":4,""num_whilered"":0,""num_whileblue"":0,""num_blue"":4,""num_good_moves"":11}","[289.22232142857143,291.12857142857143,0.5,289.22232142857143,291.12857142857143,100.9,289.22232142857143,291.12857142857143,206.3,289.22232142857143,291.12857142857143,320.7,289.22232142857143,291.12857142857143,436.3,289.22232142857143,291.12857142857143,551,315.22232142857143,262.12857142857143,672.2,430.22232142857143,192.12857142857143,778.5,430.22232142857143,192.12857142857143,882.5,430.22232142857143,192.12857142857143,993.8,502.22232142857143,127.12857142857143,1107.4,502.22232142857143,127.12857142857143,1215.6,502.22232142857143,127.12857142857143,1326.1,502.22232142857143,127.12857142857143,1434.6,512.2223214285714,110.12857142857143,1545,521.2223214285714,90.12857142857143,1646.2,521.2223214285714,90.12857142857143,1761.9,521.2223214285714,90.12857142857143,1875.8,527.2223214285714,81.12857142857143,1988.4,533.2223214285714,74.12857142857143,2089.9,533.2223214285714,73.12857142857143,2204.7,533.2223214285714,73.12857142857143,2316.7,533.2223214285714,73.12857142857143,2417.8,533.2223214285714,73.12857142857143,2530.3,533.2223214285714,73.12857142857143,2633.7,533.2223214285714,73.12857142857143,2736.8,533.2223214285714,73.12857142857143,2854.9,533.2223214285714,73.12857142857143,2966.2,533.2223214285714,73.12857142857143,3066.9,533.2223214285714,73.12857142857143,3177.2,533.2223214285714,73.12857142857143,3289,533.2223214285714,73.12857142857143,3401.9,533.2223214285714,73.12857142857143,3515.2,533.2223214285714,73.12857142857143,3627.3,533.2223214285714,73.12857142857143,3739.5,533.2223214285714,73.12857142857143,3841.7,533.2223214285714,73.12857142857143,3952.1,533.2223214285714,73.12857142857143,4068.8,533.2223214285714,73.12857142857143,4179.4,533.2223214285714,73.12857142857143,4290.7,533.2223214285714,73.12857142857143,4393.1,533.2223214285714,73.12857142857143,4508.7,533.2223214285714,73.12857142857143,4613.4,533.2223214285714,73.12857142857143,4721.4,533.2223214285714,73.12857142857143,4827,533.2223214285714,73.12857142857143,4932]","[1617.3,1617.3,1000,0,617.4,""oops"",""up"",""down"",""bad_move"",4410.8,2792.8,2225.9,1618,566.9,""smooth"",""up"",""up"",""good_move"",7435.9,3024.8,2542.4,4411.2,482.4,""smooth"",""up"",""up"",""good_move"",10428.1,2991.8,2576.3,7436.3,415.5,""oops"",""up"",""down"",""bad_move"",13168.9,2740.2,2307.5,10428.7,432.7,""smooth"",""right"",""right"",""good_move"",16139.2,2969.4,2406.3,13169.8,563.1,""oops"",""right"",""up"",""good_move"",21638.3,5498.7,1448.8,19680.5,509.1,""smooth"",""right"",""right"",""good_move"",24890.6,3251.9,2734.8,21638.7,517.1,""oops"",""right"",""left"",""bad_move"",27812.6,2921.5,1509.8,24891.2,1411.6,""oops"",""right"",""down"",""bad_move"",30839.7,3026.7,2628.8,27813,397.9,""oops"",""up"",""down"",""bad_move"",35139.5,4299.5,3851.7,30840,447.8,""smooth"",""right"",""right"",""good_move"",46439.8,11299.9,2596.8,43365.7,477.4,""smooth"",""right"",""right"",""good_move"",50315,3872.2,3366.7,46442.8,505.5,""oops"",""up"",""up"",""good_move"",53546.8,3231.5,2720.6,50315.3,510.9,""smooth"",""up"",""up"",""good_move"",57268.1,3721,3181.1,53547.2,539.8,""oops"",""up"",""up"",""good_move"",64030.6,6762.2,2303.1,61330.5,397,""oops"",""up"",""down"",""bad_move"",67217.2,3186.3,2652.2,64030.9,534.1,""oops"",""up"",""up"",""good_move"",70237.9,3018.5,2337.7,67219.6,680.7,""oops"",""up"",""left"",""bad_move""]","","",""
"7593","","<div style=""width:500px;"">
  <p>What determined the result of this run?</p>
  </div>","20","html-slider-response","69","2087534","0.0-10.0-1.6","172","1","2025-07-02 10:23:09","80fe4187154257d5fb01684ea91b68b9","160.19.36.2","Mozilla/5.0 (Windows NT 10.0; Win64; x64) AppleWebKit/537.36 (KHTML, like Gecko) Chrome/109.0.0.0 Safari/537.36","WebKit","Chrome","109.0.0.0","Windows","10.0","https://app.prolific.com/","en-US,en;q=0.9","609b9e5b48f112f4cc38fb76","683db6dfa200031b80f2a654","6865076871653395530ac936","609b9e5b48f112f4cc38fb76","2025-07-02T10:57:58.853Z","","","","","","AttribQ","","","","","","","","","","","","","","","","","","","","","","","","","","","","","","","","","","","","","","50",""
"7467","","<div style=""width:500px;"">
  <p>How much control did you have over the ball?</p>
  </div>","22","html-slider-response","70","2095005","0.0-10.0-2.6","172","1","2025-07-02 10:23:09","80fe4187154257d5fb01684ea91b68b9","160.19.36.2","Mozilla/5.0 (Windows NT 10.0; Win64; x64) AppleWebKit/537.36 (KHTML, like Gecko) Chrome/109.0.0.0 Safari/537.36","WebKit","Chrome","109.0.0.0","Windows","10.0","https://app.prolific.com/","en-US,en;q=0.9","609b9e5b48f112f4cc38fb76","683db6dfa200031b80f2a654","6865076871653395530ac936","609b9e5b48f112f4cc38fb76","2025-07-02T10:58:06.323Z","","","","","","ControlQ","","","","","","","","","","","","","","","","","","","","","","","","","","","","","","","","","","","","","","50",""
"7232","","<div style=""width:500px;"">
  <p>How would you describe your current emotional state?</p>
  </div>","57","html-slider-response","71","2102240","0.0-10.0-3.6","172","1","2025-07-02 10:23:09","80fe4187154257d5fb01684ea91b68b9","160.19.36.2","Mozilla/5.0 (Windows NT 10.0; Win64; x64) AppleWebKit/537.36 (KHTML, like Gecko) Chrome/109.0.0.0 Safari/537.36","WebKit","Chrome","109.0.0.0","Windows","10.0","https://app.prolific.com/","en-US,en;q=0.9","609b9e5b48f112f4cc38fb76","683db6dfa200031b80f2a654","6865076871653395530ac936","609b9e5b48f112f4cc38fb76","2025-07-02T10:58:13.557Z","","","","","","StressQ","","","","","","","","","","","","","","","","","","","","","","","","","","","","","","","","","","","","","","50",""
"5687","","<div style=""width:500px;"">
  <p>What best describes how you currently feel?</p>
  </div>","81","html-slider-response","72","2107929","0.0-10.0-4.6","172","1","2025-07-02 10:23:09","80fe4187154257d5fb01684ea91b68b9","160.19.36.2","Mozilla/5.0 (Windows NT 10.0; Win64; x64) AppleWebKit/537.36 (KHTML, like Gecko) Chrome/109.0.0.0 Safari/537.36","WebKit","Chrome","109.0.0.0","Windows","10.0","https://app.prolific.com/","en-US,en;q=0.9","609b9e5b48f112f4cc38fb76","683db6dfa200031b80f2a654","6865076871653395530ac936","609b9e5b48f112f4cc38fb76","2025-07-02T10:58:19.248Z","","","","","","MotivationQ","","","","","","","","","","","","","","","","","","","","","","","","","","","","","","","","","","","","","","50",""
"","","","","ctl-task-cpt","73","2189581","0.0-10.0-0.7","172","1","2025-07-02 10:23:09","80fe4187154257d5fb01684ea91b68b9","160.19.36.2","Mozilla/5.0 (Windows NT 10.0; Win64; x64) AppleWebKit/537.36 (KHTML, like Gecko) Chrome/109.0.0.0 Safari/537.36","WebKit","Chrome","109.0.0.0","Windows","10.0","https://app.prolific.com/","en-US,en;q=0.9","609b9e5b48f112f4cc38fb76","683db6dfa200031b80f2a654","6865076871653395530ac936","609b9e5b48f112f4cc38fb76","2025-07-02T10:59:40.899Z","","","","","","","","","","","","","","","","win-only","0","g1:NW,g2:SE","0.3","8","0","2110705.2","1939.3","6944.7","78623.6","1","4","8","6","2","-8","-8","10","18","0.07575757575757576","1881.2","3000","-945","[""down"",""right""]","{""num_key_presses"":20,""num_perfect"":6,""num_errors"":0,""num_randdir"":14,""num_randdir_good_moves"":6,""num_whilered"":0,""num_whileblue"":0,""num_blue"":2,""num_good_moves"":11}","[297.22232142857143,302.12857142857143,0.4,297.22232142857143,302.12857142857143,110,297.22232142857143,302.12857142857143,218.9,297.22232142857143,302.12857142857143,336.6,297.22232142857143,302.12857142857143,452.8,297.22232142857143,302.12857142857143,567,297.22232142857143,302.12857142857143,679.5,400.22232142857143,406.12857142857143,788.6,413.22232142857143,439.12857142857143,898.8,413.22232142857143,439.12857142857143,1012.6,430.22232142857143,443.12857142857143,1124.1,518.2223214285714,509.12857142857143,1246.3,547.2223214285714,543.1285714285714,1362.1,548.2223214285714,543.1285714285714,1479.5,549.2223214285714,546.1285714285714,1586,549.2223214285714,546.1285714285714,1695.3,549.2223214285714,546.1285714285714,1798,549.2223214285714,546.1285714285714,1922.2,549.2223214285714,546.1285714285714,2035.7,549.2223214285714,546.1285714285714,2146.6,549.2223214285714,546.1285714285714,2255.7,549.2223214285714,546.1285714285714,2370.1,549.2223214285714,546.1285714285714,2485.8,549.2223214285714,546.1285714285714,2598.6,549.2223214285714,546.1285714285714,2709.7,549.2223214285714,546.1285714285714,2824.2,549.2223214285714,546.1285714285714,2936.5,549.2223214285714,546.1285714285714,3055.1,549.2223214285714,546.1285714285714,3172.6,549.2223214285714,546.1285714285714,3282.4,549.2223214285714,546.1285714285714,3391.2,549.2223214285714,546.1285714285714,3503.3,549.2223214285714,546.1285714285714,3615.2,549.2223214285714,546.1285714285714,3718.5,549.2223214285714,546.1285714285714,3821.6,549.2223214285714,546.1285714285714,3936.9,549.2223214285714,546.1285714285714,4043.2,549.2223214285714,546.1285714285714,4151.5,549.2223214285714,546.1285714285714,4263.6,549.2223214285714,546.1285714285714,4378.9,549.2223214285714,546.1285714285714,4489.2,549.2223214285714,546.1285714285714,4592,549.2223214285714,546.1285714285714,4699.3,549.2223214285714,546.1285714285714,4809.5,549.2223214285714,546.1285714285714,4920.6]","[1575,1575,1000,0,575,""smooth"",""right"",""right"",""good_move"",5032.3,3456.8,2952,1575.6,504.7,""oops"",""right"",""left"",""bad_move"",13131.1,8098.4,3267.1,9368.5,495.5,""oops"",""down"",""right"",""good_move"",15723.5,2591.9,2082,13131.6,509.9,""oops"",""down"",""left"",""bad_move"",19412.9,3689,3012.1,15723.9,676.9,""oops"",""right"",""down"",""good_move"",22240,2824.6,2323.9,19415.5,500.6,""smooth"",""right"",""right"",""good_move"",25230,2989.6,2489.1,22240.5,500.5,""smooth"",""right"",""right"",""good_move"",28651.8,3415.7,2977.8,25236.2,437.8,""oops"",""down"",""right"",""good_move"",30936.2,2283.6,1784,28652.6,499.6,""oops"",""down"",""up"",""bad_move"",34159,3222.4,2720.4,30936.6,502,""oops"",""down"",""up"",""bad_move"",37405.2,3245.8,2266.3,34159.4,979.5,""oops"",""left"",""down"",""good_move"",40435.7,3028.4,2349.4,37407.4,679,""oops"",""left"",""down"",""good_move"",43070.6,2634.5,2189.3,40436.1,445.3,""oops"",""left"",""down"",""good_move"",46146,3074.8,2633.4,43071.2,441.4,""smooth"",""left"",""left"",""bad_move"",49420.3,3274,2653,46146.3,621,""smooth"",""right"",""right"",""good_move"",52708.7,3287.8,2825.8,49420.9,462,""oops"",""down"",""up"",""bad_move"",59355.3,6645,1908.4,56634.1,812.8,""oops"",""left"",""up"",""bad_move"",62935.7,3580.1,3007,59355.7,573.1,""smooth"",""down"",""down"",""good_move"",65334.9,2398.8,1929.6,62936.2,469.1,""oops"",""down"",""left"",""bad_move"",68652.3,3312.9,2288.2,65339.5,1024.7,""oops"",""down"",""left"",""bad_move""]","","",""
"9052","","<div style=""width:500px;"">
  <p>What determined the result of this run?</p>
  </div>","9","html-slider-response","74","2198636","0.0-10.0-1.7","172","1","2025-07-02 10:23:09","80fe4187154257d5fb01684ea91b68b9","160.19.36.2","Mozilla/5.0 (Windows NT 10.0; Win64; x64) AppleWebKit/537.36 (KHTML, like Gecko) Chrome/109.0.0.0 Safari/537.36","WebKit","Chrome","109.0.0.0","Windows","10.0","https://app.prolific.com/","en-US,en;q=0.9","609b9e5b48f112f4cc38fb76","683db6dfa200031b80f2a654","6865076871653395530ac936","609b9e5b48f112f4cc38fb76","2025-07-02T10:59:49.953Z","","","","","","AttribQ","","","","","","","","","","","","","","","","","","","","","","","","","","","","","","","","","","","","","","50",""
"7827","","<div style=""width:500px;"">
  <p>How much control did you have over the ball?</p>
  </div>","15","html-slider-response","75","2206465","0.0-10.0-2.7","172","1","2025-07-02 10:23:09","80fe4187154257d5fb01684ea91b68b9","160.19.36.2","Mozilla/5.0 (Windows NT 10.0; Win64; x64) AppleWebKit/537.36 (KHTML, like Gecko) Chrome/109.0.0.0 Safari/537.36","WebKit","Chrome","109.0.0.0","Windows","10.0","https://app.prolific.com/","en-US,en;q=0.9","609b9e5b48f112f4cc38fb76","683db6dfa200031b80f2a654","6865076871653395530ac936","609b9e5b48f112f4cc38fb76","2025-07-02T10:59:57.783Z","","","","","","ControlQ","","","","","","","","","","","","","","","","","","","","","","","","","","","","","","","","","","","","","","50",""
"6564","","<div style=""width:500px;"">
  <p>How would you describe your current emotional state?</p>
  </div>","61","html-slider-response","76","2213032","0.0-10.0-3.7","172","1","2025-07-02 10:23:09","80fe4187154257d5fb01684ea91b68b9","160.19.36.2","Mozilla/5.0 (Windows NT 10.0; Win64; x64) AppleWebKit/537.36 (KHTML, like Gecko) Chrome/109.0.0.0 Safari/537.36","WebKit","Chrome","109.0.0.0","Windows","10.0","https://app.prolific.com/","en-US,en;q=0.9","609b9e5b48f112f4cc38fb76","683db6dfa200031b80f2a654","6865076871653395530ac936","609b9e5b48f112f4cc38fb76","2025-07-02T11:00:04.350Z","","","","","","StressQ","","","","","","","","","","","","","","","","","","","","","","","","","","","","","","","","","","","","","","50",""
"7120","","<div style=""width:500px;"">
  <p>What best describes how you currently feel?</p>
  </div>","89","html-slider-response","77","2220156","0.0-10.0-4.7","172","1","2025-07-02 10:23:09","80fe4187154257d5fb01684ea91b68b9","160.19.36.2","Mozilla/5.0 (Windows NT 10.0; Win64; x64) AppleWebKit/537.36 (KHTML, like Gecko) Chrome/109.0.0.0 Safari/537.36","WebKit","Chrome","109.0.0.0","Windows","10.0","https://app.prolific.com/","en-US,en;q=0.9","609b9e5b48f112f4cc38fb76","683db6dfa200031b80f2a654","6865076871653395530ac936","609b9e5b48f112f4cc38fb76","2025-07-02T11:00:11.473Z","","","","","","MotivationQ","","","","","","","","","","","","","","","","","","","","","","","","","","","","","","","","","","","","","","50",""
"","","","","ctl-task-cpt","78","2298117","0.0-10.0-0.8","172","1","2025-07-02 10:23:09","80fe4187154257d5fb01684ea91b68b9","160.19.36.2","Mozilla/5.0 (Windows NT 10.0; Win64; x64) AppleWebKit/537.36 (KHTML, like Gecko) Chrome/109.0.0.0 Safari/537.36","WebKit","Chrome","109.0.0.0","Windows","10.0","https://app.prolific.com/","en-US,en;q=0.9","609b9e5b48f112f4cc38fb76","683db6dfa200031b80f2a654","6865076871653395530ac936","609b9e5b48f112f4cc38fb76","2025-07-02T11:01:29.436Z","","","","","","","","","","","","","","","","win-only","1","g1:NE,g2:SW","0.4","9","0","2222918.5","2657","7676.5","74937.1","1","4","8","6","2","8","8","18","10","0.13636363636363635","1905.1","3000","320","[""down"",""left""]","{""num_key_presses"":18,""num_perfect"":7,""num_errors"":0,""num_randdir"":11,""num_randdir_good_moves"":6,""num_whilered"":0,""num_whileblue"":0,""num_blue"":3,""num_good_moves"":12}","[295.22232142857143,296.12857142857143,0.6,295.22232142857143,296.12857142857143,122.1,295.22232142857143,296.12857142857143,238.9,295.22232142857143,296.12857142857143,340.4,295.22232142857143,296.12857142857143,447.6,295.22232142857143,296.12857142857143,554.1,295.22232142857143,296.12857142857143,659.2,225.22232142857143,384.12857142857143,762.5,157.22232142857143,479.12857142857143,874.6,157.22232142857143,479.12857142857143,993.3,153.22232142857143,482.12857142857143,1114.2,83.22232142857143,531.1285714285714,1230.1,67.22232142857143,539.1285714285714,1342.1,63.222321428571426,544.1285714285714,1456.1,61.222321428571426,545.1285714285714,1560.2,61.222321428571426,545.1285714285714,1661.1,61.222321428571426,545.1285714285714,1765.1,61.222321428571426,545.1285714285714,1865.8,61.222321428571426,545.1285714285714,1983.5,61.222321428571426,545.1285714285714,2090.3,61.222321428571426,545.1285714285714,2208.7,61.222321428571426,545.1285714285714,2314.9,61.222321428571426,545.1285714285714,2415.3,61.222321428571426,545.1285714285714,2530.8,61.222321428571426,545.1285714285714,2634.3,61.222321428571426,545.1285714285714,2748.2,61.222321428571426,545.1285714285714,2869.5,61.222321428571426,545.1285714285714,2988,61.222321428571426,545.1285714285714,3103.1,61.222321428571426,545.1285714285714,3210.4,61.222321428571426,545.1285714285714,3315.9,61.222321428571426,545.1285714285714,3430,61.222321428571426,545.1285714285714,3543.5,61.222321428571426,545.1285714285714,3651.3,61.222321428571426,545.1285714285714,3757.9,61.222321428571426,545.1285714285714,3860.4,61.222321428571426,545.1285714285714,3968.3,61.222321428571426,545.1285714285714,4076.6,61.222321428571426,545.1285714285714,4193.9,61.222321428571426,545.1285714285714,4311.6,61.222321428571426,545.1285714285714,4415.5,61.222321428571426,545.1285714285714,4531,61.222321428571426,545.1285714285714,4643.5,61.222321428571426,545.1285714285714,4752.7,61.222321428571426,545.1285714285714,4868,61.222321428571426,545.1285714285714,4979.7]","[1573.6,1573.6,1000,0,573.6,""oops"",""down"",""left"",""good_move"",5014,3439.9,3016.9,1574.1,423,""smooth"",""down"",""down"",""good_move"",7385.8,2371.5,1904.9,5014.3,466.6,""smooth"",""down"",""down"",""good_move"",14955.1,7569.1,3248.8,10772.7,933.7,""oops"",""down"",""down"",""good_move"",18170.3,3213.5,2725.9,14956.8,487.6,""oops"",""left"",""right"",""bad_move"",24572.9,6400.8,2525.7,21587.4,459.8,""oops"",""left"",""right"",""bad_move"",27904.7,3331.5,2561,24573.2,770.5,""smooth"",""down"",""right"",""bad_move"",30228.6,2320,1705.4,27908.6,614.6,""smooth"",""down"",""left"",""good_move"",33568.3,3339.3,2521.7,30229,817.6,""oops"",""down"",""left"",""good_move"",40825.8,7257.3,2871,37484.5,470.4,""oops"",""down"",""right"",""bad_move"",43569.7,2743.6,2261.9,40826.1,481.8,""oops"",""left"",""up"",""bad_move"",46981.8,3411.8,2419.3,43570.1,992.5,""smooth"",""left"",""left"",""good_move"",50351.8,3369.5,2511.5,46982.3,858,""oops"",""left"",""left"",""good_move"",53664.3,3309.1,1865.8,50355.2,1443.3,""oops"",""left"",""up"",""bad_move"",56957.3,3292.7,2083.2,53664.7,1209.5,""smooth"",""down"",""down"",""good_move"",60085,3127.3,2646.3,56957.7,481,""oops"",""down"",""left"",""good_move"",63477.2,3391.8,2135.3,60085.4,1256.5,""smooth"",""down"",""down"",""good_move"",66795.2,3317.7,2898.4,63477.6,419.2,""oops"",""left"",""left"",""good_move""]","","",""
"6505","","<div style=""width:500px;"">
  <p>What determined the result of this run?</p>
  </div>","37","html-slider-response","79","2304628","0.0-10.0-1.8","172","1","2025-07-02 10:23:09","80fe4187154257d5fb01684ea91b68b9","160.19.36.2","Mozilla/5.0 (Windows NT 10.0; Win64; x64) AppleWebKit/537.36 (KHTML, like Gecko) Chrome/109.0.0.0 Safari/537.36","WebKit","Chrome","109.0.0.0","Windows","10.0","https://app.prolific.com/","en-US,en;q=0.9","609b9e5b48f112f4cc38fb76","683db6dfa200031b80f2a654","6865076871653395530ac936","609b9e5b48f112f4cc38fb76","2025-07-02T11:01:35.945Z","","","","","","AttribQ","","","","","","","","","","","","","","","","","","","","","","","","","","","","","","","","","","","","","","50",""
"6547","","<div style=""width:500px;"">
  <p>How much control did you have over the ball?</p>
  </div>","44","html-slider-response","80","2311176","0.0-10.0-2.8","172","1","2025-07-02 10:23:09","80fe4187154257d5fb01684ea91b68b9","160.19.36.2","Mozilla/5.0 (Windows NT 10.0; Win64; x64) AppleWebKit/537.36 (KHTML, like Gecko) Chrome/109.0.0.0 Safari/537.36","WebKit","Chrome","109.0.0.0","Windows","10.0","https://app.prolific.com/","en-US,en;q=0.9","609b9e5b48f112f4cc38fb76","683db6dfa200031b80f2a654","6865076871653395530ac936","609b9e5b48f112f4cc38fb76","2025-07-02T11:01:42.495Z","","","","","","ControlQ","","","","","","","","","","","","","","","","","","","","","","","","","","","","","","","","","","","","","","50",""
"8722","","<div style=""width:500px;"">
  <p>How would you describe your current emotional state?</p>
  </div>","54","html-slider-response","81","2319902","0.0-10.0-3.8","172","1","2025-07-02 10:23:09","80fe4187154257d5fb01684ea91b68b9","160.19.36.2","Mozilla/5.0 (Windows NT 10.0; Win64; x64) AppleWebKit/537.36 (KHTML, like Gecko) Chrome/109.0.0.0 Safari/537.36","WebKit","Chrome","109.0.0.0","Windows","10.0","https://app.prolific.com/","en-US,en;q=0.9","609b9e5b48f112f4cc38fb76","683db6dfa200031b80f2a654","6865076871653395530ac936","609b9e5b48f112f4cc38fb76","2025-07-02T11:01:51.219Z","","","","","","StressQ","","","","","","","","","","","","","","","","","","","","","","","","","","","","","","","","","","","","","","50",""
"5120","","<div style=""width:500px;"">
  <p>What best describes how you currently feel?</p>
  </div>","88","html-slider-response","82","2325024","0.0-10.0-4.8","172","1","2025-07-02 10:23:09","80fe4187154257d5fb01684ea91b68b9","160.19.36.2","Mozilla/5.0 (Windows NT 10.0; Win64; x64) AppleWebKit/537.36 (KHTML, like Gecko) Chrome/109.0.0.0 Safari/537.36","WebKit","Chrome","109.0.0.0","Windows","10.0","https://app.prolific.com/","en-US,en;q=0.9","609b9e5b48f112f4cc38fb76","683db6dfa200031b80f2a654","6865076871653395530ac936","609b9e5b48f112f4cc38fb76","2025-07-02T11:01:56.343Z","","","","","","MotivationQ","","","","","","","","","","","","","","","","","","","","","","","","","","","","","","","","","","","","","","50",""
