"rt","response_timestamp","stimulus","response","trial_type","trial_index","time_elapsed","internal_node_id","run_id","condition","recorded_at","source_code_version","ip","user_agent","device","browser","browser_version","platform","platform_version","referer","accept_language","PROLIFIC_PID","STUDY_ID","SESSION_ID","prolific_id","realtime","view_history","question_order","consent","success","question_id","eventType","responses","item_order","radio_event_ids","radio_event_times","key_event_times","mouse_event_times","straightlining","zigzagging","honeypot","which_type","canvas_config","goals_layout","control_level","trial_number","tutorial_trial_number","trial_start_time","phase1_start_time","phase2_start_time","phase3_start_time","goal_1_value","goal_1_distance","goal_2_value","goal_2_distance","goal_selected","outcome","outcome_total","participant_final_score","participant_initial_score","participant_final_score_prop","goal_choice_rt","allocated_time","allocated_time_remaining","goal_direction","counts","mouse_movements","key_presses","correct","slider_start"
"32612","1751451553990","<p style='font-size:40px;line-height:1.25'><strong>Welcome to the experiment!</strong></p><p style='font-size:1.1em;line-height:1.25'>Thank you for your interest in our experiment! Before you begin, it is important that we obtain your informed consent to participate in the study.</p><p style='font-size:1.1em;line-height:1.25'>On the next screen will be an <strong>information sheet</strong> for you to read. To participate in the study we need you to read this information sheet and the following consent form carefully. If you agree with all the statements, please click the <strong>I agree</strong> button.</p><p style='font-size:1.1em;line-height:1.25'>Press <strong>Next</strong> to read the information sheet.</p>","0","custom-html-button-response","0","32622","0.0-0.0","29","1","2025-07-02 10:18:35","80fe4187154257d5fb01684ea91b68b9","41.150.227.16","Mozilla/5.0 (Windows NT 10.0; Win64; x64) AppleWebKit/537.36 (KHTML, like Gecko) Chrome/138.0.0.0 Safari/537.36 Edg/138.0.0.0","WebKit","Edge","138.0.0.0","Windows","10.0","https://app.prolific.com/","en-US,en;q=0.9,fr;q=0.8","609fba4900794b6d944da77e","683db6dfa200031b80f2a654","6865075dad7eefedb7499407","609fba4900794b6d944da77e","2025-07-02T10:19:13.993Z","","","","","","","","","","","","","","","","","","","","","","","","","","","","","","","","","","","","","","","","","","","",""
"134921","","","","instructions","1","167545","0.0-1.0","29","1","2025-07-02 10:18:35","80fe4187154257d5fb01684ea91b68b9","41.150.227.16","Mozilla/5.0 (Windows NT 10.0; Win64; x64) AppleWebKit/537.36 (KHTML, like Gecko) Chrome/138.0.0.0 Safari/537.36 Edg/138.0.0.0","WebKit","Edge","138.0.0.0","Windows","10.0","https://app.prolific.com/","en-US,en;q=0.9,fr;q=0.8","609fba4900794b6d944da77e","683db6dfa200031b80f2a654","6865075dad7eefedb7499407","609fba4900794b6d944da77e","","[{""page_index"":0,""viewing_time"":73841},{""page_index"":1,""viewing_time"":61080}]","","","","","","","","","","","","","","","","","","","","","","","","","","","","","","","","","","","","","","","","","","",""
"22948","","","{""Q0"":"""",""Q1"":"""",""Q2"":"""",""Q3"":"""",""Q4"":"""",""Q5"":"""",""Q6"":""I agree""}","survey-multi-choice","2","190499","0.0-2.0","29","1","2025-07-02 10:18:35","80fe4187154257d5fb01684ea91b68b9","41.150.227.16","Mozilla/5.0 (Windows NT 10.0; Win64; x64) AppleWebKit/537.36 (KHTML, like Gecko) Chrome/138.0.0.0 Safari/537.36 Edg/138.0.0.0","WebKit","Edge","138.0.0.0","Windows","10.0","https://app.prolific.com/","en-US,en;q=0.9,fr;q=0.8","609fba4900794b6d944da77e","683db6dfa200031b80f2a654","6865075dad7eefedb7499407","609fba4900794b6d944da77e","","","[0,1,2,3,4,5,6]","true","","","","","","","","","","","","","","","","","","","","","","","","","","","","","","","","","","","","","","","","",""
"15442","","","","fullscreen","3","206946","0.0-4.0","29","1","2025-07-02 10:18:35","80fe4187154257d5fb01684ea91b68b9","41.150.227.16","Mozilla/5.0 (Windows NT 10.0; Win64; x64) AppleWebKit/537.36 (KHTML, like Gecko) Chrome/138.0.0.0 Safari/537.36 Edg/138.0.0.0","WebKit","Edge","138.0.0.0","Windows","10.0","https://app.prolific.com/","en-US,en;q=0.9,fr;q=0.8","609fba4900794b6d944da77e","683db6dfa200031b80f2a654","6865075dad7eefedb7499407","609fba4900794b6d944da77e","","","","","true","","","","","","","","","","","","","","","","","","","","","","","","","","","","","","","","","","","","","","","",""
"18000","1751451746323"," <p style='font-size:1.1em;line-height:1.25'>Thank you for completing the consent form and closing all other tabs.</p><p style='font-size:1.1em;line-height:1.25'>We will now invite you to fill in some demographic information and questionnaires, before starting the game.<br>This will take about 5 minutes.<br></p><p style='font-size:1.1em;line-height:1.25'>Press the <strong>Next</strong> button to continue.</p>","0","custom-html-button-response","4","224953","0.0-5.0","29","1","2025-07-02 10:18:35","80fe4187154257d5fb01684ea91b68b9","41.150.227.16","Mozilla/5.0 (Windows NT 10.0; Win64; x64) AppleWebKit/537.36 (KHTML, like Gecko) Chrome/138.0.0.0 Safari/537.36 Edg/138.0.0.0","WebKit","Edge","138.0.0.0","Windows","10.0","https://app.prolific.com/","en-US,en;q=0.9,fr;q=0.8","609fba4900794b6d944da77e","683db6dfa200031b80f2a654","6865075dad7eefedb7499407","609fba4900794b6d944da77e","2025-07-02T10:22:26.325Z","","","","","","","","","","","","","","","","","","","","","","","","","","","","","","","","","","","","","","","","","","","",""
"9624","","","{""age"":""26""}","survey-text","5","234586","0.0-6.0-0.0","29","1","2025-07-02 10:18:35","80fe4187154257d5fb01684ea91b68b9","41.150.227.16","Mozilla/5.0 (Windows NT 10.0; Win64; x64) AppleWebKit/537.36 (KHTML, like Gecko) Chrome/138.0.0.0 Safari/537.36 Edg/138.0.0.0","WebKit","Edge","138.0.0.0","Windows","10.0","https://app.prolific.com/","en-US,en;q=0.9,fr;q=0.8","609fba4900794b6d944da77e","683db6dfa200031b80f2a654","6865075dad7eefedb7499407","609fba4900794b6d944da77e","","","","","","0","demographics","","","","","","","","","","","","","","","","","","","","","","","","","","","","","","","","","","","","","",""
"3371","","","{""gender_identity"":""male/man""}","survey-multi-choice","6","237962","0.0-6.0-1.0","29","1","2025-07-02 10:18:35","80fe4187154257d5fb01684ea91b68b9","41.150.227.16","Mozilla/5.0 (Windows NT 10.0; Win64; x64) AppleWebKit/537.36 (KHTML, like Gecko) Chrome/138.0.0.0 Safari/537.36 Edg/138.0.0.0","WebKit","Edge","138.0.0.0","Windows","10.0","https://app.prolific.com/","en-US,en;q=0.9,fr;q=0.8","609fba4900794b6d944da77e","683db6dfa200031b80f2a654","6865075dad7eefedb7499407","609fba4900794b6d944da77e","","","[0]","","","1","demographics","","","","","","","","","","","","","","","","","","","","","","","","","","","","","","","","","","","","","",""
"5219","","","{""assigned_sex"":""male""}","survey-multi-choice","7","243186","0.0-6.0-2.0","29","1","2025-07-02 10:18:35","80fe4187154257d5fb01684ea91b68b9","41.150.227.16","Mozilla/5.0 (Windows NT 10.0; Win64; x64) AppleWebKit/537.36 (KHTML, like Gecko) Chrome/138.0.0.0 Safari/537.36 Edg/138.0.0.0","WebKit","Edge","138.0.0.0","Windows","10.0","https://app.prolific.com/","en-US,en;q=0.9,fr;q=0.8","609fba4900794b6d944da77e","683db6dfa200031b80f2a654","6865075dad7eefedb7499407","609fba4900794b6d944da77e","","","[0]","","","2","demographics","","","","","","","","","","","","","","","","","","","","","","","","","","","","","","","","","","","","","",""
"18852","","","{""menstrual_cycle"":""No""}","survey-multi-choice","8","262042","0.0-6.0-3.0","29","1","2025-07-02 10:18:35","80fe4187154257d5fb01684ea91b68b9","41.150.227.16","Mozilla/5.0 (Windows NT 10.0; Win64; x64) AppleWebKit/537.36 (KHTML, like Gecko) Chrome/138.0.0.0 Safari/537.36 Edg/138.0.0.0","WebKit","Edge","138.0.0.0","Windows","10.0","https://app.prolific.com/","en-US,en;q=0.9,fr;q=0.8","609fba4900794b6d944da77e","683db6dfa200031b80f2a654","6865075dad7eefedb7499407","609fba4900794b6d944da77e","","","[0]","","","4","demographics","","","","","","","","","","","","","","","","","","","","","","","","","","","","","","","","","","","","","",""
"10308","","","{""education"":""Bachelor's Degree (e.g., BA)""}","survey-multi-choice","9","272354","0.0-6.0-4.0","29","1","2025-07-02 10:18:35","80fe4187154257d5fb01684ea91b68b9","41.150.227.16","Mozilla/5.0 (Windows NT 10.0; Win64; x64) AppleWebKit/537.36 (KHTML, like Gecko) Chrome/138.0.0.0 Safari/537.36 Edg/138.0.0.0","WebKit","Edge","138.0.0.0","Windows","10.0","https://app.prolific.com/","en-US,en;q=0.9,fr;q=0.8","609fba4900794b6d944da77e","683db6dfa200031b80f2a654","6865075dad7eefedb7499407","609fba4900794b6d944da77e","","","[0]","","","5","demographics","","","","","","","","","","","","","","","","","","","","","","","","","","","","","","","","","","","","","",""
"9476","","","{""education"":""Bachelor's Degree (e.g., BA)""}","survey-multi-choice","10","281834","0.0-6.0-5.0","29","1","2025-07-02 10:18:35","80fe4187154257d5fb01684ea91b68b9","41.150.227.16","Mozilla/5.0 (Windows NT 10.0; Win64; x64) AppleWebKit/537.36 (KHTML, like Gecko) Chrome/138.0.0.0 Safari/537.36 Edg/138.0.0.0","WebKit","Edge","138.0.0.0","Windows","10.0","https://app.prolific.com/","en-US,en;q=0.9,fr;q=0.8","609fba4900794b6d944da77e","683db6dfa200031b80f2a654","6865075dad7eefedb7499407","609fba4900794b6d944da77e","2025-07-02T10:23:23.205Z","","[0]","","","6","demographics","","","","","","","","","","","","","","","","","","","","","","","","","","","","","","","","","","","","","",""
"410384","","","{""mental_health_condition"":""Anxiety Disorders"",""mental_health_treatment"":""Yes"",""psychiatric_medication"":""Xanax and  klonopin  was taken full but now on halif""}","survey-text","11","692226","0.0-7.0-0.0","29","1","2025-07-02 10:18:35","80fe4187154257d5fb01684ea91b68b9","41.150.227.16","Mozilla/5.0 (Windows NT 10.0; Win64; x64) AppleWebKit/537.36 (KHTML, like Gecko) Chrome/138.0.0.0 Safari/537.36 Edg/138.0.0.0","WebKit","Edge","138.0.0.0","Windows","10.0","https://app.prolific.com/","en-US,en;q=0.9,fr;q=0.8","609fba4900794b6d944da77e","683db6dfa200031b80f2a654","6865075dad7eefedb7499407","609fba4900794b6d944da77e","2025-07-02T10:30:13.597Z","","","","","1","mental_health","","","","","","","","","","","","","","","","","","","","","","","","","","","","","","","","","","","","","",""
"24312","","","{""depression_history"":[""Yes""]}","survey-multi-select","12","716546","0.0-7.0-1.0","29","1","2025-07-02 10:18:35","80fe4187154257d5fb01684ea91b68b9","41.150.227.16","Mozilla/5.0 (Windows NT 10.0; Win64; x64) AppleWebKit/537.36 (KHTML, like Gecko) Chrome/138.0.0.0 Safari/537.36 Edg/138.0.0.0","WebKit","Edge","138.0.0.0","Windows","10.0","https://app.prolific.com/","en-US,en;q=0.9,fr;q=0.8","609fba4900794b6d944da77e","683db6dfa200031b80f2a654","6865075dad7eefedb7499407","609fba4900794b6d944da77e","","","[0]","","","","mental_health","","","","","","","","","","","","","","","","","","","","","","","","","","","","","","","","","","","","","",""
"32180","","","{""depression_episodes"":""1-2"",""depression_recent"":""Within the past year""}","survey-multi-choice","13","748729","0.0-7.0-2.0-0.0","29","1","2025-07-02 10:18:35","80fe4187154257d5fb01684ea91b68b9","41.150.227.16","Mozilla/5.0 (Windows NT 10.0; Win64; x64) AppleWebKit/537.36 (KHTML, like Gecko) Chrome/138.0.0.0 Safari/537.36 Edg/138.0.0.0","WebKit","Edge","138.0.0.0","Windows","10.0","https://app.prolific.com/","en-US,en;q=0.9,fr;q=0.8","609fba4900794b6d944da77e","683db6dfa200031b80f2a654","6865075dad7eefedb7499407","609fba4900794b6d944da77e","2025-07-02T10:31:10.101Z","","[0,1]","","","3","mental_health","","","","","","","","","","","","","","","","","","","","","","","","","","","","","","","","","","","","","",""
"158932.89999997616","","","","survey-template","14","907670","0.0-7.0-3.0","29","1","2025-07-02 10:18:35","80fe4187154257d5fb01684ea91b68b9","41.150.227.16","Mozilla/5.0 (Windows NT 10.0; Win64; x64) AppleWebKit/537.36 (KHTML, like Gecko) Chrome/138.0.0.0 Safari/537.36 Edg/138.0.0.0","WebKit","Edge","138.0.0.0","Windows","10.0","https://app.prolific.com/","en-US,en;q=0.9,fr;q=0.8","609fba4900794b6d944da77e","683db6dfa200031b80f2a654","6865075dad7eefedb7499407","609fba4900794b6d944da77e","2025-07-02T10:33:49.041Z","","","","","","ius","{""Q01"":""2"",""Q02"":""0"",""Q03"":""3"",""Q04"":""0"",""Q05"":""3"",""Q06"":""2"",""Q07"":""0"",""Q08"":""2"",""Q09"":""4"",""Q10"":""2"",""Q11"":""1"",""Q12"":""3"",""Q13"":""2""}","[0,1,2,3,4,5,6,7,8,9,10,11,12]","[""Q01"",""Q02"",""Q03"",""Q03"",""Q04"",""Q05"",""Q06"",""Q07"",""Q08"",""Q09"",""Q10"",""Q11"",""Q12"",""Q13"",""Q13""]","[20585.19999998808,28705.099999964237,36561.09999996424,42457,51673,64994.5,77816.89999997616,88345.09999996424,97512.89999997616,111305.89999997616,124496.69999998808,134305.09999996424,140721,154784.89999997616,157856.89999997616]","[]","[20585.19999998808,28705.099999964237,36561.09999996424,42457,51673,64994.5,77816.89999997616,88345.09999996424,97512.89999997616,111305.89999997616,124496.69999998808,134305.09999996424,140721,154784.89999997616,157856.89999997616,158928.69999998808]","0.38461538461538464","0.25","0","","","","","","","","","","","","","","","","","","","","","","","","","","","","",""
"4494","1751452433538","<p style='font-size:1.1em;line-height:1.25'>In the following, we will ask you a few questions relating to your experiences over the past month.<br></p><p style='font-size:1.1em;line-height:1.25'>Press the <strong>Next</strong> button to continue.</p>","0","custom-html-button-response","15","912168","0.0-7.0-4.0","29","1","2025-07-02 10:18:35","80fe4187154257d5fb01684ea91b68b9","41.150.227.16","Mozilla/5.0 (Windows NT 10.0; Win64; x64) AppleWebKit/537.36 (KHTML, like Gecko) Chrome/138.0.0.0 Safari/537.36 Edg/138.0.0.0","WebKit","Edge","138.0.0.0","Windows","10.0","https://app.prolific.com/","en-US,en;q=0.9,fr;q=0.8","609fba4900794b6d944da77e","683db6dfa200031b80f2a654","6865075dad7eefedb7499407","609fba4900794b6d944da77e","2025-07-02T10:33:53.539Z","","","","","","","","","","","","","","","","","","","","","","","","","","","","","","","","","","","","","","","","","","","",""
"128822.30000001192","","","","survey-template","16","1040996","0.0-7.0-5.0","29","1","2025-07-02 10:18:35","80fe4187154257d5fb01684ea91b68b9","41.150.227.16","Mozilla/5.0 (Windows NT 10.0; Win64; x64) AppleWebKit/537.36 (KHTML, like Gecko) Chrome/138.0.0.0 Safari/537.36 Edg/138.0.0.0","WebKit","Edge","138.0.0.0","Windows","10.0","https://app.prolific.com/","en-US,en;q=0.9,fr;q=0.8","609fba4900794b6d944da77e","683db6dfa200031b80f2a654","6865075dad7eefedb7499407","609fba4900794b6d944da77e","2025-07-02T10:36:02.367Z","","","","","","pss","{""Q01"":""2"",""Q02"":""3"",""Q03"":""2"",""Q04"":""1"",""Q05"":""3"",""Q06"":""4"",""Q07"":""2"",""Q08"":""3"",""Q09"":""2"",""Q10"":""3""}","[0,1,2,3,4,5,6,7,8,9]","[""Q01"",""Q02"",""Q03"",""Q03"",""Q04"",""Q05"",""Q06"",""Q07"",""Q08"",""Q09"",""Q10""]","[15194.900000035763,25843.100000023842,34003,39611,51843,65546.90000003576,78602.90000003576,90058.60000002384,103546.69999998808,115435.19999998808,127602.80000001192]","[]","[0.6000000238418579,15194.900000035763,25843.100000023842,34003,39611,51843,62067.69999998808,63507.40000003576,65546.90000003576,77875.69999998808,78602.90000003576,90058.60000002384,103546.69999998808,115435.19999998808,127602.80000001192,128819.19999998808]","0.4","0.6666666666666666","0","","","","","","","","","","","","","","","","","","","","","","","","","","","","",""
"4057","1751452566426","<p style='font-size:1.1em;line-height:1.25'>Thank you for your answers! Now we will ask you a few more questions relating to your feelings in the last 24 hours.<br></p><p style='font-size:1.1em;line-height:1.25'>Press the <strong>Next</strong> button to continue.</p>","0","custom-html-button-response","17","1045056","0.0-7.0-6.0","29","1","2025-07-02 10:18:35","80fe4187154257d5fb01684ea91b68b9","41.150.227.16","Mozilla/5.0 (Windows NT 10.0; Win64; x64) AppleWebKit/537.36 (KHTML, like Gecko) Chrome/138.0.0.0 Safari/537.36 Edg/138.0.0.0","WebKit","Edge","138.0.0.0","Windows","10.0","https://app.prolific.com/","en-US,en;q=0.9,fr;q=0.8","609fba4900794b6d944da77e","683db6dfa200031b80f2a654","6865075dad7eefedb7499407","609fba4900794b6d944da77e","2025-07-02T10:36:06.427Z","","","","","","","","","","","","","","","","","","","","","","","","","","","","","","","","","","","","","","","","","","","",""
"153336.69999998808","","","","survey-template","18","1198399","0.0-7.0-7.0","29","1","2025-07-02 10:18:35","80fe4187154257d5fb01684ea91b68b9","41.150.227.16","Mozilla/5.0 (Windows NT 10.0; Win64; x64) AppleWebKit/537.36 (KHTML, like Gecko) Chrome/138.0.0.0 Safari/537.36 Edg/138.0.0.0","WebKit","Edge","138.0.0.0","Windows","10.0","https://app.prolific.com/","en-US,en;q=0.9,fr;q=0.8","609fba4900794b6d944da77e","683db6dfa200031b80f2a654","6865075dad7eefedb7499407","609fba4900794b6d944da77e","2025-07-02T10:38:39.770Z","","","","","","drsp","{""Q01"":""1"",""Q02"":""0"",""Q03"":""1"",""Q04"":""3"",""Q05"":""1"",""Q06"":""0"",""Q07"":""3"",""Q08"":""0"",""Q09"":""1"",""Q10"":""4"",""Q11"":""0"",""Q12"":""4"",""Q13"":""5"",""Q14"":""4"",""Q15"":""1"",""Q16"":""0"",""Q17"":""1"",""Q18"":""0"",""Q19"":""5"",""Q20"":""4"",""Q21"":""0""}","[0,1,2,3,4,5,6,7,8,9,10,11,12,13,14,15,16,17,18,19,20]","[""Q01"",""Q02"",""Q03"",""Q04"",""Q05"",""Q06"",""Q07"",""Q08"",""Q09"",""Q10"",""Q11"",""Q12"",""Q13"",""Q14"",""Q15"",""Q16"",""Q17"",""Q18"",""Q19"",""Q20"",""Q21""]","[17491.19999998808,22922.399999976158,29202.19999998808,37714.09999996424,41465.80000001192,45890.19999998808,52002.09999996424,59274.19999998808,67066.19999998808,73754.09999996424,82138.80000001192,86986.09999996424,91746,99993.59999996424,103930.09999996424,108218.5,110378.09999996424,114786.09999996424,126306,138801.89999997616,151945.59999996424]","[]","[0.3999999761581421,17491.19999998808,22922.399999976158,29202.19999998808,37714.09999996424,41465.80000001192,45890.19999998808,52002.09999996424,59274.19999998808,67066.19999998808,71426.89999997616,73754.09999996424,82138.80000001192,86986.09999996424,91746,99993.59999996424,103930.09999996424,108218.5,110378.09999996424,114786.09999996424,126306,138801.89999997616,149717.39999997616,151945.59999996424,153330.39999997616]","0.3333333333333333","0.55","0","","","","","","","","","","","","","","","","","","","","","","","","","","","","",""
"28133.899999976158","","","","survey-template","19","1226537","0.0-7.0-8.0","29","1","2025-07-02 10:18:35","80fe4187154257d5fb01684ea91b68b9","41.150.227.16","Mozilla/5.0 (Windows NT 10.0; Win64; x64) AppleWebKit/537.36 (KHTML, like Gecko) Chrome/138.0.0.0 Safari/537.36 Edg/138.0.0.0","WebKit","Edge","138.0.0.0","Windows","10.0","https://app.prolific.com/","en-US,en;q=0.9,fr;q=0.8","609fba4900794b6d944da77e","683db6dfa200031b80f2a654","6865075dad7eefedb7499407","609fba4900794b6d944da77e","2025-07-02T10:39:07.908Z","","","","","","stress","{""Q01"":""2"",""Q02"":""5"",""Q03"":""3""}","[0,1,2]","[""Q01"",""Q02"",""Q03""]","[8164.599999964237,14796.599999964237,26844.5]","[]","[6036.5,7092.699999988079,8164.599999964237,14796.599999964237,25150,26844.5,28132.299999952316]","0.3333333333333333","0","0","","","","","","","","","","","","","","","","","","","","","","","","","","","","",""
"258042","","","","instructions","20","1484583","0.0-8.0-0.0","29","1","2025-07-02 10:18:35","80fe4187154257d5fb01684ea91b68b9","41.150.227.16","Mozilla/5.0 (Windows NT 10.0; Win64; x64) AppleWebKit/537.36 (KHTML, like Gecko) Chrome/138.0.0.0 Safari/537.36 Edg/138.0.0.0","WebKit","Edge","138.0.0.0","Windows","10.0","https://app.prolific.com/","en-US,en;q=0.9,fr;q=0.8","609fba4900794b6d944da77e","683db6dfa200031b80f2a654","6865075dad7eefedb7499407","609fba4900794b6d944da77e","","[{""page_index"":0,""viewing_time"":60842},{""page_index"":1,""viewing_time"":76264},{""page_index"":2,""viewing_time"":36488},{""page_index"":3,""viewing_time"":84448}]","","","","","","","","","","","","","","","","","","","","","","","","","","","","","","","","","","","","","","","","","","",""
"","","","","ctl-task-cpt","21","1506914","0.0-8.0-1.0","29","1","2025-07-02 10:18:35","80fe4187154257d5fb01684ea91b68b9","41.150.227.16","Mozilla/5.0 (Windows NT 10.0; Win64; x64) AppleWebKit/537.36 (KHTML, like Gecko) Chrome/138.0.0.0 Safari/537.36 Edg/138.0.0.0","WebKit","Edge","138.0.0.0","Windows","10.0","https://app.prolific.com/","en-US,en;q=0.9,fr;q=0.8","609fba4900794b6d944da77e","683db6dfa200031b80f2a654","6865075dad7eefedb7499407","609fba4900794b6d944da77e","","","","","","","","","","","","","","","","","win-only","0","g1:NW,g2:SE","1","0","1","1491847.1","10205.1","14206.1","19323.9","2","4","4","6","1","-2","-2","0","0","0","4000.9","4000","-3005","[""left"",""up""]","{""num_key_presses"":0,""num_perfect"":0,""num_errors"":0,""num_randdir"":0,""num_randdir_good_moves"":0,""num_whilered"":0,""num_whileblue"":0,""num_blue"":0,""num_good_moves"":0}","[297.22232142857143,290.12857142857143,0.4,297.22232142857143,290.12857142857143,101.1,297.22232142857143,290.12857142857143,205.3,297.22232142857143,290.12857142857143,306.6,297.22232142857143,290.12857142857143,410.7,297.22232142857143,290.12857142857143,511.6,297.22232142857143,290.12857142857143,616.3,297.22232142857143,290.12857142857143,717.1,297.22232142857143,290.12857142857143,821.4,297.22232142857143,290.12857142857143,921.6,297.22232142857143,290.12857142857143,1026.2,297.22232142857143,290.12857142857143,1126.7,297.22232142857143,290.12857142857143,1230.7,297.22232142857143,290.12857142857143,1331.3,297.22232142857143,290.12857142857143,1431.3,297.22232142857143,288.12857142857143,1536.6,297.22232142857143,288.12857142857143,1640.6,294.22232142857143,287.12857142857143,1745.7,292.22232142857143,287.12857142857143,1845.9,289.22232142857143,285.12857142857143,1945.9,289.22232142857143,285.12857142857143,2050.8,289.22232142857143,285.12857142857143,2150.8,289.22232142857143,285.12857142857143,2255.7,289.22232142857143,285.12857142857143,2355.8,289.22232142857143,285.12857142857143,2461,289.22232142857143,285.12857142857143,2561.4,289.22232142857143,285.12857142857143,2661.4,289.22232142857143,285.12857142857143,2765.6,289.22232142857143,285.12857142857143,2870.5,289.22232142857143,285.12857142857143,2970.7,289.22232142857143,285.12857142857143,3071.1,289.22232142857143,285.12857142857143,3175.4,289.22232142857143,285.12857142857143,3275.4,289.22232142857143,285.12857142857143,3380.4,289.22232142857143,285.12857142857143,3480.5,289.22232142857143,285.12857142857143,3580.5,289.22232142857143,285.12857142857143,3685.3,289.22232142857143,285.12857142857143,3785.6,289.22232142857143,285.12857142857143,3885.9,289.22232142857143,285.12857142857143,3990.4]","[]","",""
"51756","","","","instructions","22","1558671","0.0-8.0-2.0","29","1","2025-07-02 10:18:35","80fe4187154257d5fb01684ea91b68b9","41.150.227.16","Mozilla/5.0 (Windows NT 10.0; Win64; x64) AppleWebKit/537.36 (KHTML, like Gecko) Chrome/138.0.0.0 Safari/537.36 Edg/138.0.0.0","WebKit","Edge","138.0.0.0","Windows","10.0","https://app.prolific.com/","en-US,en;q=0.9,fr;q=0.8","609fba4900794b6d944da77e","683db6dfa200031b80f2a654","6865075dad7eefedb7499407","609fba4900794b6d944da77e","","[{""page_index"":0,""viewing_time"":51755}]","","","","","","","","","","","","","","","","","","","","","","","","","","","","","","","","","","","","","","","","","","",""
"","","","","ctl-task-cpt","23","1584204","0.0-8.0-3.0","29","1","2025-07-02 10:18:35","80fe4187154257d5fb01684ea91b68b9","41.150.227.16","Mozilla/5.0 (Windows NT 10.0; Win64; x64) AppleWebKit/537.36 (KHTML, like Gecko) Chrome/138.0.0.0 Safari/537.36 Edg/138.0.0.0","WebKit","Edge","138.0.0.0","Windows","10.0","https://app.prolific.com/","en-US,en;q=0.9,fr;q=0.8","609fba4900794b6d944da77e","683db6dfa200031b80f2a654","6865075dad7eefedb7499407","609fba4900794b6d944da77e","","","","","","","","","","","","","","","","","win-only","0","g1:NW,g2:SE","0.35","0","3","1565935.6","8034.1","12036.5","22521.4","2","4","8","6","1","-2","-3","0","0","0","4002.4","4000","-2985","[""left"",""up""]","{""num_key_presses"":2,""num_perfect"":1,""num_errors"":1,""num_randdir"":0,""num_randdir_good_moves"":0,""num_whilered"":0,""num_whileblue"":0,""num_blue"":0,""num_good_moves"":0}","[299.22232142857143,295.12857142857143,0.2,299.22232142857143,295.12857142857143,101.7,299.22232142857143,295.12857142857143,201.8,300.22232142857143,296.12857142857143,308.2,306.22232142857143,296.12857142857143,408.2,309.22232142857143,296.12857142857143,511.8,311.22232142857143,296.12857142857143,612.5,311.22232142857143,296.12857142857143,713.3,311.22232142857143,296.12857142857143,817.9,311.22232142857143,296.12857142857143,925.4,311.22232142857143,296.12857142857143,1026.3,311.22232142857143,296.12857142857143,1126.5,312.22232142857143,296.12857142857143,1228.3,312.22232142857143,296.12857142857143,1332.5,312.22232142857143,296.12857142857143,1442.5,312.22232142857143,296.12857142857143,1548.4,312.22232142857143,296.12857142857143,1653.1,312.22232142857143,296.12857142857143,1758.8,312.22232142857143,296.12857142857143,1862.1,312.22232142857143,296.12857142857143,1962.9,312.22232142857143,296.12857142857143,2066.8,312.22232142857143,296.12857142857143,2167.4,312.22232142857143,296.12857142857143,2275.2,312.22232142857143,296.12857142857143,2376.7,312.22232142857143,296.12857142857143,2477.5,312.22232142857143,296.12857142857143,2581.8,312.22232142857143,296.12857142857143,2691.8,312.22232142857143,296.12857142857143,2797.3,312.22232142857143,296.12857142857143,2901.9,312.22232142857143,296.12857142857143,3001.9,312.22232142857143,296.12857142857143,3102.7,312.22232142857143,296.12857142857143,3208.2,312.22232142857143,296.12857142857143,3308.4,312.22232142857143,296.12857142857143,3412.8,312.22232142857143,296.12857142857143,3512.9,312.22232142857143,296.12857142857143,3616.3,312.22232142857143,296.12857142857143,3717.7,312.22232142857143,296.12857142857143,3824.6,312.22232142857143,296.12857142857143,3925.8]","[2872,2872,1000,0.1,1871.9,""smooth"",""right"",""right"",""bad_move"",4537.6,1664.8,1837.8,2872.9,-173.1,""error"",""-"",""-"",""no_move""]","",""
"182137","","","","instructions","24","1766342","0.0-8.0-4.0","29","1","2025-07-02 10:18:35","80fe4187154257d5fb01684ea91b68b9","41.150.227.16","Mozilla/5.0 (Windows NT 10.0; Win64; x64) AppleWebKit/537.36 (KHTML, like Gecko) Chrome/138.0.0.0 Safari/537.36 Edg/138.0.0.0","WebKit","Edge","138.0.0.0","Windows","10.0","https://app.prolific.com/","en-US,en;q=0.9,fr;q=0.8","609fba4900794b6d944da77e","683db6dfa200031b80f2a654","6865075dad7eefedb7499407","609fba4900794b6d944da77e","","[{""page_index"":0,""viewing_time"":26689},{""page_index"":1,""viewing_time"":155448}]","","","","","","","","","","","","","","","","","","","","","","","","","","","","","","","","","","","","","","","","","","",""
"24787","","","{""green_ball"":[""Ball always moves in the direction I press""]}","survey-multi-select","25","1791135","0.0-8.0-5.0-0.0","29","1","2025-07-02 10:18:35","80fe4187154257d5fb01684ea91b68b9","41.150.227.16","Mozilla/5.0 (Windows NT 10.0; Win64; x64) AppleWebKit/537.36 (KHTML, like Gecko) Chrome/138.0.0.0 Safari/537.36 Edg/138.0.0.0","WebKit","Edge","138.0.0.0","Windows","10.0","https://app.prolific.com/","en-US,en;q=0.9,fr;q=0.8","609fba4900794b6d944da77e","683db6dfa200031b80f2a654","6865075dad7eefedb7499407","609fba4900794b6d944da77e","","","[0]","","","","quiz","","","","","","","","","","","","","","","","","","","","","","","","","","","","","","","","","","","","","false",""
"24547","","<p align='center'><b>INCORRECT.</b> Usually the green ball moves in the indicated direction, but sometimes it shakes and moves randomly. </p>","0","html-button-response","26","1815686","0.0-8.0-5.0-1.0","29","1","2025-07-02 10:18:35","80fe4187154257d5fb01684ea91b68b9","41.150.227.16","Mozilla/5.0 (Windows NT 10.0; Win64; x64) AppleWebKit/537.36 (KHTML, like Gecko) Chrome/138.0.0.0 Safari/537.36 Edg/138.0.0.0","WebKit","Edge","138.0.0.0","Windows","10.0","https://app.prolific.com/","en-US,en;q=0.9,fr;q=0.8","609fba4900794b6d944da77e","683db6dfa200031b80f2a654","6865075dad7eefedb7499407","609fba4900794b6d944da77e","","","","","","","","","","","","","","","","","","","","","","","","","","","","","","","","","","","","","","","","","","","","",""
"41628","","","{""green_ball"":[""Ball sometimes shakes and moves in a random direction""]}","survey-multi-select","27","1857320","0.0-8.0-5.1-0.1","29","1","2025-07-02 10:18:35","80fe4187154257d5fb01684ea91b68b9","41.150.227.16","Mozilla/5.0 (Windows NT 10.0; Win64; x64) AppleWebKit/537.36 (KHTML, like Gecko) Chrome/138.0.0.0 Safari/537.36 Edg/138.0.0.0","WebKit","Edge","138.0.0.0","Windows","10.0","https://app.prolific.com/","en-US,en;q=0.9,fr;q=0.8","609fba4900794b6d944da77e","683db6dfa200031b80f2a654","6865075dad7eefedb7499407","609fba4900794b6d944da77e","","","[0]","","","","quiz","","","","","","","","","","","","","","","","","","","","","","","","","","","","","","","","","","","","","true",""
"7443","","<p align='center'><b>CORRECT!</b> Indeed, the green ball may sometimes shake and move in a random direction.</p>","0","html-button-response","28","1864767","0.0-8.0-5.1-1.1","29","1","2025-07-02 10:18:35","80fe4187154257d5fb01684ea91b68b9","41.150.227.16","Mozilla/5.0 (Windows NT 10.0; Win64; x64) AppleWebKit/537.36 (KHTML, like Gecko) Chrome/138.0.0.0 Safari/537.36 Edg/138.0.0.0","WebKit","Edge","138.0.0.0","Windows","10.0","https://app.prolific.com/","en-US,en;q=0.9,fr;q=0.8","609fba4900794b6d944da77e","683db6dfa200031b80f2a654","6865075dad7eefedb7499407","609fba4900794b6d944da77e","","","","","","","","","","","","","","","","","","","","","","","","","","","","","","","","","","","","","","","","","","","","",""
"20996","","","{""yellow_ball"":[""Ball doesn‘t move and I get -1 penalty point""]}","survey-multi-select","29","1885767","0.0-8.0-6.0-0.0","29","1","2025-07-02 10:18:35","80fe4187154257d5fb01684ea91b68b9","41.150.227.16","Mozilla/5.0 (Windows NT 10.0; Win64; x64) AppleWebKit/537.36 (KHTML, like Gecko) Chrome/138.0.0.0 Safari/537.36 Edg/138.0.0.0","WebKit","Edge","138.0.0.0","Windows","10.0","https://app.prolific.com/","en-US,en;q=0.9,fr;q=0.8","609fba4900794b6d944da77e","683db6dfa200031b80f2a654","6865075dad7eefedb7499407","609fba4900794b6d944da77e","","","[0]","","","","quiz","","","","","","","","","","","","","","","","","","","","","","","","","","","","","","","","","","","","","true",""
"2635","","<p align='center'><b>CORRECT!</b> Indeed, the yellow ball never moves and you receive a penalty.</p>","0","html-button-response","30","1888406","0.0-8.0-6.0-1.0","29","1","2025-07-02 10:18:35","80fe4187154257d5fb01684ea91b68b9","41.150.227.16","Mozilla/5.0 (Windows NT 10.0; Win64; x64) AppleWebKit/537.36 (KHTML, like Gecko) Chrome/138.0.0.0 Safari/537.36 Edg/138.0.0.0","WebKit","Edge","138.0.0.0","Windows","10.0","https://app.prolific.com/","en-US,en;q=0.9,fr;q=0.8","609fba4900794b6d944da77e","683db6dfa200031b80f2a654","6865075dad7eefedb7499407","609fba4900794b6d944da77e","","","","","","","","","","","","","","","","","","","","","","","","","","","","","","","","","","","","","","","","","","","","",""
"31469","","","{""blue_ball"":[""Ball always moves in the direction I press""]}","survey-multi-select","31","1919879","0.0-8.0-7.0-0.0","29","1","2025-07-02 10:18:35","80fe4187154257d5fb01684ea91b68b9","41.150.227.16","Mozilla/5.0 (Windows NT 10.0; Win64; x64) AppleWebKit/537.36 (KHTML, like Gecko) Chrome/138.0.0.0 Safari/537.36 Edg/138.0.0.0","WebKit","Edge","138.0.0.0","Windows","10.0","https://app.prolific.com/","en-US,en;q=0.9,fr;q=0.8","609fba4900794b6d944da77e","683db6dfa200031b80f2a654","6865075dad7eefedb7499407","609fba4900794b6d944da77e","","","[0]","","","","quiz","","","","","","","","","","","","","","","","","","","","","","","","","","","","","","","","","","","","","false",""
"8795","","<p align='center'><b>INCORRECT.</b> The blue ball always shakes and moves randomly.</p>","0","html-button-response","32","1928679","0.0-8.0-7.0-1.0","29","1","2025-07-02 10:18:35","80fe4187154257d5fb01684ea91b68b9","41.150.227.16","Mozilla/5.0 (Windows NT 10.0; Win64; x64) AppleWebKit/537.36 (KHTML, like Gecko) Chrome/138.0.0.0 Safari/537.36 Edg/138.0.0.0","WebKit","Edge","138.0.0.0","Windows","10.0","https://app.prolific.com/","en-US,en;q=0.9,fr;q=0.8","609fba4900794b6d944da77e","683db6dfa200031b80f2a654","6865075dad7eefedb7499407","609fba4900794b6d944da77e","","","","","","","","","","","","","","","","","","","","","","","","","","","","","","","","","","","","","","","","","","","","",""
"10676","","","{""blue_ball"":[""Ball sometimes shakes and moves in a random direction""]}","survey-multi-select","33","1939359","0.0-8.0-7.1-0.1","29","1","2025-07-02 10:18:35","80fe4187154257d5fb01684ea91b68b9","41.150.227.16","Mozilla/5.0 (Windows NT 10.0; Win64; x64) AppleWebKit/537.36 (KHTML, like Gecko) Chrome/138.0.0.0 Safari/537.36 Edg/138.0.0.0","WebKit","Edge","138.0.0.0","Windows","10.0","https://app.prolific.com/","en-US,en;q=0.9,fr;q=0.8","609fba4900794b6d944da77e","683db6dfa200031b80f2a654","6865075dad7eefedb7499407","609fba4900794b6d944da77e","","","[0]","","","","quiz","","","","","","","","","","","","","","","","","","","","","","","","","","","","","","","","","","","","","false",""
"10683","","<p align='center'><b>INCORRECT.</b> The blue ball always shakes and moves randomly.</p>","0","html-button-response","34","1950046","0.0-8.0-7.1-1.1","29","1","2025-07-02 10:18:35","80fe4187154257d5fb01684ea91b68b9","41.150.227.16","Mozilla/5.0 (Windows NT 10.0; Win64; x64) AppleWebKit/537.36 (KHTML, like Gecko) Chrome/138.0.0.0 Safari/537.36 Edg/138.0.0.0","WebKit","Edge","138.0.0.0","Windows","10.0","https://app.prolific.com/","en-US,en;q=0.9,fr;q=0.8","609fba4900794b6d944da77e","683db6dfa200031b80f2a654","6865075dad7eefedb7499407","609fba4900794b6d944da77e","","","","","","","","","","","","","","","","","","","","","","","","","","","","","","","","","","","","","","","","","","","","",""
"19899","","","{""blue_ball"":[""Ball always shakes and moves in a random direction""]}","survey-multi-select","35","1969951","0.0-8.0-7.2-0.2","29","1","2025-07-02 10:18:35","80fe4187154257d5fb01684ea91b68b9","41.150.227.16","Mozilla/5.0 (Windows NT 10.0; Win64; x64) AppleWebKit/537.36 (KHTML, like Gecko) Chrome/138.0.0.0 Safari/537.36 Edg/138.0.0.0","WebKit","Edge","138.0.0.0","Windows","10.0","https://app.prolific.com/","en-US,en;q=0.9,fr;q=0.8","609fba4900794b6d944da77e","683db6dfa200031b80f2a654","6865075dad7eefedb7499407","609fba4900794b6d944da77e","","","[0]","","","","quiz","","","","","","","","","","","","","","","","","","","","","","","","","","","","","","","","","","","","","true",""
"3764","","<p align='center'><b>CORRECT!</b> Indeed, the blue ball always shakes and moves in a random direction. Also there is a penalty of -1 point.</p>","0","html-button-response","36","1973720","0.0-8.0-7.2-1.2","29","1","2025-07-02 10:18:35","80fe4187154257d5fb01684ea91b68b9","41.150.227.16","Mozilla/5.0 (Windows NT 10.0; Win64; x64) AppleWebKit/537.36 (KHTML, like Gecko) Chrome/138.0.0.0 Safari/537.36 Edg/138.0.0.0","WebKit","Edge","138.0.0.0","Windows","10.0","https://app.prolific.com/","en-US,en;q=0.9,fr;q=0.8","609fba4900794b6d944da77e","683db6dfa200031b80f2a654","6865075dad7eefedb7499407","609fba4900794b6d944da77e","","","","","","","","","","","","","","","","","","","","","","","","","","","","","","","","","","","","","","","","","","","","",""
"10729","","","{""bonus"":[""When I reach 50% of points""]}","survey-multi-select","37","1984455","0.0-8.0-8.0-0.0","29","1","2025-07-02 10:18:35","80fe4187154257d5fb01684ea91b68b9","41.150.227.16","Mozilla/5.0 (Windows NT 10.0; Win64; x64) AppleWebKit/537.36 (KHTML, like Gecko) Chrome/138.0.0.0 Safari/537.36 Edg/138.0.0.0","WebKit","Edge","138.0.0.0","Windows","10.0","https://app.prolific.com/","en-US,en;q=0.9,fr;q=0.8","609fba4900794b6d944da77e","683db6dfa200031b80f2a654","6865075dad7eefedb7499407","609fba4900794b6d944da77e","","","[0]","","","","quiz","","","","","","","","","","","","","","","","","","","","","","","","","","","","","","","","","","","","","true",""
"2836","","<p align='center'><b>CORRECT!</b> Indeed, you receive 2 pounds extra when you reach 50% of points.</p>","0","html-button-response","38","1987294","0.0-8.0-8.0-1.0","29","1","2025-07-02 10:18:35","80fe4187154257d5fb01684ea91b68b9","41.150.227.16","Mozilla/5.0 (Windows NT 10.0; Win64; x64) AppleWebKit/537.36 (KHTML, like Gecko) Chrome/138.0.0.0 Safari/537.36 Edg/138.0.0.0","WebKit","Edge","138.0.0.0","Windows","10.0","https://app.prolific.com/","en-US,en;q=0.9,fr;q=0.8","609fba4900794b6d944da77e","683db6dfa200031b80f2a654","6865075dad7eefedb7499407","609fba4900794b6d944da77e","","","","","","","","","","","","","","","","","","","","","","","","","","","","","","","","","","","","","","","","","","","","",""
"12685","","","","instructions","39","1999982","0.0-8.0-9.0","29","1","2025-07-02 10:18:35","80fe4187154257d5fb01684ea91b68b9","41.150.227.16","Mozilla/5.0 (Windows NT 10.0; Win64; x64) AppleWebKit/537.36 (KHTML, like Gecko) Chrome/138.0.0.0 Safari/537.36 Edg/138.0.0.0","WebKit","Edge","138.0.0.0","Windows","10.0","https://app.prolific.com/","en-US,en;q=0.9,fr;q=0.8","609fba4900794b6d944da77e","683db6dfa200031b80f2a654","6865075dad7eefedb7499407","609fba4900794b6d944da77e","","[{""page_index"":0,""viewing_time"":12684}]","","","","","","","","","","","","","","","","","","","","","","","","","","","","","","","","","","","","","","","","","","",""
"44131","","<p>Before you start with this game please answer the following three questions yourself. </p>
  <p>Through this game, we measure several aspects of your cognitive performance, such as reaction times, multi-tasking capabilities </p>
  <p>and the ability to assess the situation you are in.</p>
  <p></p>
  <p><b>How good do you usually are in such tasks?</b></p>","79","html-slider-response","40","2044118","0.0-9.0-0.0","29","1","2025-07-02 10:18:35","80fe4187154257d5fb01684ea91b68b9","41.150.227.16","Mozilla/5.0 (Windows NT 10.0; Win64; x64) AppleWebKit/537.36 (KHTML, like Gecko) Chrome/138.0.0.0 Safari/537.36 Edg/138.0.0.0","WebKit","Edge","138.0.0.0","Windows","10.0","https://app.prolific.com/","en-US,en;q=0.9,fr;q=0.8","609fba4900794b6d944da77e","683db6dfa200031b80f2a654","6865075dad7eefedb7499407","609fba4900794b6d944da77e","2025-07-02T10:52:45.489Z","","","","","","PreSkillQ","","","","","","","","","","","","","","","","","","","","","","","","","","","","","","","","","","","","","","50"
"14003","","<div style=""width:500px;"">
  <p>How well do you think you will perform in this task compared to other participants?</p>
  </div>","84","html-slider-response","41","2058125","0.0-9.0-1.0","29","1","2025-07-02 10:18:35","80fe4187154257d5fb01684ea91b68b9","41.150.227.16","Mozilla/5.0 (Windows NT 10.0; Win64; x64) AppleWebKit/537.36 (KHTML, like Gecko) Chrome/138.0.0.0 Safari/537.36 Edg/138.0.0.0","WebKit","Edge","138.0.0.0","Windows","10.0","https://app.prolific.com/","en-US,en;q=0.9,fr;q=0.8","609fba4900794b6d944da77e","683db6dfa200031b80f2a654","6865075dad7eefedb7499407","609fba4900794b6d944da77e","2025-07-02T10:52:59.496Z","","","","","","PrePerfQ","","","","","","","","","","","","","","","","","","","","","","","","","","","","","","","","","","","","","","50"
"10067","","<div style=""width:500px;"">
  <p>What best describes how you currently feel?</p>
  </div>","82","html-slider-response","42","2068197","0.0-9.0-2.0","29","1","2025-07-02 10:18:35","80fe4187154257d5fb01684ea91b68b9","41.150.227.16","Mozilla/5.0 (Windows NT 10.0; Win64; x64) AppleWebKit/537.36 (KHTML, like Gecko) Chrome/138.0.0.0 Safari/537.36 Edg/138.0.0.0","WebKit","Edge","138.0.0.0","Windows","10.0","https://app.prolific.com/","en-US,en;q=0.9,fr;q=0.8","609fba4900794b6d944da77e","683db6dfa200031b80f2a654","6865075dad7eefedb7499407","609fba4900794b6d944da77e","2025-07-02T10:53:09.569Z","","","","","","PreMotivationQ","","","","","","","","","","","","","","","","","","","","","","","","","","","","","","","","","","","","","","50"
"","","","","ctl-task-cpt","43","2094507","0.0-10.0-0.0","29","1","2025-07-02 10:18:35","80fe4187154257d5fb01684ea91b68b9","41.150.227.16","Mozilla/5.0 (Windows NT 10.0; Win64; x64) AppleWebKit/537.36 (KHTML, like Gecko) Chrome/138.0.0.0 Safari/537.36 Edg/138.0.0.0","WebKit","Edge","138.0.0.0","Windows","10.0","https://app.prolific.com/","en-US,en;q=0.9,fr;q=0.8","609fba4900794b6d944da77e","683db6dfa200031b80f2a654","6865075dad7eefedb7499407","609fba4900794b6d944da77e","2025-07-02T10:53:35.879Z","","","","","","","","","","","","","","","","win-only","2","g1:SE,g2:NW","1","1","0","2075463.9","14039.9","19041.3","23287.2","1","4","8","6","2","-8","-8","0","0","0","5001.4","3000","-3010","[""left"",""up""]","{""num_key_presses"":0,""num_perfect"":0,""num_errors"":0,""num_randdir"":0,""num_randdir_good_moves"":0,""num_whilered"":0,""num_whileblue"":0,""num_blue"":0,""num_good_moves"":0}","[295.22232142857143,291.12857142857143,0.4,295.22232142857143,291.12857142857143,101.5,295.22232142857143,291.12857142857143,201.6,295.22232142857143,291.12857142857143,306,295.22232142857143,291.12857142857143,412.1,295.22232142857143,291.12857142857143,519.1,295.22232142857143,291.12857142857143,621.6,295.22232142857143,291.12857142857143,725.6,294.22232142857143,287.12857142857143,826,294.22232142857143,287.12857142857143,940,294.22232142857143,287.12857142857143,1042.9,294.22232142857143,287.12857142857143,1146.2,295.22232142857143,286.12857142857143,1251.7,297.22232142857143,288.12857142857143,1351.9,301.22232142857143,303.12857142857143,1455.8,315.22232142857143,331.12857142857143,1560.3,319.22232142857143,341.12857142857143,1660.5,327.22232142857143,357.12857142857143,1761.8,342.22232142857143,387.12857142857143,1862.2,371.22232142857143,405.12857142857143,1968.9,372.22232142857143,405.12857142857143,2072.3,372.22232142857143,405.12857142857143,2175.7,374.22232142857143,405.12857142857143,2277,377.22232142857143,404.12857142857143,2377.4,377.22232142857143,404.12857142857143,2484.7,377.22232142857143,402.12857142857143,2584.9,377.22232142857143,402.12857142857143,2685.2,376.22232142857143,398.12857142857143,2785.8,376.22232142857143,398.12857142857143,2891,376.22232142857143,398.12857142857143,2991.5,376.22232142857143,398.12857142857143,3094.7,376.22232142857143,398.12857142857143,3201.2,376.22232142857143,398.12857142857143,3301.3,376.22232142857143,398.12857142857143,3406.3,376.22232142857143,398.12857142857143,3511.6,376.22232142857143,398.12857142857143,3617.4,376.22232142857143,398.12857142857143,3721.2,376.22232142857143,398.12857142857143,3825.9,376.22232142857143,398.12857142857143,3935,376.22232142857143,398.12857142857143,4036.4,376.22232142857143,398.12857142857143,4137.1,376.22232142857143,398.12857142857143,4241.5,376.22232142857143,398.12857142857143,4350.5,376.22232142857143,398.12857142857143,4451.2,376.22232142857143,398.12857142857143,4556.5,376.22232142857143,398.12857142857143,4661.3,376.22232142857143,398.12857142857143,4767.8,376.22232142857143,398.12857142857143,4868.1,375.22232142857143,397.12857142857143,4971.4]","[]","",""
"22016","","<div style=""width:500px;"">
  <p>What determined the result of this run?</p>
  </div>","37","html-slider-response","44","2116526","0.0-10.0-1.0","29","1","2025-07-02 10:18:35","80fe4187154257d5fb01684ea91b68b9","41.150.227.16","Mozilla/5.0 (Windows NT 10.0; Win64; x64) AppleWebKit/537.36 (KHTML, like Gecko) Chrome/138.0.0.0 Safari/537.36 Edg/138.0.0.0","WebKit","Edge","138.0.0.0","Windows","10.0","https://app.prolific.com/","en-US,en;q=0.9,fr;q=0.8","609fba4900794b6d944da77e","683db6dfa200031b80f2a654","6865075dad7eefedb7499407","609fba4900794b6d944da77e","2025-07-02T10:53:57.897Z","","","","","","AttribQ","","","","","","","","","","","","","","","","","","","","","","","","","","","","","","","","","","","","","","50"
"9308","","<div style=""width:500px;"">
  <p>How much control did you have over the ball?</p>
  </div>","30","html-slider-response","45","2125837","0.0-10.0-2.0","29","1","2025-07-02 10:18:35","80fe4187154257d5fb01684ea91b68b9","41.150.227.16","Mozilla/5.0 (Windows NT 10.0; Win64; x64) AppleWebKit/537.36 (KHTML, like Gecko) Chrome/138.0.0.0 Safari/537.36 Edg/138.0.0.0","WebKit","Edge","138.0.0.0","Windows","10.0","https://app.prolific.com/","en-US,en;q=0.9,fr;q=0.8","609fba4900794b6d944da77e","683db6dfa200031b80f2a654","6865075dad7eefedb7499407","609fba4900794b6d944da77e","2025-07-02T10:54:07.209Z","","","","","","ControlQ","","","","","","","","","","","","","","","","","","","","","","","","","","","","","","","","","","","","","","50"
"13765","","<div style=""width:500px;"">
  <p>How would you describe your current emotional state?</p>
  </div>","58","html-slider-response","46","2139608","0.0-10.0-3.0","29","1","2025-07-02 10:18:35","80fe4187154257d5fb01684ea91b68b9","41.150.227.16","Mozilla/5.0 (Windows NT 10.0; Win64; x64) AppleWebKit/537.36 (KHTML, like Gecko) Chrome/138.0.0.0 Safari/537.36 Edg/138.0.0.0","WebKit","Edge","138.0.0.0","Windows","10.0","https://app.prolific.com/","en-US,en;q=0.9,fr;q=0.8","609fba4900794b6d944da77e","683db6dfa200031b80f2a654","6865075dad7eefedb7499407","609fba4900794b6d944da77e","2025-07-02T10:54:20.979Z","","","","","","StressQ","","","","","","","","","","","","","","","","","","","","","","","","","","","","","","","","","","","","","","50"
"12833","","<div style=""width:500px;"">
  <p>What best describes how you currently feel?</p>
  </div>","65","html-slider-response","47","2152445","0.0-10.0-4.0","29","1","2025-07-02 10:18:35","80fe4187154257d5fb01684ea91b68b9","41.150.227.16","Mozilla/5.0 (Windows NT 10.0; Win64; x64) AppleWebKit/537.36 (KHTML, like Gecko) Chrome/138.0.0.0 Safari/537.36 Edg/138.0.0.0","WebKit","Edge","138.0.0.0","Windows","10.0","https://app.prolific.com/","en-US,en;q=0.9,fr;q=0.8","609fba4900794b6d944da77e","683db6dfa200031b80f2a654","6865075dad7eefedb7499407","609fba4900794b6d944da77e","2025-07-02T10:54:33.816Z","","","","","","MotivationQ","","","","","","","","","","","","","","","","","","","","","","","","","","","","","","","","","","","","","","50"
"","","","","ctl-task-cpt","48","2194101","0.0-10.0-0.1","29","1","2025-07-02 10:18:35","80fe4187154257d5fb01684ea91b68b9","41.150.227.16","Mozilla/5.0 (Windows NT 10.0; Win64; x64) AppleWebKit/537.36 (KHTML, like Gecko) Chrome/138.0.0.0 Safari/537.36 Edg/138.0.0.0","WebKit","Edge","138.0.0.0","Windows","10.0","https://app.prolific.com/","en-US,en;q=0.9,fr;q=0.8","609fba4900794b6d944da77e","683db6dfa200031b80f2a654","6865075dad7eefedb7499407","609fba4900794b6d944da77e","2025-07-02T10:55:15.472Z","","","","","","","","","","","","","","","","win-only","3","g1:SW,g2:NE","0.9","2","0","2159710.6","20818.5","25822","38626.8","1","4","4","6","1","-1","-2","0","0","0","5003.5","3000","-2670","[""down"",""left""]","{""num_key_presses"":3,""num_perfect"":1,""num_errors"":1,""num_randdir"":0,""num_randdir_good_moves"":0,""num_whilered"":1,""num_whileblue"":0,""num_blue"":1,""num_good_moves"":0}","[298.22232142857143,294.12857142857143,0.5,298.22232142857143,294.12857142857143,102.7,298.22232142857143,294.12857142857143,208.9,298.22232142857143,294.12857142857143,316.9,298.22232142857143,294.12857142857143,417.4,298.22232142857143,294.12857142857143,523.3,298.22232142857143,294.12857142857143,624,298.22232142857143,294.12857142857143,734.5,298.22232142857143,294.12857142857143,837.1,298.22232142857143,294.12857142857143,938.3,298.22232142857143,294.12857142857143,1042.3,298.22232142857143,294.12857142857143,1142.4,299.22232142857143,294.12857142857143,1242.4,299.22232142857143,294.12857142857143,1346.5,299.22232142857143,294.12857142857143,1449.8,299.22232142857143,294.12857142857143,1553.2,299.22232142857143,294.12857142857143,1653.3,299.22232142857143,294.12857142857143,1757.9,299.22232142857143,294.12857142857143,1863.6,299.22232142857143,294.12857142857143,1964.6,299.22232142857143,294.12857142857143,2067.1,299.22232142857143,294.12857142857143,2167.6,299.22232142857143,295.12857142857143,2271.9,296.22232142857143,305.12857142857143,2373.6,286.22232142857143,332.12857142857143,2477.2,284.22232142857143,333.12857142857143,2582.3,279.22232142857143,347.12857142857143,2682.3,274.22232142857143,351.12857142857143,2785.1,265.22232142857143,356.12857142857143,2888,262.22232142857143,354.12857142857143,2988.2,262.22232142857143,353.12857142857143,3093.3,257.22232142857143,352.12857142857143,3198.7,257.22232142857143,352.12857142857143,3298.9,257.22232142857143,351.12857142857143,3400,257.22232142857143,351.12857142857143,3503.6,257.22232142857143,351.12857142857143,3607.3,257.22232142857143,351.12857142857143,3707.9,257.22232142857143,351.12857142857143,3812.8,257.22232142857143,351.12857142857143,3914,257.22232142857143,351.12857142857143,4018.7,257.22232142857143,351.12857142857143,4122.3,257.22232142857143,351.12857142857143,4223.8,257.22232142857143,351.12857142857143,4328.8,257.22232142857143,351.12857142857143,4434.4,257.22232142857143,351.12857142857143,4537.4,257.22232142857143,351.12857142857143,4637.9,257.22232142857143,351.12857142857143,4743,257.22232142857143,351.12857142857143,4843,257.22232142857143,351.12857142857143,4943.1]","[2853.6,2853.6,2764.1,2013.1,-1923.5,""error"",""-"",""-"",""no_move"",2927.8,73.6,2764.1,2013.1,-1849.4,""while_red"",""-"",""-"",""no_move"",9429,6574.8,2576.3,3855.2,2997.5,""smooth"",""right"",""right"",""bad_move""]","",""
"18488","","<div style=""width:500px;"">
  <p>What determined the result of this run?</p>
  </div>","58","html-slider-response","49","2212592","0.0-10.0-1.1","29","1","2025-07-02 10:18:35","80fe4187154257d5fb01684ea91b68b9","41.150.227.16","Mozilla/5.0 (Windows NT 10.0; Win64; x64) AppleWebKit/537.36 (KHTML, like Gecko) Chrome/138.0.0.0 Safari/537.36 Edg/138.0.0.0","WebKit","Edge","138.0.0.0","Windows","10.0","https://app.prolific.com/","en-US,en;q=0.9,fr;q=0.8","609fba4900794b6d944da77e","683db6dfa200031b80f2a654","6865075dad7eefedb7499407","609fba4900794b6d944da77e","2025-07-02T10:55:33.963Z","","","","","","AttribQ","","","","","","","","","","","","","","","","","","","","","","","","","","","","","","","","","","","","","","50"
"14167","","<div style=""width:500px;"">
  <p>How much control did you have over the ball?</p>
  </div>","59","html-slider-response","50","2226767","0.0-10.0-2.1","29","1","2025-07-02 10:18:35","80fe4187154257d5fb01684ea91b68b9","41.150.227.16","Mozilla/5.0 (Windows NT 10.0; Win64; x64) AppleWebKit/537.36 (KHTML, like Gecko) Chrome/138.0.0.0 Safari/537.36 Edg/138.0.0.0","WebKit","Edge","138.0.0.0","Windows","10.0","https://app.prolific.com/","en-US,en;q=0.9,fr;q=0.8","609fba4900794b6d944da77e","683db6dfa200031b80f2a654","6865075dad7eefedb7499407","609fba4900794b6d944da77e","2025-07-02T10:55:48.139Z","","","","","","ControlQ","","","","","","","","","","","","","","","","","","","","","","","","","","","","","","","","","","","","","","50"
"7719","","<div style=""width:500px;"">
  <p>How would you describe your current emotional state?</p>
  </div>","58","html-slider-response","51","2234493","0.0-10.0-3.1","29","1","2025-07-02 10:18:35","80fe4187154257d5fb01684ea91b68b9","41.150.227.16","Mozilla/5.0 (Windows NT 10.0; Win64; x64) AppleWebKit/537.36 (KHTML, like Gecko) Chrome/138.0.0.0 Safari/537.36 Edg/138.0.0.0","WebKit","Edge","138.0.0.0","Windows","10.0","https://app.prolific.com/","en-US,en;q=0.9,fr;q=0.8","609fba4900794b6d944da77e","683db6dfa200031b80f2a654","6865075dad7eefedb7499407","609fba4900794b6d944da77e","2025-07-02T10:55:55.864Z","","","","","","StressQ","","","","","","","","","","","","","","","","","","","","","","","","","","","","","","","","","","","","","","50"
"9062","","<div style=""width:500px;"">
  <p>What best describes how you currently feel?</p>
  </div>","60","html-slider-response","52","2243560","0.0-10.0-4.1","29","1","2025-07-02 10:18:35","80fe4187154257d5fb01684ea91b68b9","41.150.227.16","Mozilla/5.0 (Windows NT 10.0; Win64; x64) AppleWebKit/537.36 (KHTML, like Gecko) Chrome/138.0.0.0 Safari/537.36 Edg/138.0.0.0","WebKit","Edge","138.0.0.0","Windows","10.0","https://app.prolific.com/","en-US,en;q=0.9,fr;q=0.8","609fba4900794b6d944da77e","683db6dfa200031b80f2a654","6865075dad7eefedb7499407","609fba4900794b6d944da77e","2025-07-02T10:56:04.932Z","","","","","","MotivationQ","","","","","","","","","","","","","","","","","","","","","","","","","","","","","","","","","","","","","","50"
"","","","","ctl-task-cpt","53","2273059","0.0-10.0-0.2","29","1","2025-07-02 10:18:35","80fe4187154257d5fb01684ea91b68b9","41.150.227.16","Mozilla/5.0 (Windows NT 10.0; Win64; x64) AppleWebKit/537.36 (KHTML, like Gecko) Chrome/138.0.0.0 Safari/537.36 Edg/138.0.0.0","WebKit","Edge","138.0.0.0","Windows","10.0","https://app.prolific.com/","en-US,en;q=0.9,fr;q=0.8","609fba4900794b6d944da77e","683db6dfa200031b80f2a654","6865075dad7eefedb7499407","609fba4900794b6d944da77e","2025-07-02T10:56:34.430Z","","","","","","","","","","","","","","","","win-only","3","g1:SW,g2:NE","0.8","3","0","2250825","13531","18536.1","26465.8","1","4","4","6","1","-1","-2","0","0","0","5005.1","3000","-2660","[""down"",""left""]","{""num_key_presses"":3,""num_perfect"":1,""num_errors"":1,""num_randdir"":0,""num_randdir_good_moves"":0,""num_whilered"":1,""num_whileblue"":0,""num_blue"":0,""num_good_moves"":0}","[297.22232142857143,300.12857142857143,0.7,297.22232142857143,300.12857142857143,100,297.22232142857143,300.12857142857143,200.3,297.22232142857143,300.12857142857143,305.7,297.22232142857143,300.12857142857143,414.6,297.22232142857143,300.12857142857143,516.9,297.22232142857143,300.12857142857143,620.4,297.22232142857143,300.12857142857143,720.5,297.22232142857143,300.12857142857143,830.7,297.22232142857143,300.12857142857143,934.3,297.22232142857143,300.12857142857143,1035,297.22232142857143,300.12857142857143,1139.8,297.22232142857143,300.12857142857143,1240.1,297.22232142857143,300.12857142857143,1347.7,288.22232142857143,315.12857142857143,1448.4,274.22232142857143,337.12857142857143,1548.7,268.22232142857143,354.12857142857143,1650.6,262.22232142857143,357.12857142857143,1755.6,255.22232142857143,367.12857142857143,1864.2,254.22232142857143,366.12857142857143,1964.9,254.22232142857143,366.12857142857143,2070.2,254.22232142857143,366.12857142857143,2174.9,254.22232142857143,366.12857142857143,2282.3,254.22232142857143,366.12857142857143,2384.9,254.22232142857143,366.12857142857143,2489.3,254.22232142857143,366.12857142857143,2590.5,254.22232142857143,366.12857142857143,2697.4,254.22232142857143,366.12857142857143,2798,254.22232142857143,366.12857142857143,2900.4,254.22232142857143,366.12857142857143,3004.4,254.22232142857143,366.12857142857143,3105.6,254.22232142857143,366.12857142857143,3214.9,254.22232142857143,366.12857142857143,3319.6,254.22232142857143,366.12857142857143,3425.3,254.22232142857143,366.12857142857143,3531.7,254.22232142857143,366.12857142857143,3631.7,254.22232142857143,366.12857142857143,3732.8,254.22232142857143,366.12857142857143,3834.6,254.22232142857143,366.12857142857143,3934.9,254.22232142857143,366.12857142857143,4035.2,254.22232142857143,366.12857142857143,4135.2,254.22232142857143,366.12857142857143,4241.5,254.22232142857143,366.12857142857143,4347.1,254.22232142857143,366.12857142857143,4447.6,254.22232142857143,366.12857142857143,4549.6,254.22232142857143,366.12857142857143,4650.1,254.22232142857143,366.12857142857143,4755.3,254.22232142857143,366.12857142857143,4864.8,254.22232142857143,366.12857142857143,4965.3]","[2641.3,2641.3,1000,0,1641.3,""smooth"",""up"",""up"",""bad_move"",2958,315.2,2651.9,2642.9,-2336.7,""error"",""-"",""-"",""no_move"",3308,349.1,2651.9,2642.9,-1986.6,""while_red"",""-"",""-"",""no_move""]","",""
"12617","","<div style=""width:500px;"">
  <p>What determined the result of this run?</p>
  </div>","60","html-slider-response","54","2285677","0.0-10.0-1.2","29","1","2025-07-02 10:18:35","80fe4187154257d5fb01684ea91b68b9","41.150.227.16","Mozilla/5.0 (Windows NT 10.0; Win64; x64) AppleWebKit/537.36 (KHTML, like Gecko) Chrome/138.0.0.0 Safari/537.36 Edg/138.0.0.0","WebKit","Edge","138.0.0.0","Windows","10.0","https://app.prolific.com/","en-US,en;q=0.9,fr;q=0.8","609fba4900794b6d944da77e","683db6dfa200031b80f2a654","6865075dad7eefedb7499407","609fba4900794b6d944da77e","2025-07-02T10:56:47.049Z","","","","","","AttribQ","","","","","","","","","","","","","","","","","","","","","","","","","","","","","","","","","","","","","","50"
"6787","","<div style=""width:500px;"">
  <p>How much control did you have over the ball?</p>
  </div>","60","html-slider-response","55","2292469","0.0-10.0-2.2","29","1","2025-07-02 10:18:35","80fe4187154257d5fb01684ea91b68b9","41.150.227.16","Mozilla/5.0 (Windows NT 10.0; Win64; x64) AppleWebKit/537.36 (KHTML, like Gecko) Chrome/138.0.0.0 Safari/537.36 Edg/138.0.0.0","WebKit","Edge","138.0.0.0","Windows","10.0","https://app.prolific.com/","en-US,en;q=0.9,fr;q=0.8","609fba4900794b6d944da77e","683db6dfa200031b80f2a654","6865075dad7eefedb7499407","609fba4900794b6d944da77e","2025-07-02T10:56:53.840Z","","","","","","ControlQ","","","","","","","","","","","","","","","","","","","","","","","","","","","","","","","","","","","","","","50"
"7259","","<div style=""width:500px;"">
  <p>How would you describe your current emotional state?</p>
  </div>","40","html-slider-response","56","2299733","0.0-10.0-3.2","29","1","2025-07-02 10:18:35","80fe4187154257d5fb01684ea91b68b9","41.150.227.16","Mozilla/5.0 (Windows NT 10.0; Win64; x64) AppleWebKit/537.36 (KHTML, like Gecko) Chrome/138.0.0.0 Safari/537.36 Edg/138.0.0.0","WebKit","Edge","138.0.0.0","Windows","10.0","https://app.prolific.com/","en-US,en;q=0.9,fr;q=0.8","609fba4900794b6d944da77e","683db6dfa200031b80f2a654","6865075dad7eefedb7499407","609fba4900794b6d944da77e","2025-07-02T10:57:01.104Z","","","","","","StressQ","","","","","","","","","","","","","","","","","","","","","","","","","","","","","","","","","","","","","","50"
"9813","","<div style=""width:500px;"">
  <p>What best describes how you currently feel?</p>
  </div>","63","html-slider-response","57","2309550","0.0-10.0-4.2","29","1","2025-07-02 10:18:35","80fe4187154257d5fb01684ea91b68b9","41.150.227.16","Mozilla/5.0 (Windows NT 10.0; Win64; x64) AppleWebKit/537.36 (KHTML, like Gecko) Chrome/138.0.0.0 Safari/537.36 Edg/138.0.0.0","WebKit","Edge","138.0.0.0","Windows","10.0","https://app.prolific.com/","en-US,en;q=0.9,fr;q=0.8","609fba4900794b6d944da77e","683db6dfa200031b80f2a654","6865075dad7eefedb7499407","609fba4900794b6d944da77e","2025-07-02T10:57:10.921Z","","","","","","MotivationQ","","","","","","","","","","","","","","","","","","","","","","","","","","","","","","","","","","","","","","50"
"","","","","ctl-task-cpt","58","2342900","0.0-10.0-0.3","29","1","2025-07-02 10:18:35","80fe4187154257d5fb01684ea91b68b9","41.150.227.16","Mozilla/5.0 (Windows NT 10.0; Win64; x64) AppleWebKit/537.36 (KHTML, like Gecko) Chrome/138.0.0.0 Safari/537.36 Edg/138.0.0.0","WebKit","Edge","138.0.0.0","Windows","10.0","https://app.prolific.com/","en-US,en;q=0.9,fr;q=0.8","609fba4900794b6d944da77e","683db6dfa200031b80f2a654","6865075dad7eefedb7499407","609fba4900794b6d944da77e","2025-07-02T10:57:44.272Z","","","","","","","","","","","","","","","","win-only","1","g1:NE,g2:SW","0.7","4","0","2316814.8","8447.2","13461.2","30326.3","1","4","8","6","2","-8","-9","0","0","0","5014","3000","-2890","[""down"",""left""]","{""num_key_presses"":5,""num_perfect"":4,""num_errors"":1,""num_randdir"":0,""num_randdir_good_moves"":0,""num_whilered"":0,""num_whileblue"":1,""num_blue"":1,""num_good_moves"":1}","[297.22232142857143,295.12857142857143,0.4,297.22232142857143,295.12857142857143,101.1,297.22232142857143,295.12857142857143,205.7,297.22232142857143,295.12857142857143,308.3,297.22232142857143,295.12857142857143,409.8,297.22232142857143,295.12857142857143,510.2,297.22232142857143,295.12857142857143,613.1,297.22232142857143,295.12857142857143,713.3,297.22232142857143,295.12857142857143,820.3,297.22232142857143,295.12857142857143,923.7,297.22232142857143,295.12857142857143,1023.9,297.22232142857143,295.12857142857143,1124,297.22232142857143,295.12857142857143,1226.1,302.22232142857143,282.12857142857143,1337,312.22232142857143,275.12857142857143,1451.2,329.22232142857143,253.12857142857143,1553.6,340.22232142857143,253.12857142857143,1654.3,345.22232142857143,249.12857142857143,1758,345.22232142857143,249.12857142857143,1867.4,345.22232142857143,249.12857142857143,1967.9,345.22232142857143,249.12857142857143,2069.1,345.22232142857143,249.12857142857143,2170,345.22232142857143,249.12857142857143,2273.8,345.22232142857143,249.12857142857143,2376.3,345.22232142857143,249.12857142857143,2479.7,345.22232142857143,249.12857142857143,2583.9,345.22232142857143,249.12857142857143,2686,345.22232142857143,249.12857142857143,2789.5,345.22232142857143,249.12857142857143,2894.9,345.22232142857143,249.12857142857143,3005.3,345.22232142857143,249.12857142857143,3115.7,345.22232142857143,249.12857142857143,3219,345.22232142857143,249.12857142857143,3323.3,345.22232142857143,249.12857142857143,3423.9,345.22232142857143,249.12857142857143,3531.4,345.22232142857143,249.12857142857143,3640.3,345.22232142857143,249.12857142857143,3744.5,345.22232142857143,249.12857142857143,3859.4,345.22232142857143,249.12857142857143,3973.4,346.22232142857143,249.12857142857143,4074.7,346.22232142857143,249.12857142857143,4181.2,346.22232142857143,249.12857142857143,4292.5,346.22232142857143,249.12857142857143,4393.4,346.22232142857143,249.12857142857143,4497.7,346.22232142857143,249.12857142857143,4597.9,346.22232142857143,249.12857142857143,4705.4,346.22232142857143,249.12857142857143,4809.4,346.22232142857143,249.12857142857143,4910.1]","[1459.7,1459.7,1004.1,0,455.6,""while_blue"",""up"",""up"",""bad_move"",3935.4,2475.2,1844.6,1460.3,630.6,""smooth"",""up"",""up"",""bad_move"",7820.6,3884.9,3049.2,3935.7,835.7,""smooth"",""right"",""right"",""bad_move"",10404.3,2582.6,2101.1,7821.7,481.5,""smooth"",""right"",""right"",""bad_move"",13536.2,3129.9,2536.7,10406.4,593.1,""smooth"",""down"",""down"",""good_move""]","",""
"11839","","<div style=""width:500px;"">
  <p>What determined the result of this run?</p>
  </div>","71","html-slider-response","59","2354741","0.0-10.0-1.3","29","1","2025-07-02 10:18:35","80fe4187154257d5fb01684ea91b68b9","41.150.227.16","Mozilla/5.0 (Windows NT 10.0; Win64; x64) AppleWebKit/537.36 (KHTML, like Gecko) Chrome/138.0.0.0 Safari/537.36 Edg/138.0.0.0","WebKit","Edge","138.0.0.0","Windows","10.0","https://app.prolific.com/","en-US,en;q=0.9,fr;q=0.8","609fba4900794b6d944da77e","683db6dfa200031b80f2a654","6865075dad7eefedb7499407","609fba4900794b6d944da77e","2025-07-02T10:57:56.112Z","","","","","","AttribQ","","","","","","","","","","","","","","","","","","","","","","","","","","","","","","","","","","","","","","50"
"5537","","<div style=""width:500px;"">
  <p>How much control did you have over the ball?</p>
  </div>","79","html-slider-response","60","2360283","0.0-10.0-2.3","29","1","2025-07-02 10:18:35","80fe4187154257d5fb01684ea91b68b9","41.150.227.16","Mozilla/5.0 (Windows NT 10.0; Win64; x64) AppleWebKit/537.36 (KHTML, like Gecko) Chrome/138.0.0.0 Safari/537.36 Edg/138.0.0.0","WebKit","Edge","138.0.0.0","Windows","10.0","https://app.prolific.com/","en-US,en;q=0.9,fr;q=0.8","609fba4900794b6d944da77e","683db6dfa200031b80f2a654","6865075dad7eefedb7499407","609fba4900794b6d944da77e","2025-07-02T10:58:01.654Z","","","","","","ControlQ","","","","","","","","","","","","","","","","","","","","","","","","","","","","","","","","","","","","","","50"
"11407","","<div style=""width:500px;"">
  <p>How would you describe your current emotional state?</p>
  </div>","15","html-slider-response","61","2371694","0.0-10.0-3.3","29","1","2025-07-02 10:18:35","80fe4187154257d5fb01684ea91b68b9","41.150.227.16","Mozilla/5.0 (Windows NT 10.0; Win64; x64) AppleWebKit/537.36 (KHTML, like Gecko) Chrome/138.0.0.0 Safari/537.36 Edg/138.0.0.0","WebKit","Edge","138.0.0.0","Windows","10.0","https://app.prolific.com/","en-US,en;q=0.9,fr;q=0.8","609fba4900794b6d944da77e","683db6dfa200031b80f2a654","6865075dad7eefedb7499407","609fba4900794b6d944da77e","2025-07-02T10:58:13.065Z","","","","","","StressQ","","","","","","","","","","","","","","","","","","","","","","","","","","","","","","","","","","","","","","50"
"8371","","<div style=""width:500px;"">
  <p>What best describes how you currently feel?</p>
  </div>","89","html-slider-response","62","2380070","0.0-10.0-4.3","29","1","2025-07-02 10:18:35","80fe4187154257d5fb01684ea91b68b9","41.150.227.16","Mozilla/5.0 (Windows NT 10.0; Win64; x64) AppleWebKit/537.36 (KHTML, like Gecko) Chrome/138.0.0.0 Safari/537.36 Edg/138.0.0.0","WebKit","Edge","138.0.0.0","Windows","10.0","https://app.prolific.com/","en-US,en;q=0.9,fr;q=0.8","609fba4900794b6d944da77e","683db6dfa200031b80f2a654","6865075dad7eefedb7499407","609fba4900794b6d944da77e","2025-07-02T10:58:21.441Z","","","","","","MotivationQ","","","","","","","","","","","","","","","","","","","","","","","","","","","","","","","","","","","","","","50"
"","","","","ctl-task-cpt","63","2408813","0.0-10.0-0.4","29","1","2025-07-02 10:18:35","80fe4187154257d5fb01684ea91b68b9","41.150.227.16","Mozilla/5.0 (Windows NT 10.0; Win64; x64) AppleWebKit/537.36 (KHTML, like Gecko) Chrome/138.0.0.0 Safari/537.36 Edg/138.0.0.0","WebKit","Edge","138.0.0.0","Windows","10.0","https://app.prolific.com/","en-US,en;q=0.9,fr;q=0.8","609fba4900794b6d944da77e","683db6dfa200031b80f2a654","6865075dad7eefedb7499407","609fba4900794b6d944da77e","2025-07-02T10:58:50.184Z","","","","","","","","","","","","","","","","win-only","2","g1:SE,g2:NW","0.6","5","0","2387337.4","2257.1","7262","25716.4","1","4","8","6","1","-1","-3","0","0","0","5004.9","3000","-2395","[""down"",""right""]","{""num_key_presses"":6,""num_perfect"":2,""num_errors"":2,""num_randdir"":2,""num_randdir_good_moves"":1,""num_whilered"":0,""num_whileblue"":0,""num_blue"":0,""num_good_moves"":1}","[298.22232142857143,293.12857142857143,0.9,298.22232142857143,293.12857142857143,101,298.22232142857143,293.12857142857143,203.3,298.22232142857143,293.12857142857143,303.8,304.22232142857143,294.12857142857143,404.2,317.22232142857143,311.12857142857143,505,319.22232142857143,313.12857142857143,610.8,333.22232142857143,324.12857142857143,712.4,337.22232142857143,332.12857142857143,818.6,337.22232142857143,332.12857142857143,918.9,337.22232142857143,332.12857142857143,1024.6,337.22232142857143,332.12857142857143,1130,340.22232142857143,338.12857142857143,1233.5,340.22232142857143,338.12857142857143,1340.4,340.22232142857143,338.12857142857143,1447.1,362.22232142857143,339.12857142857143,1548.3,362.22232142857143,339.12857142857143,1648.5,362.22232142857143,339.12857142857143,1749.5,362.22232142857143,339.12857142857143,1854.7,362.22232142857143,339.12857142857143,1963.8,362.22232142857143,339.12857142857143,2064.2,362.22232142857143,339.12857142857143,2170,362.22232142857143,339.12857142857143,2278,362.22232142857143,339.12857142857143,2381,362.22232142857143,339.12857142857143,2491.8,362.22232142857143,339.12857142857143,2599.7,362.22232142857143,339.12857142857143,2703.8,362.22232142857143,339.12857142857143,2811,362.22232142857143,339.12857142857143,2914.1,362.22232142857143,339.12857142857143,3019,362.22232142857143,339.12857142857143,3119.4,362.22232142857143,339.12857142857143,3225,362.22232142857143,339.12857142857143,3330.8,362.22232142857143,339.12857142857143,3431.2,362.22232142857143,339.12857142857143,3531.2,362.22232142857143,339.12857142857143,3634.3,362.22232142857143,339.12857142857143,3746.9,362.22232142857143,339.12857142857143,3848,362.22232142857143,339.12857142857143,3948.2,362.22232142857143,339.12857142857143,4050.5,362.22232142857143,339.12857142857143,4153.3,362.22232142857143,339.12857142857143,4255.3,362.22232142857143,339.12857142857143,4364.1,362.22232142857143,339.12857142857143,4468.9,362.22232142857143,339.12857142857143,4580,362.22232142857143,339.12857142857143,4683.3,362.22232142857143,339.12857142857143,4784.2,362.22232142857143,339.12857142857143,4889.6,362.22232142857143,339.12857142857143,4996.7]","[2676.1,2676.1,1000,0,1676.1,""oops"",""up"",""down"",""good_move"",5814.5,3137.2,2322.2,2677.3,815,""smooth"",""up"",""up"",""bad_move"",6225.4,410.1,2170.5,5815.3,-1760.4,""error"",""-"",""-"",""no_move"",10393.3,4167.7,2522.9,7226.2,644.2,""smooth"",""up"",""up"",""bad_move"",10768.2,372.8,1963.5,10395.6,-1590.8,""error"",""-"",""-"",""no_move"",15409.6,4638.7,3014.2,11775.4,620,""oops"",""up"",""left"",""bad_move""]","",""
"12648","","<div style=""width:500px;"">
  <p>What determined the result of this run?</p>
  </div>","70","html-slider-response","64","2421464","0.0-10.0-1.4","29","1","2025-07-02 10:18:35","80fe4187154257d5fb01684ea91b68b9","41.150.227.16","Mozilla/5.0 (Windows NT 10.0; Win64; x64) AppleWebKit/537.36 (KHTML, like Gecko) Chrome/138.0.0.0 Safari/537.36 Edg/138.0.0.0","WebKit","Edge","138.0.0.0","Windows","10.0","https://app.prolific.com/","en-US,en;q=0.9,fr;q=0.8","609fba4900794b6d944da77e","683db6dfa200031b80f2a654","6865075dad7eefedb7499407","609fba4900794b6d944da77e","2025-07-02T10:59:02.835Z","","","","","","AttribQ","","","","","","","","","","","","","","","","","","","","","","","","","","","","","","","","","","","","","","50"
"7121","","<div style=""width:500px;"">
  <p>How much control did you have over the ball?</p>
  </div>","83","html-slider-response","65","2428590","0.0-10.0-2.4","29","1","2025-07-02 10:18:35","80fe4187154257d5fb01684ea91b68b9","41.150.227.16","Mozilla/5.0 (Windows NT 10.0; Win64; x64) AppleWebKit/537.36 (KHTML, like Gecko) Chrome/138.0.0.0 Safari/537.36 Edg/138.0.0.0","WebKit","Edge","138.0.0.0","Windows","10.0","https://app.prolific.com/","en-US,en;q=0.9,fr;q=0.8","609fba4900794b6d944da77e","683db6dfa200031b80f2a654","6865075dad7eefedb7499407","609fba4900794b6d944da77e","2025-07-02T10:59:09.962Z","","","","","","ControlQ","","","","","","","","","","","","","","","","","","","","","","","","","","","","","","","","","","","","","","50"
"6337","","<div style=""width:500px;"">
  <p>How would you describe your current emotional state?</p>
  </div>","11","html-slider-response","66","2434935","0.0-10.0-3.4","29","1","2025-07-02 10:18:35","80fe4187154257d5fb01684ea91b68b9","41.150.227.16","Mozilla/5.0 (Windows NT 10.0; Win64; x64) AppleWebKit/537.36 (KHTML, like Gecko) Chrome/138.0.0.0 Safari/537.36 Edg/138.0.0.0","WebKit","Edge","138.0.0.0","Windows","10.0","https://app.prolific.com/","en-US,en;q=0.9,fr;q=0.8","609fba4900794b6d944da77e","683db6dfa200031b80f2a654","6865075dad7eefedb7499407","609fba4900794b6d944da77e","2025-07-02T10:59:16.307Z","","","","","","StressQ","","","","","","","","","","","","","","","","","","","","","","","","","","","","","","","","","","","","","","50"
"7720","","<div style=""width:500px;"">
  <p>What best describes how you currently feel?</p>
  </div>","90","html-slider-response","67","2442663","0.0-10.0-4.4","29","1","2025-07-02 10:18:35","80fe4187154257d5fb01684ea91b68b9","41.150.227.16","Mozilla/5.0 (Windows NT 10.0; Win64; x64) AppleWebKit/537.36 (KHTML, like Gecko) Chrome/138.0.0.0 Safari/537.36 Edg/138.0.0.0","WebKit","Edge","138.0.0.0","Windows","10.0","https://app.prolific.com/","en-US,en;q=0.9,fr;q=0.8","609fba4900794b6d944da77e","683db6dfa200031b80f2a654","6865075dad7eefedb7499407","609fba4900794b6d944da77e","2025-07-02T10:59:24.034Z","","","","","","MotivationQ","","","","","","","","","","","","","","","","","","","","","","","","","","","","","","","","","","","","","","50"
"","","","","ctl-task-cpt","68","2467867","0.0-10.0-0.5","29","1","2025-07-02 10:18:35","80fe4187154257d5fb01684ea91b68b9","41.150.227.16","Mozilla/5.0 (Windows NT 10.0; Win64; x64) AppleWebKit/537.36 (KHTML, like Gecko) Chrome/138.0.0.0 Safari/537.36 Edg/138.0.0.0","WebKit","Edge","138.0.0.0","Windows","10.0","https://app.prolific.com/","en-US,en;q=0.9,fr;q=0.8","609fba4900794b6d944da77e","683db6dfa200031b80f2a654","6865075dad7eefedb7499407","609fba4900794b6d944da77e","2025-07-02T10:59:49.238Z","","","","","","","","","","","","","","","","win-only","3","g1:SW,g2:NE","0.5","6","0","2449929.9","2006.9","7007.6","22174.4","1","4","4","6","2","-4","-4","0","0","0","5000.7","3000","-2250","[""up"",""right""]","{""num_key_presses"":3,""num_perfect"":2,""num_errors"":0,""num_randdir"":1,""num_randdir_good_moves"":0,""num_whilered"":0,""num_whileblue"":0,""num_blue"":1,""num_good_moves"":2}","[303.22232142857143,301.12857142857143,0.3,303.22232142857143,301.12857142857143,103.8,303.22232142857143,301.12857142857143,214.2,303.22232142857143,301.12857142857143,315.1,303.22232142857143,301.12857142857143,418.3,303.22232142857143,301.12857142857143,518.7,303.22232142857143,301.12857142857143,620,303.22232142857143,301.12857142857143,720.2,303.22232142857143,301.12857142857143,835.6,303.22232142857143,301.12857142857143,938.3,303.22232142857143,301.12857142857143,1041.2,303.22232142857143,301.12857142857143,1144.2,303.22232142857143,301.12857142857143,1249.5,304.22232142857143,293.12857142857143,1352,289.22232142857143,307.12857142857143,1467.2,285.22232142857143,325.12857142857143,1571.8,284.22232142857143,325.12857142857143,1683.8,276.22232142857143,331.12857142857143,1784.4,266.22232142857143,341.12857142857143,1887.4,260.22232142857143,346.12857142857143,1991,259.22232142857143,348.12857142857143,2094.6,259.22232142857143,348.12857142857143,2198.1,259.22232142857143,348.12857142857143,2298.1,259.22232142857143,348.12857142857143,2399.9,259.22232142857143,348.12857142857143,2504.3,259.22232142857143,348.12857142857143,2604.6,259.22232142857143,348.12857142857143,2704.9,259.22232142857143,348.12857142857143,2809,259.22232142857143,348.12857142857143,2920.4,259.22232142857143,348.12857142857143,3020.5,259.22232142857143,348.12857142857143,3122.6,259.22232142857143,348.12857142857143,3224.3,259.22232142857143,348.12857142857143,3327.1,259.22232142857143,348.12857142857143,3440,259.22232142857143,348.12857142857143,3541.2,259.22232142857143,348.12857142857143,3645,259.22232142857143,348.12857142857143,3749.6,259.22232142857143,348.12857142857143,3854,259.22232142857143,348.12857142857143,3955.6,259.22232142857143,348.12857142857143,4057.5,259.22232142857143,348.12857142857143,4159.6,259.22232142857143,348.12857142857143,4262.7,259.22232142857143,348.12857142857143,4368.8,259.22232142857143,348.12857142857143,4469.9,259.22232142857143,348.12857142857143,4576.2,259.22232142857143,348.12857142857143,4679.4,259.22232142857143,348.12857142857143,4784.2,259.22232142857143,348.12857142857143,4890.4,259.22232142857143,348.12857142857143,4992.7]","[2542.4,2542.4,1000,0,1542.4,""oops"",""up"",""left"",""bad_move"",6490.5,3945.7,2459.6,2544.9,1486,""smooth"",""up"",""up"",""good_move"",12361.5,5870.1,2030.9,9897.7,432.9,""smooth"",""up"",""up"",""good_move""]","",""
"12656","","<div style=""width:500px;"">
  <p>What determined the result of this run?</p>
  </div>","78","html-slider-response","69","2480525","0.0-10.0-1.5","29","1","2025-07-02 10:18:35","80fe4187154257d5fb01684ea91b68b9","41.150.227.16","Mozilla/5.0 (Windows NT 10.0; Win64; x64) AppleWebKit/537.36 (KHTML, like Gecko) Chrome/138.0.0.0 Safari/537.36 Edg/138.0.0.0","WebKit","Edge","138.0.0.0","Windows","10.0","https://app.prolific.com/","en-US,en;q=0.9,fr;q=0.8","609fba4900794b6d944da77e","683db6dfa200031b80f2a654","6865075dad7eefedb7499407","609fba4900794b6d944da77e","2025-07-02T11:00:01.896Z","","","","","","AttribQ","","","","","","","","","","","","","","","","","","","","","","","","","","","","","","","","","","","","","","50"
"5660","","<div style=""width:500px;"">
  <p>How much control did you have over the ball?</p>
  </div>","90","html-slider-response","70","2486189","0.0-10.0-2.5","29","1","2025-07-02 10:18:35","80fe4187154257d5fb01684ea91b68b9","41.150.227.16","Mozilla/5.0 (Windows NT 10.0; Win64; x64) AppleWebKit/537.36 (KHTML, like Gecko) Chrome/138.0.0.0 Safari/537.36 Edg/138.0.0.0","WebKit","Edge","138.0.0.0","Windows","10.0","https://app.prolific.com/","en-US,en;q=0.9,fr;q=0.8","609fba4900794b6d944da77e","683db6dfa200031b80f2a654","6865075dad7eefedb7499407","609fba4900794b6d944da77e","2025-07-02T11:00:07.560Z","","","","","","ControlQ","","","","","","","","","","","","","","","","","","","","","","","","","","","","","","","","","","","","","","50"
"4595","","<div style=""width:500px;"">
  <p>How would you describe your current emotional state?</p>
  </div>","6","html-slider-response","71","2490788","0.0-10.0-3.5","29","1","2025-07-02 10:18:35","80fe4187154257d5fb01684ea91b68b9","41.150.227.16","Mozilla/5.0 (Windows NT 10.0; Win64; x64) AppleWebKit/537.36 (KHTML, like Gecko) Chrome/138.0.0.0 Safari/537.36 Edg/138.0.0.0","WebKit","Edge","138.0.0.0","Windows","10.0","https://app.prolific.com/","en-US,en;q=0.9,fr;q=0.8","609fba4900794b6d944da77e","683db6dfa200031b80f2a654","6865075dad7eefedb7499407","609fba4900794b6d944da77e","2025-07-02T11:00:12.160Z","","","","","","StressQ","","","","","","","","","","","","","","","","","","","","","","","","","","","","","","","","","","","","","","50"
"6548","","<div style=""width:500px;"">
  <p>What best describes how you currently feel?</p>
  </div>","90","html-slider-response","72","2497341","0.0-10.0-4.5","29","1","2025-07-02 10:18:35","80fe4187154257d5fb01684ea91b68b9","41.150.227.16","Mozilla/5.0 (Windows NT 10.0; Win64; x64) AppleWebKit/537.36 (KHTML, like Gecko) Chrome/138.0.0.0 Safari/537.36 Edg/138.0.0.0","WebKit","Edge","138.0.0.0","Windows","10.0","https://app.prolific.com/","en-US,en;q=0.9,fr;q=0.8","609fba4900794b6d944da77e","683db6dfa200031b80f2a654","6865075dad7eefedb7499407","609fba4900794b6d944da77e","2025-07-02T11:00:18.712Z","","","","","","MotivationQ","","","","","","","","","","","","","","","","","","","","","","","","","","","","","","","","","","","","","","50"
"","","","","ctl-task-cpt","73","2523215","0.0-10.0-0.6","29","1","2025-07-02 10:18:35","80fe4187154257d5fb01684ea91b68b9","41.150.227.16","Mozilla/5.0 (Windows NT 10.0; Win64; x64) AppleWebKit/537.36 (KHTML, like Gecko) Chrome/138.0.0.0 Safari/537.36 Edg/138.0.0.0","WebKit","Edge","138.0.0.0","Windows","10.0","https://app.prolific.com/","en-US,en;q=0.9,fr;q=0.8","609fba4900794b6d944da77e","683db6dfa200031b80f2a654","6865075dad7eefedb7499407","609fba4900794b6d944da77e","2025-07-02T11:00:44.586Z","","","","","","","","","","","","","","","","win-only","0","g1:NW,g2:SE","0.4","7","0","2504605.8","1340.1","6345.2","22851.9","1","4","4","6","2","-4","-5","0","0","0","5005.1","3000","-2330","[""down"",""right""]","{""num_key_presses"":3,""num_perfect"":2,""num_errors"":1,""num_randdir"":0,""num_randdir_good_moves"":0,""num_whilered"":0,""num_whileblue"":0,""num_blue"":1,""num_good_moves"":0}","[297.22232142857143,297.12857142857143,0.3,297.22232142857143,297.12857142857143,101.5,297.22232142857143,297.12857142857143,201.9,297.22232142857143,297.12857142857143,304.7,297.22232142857143,297.12857142857143,410.2,297.22232142857143,297.12857142857143,513,297.22232142857143,297.12857142857143,616.1,297.22232142857143,297.12857142857143,716.6,297.22232142857143,297.12857142857143,818.1,297.22232142857143,297.12857142857143,919.9,297.22232142857143,297.12857142857143,1023.2,297.22232142857143,297.12857142857143,1123.8,297.22232142857143,297.12857142857143,1232.9,297.22232142857143,297.12857142857143,1337.9,297.22232142857143,297.12857142857143,1444.1,297.22232142857143,297.12857142857143,1544.5,297.22232142857143,297.12857142857143,1645.4,293.22232142857143,296.12857142857143,1750.8,265.22232142857143,280.12857142857143,1855.2,247.22232142857143,242.12857142857143,1956.8,249.22232142857143,242.12857142857143,2064,249.22232142857143,242.12857142857143,2165.3,249.22232142857143,242.12857142857143,2268,249.22232142857143,242.12857142857143,2373.5,249.22232142857143,242.12857142857143,2479.2,249.22232142857143,242.12857142857143,2584.1,249.22232142857143,242.12857142857143,2684.7,249.22232142857143,242.12857142857143,2786.8,249.22232142857143,242.12857142857143,2904.5,249.22232142857143,242.12857142857143,3006.2,249.22232142857143,242.12857142857143,3107.3,249.22232142857143,242.12857142857143,3208,249.22232142857143,242.12857142857143,3318.9,249.22232142857143,242.12857142857143,3420.9,249.22232142857143,242.12857142857143,3523.5,249.22232142857143,242.12857142857143,3628.8,249.22232142857143,242.12857142857143,3735.2,249.22232142857143,242.12857142857143,3836.1,249.22232142857143,242.12857142857143,3938,249.22232142857143,242.12857142857143,4044.8,249.22232142857143,242.12857142857143,4152.3,249.22232142857143,242.12857142857143,4255.3,249.22232142857143,242.12857142857143,4357.1,249.22232142857143,242.12857142857143,4468,249.22232142857143,242.12857142857143,4569.7,249.22232142857143,242.12857142857143,4673.2,249.22232142857143,242.12857142857143,4785.6,249.22232142857143,242.12857142857143,4887.8,249.22232142857143,242.12857142857143,4988.2]","[2514.8,2514.8,1000,0,1514.8,""smooth"",""up"",""up"",""bad_move"",7874,5357.6,2823.1,6106.6,-1055.6,""error"",""-"",""-"",""no_move"",12954.2,5078.5,3464.7,8882.3,607.3,""smooth"",""up"",""up"",""bad_move""]","",""
"11172","","<div style=""width:500px;"">
  <p>What determined the result of this run?</p>
  </div>","91","html-slider-response","74","2534389","0.0-10.0-1.6","29","1","2025-07-02 10:18:35","80fe4187154257d5fb01684ea91b68b9","41.150.227.16","Mozilla/5.0 (Windows NT 10.0; Win64; x64) AppleWebKit/537.36 (KHTML, like Gecko) Chrome/138.0.0.0 Safari/537.36 Edg/138.0.0.0","WebKit","Edge","138.0.0.0","Windows","10.0","https://app.prolific.com/","en-US,en;q=0.9,fr;q=0.8","609fba4900794b6d944da77e","683db6dfa200031b80f2a654","6865075dad7eefedb7499407","609fba4900794b6d944da77e","2025-07-02T11:00:55.760Z","","","","","","AttribQ","","","","","","","","","","","","","","","","","","","","","","","","","","","","","","","","","","","","","","50"
"6651","","<div style=""width:500px;"">
  <p>How much control did you have over the ball?</p>
  </div>","99","html-slider-response","75","2541045","0.0-10.0-2.6","29","1","2025-07-02 10:18:35","80fe4187154257d5fb01684ea91b68b9","41.150.227.16","Mozilla/5.0 (Windows NT 10.0; Win64; x64) AppleWebKit/537.36 (KHTML, like Gecko) Chrome/138.0.0.0 Safari/537.36 Edg/138.0.0.0","WebKit","Edge","138.0.0.0","Windows","10.0","https://app.prolific.com/","en-US,en;q=0.9,fr;q=0.8","609fba4900794b6d944da77e","683db6dfa200031b80f2a654","6865075dad7eefedb7499407","609fba4900794b6d944da77e","2025-07-02T11:01:02.416Z","","","","","","ControlQ","","","","","","","","","","","","","","","","","","","","","","","","","","","","","","","","","","","","","","50"
"7260","","<div style=""width:500px;"">
  <p>How would you describe your current emotional state?</p>
  </div>","1","html-slider-response","76","2548311","0.0-10.0-3.6","29","1","2025-07-02 10:18:35","80fe4187154257d5fb01684ea91b68b9","41.150.227.16","Mozilla/5.0 (Windows NT 10.0; Win64; x64) AppleWebKit/537.36 (KHTML, like Gecko) Chrome/138.0.0.0 Safari/537.36 Edg/138.0.0.0","WebKit","Edge","138.0.0.0","Windows","10.0","https://app.prolific.com/","en-US,en;q=0.9,fr;q=0.8","609fba4900794b6d944da77e","683db6dfa200031b80f2a654","6865075dad7eefedb7499407","609fba4900794b6d944da77e","2025-07-02T11:01:09.682Z","","","","","","StressQ","","","","","","","","","","","","","","","","","","","","","","","","","","","","","","","","","","","","","","50"
"6292","","<div style=""width:500px;"">
  <p>What best describes how you currently feel?</p>
  </div>","98","html-slider-response","77","2554608","0.0-10.0-4.6","29","1","2025-07-02 10:18:35","80fe4187154257d5fb01684ea91b68b9","41.150.227.16","Mozilla/5.0 (Windows NT 10.0; Win64; x64) AppleWebKit/537.36 (KHTML, like Gecko) Chrome/138.0.0.0 Safari/537.36 Edg/138.0.0.0","WebKit","Edge","138.0.0.0","Windows","10.0","https://app.prolific.com/","en-US,en;q=0.9,fr;q=0.8","609fba4900794b6d944da77e","683db6dfa200031b80f2a654","6865075dad7eefedb7499407","609fba4900794b6d944da77e","2025-07-02T11:01:15.979Z","","","","","","MotivationQ","","","","","","","","","","","","","","","","","","","","","","","","","","","","","","","","","","","","","","50"
"","","","","ctl-task-cpt","78","2608796","0.0-10.0-0.7","29","1","2025-07-02 10:18:35","80fe4187154257d5fb01684ea91b68b9","41.150.227.16","Mozilla/5.0 (Windows NT 10.0; Win64; x64) AppleWebKit/537.36 (KHTML, like Gecko) Chrome/138.0.0.0 Safari/537.36 Edg/138.0.0.0","WebKit","Edge","138.0.0.0","Windows","10.0","https://app.prolific.com/","en-US,en;q=0.9,fr;q=0.8","609fba4900794b6d944da77e","683db6dfa200031b80f2a654","6865075dad7eefedb7499407","609fba4900794b6d944da77e","2025-07-02T11:02:10.168Z","","","","","","","","","","","","","","","","win-only","1","g1:NE,g2:SW","0.3","8","0","2561873.8","4953.9","9961.8","51160.3","1","4","8","6","2","-8","-11","0","0","0","5007.9","3000","-2290","[""down"",""left""]","{""num_key_presses"":10,""num_perfect"":3,""num_errors"":3,""num_randdir"":4,""num_randdir_good_moves"":3,""num_whilered"":0,""num_whileblue"":1,""num_blue"":3,""num_good_moves"":4}","[296.22232142857143,295.12857142857143,0.6,296.22232142857143,295.12857142857143,101.4,296.22232142857143,295.12857142857143,217.1,296.22232142857143,295.12857142857143,326.1,296.22232142857143,295.12857142857143,429.4,296.22232142857143,295.12857142857143,533.7,297.22232142857143,293.12857142857143,635.2,298.22232142857143,292.12857142857143,739.8,298.22232142857143,292.12857142857143,846.2,298.22232142857143,292.12857142857143,947.6,298.22232142857143,292.12857142857143,1052.2,298.22232142857143,292.12857142857143,1157,298.22232142857143,292.12857142857143,1258.4,298.22232142857143,292.12857142857143,1367.4,298.22232142857143,292.12857142857143,1478,298.22232142857143,292.12857142857143,1582.2,298.22232142857143,292.12857142857143,1687.9,298.22232142857143,292.12857142857143,1792.7,298.22232142857143,292.12857142857143,1895.9,298.22232142857143,292.12857142857143,1999.5,298.22232142857143,292.12857142857143,2101.3,298.22232142857143,292.12857142857143,2204.2,298.22232142857143,292.12857142857143,2304.6,298.22232142857143,292.12857142857143,2405.8,298.22232142857143,292.12857142857143,2513.3,306.22232142857143,278.12857142857143,2622,358.22232142857143,232.12857142857143,2729.5,360.22232142857143,232.12857142857143,2830.9,360.22232142857143,232.12857142857143,2934.2,360.22232142857143,232.12857142857143,3034.3,360.22232142857143,232.12857142857143,3141.1,360.22232142857143,232.12857142857143,3243.3,360.22232142857143,232.12857142857143,3348.6,360.22232142857143,232.12857142857143,3454.4,360.22232142857143,232.12857142857143,3556.8,360.22232142857143,232.12857142857143,3657.9,360.22232142857143,232.12857142857143,3759.5,360.22232142857143,232.12857142857143,3868.5,360.22232142857143,232.12857142857143,3971.7,360.22232142857143,232.12857142857143,4078.3,360.22232142857143,232.12857142857143,4182.4,360.22232142857143,232.12857142857143,4284.6,360.22232142857143,232.12857142857143,4392.2,360.22232142857143,232.12857142857143,4497.9,360.22232142857143,232.12857142857143,4605.8,360.22232142857143,232.12857142857143,4716.2,360.22232142857143,232.12857142857143,4817.2,360.22232142857143,232.12857142857143,4922.2]","[4438.1,4438.1,3443,2008.7,-1013.6,""error"",""-"",""-"",""no_move"",8448.9,4010.4,2070.6,5438.7,939.6,""while_blue"",""up"",""left"",""good_move"",11899.9,3449.1,2725.8,8450.8,723.3,""smooth"",""up"",""up"",""bad_move"",15532.3,3631.9,2921.3,11900.4,710.6,""smooth"",""up"",""up"",""bad_move"",18290.8,2758,2227.4,15532.8,530.7,""oops"",""left"",""down"",""good_move"",20167,1874,2081.4,18293,-207.4,""error"",""-"",""-"",""no_move"",24895.2,4726,3047.7,21171.5,676,""oops"",""up"",""left"",""good_move"",28487.5,3591.9,2988.2,24895.7,603.7,""oops"",""up"",""left"",""good_move"",31454.4,2966,2428.2,28488.4,537.8,""oops"",""up"",""right"",""bad_move"",35262.9,3808,3362.7,31454.9,445.3,""smooth"",""up"",""up"",""bad_move""]","",""
"17078","","<div style=""width:500px;"">
  <p>What determined the result of this run?</p>
  </div>","21","html-slider-response","79","2625878","0.0-10.0-1.7","29","1","2025-07-02 10:18:35","80fe4187154257d5fb01684ea91b68b9","41.150.227.16","Mozilla/5.0 (Windows NT 10.0; Win64; x64) AppleWebKit/537.36 (KHTML, like Gecko) Chrome/138.0.0.0 Safari/537.36 Edg/138.0.0.0","WebKit","Edge","138.0.0.0","Windows","10.0","https://app.prolific.com/","en-US,en;q=0.9,fr;q=0.8","609fba4900794b6d944da77e","683db6dfa200031b80f2a654","6865075dad7eefedb7499407","609fba4900794b6d944da77e","2025-07-02T11:02:27.250Z","","","","","","AttribQ","","","","","","","","","","","","","","","","","","","","","","","","","","","","","","","","","","","","","","50"
"6161","","<div style=""width:500px;"">
  <p>How much control did you have over the ball?</p>
  </div>","94","html-slider-response","80","2632045","0.0-10.0-2.7","29","1","2025-07-02 10:18:35","80fe4187154257d5fb01684ea91b68b9","41.150.227.16","Mozilla/5.0 (Windows NT 10.0; Win64; x64) AppleWebKit/537.36 (KHTML, like Gecko) Chrome/138.0.0.0 Safari/537.36 Edg/138.0.0.0","WebKit","Edge","138.0.0.0","Windows","10.0","https://app.prolific.com/","en-US,en;q=0.9,fr;q=0.8","609fba4900794b6d944da77e","683db6dfa200031b80f2a654","6865075dad7eefedb7499407","609fba4900794b6d944da77e","2025-07-02T11:02:33.416Z","","","","","","ControlQ","","","","","","","","","","","","","","","","","","","","","","","","","","","","","","","","","","","","","","50"
"6373","","<div style=""width:500px;"">
  <p>How would you describe your current emotional state?</p>
  </div>","11","html-slider-response","81","2638423","0.0-10.0-3.7","29","1","2025-07-02 10:18:35","80fe4187154257d5fb01684ea91b68b9","41.150.227.16","Mozilla/5.0 (Windows NT 10.0; Win64; x64) AppleWebKit/537.36 (KHTML, like Gecko) Chrome/138.0.0.0 Safari/537.36 Edg/138.0.0.0","WebKit","Edge","138.0.0.0","Windows","10.0","https://app.prolific.com/","en-US,en;q=0.9,fr;q=0.8","609fba4900794b6d944da77e","683db6dfa200031b80f2a654","6865075dad7eefedb7499407","609fba4900794b6d944da77e","2025-07-02T11:02:39.795Z","","","","","","StressQ","","","","","","","","","","","","","","","","","","","","","","","","","","","","","","","","","","","","","","50"
"5767","","<div style=""width:500px;"">
  <p>What best describes how you currently feel?</p>
  </div>","92","html-slider-response","82","2644198","0.0-10.0-4.7","29","1","2025-07-02 10:18:35","80fe4187154257d5fb01684ea91b68b9","41.150.227.16","Mozilla/5.0 (Windows NT 10.0; Win64; x64) AppleWebKit/537.36 (KHTML, like Gecko) Chrome/138.0.0.0 Safari/537.36 Edg/138.0.0.0","WebKit","Edge","138.0.0.0","Windows","10.0","https://app.prolific.com/","en-US,en;q=0.9,fr;q=0.8","609fba4900794b6d944da77e","683db6dfa200031b80f2a654","6865075dad7eefedb7499407","609fba4900794b6d944da77e","2025-07-02T11:02:45.570Z","","","","","","MotivationQ","","","","","","","","","","","","","","","","","","","","","","","","","","","","","","","","","","","","","","50"
"","","","","ctl-task-cpt","83","2683938","0.0-10.0-0.8","29","1","2025-07-02 10:18:35","80fe4187154257d5fb01684ea91b68b9","41.150.227.16","Mozilla/5.0 (Windows NT 10.0; Win64; x64) AppleWebKit/537.36 (KHTML, like Gecko) Chrome/138.0.0.0 Safari/537.36 Edg/138.0.0.0","WebKit","Edge","138.0.0.0","Windows","10.0","https://app.prolific.com/","en-US,en;q=0.9,fr;q=0.8","609fba4900794b6d944da77e","683db6dfa200031b80f2a654","6865075dad7eefedb7499407","609fba4900794b6d944da77e","2025-07-02T11:03:25.309Z","","","","","","","","","","","","","","","","win-only","0","g1:NW,g2:SE","0.4","9","0","2651466.1","1758.6","6767","36708.9","1","4","8","6","2","-8","-8","0","0","0","5008.4","3000","-1965","[""down"",""right""]","{""num_key_presses"":7,""num_perfect"":2,""num_errors"":0,""num_randdir"":5,""num_randdir_good_moves"":2,""num_whilered"":0,""num_whileblue"":0,""num_blue"":2,""num_good_moves"":2}","[295.22232142857143,292.12857142857143,0.3,295.22232142857143,292.12857142857143,103.4,295.22232142857143,294.12857142857143,211,296.22232142857143,294.12857142857143,325.2,296.22232142857143,294.12857142857143,432.5,300.22232142857143,296.12857142857143,536.4,306.22232142857143,296.12857142857143,639.8,306.22232142857143,296.12857142857143,744.8,306.22232142857143,296.12857142857143,850.4,306.22232142857143,296.12857142857143,954.4,306.22232142857143,296.12857142857143,1058.8,306.22232142857143,296.12857142857143,1161.8,306.22232142857143,296.12857142857143,1268,306.22232142857143,296.12857142857143,1368.2,306.22232142857143,296.12857142857143,1474.7,306.22232142857143,296.12857142857143,1576.8,306.22232142857143,296.12857142857143,1678.2,306.22232142857143,292.12857142857143,1779.9,303.22232142857143,272.12857142857143,1890.1,293.22232142857143,262.12857142857143,1997.2,276.22232142857143,259.12857142857143,2105.6,262.22232142857143,252.12857142857143,2211.4,256.22232142857143,255.12857142857143,2320.6,255.22232142857143,247.12857142857143,2430.4,255.22232142857143,247.12857142857143,2543.6,255.22232142857143,247.12857142857143,2656.2,255.22232142857143,247.12857142857143,2763.8,255.22232142857143,247.12857142857143,2870,255.22232142857143,247.12857142857143,2975.8,255.22232142857143,247.12857142857143,3077.4,255.22232142857143,247.12857142857143,3181,255.22232142857143,247.12857142857143,3281,255.22232142857143,247.12857142857143,3385.5,255.22232142857143,247.12857142857143,3493.2,255.22232142857143,247.12857142857143,3593.4,255.22232142857143,247.12857142857143,3697,255.22232142857143,247.12857142857143,3802.5,255.22232142857143,247.12857142857143,3903.4,255.22232142857143,247.12857142857143,4015.6,255.22232142857143,247.12857142857143,4121.5,255.22232142857143,247.12857142857143,4237.1,255.22232142857143,247.12857142857143,4344.1,255.22232142857143,247.12857142857143,4456.5,255.22232142857143,247.12857142857143,4565.1,255.22232142857143,247.12857142857143,4674.3,255.22232142857143,247.12857142857143,4779.1,255.22232142857143,247.12857142857143,4885.3,255.22232142857143,247.12857142857143,4994.6]","[6312.4,6312.4,2765.2,2010.7,1536.5,""oops"",""up"",""up"",""bad_move"",9829.2,3513.8,2836.8,6315.5,676.9,""oops"",""up"",""down"",""good_move"",12344.3,2514.3,1879.1,9830,635.2,""oops"",""up"",""up"",""bad_move"",15659.5,3314.9,2799.6,12344.6,515.3,""oops"",""left"",""down"",""good_move"",18201.5,2541.8,1687.7,15660.1,854.2,""oops"",""up"",""left"",""bad_move"",24253.1,6049.9,2160.3,21525.7,567.1,""smooth"",""up"",""up"",""bad_move"",27654.7,3401.3,2176.4,24253.4,1224.9,""smooth"",""up"",""up"",""bad_move""]","",""
"13961","","<div style=""width:500px;"">
  <p>What determined the result of this run?</p>
  </div>","94","html-slider-response","84","2697902","0.0-10.0-1.8","29","1","2025-07-02 10:18:35","80fe4187154257d5fb01684ea91b68b9","41.150.227.16","Mozilla/5.0 (Windows NT 10.0; Win64; x64) AppleWebKit/537.36 (KHTML, like Gecko) Chrome/138.0.0.0 Safari/537.36 Edg/138.0.0.0","WebKit","Edge","138.0.0.0","Windows","10.0","https://app.prolific.com/","en-US,en;q=0.9,fr;q=0.8","609fba4900794b6d944da77e","683db6dfa200031b80f2a654","6865075dad7eefedb7499407","609fba4900794b6d944da77e","2025-07-02T11:03:39.273Z","","","","","","AttribQ","","","","","","","","","","","","","","","","","","","","","","","","","","","","","","","","","","","","","","50"
"6082","","<div style=""width:500px;"">
  <p>How much control did you have over the ball?</p>
  </div>","100","html-slider-response","85","2703991","0.0-10.0-2.8","29","1","2025-07-02 10:18:35","80fe4187154257d5fb01684ea91b68b9","41.150.227.16","Mozilla/5.0 (Windows NT 10.0; Win64; x64) AppleWebKit/537.36 (KHTML, like Gecko) Chrome/138.0.0.0 Safari/537.36 Edg/138.0.0.0","WebKit","Edge","138.0.0.0","Windows","10.0","https://app.prolific.com/","en-US,en;q=0.9,fr;q=0.8","609fba4900794b6d944da77e","683db6dfa200031b80f2a654","6865075dad7eefedb7499407","609fba4900794b6d944da77e","2025-07-02T11:03:45.362Z","","","","","","ControlQ","","","","","","","","","","","","","","","","","","","","","","","","","","","","","","","","","","","","","","50"
"5064","","<div style=""width:500px;"">
  <p>How would you describe your current emotional state?</p>
  </div>","2","html-slider-response","86","2709062","0.0-10.0-3.8","29","1","2025-07-02 10:18:35","80fe4187154257d5fb01684ea91b68b9","41.150.227.16","Mozilla/5.0 (Windows NT 10.0; Win64; x64) AppleWebKit/537.36 (KHTML, like Gecko) Chrome/138.0.0.0 Safari/537.36 Edg/138.0.0.0","WebKit","Edge","138.0.0.0","Windows","10.0","https://app.prolific.com/","en-US,en;q=0.9,fr;q=0.8","609fba4900794b6d944da77e","683db6dfa200031b80f2a654","6865075dad7eefedb7499407","609fba4900794b6d944da77e","2025-07-02T11:03:50.433Z","","","","","","StressQ","","","","","","","","","","","","","","","","","","","","","","","","","","","","","","","","","","","","","","50"
"4961","","<div style=""width:500px;"">
  <p>What best describes how you currently feel?</p>
  </div>","96","html-slider-response","87","2714028","0.0-10.0-4.8","29","1","2025-07-02 10:18:35","80fe4187154257d5fb01684ea91b68b9","41.150.227.16","Mozilla/5.0 (Windows NT 10.0; Win64; x64) AppleWebKit/537.36 (KHTML, like Gecko) Chrome/138.0.0.0 Safari/537.36 Edg/138.0.0.0","WebKit","Edge","138.0.0.0","Windows","10.0","https://app.prolific.com/","en-US,en;q=0.9,fr;q=0.8","609fba4900794b6d944da77e","683db6dfa200031b80f2a654","6865075dad7eefedb7499407","609fba4900794b6d944da77e","2025-07-02T11:03:55.400Z","","","","","","MotivationQ","","","","","","","","","","","","","","","","","","","","","","","","","","","","","","","","","","","","","","50"
