"rt","response_timestamp","stimulus","response","trial_type","trial_index","time_elapsed","internal_node_id","run_id","condition","recorded_at","source_code_version","ip","user_agent","device","browser","browser_version","platform","platform_version","referer","accept_language","PROLIFIC_PID","STUDY_ID","SESSION_ID","prolific_id","realtime","view_history","question_order","consent","success","question_id","eventType","responses","item_order","radio_event_ids","radio_event_times","key_event_times","mouse_event_times","straightlining","zigzagging","honeypot","which_type","canvas_config","goals_layout","control_level","trial_number","tutorial_trial_number","trial_start_time","phase1_start_time","phase2_start_time","phase3_start_time","goal_1_value","goal_1_distance","goal_2_value","goal_2_distance","goal_selected","outcome","outcome_total","participant_final_score","participant_initial_score","participant_final_score_prop","goal_choice_rt","allocated_time","allocated_time_remaining","goal_direction","counts","mouse_movements","key_presses","correct","slider_start"
"23474","1751451580432","<p style='font-size:40px;line-height:1.25'><strong>Welcome to the experiment!</strong></p><p style='font-size:1.1em;line-height:1.25'>Thank you for your interest in our experiment! Before you begin, it is important that we obtain your informed consent to participate in the study.</p><p style='font-size:1.1em;line-height:1.25'>On the next screen will be an <strong>information sheet</strong> for you to read. To participate in the study we need you to read this information sheet and the following consent form carefully. If you agree with all the statements, please click the <strong>I agree</strong> button.</p><p style='font-size:1.1em;line-height:1.25'>Press <strong>Next</strong> to read the information sheet.</p>","0","custom-html-button-response","0","23476","0.0-0.0","90","1","2025-07-02 10:19:15","80fe4187154257d5fb01684ea91b68b9","165.165.119.43","Mozilla/5.0 (Windows NT 10.0; Win64; x64) AppleWebKit/537.36 (KHTML, like Gecko) Chrome/137.0.0.0 Safari/537.36","WebKit","Chrome","137.0.0.0","Windows","10.0","https://app.prolific.com/","en-US,en;q=0.9","60a50457d02bfc23c02d4717","683db6dfa200031b80f2a654","6865078ea7faa01d69fea5c9","60a50457d02bfc23c02d4717","2025-07-02T10:19:40.433Z","","","","","","","","","","","","","","","","","","","","","","","","","","","","","","","","","","","","","","","","","","","",""
"158078","","","","instructions","1","181555","0.0-1.0","90","1","2025-07-02 10:19:15","80fe4187154257d5fb01684ea91b68b9","165.165.119.43","Mozilla/5.0 (Windows NT 10.0; Win64; x64) AppleWebKit/537.36 (KHTML, like Gecko) Chrome/137.0.0.0 Safari/537.36","WebKit","Chrome","137.0.0.0","Windows","10.0","https://app.prolific.com/","en-US,en;q=0.9","60a50457d02bfc23c02d4717","683db6dfa200031b80f2a654","6865078ea7faa01d69fea5c9","60a50457d02bfc23c02d4717","","[{""page_index"":0,""viewing_time"":127328},{""page_index"":1,""viewing_time"":30750}]","","","","","","","","","","","","","","","","","","","","","","","","","","","","","","","","","","","","","","","","","","",""
"5580","","","{""Q0"":"""",""Q1"":"""",""Q2"":"""",""Q3"":"""",""Q4"":"""",""Q5"":"""",""Q6"":""I agree""}","survey-multi-choice","2","187138","0.0-2.0","90","1","2025-07-02 10:19:15","80fe4187154257d5fb01684ea91b68b9","165.165.119.43","Mozilla/5.0 (Windows NT 10.0; Win64; x64) AppleWebKit/537.36 (KHTML, like Gecko) Chrome/137.0.0.0 Safari/537.36","WebKit","Chrome","137.0.0.0","Windows","10.0","https://app.prolific.com/","en-US,en;q=0.9","60a50457d02bfc23c02d4717","683db6dfa200031b80f2a654","6865078ea7faa01d69fea5c9","60a50457d02bfc23c02d4717","","","[0,1,2,3,4,5,6]","true","","","","","","","","","","","","","","","","","","","","","","","","","","","","","","","","","","","","","","","","",""
"28031","","","","fullscreen","3","216182","0.0-4.0","90","1","2025-07-02 10:19:15","80fe4187154257d5fb01684ea91b68b9","165.165.119.43","Mozilla/5.0 (Windows NT 10.0; Win64; x64) AppleWebKit/537.36 (KHTML, like Gecko) Chrome/137.0.0.0 Safari/537.36","WebKit","Chrome","137.0.0.0","Windows","10.0","https://app.prolific.com/","en-US,en;q=0.9","60a50457d02bfc23c02d4717","683db6dfa200031b80f2a654","6865078ea7faa01d69fea5c9","60a50457d02bfc23c02d4717","","","","","true","","","","","","","","","","","","","","","","","","","","","","","","","","","","","","","","","","","","","","","",""
"8373","1751451781513"," <p style='font-size:1.1em;line-height:1.25'>Thank you for completing the consent form and closing all other tabs.</p><p style='font-size:1.1em;line-height:1.25'>We will now invite you to fill in some demographic information and questionnaires, before starting the game.<br>This will take about 5 minutes.<br></p><p style='font-size:1.1em;line-height:1.25'>Press the <strong>Next</strong> button to continue.</p>","0","custom-html-button-response","4","224556","0.0-5.0","90","1","2025-07-02 10:19:15","80fe4187154257d5fb01684ea91b68b9","165.165.119.43","Mozilla/5.0 (Windows NT 10.0; Win64; x64) AppleWebKit/537.36 (KHTML, like Gecko) Chrome/137.0.0.0 Safari/537.36","WebKit","Chrome","137.0.0.0","Windows","10.0","https://app.prolific.com/","en-US,en;q=0.9","60a50457d02bfc23c02d4717","683db6dfa200031b80f2a654","6865078ea7faa01d69fea5c9","60a50457d02bfc23c02d4717","2025-07-02T10:23:01.513Z","","","","","","","","","","","","","","","","","","","","","","","","","","","","","","","","","","","","","","","","","","","",""
"2879","","","{""age"":""30""}","survey-text","5","227438","0.0-6.0-0.0","90","1","2025-07-02 10:19:15","80fe4187154257d5fb01684ea91b68b9","165.165.119.43","Mozilla/5.0 (Windows NT 10.0; Win64; x64) AppleWebKit/537.36 (KHTML, like Gecko) Chrome/137.0.0.0 Safari/537.36","WebKit","Chrome","137.0.0.0","Windows","10.0","https://app.prolific.com/","en-US,en;q=0.9","60a50457d02bfc23c02d4717","683db6dfa200031b80f2a654","6865078ea7faa01d69fea5c9","60a50457d02bfc23c02d4717","","","","","","0","demographics","","","","","","","","","","","","","","","","","","","","","","","","","","","","","","","","","","","","","",""
"3815","","","{""gender_identity"":""female/woman""}","survey-multi-choice","6","231254","0.0-6.0-1.0","90","1","2025-07-02 10:19:15","80fe4187154257d5fb01684ea91b68b9","165.165.119.43","Mozilla/5.0 (Windows NT 10.0; Win64; x64) AppleWebKit/537.36 (KHTML, like Gecko) Chrome/137.0.0.0 Safari/537.36","WebKit","Chrome","137.0.0.0","Windows","10.0","https://app.prolific.com/","en-US,en;q=0.9","60a50457d02bfc23c02d4717","683db6dfa200031b80f2a654","6865078ea7faa01d69fea5c9","60a50457d02bfc23c02d4717","","","[0]","","","1","demographics","","","","","","","","","","","","","","","","","","","","","","","","","","","","","","","","","","","","","",""
"6314","","","{""assigned_sex"":""female""}","survey-multi-choice","7","237569","0.0-6.0-2.0","90","1","2025-07-02 10:19:15","80fe4187154257d5fb01684ea91b68b9","165.165.119.43","Mozilla/5.0 (Windows NT 10.0; Win64; x64) AppleWebKit/537.36 (KHTML, like Gecko) Chrome/137.0.0.0 Safari/537.36","WebKit","Chrome","137.0.0.0","Windows","10.0","https://app.prolific.com/","en-US,en;q=0.9","60a50457d02bfc23c02d4717","683db6dfa200031b80f2a654","6865078ea7faa01d69fea5c9","60a50457d02bfc23c02d4717","","","[0]","","","2","demographics","","","","","","","","","","","","","","","","","","","","","","","","","","","","","","","","","","","","","",""
"4501","","","{""menstrual_cycle"":""Yes""}","survey-multi-choice","8","242071","0.0-6.0-3.0","90","1","2025-07-02 10:19:15","80fe4187154257d5fb01684ea91b68b9","165.165.119.43","Mozilla/5.0 (Windows NT 10.0; Win64; x64) AppleWebKit/537.36 (KHTML, like Gecko) Chrome/137.0.0.0 Safari/537.36","WebKit","Chrome","137.0.0.0","Windows","10.0","https://app.prolific.com/","en-US,en;q=0.9","60a50457d02bfc23c02d4717","683db6dfa200031b80f2a654","6865078ea7faa01d69fea5c9","60a50457d02bfc23c02d4717","","","[0]","","","4","demographics","","","","","","","","","","","","","","","","","","","","","","","","","","","","","","","","","","","","","",""
"7766","","","{""education"":""Bachelor's Degree (e.g., BA)""}","survey-multi-choice","9","249838","0.0-6.0-4.0","90","1","2025-07-02 10:19:15","80fe4187154257d5fb01684ea91b68b9","165.165.119.43","Mozilla/5.0 (Windows NT 10.0; Win64; x64) AppleWebKit/537.36 (KHTML, like Gecko) Chrome/137.0.0.0 Safari/537.36","WebKit","Chrome","137.0.0.0","Windows","10.0","https://app.prolific.com/","en-US,en;q=0.9","60a50457d02bfc23c02d4717","683db6dfa200031b80f2a654","6865078ea7faa01d69fea5c9","60a50457d02bfc23c02d4717","","","[0]","","","5","demographics","","","","","","","","","","","","","","","","","","","","","","","","","","","","","","","","","","","","","",""
"10982","","","{""education"":""Bachelor's Degree (e.g., BA)""}","survey-multi-choice","10","260821","0.0-6.0-5.0","90","1","2025-07-02 10:19:15","80fe4187154257d5fb01684ea91b68b9","165.165.119.43","Mozilla/5.0 (Windows NT 10.0; Win64; x64) AppleWebKit/537.36 (KHTML, like Gecko) Chrome/137.0.0.0 Safari/537.36","WebKit","Chrome","137.0.0.0","Windows","10.0","https://app.prolific.com/","en-US,en;q=0.9","60a50457d02bfc23c02d4717","683db6dfa200031b80f2a654","6865078ea7faa01d69fea5c9","60a50457d02bfc23c02d4717","2025-07-02T10:23:37.778Z","","[0]","","","6","demographics","","","","","","","","","","","","","","","","","","","","","","","","","","","","","","","","","","","","","",""
"23690","","","{""mental_health_condition"":""Depression and Anxiety"",""mental_health_treatment"":""Fluoxetine"",""psychiatric_medication"":""""}","survey-text","11","284513","0.0-7.0-0.0","90","1","2025-07-02 10:19:15","80fe4187154257d5fb01684ea91b68b9","165.165.119.43","Mozilla/5.0 (Windows NT 10.0; Win64; x64) AppleWebKit/537.36 (KHTML, like Gecko) Chrome/137.0.0.0 Safari/537.36","WebKit","Chrome","137.0.0.0","Windows","10.0","https://app.prolific.com/","en-US,en;q=0.9","60a50457d02bfc23c02d4717","683db6dfa200031b80f2a654","6865078ea7faa01d69fea5c9","60a50457d02bfc23c02d4717","2025-07-02T10:24:01.470Z","","","","","1","mental_health","","","","","","","","","","","","","","","","","","","","","","","","","","","","","","","","","","","","","",""
"19639","","","{""depression_history"":[""Yes""]}","survey-multi-select","12","304153","0.0-7.0-1.0","90","1","2025-07-02 10:19:15","80fe4187154257d5fb01684ea91b68b9","165.165.119.43","Mozilla/5.0 (Windows NT 10.0; Win64; x64) AppleWebKit/537.36 (KHTML, like Gecko) Chrome/137.0.0.0 Safari/537.36","WebKit","Chrome","137.0.0.0","Windows","10.0","https://app.prolific.com/","en-US,en;q=0.9","60a50457d02bfc23c02d4717","683db6dfa200031b80f2a654","6865078ea7faa01d69fea5c9","60a50457d02bfc23c02d4717","","","[0]","","","","mental_health","","","","","","","","","","","","","","","","","","","","","","","","","","","","","","","","","","","","","",""
"12748","","","{""depression_episodes"":""more than 5"",""depression_recent"":""Within the past year""}","survey-multi-choice","13","316902","0.0-7.0-2.0-0.0","90","1","2025-07-02 10:19:15","80fe4187154257d5fb01684ea91b68b9","165.165.119.43","Mozilla/5.0 (Windows NT 10.0; Win64; x64) AppleWebKit/537.36 (KHTML, like Gecko) Chrome/137.0.0.0 Safari/537.36","WebKit","Chrome","137.0.0.0","Windows","10.0","https://app.prolific.com/","en-US,en;q=0.9","60a50457d02bfc23c02d4717","683db6dfa200031b80f2a654","6865078ea7faa01d69fea5c9","60a50457d02bfc23c02d4717","2025-07-02T10:24:33.860Z","","[0,1]","","","3","mental_health","","","","","","","","","","","","","","","","","","","","","","","","","","","","","","","","","","","","","",""
"92029.30000001192","","","","survey-template","14","408935","0.0-7.0-3.0","90","1","2025-07-02 10:19:15","80fe4187154257d5fb01684ea91b68b9","165.165.119.43","Mozilla/5.0 (Windows NT 10.0; Win64; x64) AppleWebKit/537.36 (KHTML, like Gecko) Chrome/137.0.0.0 Safari/537.36","WebKit","Chrome","137.0.0.0","Windows","10.0","https://app.prolific.com/","en-US,en;q=0.9","60a50457d02bfc23c02d4717","683db6dfa200031b80f2a654","6865078ea7faa01d69fea5c9","60a50457d02bfc23c02d4717","2025-07-02T10:26:05.892Z","","","","","","ius","{""Q01"":""2"",""Q02"":""3"",""Q03"":""4"",""Q04"":""4"",""Q05"":""3"",""Q06"":""2"",""Q07"":""3"",""Q08"":""0"",""Q09"":""4"",""Q10"":""4"",""Q11"":""3"",""Q12"":""3"",""Q13"":""3""}","[0,1,2,3,4,5,6,7,8,9,10,11,12]","[""Q01"",""Q02"",""Q03"",""Q04"",""Q05"",""Q07"",""Q06"",""Q08"",""Q09"",""Q10"",""Q11"",""Q12"",""Q12"",""Q13"",""Q13""]","[13565.100000023842,25031.399999976158,29445.899999976158,32964,36246.80000001192,48945.69999998808,52795.10000002384,66412.5,74188.39999997616,78060.60000002384,81012.39999997616,84835.80000001192,86300.30000001192,89604.39999997616,90988.10000002384]","[]","[13565.100000023842,21930.80000001192,25031.399999976158,26481.100000023842,29445.899999976158,32964,36246.80000001192,44180.19999998808,48945.69999998808,50629.39999997616,51613.10000002384,52795.10000002384,65507.89999997616,66412.5,74188.39999997616,77076.69999998808,77611.89999997616,78060.60000002384,81012.39999997616,84835.80000001192,86300.30000001192,89604.39999997616,90988.10000002384,92027.69999998808]","0.46153846153846156","0.5833333333333334","0","","","","","","","","","","","","","","","","","","","","","","","","","","","","",""
"3717","1751451969610","<p style='font-size:1.1em;line-height:1.25'>In the following, we will ask you a few questions relating to your experiences over the past month.<br></p><p style='font-size:1.1em;line-height:1.25'>Press the <strong>Next</strong> button to continue.</p>","0","custom-html-button-response","15","412653","0.0-7.0-4.0","90","1","2025-07-02 10:19:15","80fe4187154257d5fb01684ea91b68b9","165.165.119.43","Mozilla/5.0 (Windows NT 10.0; Win64; x64) AppleWebKit/537.36 (KHTML, like Gecko) Chrome/137.0.0.0 Safari/537.36","WebKit","Chrome","137.0.0.0","Windows","10.0","https://app.prolific.com/","en-US,en;q=0.9","60a50457d02bfc23c02d4717","683db6dfa200031b80f2a654","6865078ea7faa01d69fea5c9","60a50457d02bfc23c02d4717","2025-07-02T10:26:09.610Z","","","","","","","","","","","","","","","","","","","","","","","","","","","","","","","","","","","","","","","","","","","",""
"59551.09999996424","","","","survey-template","16","472207","0.0-7.0-5.0","90","1","2025-07-02 10:19:15","80fe4187154257d5fb01684ea91b68b9","165.165.119.43","Mozilla/5.0 (Windows NT 10.0; Win64; x64) AppleWebKit/537.36 (KHTML, like Gecko) Chrome/137.0.0.0 Safari/537.36","WebKit","Chrome","137.0.0.0","Windows","10.0","https://app.prolific.com/","en-US,en;q=0.9","60a50457d02bfc23c02d4717","683db6dfa200031b80f2a654","6865078ea7faa01d69fea5c9","60a50457d02bfc23c02d4717","2025-07-02T10:27:09.164Z","","","","","","pss","{""Q01"":""1"",""Q02"":""1"",""Q03"":""3"",""Q04"":""2"",""Q05"":""1"",""Q06"":""3"",""Q07"":""1"",""Q08"":""2"",""Q09"":""1"",""Q10"":""1""}","[0,1,2,3,4,5,6,7,8,9]","[""Q01"",""Q02"",""Q03"",""Q04"",""Q05"",""Q06"",""Q07"",""Q07"",""Q08"",""Q09"",""Q10""]","[5254.199999988079,10270.299999952316,13813.899999976158,18893.599999964237,24766,31686,37238,39110.09999996424,46718.09999996424,52597.89999997616,58438]","[]","[0.09999996423721313,5254.199999988079,10270.299999952316,13813.899999976158,18893.599999964237,23534.19999998808,24766,31686,37238,39110.09999996424,46718.09999996424,52597.89999997616,58438,59550]","0.4","0.4444444444444444","0","","","","","","","","","","","","","","","","","","","","","","","","","","","","",""
"5589","1751452034754","<p style='font-size:1.1em;line-height:1.25'>Thank you for your answers! Now we will ask you a few more questions relating to your feelings in the last 24 hours.<br></p><p style='font-size:1.1em;line-height:1.25'>Press the <strong>Next</strong> button to continue.</p>","0","custom-html-button-response","17","477797","0.0-7.0-6.0","90","1","2025-07-02 10:19:15","80fe4187154257d5fb01684ea91b68b9","165.165.119.43","Mozilla/5.0 (Windows NT 10.0; Win64; x64) AppleWebKit/537.36 (KHTML, like Gecko) Chrome/137.0.0.0 Safari/537.36","WebKit","Chrome","137.0.0.0","Windows","10.0","https://app.prolific.com/","en-US,en;q=0.9","60a50457d02bfc23c02d4717","683db6dfa200031b80f2a654","6865078ea7faa01d69fea5c9","60a50457d02bfc23c02d4717","2025-07-02T10:27:14.754Z","","","","","","","","","","","","","","","","","","","","","","","","","","","","","","","","","","","","","","","","","","","",""
"65848.29999995232","","","","survey-template","18","543649","0.0-7.0-7.0","90","1","2025-07-02 10:19:15","80fe4187154257d5fb01684ea91b68b9","165.165.119.43","Mozilla/5.0 (Windows NT 10.0; Win64; x64) AppleWebKit/537.36 (KHTML, like Gecko) Chrome/137.0.0.0 Safari/537.36","WebKit","Chrome","137.0.0.0","Windows","10.0","https://app.prolific.com/","en-US,en;q=0.9","60a50457d02bfc23c02d4717","683db6dfa200031b80f2a654","6865078ea7faa01d69fea5c9","60a50457d02bfc23c02d4717","2025-07-02T10:28:20.606Z","","","","","","drsp","{""Q01"":""1"",""Q02"":""0"",""Q03"":""0"",""Q04"":""2"",""Q05"":""0"",""Q06"":""1"",""Q07"":""0"",""Q08"":""2"",""Q09"":""0"",""Q10"":""0"",""Q11"":""1"",""Q12"":""1"",""Q13"":""3"",""Q14"":""3"",""Q15"":""0"",""Q16"":""0"",""Q17"":""0"",""Q18"":""2"",""Q19"":""0"",""Q20"":""0"",""Q21"":""1""}","[0,1,2,3,4,5,6,7,8,9,10,11,12,13,14,15,16,17,18,19,20]","[""Q01"",""Q02"",""Q03"",""Q04"",""Q05"",""Q06"",""Q07"",""Q08"",""Q09"",""Q10"",""Q11"",""Q12"",""Q13"",""Q14"",""Q15"",""Q16"",""Q17"",""Q18"",""Q19"",""Q20"",""Q21"",""Q21""]","[3997.899999976158,5877.5,7925.899999976158,10317.299999952316,12285.299999952316,15341.399999976158,17805.19999998808,19733.399999976158,22916.799999952316,25045.299999952316,28653.399999976158,32301.299999952316,34317.19999998808,39133.19999998808,43212.799999952316,44941.19999998808,46573.299999952316,52285.19999998808,57165.299999952316,60229.299999952316,63125.09999996424,64709.19999998808]","[]","[0.09999996423721313,2021.3999999761581,3997.899999976158,5877.5,7925.899999976158,9685,10317.299999952316,12285.299999952316,15341.399999976158,17805.19999998808,19733.399999976158,22333.399999976158,22916.799999952316,25045.299999952316,28653.399999976158,32301.299999952316,34317.19999998808,39133.19999998808,43212.799999952316,44941.19999998808,46573.299999952316,52285.19999998808,57165.299999952316,60229.299999952316,63125.09999996424,64261.39999997616,64709.19999998808,65845.69999998808]","0.5238095238095238","0.25","0","","","","","","","","","","","","","","","","","","","","","","","","","","","","",""
"12858.399999976158","","","","survey-template","19","556509","0.0-7.0-8.0","90","1","2025-07-02 10:19:15","80fe4187154257d5fb01684ea91b68b9","165.165.119.43","Mozilla/5.0 (Windows NT 10.0; Win64; x64) AppleWebKit/537.36 (KHTML, like Gecko) Chrome/137.0.0.0 Safari/537.36","WebKit","Chrome","137.0.0.0","Windows","10.0","https://app.prolific.com/","en-US,en;q=0.9","60a50457d02bfc23c02d4717","683db6dfa200031b80f2a654","6865078ea7faa01d69fea5c9","60a50457d02bfc23c02d4717","2025-07-02T10:28:33.466Z","","","","","","stress","{""Q01"":""1"",""Q02"":""2"",""Q03"":""1""}","[0,1,2]","[""Q01"",""Q02"",""Q03""]","[4961.800000011921,7937.800000011921,10730]","[]","[4961.800000011921,7937.800000011921,10730,12857.800000011921]","0.6666666666666666","0","0","","","","","","","","","","","","","","","","","","","","","","","","","","","","",""
"123817","","","","instructions","20","680328","0.0-8.0-0.0","90","1","2025-07-02 10:19:15","80fe4187154257d5fb01684ea91b68b9","165.165.119.43","Mozilla/5.0 (Windows NT 10.0; Win64; x64) AppleWebKit/537.36 (KHTML, like Gecko) Chrome/137.0.0.0 Safari/537.36","WebKit","Chrome","137.0.0.0","Windows","10.0","https://app.prolific.com/","en-US,en;q=0.9","60a50457d02bfc23c02d4717","683db6dfa200031b80f2a654","6865078ea7faa01d69fea5c9","60a50457d02bfc23c02d4717","","[{""page_index"":0,""viewing_time"":30909},{""page_index"":1,""viewing_time"":46505},{""page_index"":2,""viewing_time"":17888},{""page_index"":3,""viewing_time"":28515}]","","","","","","","","","","","","","","","","","","","","","","","","","","","","","","","","","","","","","","","","","","",""
"","","","","ctl-task-cpt","21","724066","0.0-8.0-1.0","90","1","2025-07-02 10:19:15","80fe4187154257d5fb01684ea91b68b9","165.165.119.43","Mozilla/5.0 (Windows NT 10.0; Win64; x64) AppleWebKit/537.36 (KHTML, like Gecko) Chrome/137.0.0.0 Safari/537.36","WebKit","Chrome","137.0.0.0","Windows","10.0","https://app.prolific.com/","en-US,en;q=0.9","60a50457d02bfc23c02d4717","683db6dfa200031b80f2a654","6865078ea7faa01d69fea5c9","60a50457d02bfc23c02d4717","","","","","","","","","","","","","","","","","win-only","2","g1:SE,g2:NW","1","0","1","682507.1","3267.5","7272.5","40732.7","2","4","4","6","1","-2","-7","0","0","0","4005","4000","-3000","[""down"",""right""]","{""num_key_presses"":14,""num_perfect"":7,""num_errors"":5,""num_randdir"":0,""num_randdir_good_moves"":0,""num_whilered"":2,""num_whileblue"":1,""num_blue"":1,""num_good_moves"":2}","[410.57142857142856,413.47767857142856,0.2,410.57142857142856,413.47767857142856,104.5,410.57142857142856,413.47767857142856,208.5,410.57142857142856,413.47767857142856,308.7,410.57142857142856,413.47767857142856,412.9,410.57142857142856,413.47767857142856,514,410.57142857142856,413.47767857142856,618.3,410.57142857142856,413.47767857142856,718.8,410.57142857142856,413.47767857142856,824.3,410.57142857142856,413.47767857142856,928,410.57142857142856,413.47767857142856,1029,410.57142857142856,413.47767857142856,1133,410.57142857142856,413.47767857142856,1233.3,410.57142857142856,413.47767857142856,1338.7,410.57142857142856,413.47767857142856,1443.5,410.57142857142856,413.47767857142856,1543.5,410.57142857142856,413.47767857142856,1644.4,410.57142857142856,413.47767857142856,1748,410.57142857142856,413.47767857142856,1848.3,410.57142857142856,413.47767857142856,1948.3,410.57142857142856,413.47767857142856,2054,410.57142857142856,413.47767857142856,2154.1,410.57142857142856,413.47767857142856,2254.3,410.57142857142856,413.47767857142856,2358.7,410.57142857142856,413.47767857142856,2458.9,410.57142857142856,413.47767857142856,2563.4,410.57142857142856,413.47767857142856,2668.1,410.57142857142856,413.47767857142856,2769.4,410.57142857142856,413.47767857142856,2873.5,410.57142857142856,413.47767857142856,2974,410.57142857142856,413.47767857142856,3078.3,410.57142857142856,413.47767857142856,3178.5,410.57142857142856,413.47767857142856,3283,410.57142857142856,413.47767857142856,3383.4,410.57142857142856,413.47767857142856,3488.7,98.57142857142857,225.47767857142856,3593.8,-59.42857142857143,70.47767857142857,3698.1,-64.42857142857143,66.47767857142857,3803,13.57142857142857,31.47767857142857,3904]","[1545.9,1545.9,1000,0,545.9,""smooth"",""down"",""down"",""good_move"",2268.6,722.5,2308.7,1546.1,-1586.2,""error"",""-"",""-"",""no_move"",2502.2,233.4,2308.7,1546.1,-1352.6,""while_red"",""-"",""-"",""no_move"",4060.5,1791.7,1711.3,3269.6,-920.4,""error"",""-"",""-"",""no_move"",6852.5,2791.8,2005.6,5063.7,-216.8,""error"",""-"",""-"",""no_move"",11441.4,4588.8,2659.6,7853.9,927.9,""smooth"",""up"",""up"",""bad_move"",11842.9,401.2,2380.2,11441.7,-1979,""error"",""-"",""-"",""no_move"",12034.4,191.2,2380.2,11441.7,-1787.5,""while_red"",""-"",""-"",""no_move"",15627.6,3784.4,2237.5,12848.9,541.2,""smooth"",""up"",""up"",""bad_move"",18715.8,3088.1,2468.9,15627.7,619.2,""smooth"",""left"",""left"",""bad_move"",21616.1,2899.8,2073.7,18716.3,826.1,""smooth"",""left"",""left"",""bad_move"",24930.2,3313.9,2996.7,21616.3,317.2,""smooth"",""up"",""up"",""bad_move"",28030.2,3099.7,2824.4,24930.6,275.2,""smooth"",""left"",""left"",""bad_move"",30761.2,2730.9,2498.6,28030.3,232.3,""while_blue"",""up"",""right"",""good_move""]","",""
"29552","","","","instructions","22","753618","0.0-8.0-2.0","90","1","2025-07-02 10:19:15","80fe4187154257d5fb01684ea91b68b9","165.165.119.43","Mozilla/5.0 (Windows NT 10.0; Win64; x64) AppleWebKit/537.36 (KHTML, like Gecko) Chrome/137.0.0.0 Safari/537.36","WebKit","Chrome","137.0.0.0","Windows","10.0","https://app.prolific.com/","en-US,en;q=0.9","60a50457d02bfc23c02d4717","683db6dfa200031b80f2a654","6865078ea7faa01d69fea5c9","60a50457d02bfc23c02d4717","","[{""page_index"":0,""viewing_time"":29551}]","","","","","","","","","","","","","","","","","","","","","","","","","","","","","","","","","","","","","","","","","","",""
"","","","","ctl-task-cpt","23","800716","0.0-8.0-3.0","90","1","2025-07-02 10:19:15","80fe4187154257d5fb01684ea91b68b9","165.165.119.43","Mozilla/5.0 (Windows NT 10.0; Win64; x64) AppleWebKit/537.36 (KHTML, like Gecko) Chrome/137.0.0.0 Safari/537.36","WebKit","Chrome","137.0.0.0","Windows","10.0","https://app.prolific.com/","en-US,en;q=0.9","60a50457d02bfc23c02d4717","683db6dfa200031b80f2a654","6865078ea7faa01d69fea5c9","60a50457d02bfc23c02d4717","","","","","","","","","","","","","","","","","win-only","2","g1:SE,g2:NW","0.35","0","3","755796.8","3416.8","7421.9","44093.9","2","4","8","6","1","-2","-4","0","0","0","2894.4","4000","-2690","[""down"",""right""]","{""num_key_presses"":10,""num_perfect"":2,""num_errors"":2,""num_randdir"":6,""num_randdir_good_moves"":2,""num_whilered"":0,""num_whileblue"":2,""num_blue"":3,""num_good_moves"":4}","[423.57142857142856,420.47767857142856,0.3,423.57142857142856,420.47767857142856,104.7,423.57142857142856,420.47767857142856,204.9,423.57142857142856,419.47767857142856,310.9,423.57142857142856,419.47767857142856,411.1,423.57142857142856,419.47767857142856,511.4,423.57142857142856,419.47767857142856,614.9,423.57142857142856,419.47767857142856,714.9,423.57142857142856,419.47767857142856,819.5,423.57142857142856,419.47767857142856,919.7,423.57142857142856,419.47767857142856,1028.6,423.57142857142856,419.47767857142856,1128.6,423.57142857142856,419.47767857142856,1229,423.57142857142856,419.47767857142856,1335,423.57142857142856,419.47767857142856,1439,423.57142857142856,419.47767857142856,1539.9,423.57142857142856,419.47767857142856,1645.1,437.57142857142856,336.47767857142856,1745.5,395.57142857142856,154.47767857142856,1849.4,180.57142857142856,22.47767857142857,1953.9,124.57142857142857,53.47767857142857,2057.7,245.57142857142856,189.47767857142856,2161.2,619.5714285714286,461.47767857142856,2261.4,666.5714285714286,489.47767857142856,2361.5,683.5714285714286,546.4776785714286,2464,715.5714285714286,669.4776785714286,2569.4,721.5714285714286,693.4776785714286,2670.3,736.5714285714286,712.4776785714286,2779.2,740.5714285714286,718.4776785714286,2884.8,741.5714285714286,719.4776785714286,2984.8,741.5714285714286,719.4776785714286,3084.9,741.5714285714286,719.4776785714286,3184.9,741.5714285714286,719.4776785714286,3289.1,741.5714285714286,719.4776785714286,3389.3,741.5714285714286,719.4776785714286,3489.6,739.5714285714286,719.4776785714286,3595.7,739.5714285714286,719.4776785714286,3699.3,739.5714285714286,719.4776785714286,3799.4,739.5714285714286,719.4776785714286,3904.3]","[1476.7,1476.7,1000,0,476.7,""oops"",""right"",""down"",""good_move"",4939,3461.9,2723,1477.2,738.8,""oops"",""up"",""down"",""good_move"",12203.7,7264.6,3335.4,8487.5,380.9,""oops"",""left"",""left"",""bad_move"",15671.7,3467.6,2833.7,12204.1,633.9,""oops"",""right"",""up"",""bad_move"",18912.9,3240.8,2557.2,15672.1,683.6,""smooth"",""up"",""up"",""bad_move"",21422.4,2509.3,2097.2,18913.1,412.1,""oops"",""right"",""up"",""bad_move"",23978.9,2556,2132,21422.9,424,""while_blue"",""left"",""right"",""good_move"",27175,3195.7,2837.8,23979.3,357.9,""oops"",""left"",""left"",""bad_move"",30456.1,3280.8,2890.5,27175.3,390.3,""smooth"",""right"",""right"",""good_move"",33822.2,3365.8,3016.2,30456.4,349.6,""while_blue"",""right"",""up"",""bad_move""]","",""
"47720","","","","instructions","24","848436","0.0-8.0-4.0","90","1","2025-07-02 10:19:15","80fe4187154257d5fb01684ea91b68b9","165.165.119.43","Mozilla/5.0 (Windows NT 10.0; Win64; x64) AppleWebKit/537.36 (KHTML, like Gecko) Chrome/137.0.0.0 Safari/537.36","WebKit","Chrome","137.0.0.0","Windows","10.0","https://app.prolific.com/","en-US,en;q=0.9","60a50457d02bfc23c02d4717","683db6dfa200031b80f2a654","6865078ea7faa01d69fea5c9","60a50457d02bfc23c02d4717","","[{""page_index"":0,""viewing_time"":14824},{""page_index"":1,""viewing_time"":32896}]","","","","","","","","","","","","","","","","","","","","","","","","","","","","","","","","","","","","","","","","","","",""
"27516","","","{""green_ball"":[""Ball sometimes shakes and moves in a random direction""]}","survey-multi-select","25","875956","0.0-8.0-5.0-0.0","90","1","2025-07-02 10:19:15","80fe4187154257d5fb01684ea91b68b9","165.165.119.43","Mozilla/5.0 (Windows NT 10.0; Win64; x64) AppleWebKit/537.36 (KHTML, like Gecko) Chrome/137.0.0.0 Safari/537.36","WebKit","Chrome","137.0.0.0","Windows","10.0","https://app.prolific.com/","en-US,en;q=0.9","60a50457d02bfc23c02d4717","683db6dfa200031b80f2a654","6865078ea7faa01d69fea5c9","60a50457d02bfc23c02d4717","","","[0]","","","","quiz","","","","","","","","","","","","","","","","","","","","","","","","","","","","","","","","","","","","","true",""
"4661","","<p align='center'><b>CORRECT!</b> Indeed, the green ball may sometimes shake and move in a random direction.</p>","0","html-button-response","26","880620","0.0-8.0-5.0-1.0","90","1","2025-07-02 10:19:15","80fe4187154257d5fb01684ea91b68b9","165.165.119.43","Mozilla/5.0 (Windows NT 10.0; Win64; x64) AppleWebKit/537.36 (KHTML, like Gecko) Chrome/137.0.0.0 Safari/537.36","WebKit","Chrome","137.0.0.0","Windows","10.0","https://app.prolific.com/","en-US,en;q=0.9","60a50457d02bfc23c02d4717","683db6dfa200031b80f2a654","6865078ea7faa01d69fea5c9","60a50457d02bfc23c02d4717","","","","","","","","","","","","","","","","","","","","","","","","","","","","","","","","","","","","","","","","","","","","",""
"21966","","","{""yellow_ball"":[""Ball doesn‘t move and I get -1 penalty point""]}","survey-multi-select","27","902588","0.0-8.0-6.0-0.0","90","1","2025-07-02 10:19:15","80fe4187154257d5fb01684ea91b68b9","165.165.119.43","Mozilla/5.0 (Windows NT 10.0; Win64; x64) AppleWebKit/537.36 (KHTML, like Gecko) Chrome/137.0.0.0 Safari/537.36","WebKit","Chrome","137.0.0.0","Windows","10.0","https://app.prolific.com/","en-US,en;q=0.9","60a50457d02bfc23c02d4717","683db6dfa200031b80f2a654","6865078ea7faa01d69fea5c9","60a50457d02bfc23c02d4717","","","[0]","","","","quiz","","","","","","","","","","","","","","","","","","","","","","","","","","","","","","","","","","","","","true",""
"2927","","<p align='center'><b>CORRECT!</b> Indeed, the yellow ball never moves and you receive a penalty.</p>","0","html-button-response","28","905516","0.0-8.0-6.0-1.0","90","1","2025-07-02 10:19:15","80fe4187154257d5fb01684ea91b68b9","165.165.119.43","Mozilla/5.0 (Windows NT 10.0; Win64; x64) AppleWebKit/537.36 (KHTML, like Gecko) Chrome/137.0.0.0 Safari/537.36","WebKit","Chrome","137.0.0.0","Windows","10.0","https://app.prolific.com/","en-US,en;q=0.9","60a50457d02bfc23c02d4717","683db6dfa200031b80f2a654","6865078ea7faa01d69fea5c9","60a50457d02bfc23c02d4717","","","","","","","","","","","","","","","","","","","","","","","","","","","","","","","","","","","","","","","","","","","","",""
"7782","","","{""blue_ball"":[""Ball always shakes and moves in a random direction""]}","survey-multi-select","29","913300","0.0-8.0-7.0-0.0","90","1","2025-07-02 10:19:15","80fe4187154257d5fb01684ea91b68b9","165.165.119.43","Mozilla/5.0 (Windows NT 10.0; Win64; x64) AppleWebKit/537.36 (KHTML, like Gecko) Chrome/137.0.0.0 Safari/537.36","WebKit","Chrome","137.0.0.0","Windows","10.0","https://app.prolific.com/","en-US,en;q=0.9","60a50457d02bfc23c02d4717","683db6dfa200031b80f2a654","6865078ea7faa01d69fea5c9","60a50457d02bfc23c02d4717","","","[0]","","","","quiz","","","","","","","","","","","","","","","","","","","","","","","","","","","","","","","","","","","","","true",""
"4270","","<p align='center'><b>CORRECT!</b> Indeed, the blue ball always shakes and moves in a random direction. Also there is a penalty of -1 point.</p>","0","html-button-response","30","917571","0.0-8.0-7.0-1.0","90","1","2025-07-02 10:19:15","80fe4187154257d5fb01684ea91b68b9","165.165.119.43","Mozilla/5.0 (Windows NT 10.0; Win64; x64) AppleWebKit/537.36 (KHTML, like Gecko) Chrome/137.0.0.0 Safari/537.36","WebKit","Chrome","137.0.0.0","Windows","10.0","https://app.prolific.com/","en-US,en;q=0.9","60a50457d02bfc23c02d4717","683db6dfa200031b80f2a654","6865078ea7faa01d69fea5c9","60a50457d02bfc23c02d4717","","","","","","","","","","","","","","","","","","","","","","","","","","","","","","","","","","","","","","","","","","","","",""
"21423","","","{""bonus"":[""When I reach 50% of points""]}","survey-multi-select","31","938996","0.0-8.0-8.0-0.0","90","1","2025-07-02 10:19:15","80fe4187154257d5fb01684ea91b68b9","165.165.119.43","Mozilla/5.0 (Windows NT 10.0; Win64; x64) AppleWebKit/537.36 (KHTML, like Gecko) Chrome/137.0.0.0 Safari/537.36","WebKit","Chrome","137.0.0.0","Windows","10.0","https://app.prolific.com/","en-US,en;q=0.9","60a50457d02bfc23c02d4717","683db6dfa200031b80f2a654","6865078ea7faa01d69fea5c9","60a50457d02bfc23c02d4717","","","[0]","","","","quiz","","","","","","","","","","","","","","","","","","","","","","","","","","","","","","","","","","","","","true",""
"4087","","<p align='center'><b>CORRECT!</b> Indeed, you receive 2 pounds extra when you reach 50% of points.</p>","0","html-button-response","32","943084","0.0-8.0-8.0-1.0","90","1","2025-07-02 10:19:15","80fe4187154257d5fb01684ea91b68b9","165.165.119.43","Mozilla/5.0 (Windows NT 10.0; Win64; x64) AppleWebKit/537.36 (KHTML, like Gecko) Chrome/137.0.0.0 Safari/537.36","WebKit","Chrome","137.0.0.0","Windows","10.0","https://app.prolific.com/","en-US,en;q=0.9","60a50457d02bfc23c02d4717","683db6dfa200031b80f2a654","6865078ea7faa01d69fea5c9","60a50457d02bfc23c02d4717","","","","","","","","","","","","","","","","","","","","","","","","","","","","","","","","","","","","","","","","","","","","",""
"5255","","","","instructions","33","948340","0.0-8.0-9.0","90","1","2025-07-02 10:19:15","80fe4187154257d5fb01684ea91b68b9","165.165.119.43","Mozilla/5.0 (Windows NT 10.0; Win64; x64) AppleWebKit/537.36 (KHTML, like Gecko) Chrome/137.0.0.0 Safari/537.36","WebKit","Chrome","137.0.0.0","Windows","10.0","https://app.prolific.com/","en-US,en;q=0.9","60a50457d02bfc23c02d4717","683db6dfa200031b80f2a654","6865078ea7faa01d69fea5c9","60a50457d02bfc23c02d4717","","[{""page_index"":0,""viewing_time"":5254}]","","","","","","","","","","","","","","","","","","","","","","","","","","","","","","","","","","","","","","","","","","",""
"21998","","<p>Before you start with this game please answer the following three questions yourself. </p>
  <p>Through this game, we measure several aspects of your cognitive performance, such as reaction times, multi-tasking capabilities </p>
  <p>and the ability to assess the situation you are in.</p>
  <p></p>
  <p><b>How good do you usually are in such tasks?</b></p>","50","html-slider-response","34","970339","0.0-9.0-0.0","90","1","2025-07-02 10:19:15","80fe4187154257d5fb01684ea91b68b9","165.165.119.43","Mozilla/5.0 (Windows NT 10.0; Win64; x64) AppleWebKit/537.36 (KHTML, like Gecko) Chrome/137.0.0.0 Safari/537.36","WebKit","Chrome","137.0.0.0","Windows","10.0","https://app.prolific.com/","en-US,en;q=0.9","60a50457d02bfc23c02d4717","683db6dfa200031b80f2a654","6865078ea7faa01d69fea5c9","60a50457d02bfc23c02d4717","2025-07-02T10:35:27.296Z","","","","","","PreSkillQ","","","","","","","","","","","","","","","","","","","","","","","","","","","","","","","","","","","","","","50"
"10055","","<div style=""width:500px;"">
  <p>How well do you think you will perform in this task compared to other participants?</p>
  </div>","39","html-slider-response","35","980396","0.0-9.0-1.0","90","1","2025-07-02 10:19:15","80fe4187154257d5fb01684ea91b68b9","165.165.119.43","Mozilla/5.0 (Windows NT 10.0; Win64; x64) AppleWebKit/537.36 (KHTML, like Gecko) Chrome/137.0.0.0 Safari/537.36","WebKit","Chrome","137.0.0.0","Windows","10.0","https://app.prolific.com/","en-US,en;q=0.9","60a50457d02bfc23c02d4717","683db6dfa200031b80f2a654","6865078ea7faa01d69fea5c9","60a50457d02bfc23c02d4717","2025-07-02T10:35:37.353Z","","","","","","PrePerfQ","","","","","","","","","","","","","","","","","","","","","","","","","","","","","","","","","","","","","","50"
"4462","","<div style=""width:500px;"">
  <p>What best describes how you currently feel?</p>
  </div>","62","html-slider-response","36","984859","0.0-9.0-2.0","90","1","2025-07-02 10:19:15","80fe4187154257d5fb01684ea91b68b9","165.165.119.43","Mozilla/5.0 (Windows NT 10.0; Win64; x64) AppleWebKit/537.36 (KHTML, like Gecko) Chrome/137.0.0.0 Safari/537.36","WebKit","Chrome","137.0.0.0","Windows","10.0","https://app.prolific.com/","en-US,en;q=0.9","60a50457d02bfc23c02d4717","683db6dfa200031b80f2a654","6865078ea7faa01d69fea5c9","60a50457d02bfc23c02d4717","2025-07-02T10:35:41.816Z","","","","","","PreMotivationQ","","","","","","","","","","","","","","","","","","","","","","","","","","","","","","","","","","","","","","50"
"","","","","ctl-task-cpt","37","1008178","0.0-10.0-0.0","90","1","2025-07-02 10:19:15","80fe4187154257d5fb01684ea91b68b9","165.165.119.43","Mozilla/5.0 (Windows NT 10.0; Win64; x64) AppleWebKit/537.36 (KHTML, like Gecko) Chrome/137.0.0.0 Safari/537.36","WebKit","Chrome","137.0.0.0","Windows","10.0","https://app.prolific.com/","en-US,en;q=0.9","60a50457d02bfc23c02d4717","683db6dfa200031b80f2a654","6865078ea7faa01d69fea5c9","60a50457d02bfc23c02d4717","2025-07-02T10:36:05.135Z","","","","","","","","","","","","","","","","win-only","2","g1:SE,g2:NW","1","1","0","987038.7","4133.6","9135.9","20299.7","1","4","4","6","1","1","1","1","0","0.007575757575757576","1248.7","3000","1410","[""down"",""right""]","{""num_key_presses"":4,""num_perfect"":4,""num_errors"":0,""num_randdir"":0,""num_randdir_good_moves"":0,""num_whilered"":0,""num_whileblue"":0,""num_blue"":0,""num_good_moves"":4}","[419.57142857142856,415.47767857142856,0.2,419.57142857142856,415.47767857142856,102.1,419.57142857142856,415.47767857142856,202.9,419.57142857142856,415.47767857142856,307.9,424.57142857142856,423.47767857142856,415.1,435.57142857142856,432.47767857142856,517.6,469.57142857142856,464.47767857142856,622.4,537.5714285714286,502.47767857142856,730,574.5714285714286,544.4776785714286,831,729.5714285714286,712.4776785714286,932.6,811.5714285714286,770.4776785714286,1032.9,808.5714285714286,773.4776785714286,1137.7,808.5714285714286,774.4776785714286,1241.9,808.5714285714286,774.4776785714286,1344.8,808.5714285714286,774.4776785714286,1447.8,808.5714285714286,774.4776785714286,1548,808.5714285714286,774.4776785714286,1652.5,808.5714285714286,774.4776785714286,1758.7,808.5714285714286,774.4776785714286,1862.6,808.5714285714286,774.4776785714286,1962.7,808.5714285714286,774.4776785714286,2067.9,808.5714285714286,774.4776785714286,2172.7,808.5714285714286,774.4776785714286,2278.8,808.5714285714286,774.4776785714286,2378.9,808.5714285714286,774.4776785714286,2479.9,808.5714285714286,774.4776785714286,2582.6,808.5714285714286,774.4776785714286,2687.2,808.5714285714286,774.4776785714286,2788,825.5714285714286,779.4776785714286,2888.1,825.5714285714286,779.4776785714286,2994.2,825.5714285714286,779.4776785714286,3098.5,825.5714285714286,779.4776785714286,3202.5,825.5714285714286,779.4776785714286,3309.4,825.5714285714286,779.4776785714286,3415.8,825.5714285714286,779.4776785714286,3518.2,825.5714285714286,779.4776785714286,3622.2,825.5714285714286,779.4776785714286,3722.2,825.5714285714286,779.4776785714286,3830.5,825.5714285714286,779.4776785714286,3931.9,825.5714285714286,779.4776785714286,4031.9,825.5714285714286,779.4776785714286,4132.1,825.5714285714286,779.4776785714286,4236.9,825.5714285714286,779.4776785714286,4337.8,825.5714285714286,779.4776785714286,4443.8,825.5714285714286,779.4776785714286,4544.2,825.5714285714286,779.4776785714286,4644.6,825.5714285714286,779.4776785714286,4746.7,825.5714285714286,779.4776785714286,4847.1,825.5714285714286,779.4776785714286,4947.1]","[1519.6,1519.6,1000,0,519.6,""smooth"",""right"",""right"",""good_move"",4640.7,3120.8,2750.4,1520,370.3,""smooth"",""down"",""down"",""good_move"",8037.1,3396.1,3065.9,4641.1,330.1,""smooth"",""right"",""right"",""good_move"",11077.1,3039.7,2628.8,8037.4,410.9,""smooth"",""down"",""down"",""good_move""]","",""
"4112","","<div style=""width:500px;"">
  <p>What determined the result of this run?</p>
  </div>","100","html-slider-response","38","1012291","0.0-10.0-1.0","90","1","2025-07-02 10:19:15","80fe4187154257d5fb01684ea91b68b9","165.165.119.43","Mozilla/5.0 (Windows NT 10.0; Win64; x64) AppleWebKit/537.36 (KHTML, like Gecko) Chrome/137.0.0.0 Safari/537.36","WebKit","Chrome","137.0.0.0","Windows","10.0","https://app.prolific.com/","en-US,en;q=0.9","60a50457d02bfc23c02d4717","683db6dfa200031b80f2a654","6865078ea7faa01d69fea5c9","60a50457d02bfc23c02d4717","2025-07-02T10:36:09.248Z","","","","","","AttribQ","","","","","","","","","","","","","","","","","","","","","","","","","","","","","","","","","","","","","","50"
"2817","","<div style=""width:500px;"">
  <p>How much control did you have over the ball?</p>
  </div>","100","html-slider-response","39","1015109","0.0-10.0-2.0","90","1","2025-07-02 10:19:15","80fe4187154257d5fb01684ea91b68b9","165.165.119.43","Mozilla/5.0 (Windows NT 10.0; Win64; x64) AppleWebKit/537.36 (KHTML, like Gecko) Chrome/137.0.0.0 Safari/537.36","WebKit","Chrome","137.0.0.0","Windows","10.0","https://app.prolific.com/","en-US,en;q=0.9","60a50457d02bfc23c02d4717","683db6dfa200031b80f2a654","6865078ea7faa01d69fea5c9","60a50457d02bfc23c02d4717","2025-07-02T10:36:12.066Z","","","","","","ControlQ","","","","","","","","","","","","","","","","","","","","","","","","","","","","","","","","","","","","","","50"
"6309","","<div style=""width:500px;"">
  <p>How would you describe your current emotional state?</p>
  </div>","51","html-slider-response","40","1021419","0.0-10.0-3.0","90","1","2025-07-02 10:19:15","80fe4187154257d5fb01684ea91b68b9","165.165.119.43","Mozilla/5.0 (Windows NT 10.0; Win64; x64) AppleWebKit/537.36 (KHTML, like Gecko) Chrome/137.0.0.0 Safari/537.36","WebKit","Chrome","137.0.0.0","Windows","10.0","https://app.prolific.com/","en-US,en;q=0.9","60a50457d02bfc23c02d4717","683db6dfa200031b80f2a654","6865078ea7faa01d69fea5c9","60a50457d02bfc23c02d4717","2025-07-02T10:36:18.376Z","","","","","","StressQ","","","","","","","","","","","","","","","","","","","","","","","","","","","","","","","","","","","","","","50"
"5935","","<div style=""width:500px;"">
  <p>What best describes how you currently feel?</p>
  </div>","78","html-slider-response","41","1027355","0.0-10.0-4.0","90","1","2025-07-02 10:19:15","80fe4187154257d5fb01684ea91b68b9","165.165.119.43","Mozilla/5.0 (Windows NT 10.0; Win64; x64) AppleWebKit/537.36 (KHTML, like Gecko) Chrome/137.0.0.0 Safari/537.36","WebKit","Chrome","137.0.0.0","Windows","10.0","https://app.prolific.com/","en-US,en;q=0.9","60a50457d02bfc23c02d4717","683db6dfa200031b80f2a654","6865078ea7faa01d69fea5c9","60a50457d02bfc23c02d4717","2025-07-02T10:36:24.312Z","","","","","","MotivationQ","","","","","","","","","","","","","","","","","","","","","","","","","","","","","","","","","","","","","","50"
"","","","","ctl-task-cpt","42","1056554","0.0-10.0-0.1","90","1","2025-07-02 10:19:15","80fe4187154257d5fb01684ea91b68b9","165.165.119.43","Mozilla/5.0 (Windows NT 10.0; Win64; x64) AppleWebKit/537.36 (KHTML, like Gecko) Chrome/137.0.0.0 Safari/537.36","WebKit","Chrome","137.0.0.0","Windows","10.0","https://app.prolific.com/","en-US,en;q=0.9","60a50457d02bfc23c02d4717","683db6dfa200031b80f2a654","6865078ea7faa01d69fea5c9","60a50457d02bfc23c02d4717","2025-07-02T10:36:53.512Z","","","","","","","","","","","","","","","","win-only","1","g1:NE,g2:SW","0.9","2","0","1029534","1998.5","7001.1","26185.9","1","4","8","6","2","8","8","9","1","0.06818181818181818","1919.7","3000","960","[""down"",""left""]","{""num_key_presses"":6,""num_perfect"":6,""num_errors"":0,""num_randdir"":0,""num_randdir_good_moves"":0,""num_whilered"":0,""num_whileblue"":0,""num_blue"":1,""num_good_moves"":6}","[410.57142857142856,423.47767857142856,0.2,410.57142857142856,423.47767857142856,107.6,410.57142857142856,423.47767857142856,207.6,410.57142857142856,423.47767857142856,311.8,410.57142857142856,423.47767857142856,412,410.57142857142856,423.47767857142856,517.2,410.57142857142856,423.47767857142856,617.2,410.57142857142856,423.47767857142856,722.3,410.57142857142856,423.47767857142856,823.4,339.57142857142856,466.47767857142856,927.1,281.57142857142856,510.47767857142856,1027.4,207.57142857142856,571.4776785714286,1128,136.57142857142856,668.4776785714286,1233.9,98.57142857142857,738.4776785714286,1337.6,94.57142857142857,751.4776785714286,1437.7,89.57142857142857,779.4776785714286,1542.2,89.57142857142857,786.4776785714286,1642.4,89.57142857142857,786.4776785714286,1747.7,89.57142857142857,786.4776785714286,1847.8,89.57142857142857,786.4776785714286,1948.1,89.57142857142857,786.4776785714286,2052.2,89.57142857142857,786.4776785714286,2153.2,92.57142857142857,786.4776785714286,2257.6,428.57142857142856,742.4776785714286,2362.6,969.5714285714286,734.4776785714286,2466.9,1307.5714285714287,734.4776785714286,2568.1,1375.5714285714287,734.4776785714286,2671.4,1375.5714285714287,735.4776785714286,2771.7,1375.5714285714287,735.4776785714286,2872.1,1375.5714285714287,735.4776785714286,2972.2,1375.5714285714287,735.4776785714286,3078,1375.5714285714287,735.4776785714286,3182.7,1375.5714285714287,735.4776785714286,3283.4,1375.5714285714287,735.4776785714286,3387.3,1375.5714285714287,735.4776785714286,3492.8,1375.5714285714287,735.4776785714286,3599.3,1375.5714285714287,735.4776785714286,3705.6,1375.5714285714287,735.4776785714286,3806.7,1375.5714285714287,735.4776785714286,3906.7,1375.5714285714287,735.4776785714286,4006.9,1375.5714285714287,735.4776785714286,4108,1375.5714285714287,735.4776785714286,4215.7,1375.5714285714287,735.4776785714286,4321.3,1375.5714285714287,735.4776785714286,4422.4,1375.5714285714287,735.4776785714286,4523.2,1375.5714285714287,735.4776785714286,4627.9,1375.5714285714287,735.4776785714286,4732.9,1375.5714285714287,735.4776785714286,4835.1,1375.5714285714287,735.4776785714286,4938.4]","[1382.4,1382.4,1000,0,382.4,""smooth"",""down"",""down"",""good_move"",8052,6669.3,3241,4469.1,342,""smooth"",""left"",""left"",""good_move"",11047.6,2995.1,2551.4,8052.5,443.7,""smooth"",""down"",""down"",""good_move"",14224,3176.2,2766.4,11047.8,409.8,""smooth"",""left"",""left"",""good_move"",17005.7,2781.5,2428.7,14224.2,352.8,""smooth"",""left"",""left"",""good_move"",19069.3,2063.4,1654,17005.9,409.4,""smooth"",""down"",""down"",""good_move""]","",""
"4287","","<div style=""width:500px;"">
  <p>What determined the result of this run?</p>
  </div>","100","html-slider-response","43","1060842","0.0-10.0-1.1","90","1","2025-07-02 10:19:15","80fe4187154257d5fb01684ea91b68b9","165.165.119.43","Mozilla/5.0 (Windows NT 10.0; Win64; x64) AppleWebKit/537.36 (KHTML, like Gecko) Chrome/137.0.0.0 Safari/537.36","WebKit","Chrome","137.0.0.0","Windows","10.0","https://app.prolific.com/","en-US,en;q=0.9","60a50457d02bfc23c02d4717","683db6dfa200031b80f2a654","6865078ea7faa01d69fea5c9","60a50457d02bfc23c02d4717","2025-07-02T10:36:57.799Z","","","","","","AttribQ","","","","","","","","","","","","","","","","","","","","","","","","","","","","","","","","","","","","","","50"
"2935","","<div style=""width:500px;"">
  <p>How much control did you have over the ball?</p>
  </div>","100","html-slider-response","44","1063779","0.0-10.0-2.1","90","1","2025-07-02 10:19:15","80fe4187154257d5fb01684ea91b68b9","165.165.119.43","Mozilla/5.0 (Windows NT 10.0; Win64; x64) AppleWebKit/537.36 (KHTML, like Gecko) Chrome/137.0.0.0 Safari/537.36","WebKit","Chrome","137.0.0.0","Windows","10.0","https://app.prolific.com/","en-US,en;q=0.9","60a50457d02bfc23c02d4717","683db6dfa200031b80f2a654","6865078ea7faa01d69fea5c9","60a50457d02bfc23c02d4717","2025-07-02T10:37:00.736Z","","","","","","ControlQ","","","","","","","","","","","","","","","","","","","","","","","","","","","","","","","","","","","","","","50"
"5942","","<div style=""width:500px;"">
  <p>How would you describe your current emotional state?</p>
  </div>","41","html-slider-response","45","1069723","0.0-10.0-3.1","90","1","2025-07-02 10:19:15","80fe4187154257d5fb01684ea91b68b9","165.165.119.43","Mozilla/5.0 (Windows NT 10.0; Win64; x64) AppleWebKit/537.36 (KHTML, like Gecko) Chrome/137.0.0.0 Safari/537.36","WebKit","Chrome","137.0.0.0","Windows","10.0","https://app.prolific.com/","en-US,en;q=0.9","60a50457d02bfc23c02d4717","683db6dfa200031b80f2a654","6865078ea7faa01d69fea5c9","60a50457d02bfc23c02d4717","2025-07-02T10:37:06.680Z","","","","","","StressQ","","","","","","","","","","","","","","","","","","","","","","","","","","","","","","","","","","","","","","50"
"4895","","<div style=""width:500px;"">
  <p>What best describes how you currently feel?</p>
  </div>","75","html-slider-response","46","1074618","0.0-10.0-4.1","90","1","2025-07-02 10:19:15","80fe4187154257d5fb01684ea91b68b9","165.165.119.43","Mozilla/5.0 (Windows NT 10.0; Win64; x64) AppleWebKit/537.36 (KHTML, like Gecko) Chrome/137.0.0.0 Safari/537.36","WebKit","Chrome","137.0.0.0","Windows","10.0","https://app.prolific.com/","en-US,en;q=0.9","60a50457d02bfc23c02d4717","683db6dfa200031b80f2a654","6865078ea7faa01d69fea5c9","60a50457d02bfc23c02d4717","2025-07-02T10:37:11.575Z","","","","","","MotivationQ","","","","","","","","","","","","","","","","","","","","","","","","","","","","","","","","","","","","","","50"
"","","","","ctl-task-cpt","47","1094491","0.0-10.0-0.2","90","1","2025-07-02 10:19:15","80fe4187154257d5fb01684ea91b68b9","165.165.119.43","Mozilla/5.0 (Windows NT 10.0; Win64; x64) AppleWebKit/537.36 (KHTML, like Gecko) Chrome/137.0.0.0 Safari/537.36","WebKit","Chrome","137.0.0.0","Windows","10.0","https://app.prolific.com/","en-US,en;q=0.9","60a50457d02bfc23c02d4717","683db6dfa200031b80f2a654","6865078ea7faa01d69fea5c9","60a50457d02bfc23c02d4717","2025-07-02T10:37:31.448Z","","","","","","","","","","","","","","","","win-only","1","g1:NE,g2:SW","0.8","3","0","1076797.6","1822.4","6826.1","16850.5","1","4","4","6","1","1","1","10","9","0.07575757575757576","1566.2","3000","1685","[""up"",""right""]","{""num_key_presses"":4,""num_perfect"":4,""num_errors"":0,""num_randdir"":0,""num_randdir_good_moves"":0,""num_whilered"":0,""num_whileblue"":0,""num_blue"":0,""num_good_moves"":4}","[422.57142857142856,417.47767857142856,0.2,422.57142857142856,417.47767857142856,103.5,422.57142857142856,417.47767857142856,203.7,422.57142857142856,417.47767857142856,317,422.57142857142856,417.47767857142856,417.9,422.57142857142856,417.47767857142856,520,422.57142857142856,417.47767857142856,624.1,422.57142857142856,417.47767857142856,724.2,422.57142857142856,417.47767857142856,827.8,448.57142857142856,390.47767857142856,933.1,541.5714285714286,286.47767857142856,1037.8,583.5714285714286,217.47767857142856,1138.8,664.5714285714286,159.47767857142856,1243.2,717.5714285714286,126.47767857142857,1344.6,737.5714285714286,108.47767857142857,1449.1,742.5714285714286,99.47767857142857,1549.2,743.5714285714286,98.47767857142857,1651.1,743.5714285714286,98.47767857142857,1751.9,743.5714285714286,98.47767857142857,1853.4,743.5714285714286,98.47767857142857,1959.1,742.5714285714286,99.47767857142857,2066.6,739.5714285714286,141.47767857142856,2169,780.5714285714286,265.47767857142856,2269.8,842.5714285714286,368.47767857142856,2374.1,1010.5714285714286,584.4776785714286,2478.4,1063.5714285714287,638.4776785714286,2583.4,1066.5714285714287,644.4776785714286,2684.5,1066.5714285714287,644.4776785714286,2788.2,1066.5714285714287,644.4776785714286,2888.5,1066.5714285714287,644.4776785714286,2988.6,1066.5714285714287,644.4776785714286,3094.4,1066.5714285714287,644.4776785714286,3198.1,1066.5714285714287,644.4776785714286,3298.3,1066.5714285714287,644.4776785714286,3403.6,1066.5714285714287,644.4776785714286,3503.7,1066.5714285714287,644.4776785714286,3608,1066.5714285714287,644.4776785714286,3719.2,1066.5714285714287,644.4776785714286,3823.5,1066.5714285714287,644.4776785714286,3924.2,1066.5714285714287,644.4776785714286,4035,1066.5714285714287,644.4776785714286,4138.8,1066.5714285714287,644.4776785714286,4249.4,1066.5714285714287,644.4776785714286,4353.6,1066.5714285714287,644.4776785714286,4454.5,1066.5714285714287,644.4776785714286,4554.9,1066.5714285714287,644.4776785714286,4655,1066.5714285714287,644.4776785714286,4758.4,1066.5714285714287,644.4776785714286,4858.9,1066.5714285714287,644.4776785714286,4969]","[1395.1,1395.1,1000,0,395.1,""smooth"",""up"",""up"",""good_move"",4948.3,3552.8,3015.4,1395.5,537.4,""smooth"",""up"",""up"",""good_move"",7661.6,2713,2363.6,4948.6,349.4,""smooth"",""right"",""right"",""good_move"",9927.6,2265.5,1946,7662.1,319.5,""smooth"",""right"",""right"",""good_move""]","",""
"3302","","<div style=""width:500px;"">
  <p>What determined the result of this run?</p>
  </div>","100","html-slider-response","48","1097795","0.0-10.0-1.2","90","1","2025-07-02 10:19:15","80fe4187154257d5fb01684ea91b68b9","165.165.119.43","Mozilla/5.0 (Windows NT 10.0; Win64; x64) AppleWebKit/537.36 (KHTML, like Gecko) Chrome/137.0.0.0 Safari/537.36","WebKit","Chrome","137.0.0.0","Windows","10.0","https://app.prolific.com/","en-US,en;q=0.9","60a50457d02bfc23c02d4717","683db6dfa200031b80f2a654","6865078ea7faa01d69fea5c9","60a50457d02bfc23c02d4717","2025-07-02T10:37:34.752Z","","","","","","AttribQ","","","","","","","","","","","","","","","","","","","","","","","","","","","","","","","","","","","","","","50"
"2936","","<div style=""width:500px;"">
  <p>How much control did you have over the ball?</p>
  </div>","100","html-slider-response","49","1100731","0.0-10.0-2.2","90","1","2025-07-02 10:19:15","80fe4187154257d5fb01684ea91b68b9","165.165.119.43","Mozilla/5.0 (Windows NT 10.0; Win64; x64) AppleWebKit/537.36 (KHTML, like Gecko) Chrome/137.0.0.0 Safari/537.36","WebKit","Chrome","137.0.0.0","Windows","10.0","https://app.prolific.com/","en-US,en;q=0.9","60a50457d02bfc23c02d4717","683db6dfa200031b80f2a654","6865078ea7faa01d69fea5c9","60a50457d02bfc23c02d4717","2025-07-02T10:37:37.689Z","","","","","","ControlQ","","","","","","","","","","","","","","","","","","","","","","","","","","","","","","","","","","","","","","50"
"5109","","<div style=""width:500px;"">
  <p>How would you describe your current emotional state?</p>
  </div>","51","html-slider-response","50","1105842","0.0-10.0-3.2","90","1","2025-07-02 10:19:15","80fe4187154257d5fb01684ea91b68b9","165.165.119.43","Mozilla/5.0 (Windows NT 10.0; Win64; x64) AppleWebKit/537.36 (KHTML, like Gecko) Chrome/137.0.0.0 Safari/537.36","WebKit","Chrome","137.0.0.0","Windows","10.0","https://app.prolific.com/","en-US,en;q=0.9","60a50457d02bfc23c02d4717","683db6dfa200031b80f2a654","6865078ea7faa01d69fea5c9","60a50457d02bfc23c02d4717","2025-07-02T10:37:42.799Z","","","","","","StressQ","","","","","","","","","","","","","","","","","","","","","","","","","","","","","","","","","","","","","","50"
"3319","","<div style=""width:500px;"">
  <p>What best describes how you currently feel?</p>
  </div>","83","html-slider-response","51","1109162","0.0-10.0-4.2","90","1","2025-07-02 10:19:15","80fe4187154257d5fb01684ea91b68b9","165.165.119.43","Mozilla/5.0 (Windows NT 10.0; Win64; x64) AppleWebKit/537.36 (KHTML, like Gecko) Chrome/137.0.0.0 Safari/537.36","WebKit","Chrome","137.0.0.0","Windows","10.0","https://app.prolific.com/","en-US,en;q=0.9","60a50457d02bfc23c02d4717","683db6dfa200031b80f2a654","6865078ea7faa01d69fea5c9","60a50457d02bfc23c02d4717","2025-07-02T10:37:46.119Z","","","","","","MotivationQ","","","","","","","","","","","","","","","","","","","","","","","","","","","","","","","","","","","","","","50"
"","","","","ctl-task-cpt","52","1150722","0.0-10.0-0.3","90","1","2025-07-02 10:19:15","80fe4187154257d5fb01684ea91b68b9","165.165.119.43","Mozilla/5.0 (Windows NT 10.0; Win64; x64) AppleWebKit/537.36 (KHTML, like Gecko) Chrome/137.0.0.0 Safari/537.36","WebKit","Chrome","137.0.0.0","Windows","10.0","https://app.prolific.com/","en-US,en;q=0.9","60a50457d02bfc23c02d4717","683db6dfa200031b80f2a654","6865078ea7faa01d69fea5c9","60a50457d02bfc23c02d4717","2025-07-02T10:38:27.679Z","","","","","","","","","","","","","","","","win-only","3","g1:SW,g2:NE","0.7","4","0","1111342","1362.8","6364.9","38541","1","4","8","6","2","8","8","18","10","0.13636363636363635","1367.8","3000","5","[""up"",""right""]","{""num_key_presses"":12,""num_perfect"":9,""num_errors"":0,""num_randdir"":3,""num_randdir_good_moves"":1,""num_whilered"":0,""num_whileblue"":0,""num_blue"":0,""num_good_moves"":9}","[422.57142857142856,424.47767857142856,0.3,422.57142857142856,424.47767857142856,102,422.57142857142856,424.47767857142856,202,422.57142857142856,424.47767857142856,304.1,422.57142857142856,424.47767857142856,408.6,422.57142857142856,424.47767857142856,508.7,422.57142857142856,424.47767857142856,612.8,422.57142857142856,424.47767857142856,717.8,541.5714285714286,299.47767857142856,819.4,615.5714285714286,186.47767857142856,923.1,682.5714285714286,122.47767857142857,1036.4,724.5714285714286,99.47767857142857,1138.1,755.5714285714286,86.47767857142857,1238.5,762.5714285714286,84.47767857142857,1343.3,764.5714285714286,84.47767857142857,1448.3,764.5714285714286,84.47767857142857,1548.6,764.5714285714286,84.47767857142857,1652.2,764.5714285714286,84.47767857142857,1752.3,764.5714285714286,84.47767857142857,1853.5,764.5714285714286,84.47767857142857,1958.4,764.5714285714286,84.47767857142857,2058.5,764.5714285714286,84.47767857142857,2167,764.5714285714286,84.47767857142857,2267.3,764.5714285714286,84.47767857142857,2368.5,764.5714285714286,84.47767857142857,2473.2,764.5714285714286,84.47767857142857,2574.1,764.5714285714286,84.47767857142857,2674.6,764.5714285714286,84.47767857142857,2778.5,764.5714285714286,84.47767857142857,2883.4,764.5714285714286,84.47767857142857,2983.4,764.5714285714286,84.47767857142857,3088.9,764.5714285714286,84.47767857142857,3202,764.5714285714286,84.47767857142857,3303,764.5714285714286,84.47767857142857,3419.1,764.5714285714286,84.47767857142857,3523.1,764.5714285714286,84.47767857142857,3635.4,764.5714285714286,84.47767857142857,3736.5,764.5714285714286,84.47767857142857,3838.1,764.5714285714286,84.47767857142857,3952.3,764.5714285714286,84.47767857142857,4052.4,764.5714285714286,84.47767857142857,4159.2,764.5714285714286,84.47767857142857,4268,764.5714285714286,84.47767857142857,4372.6,764.5714285714286,84.47767857142857,4474.5,764.5714285714286,84.47767857142857,4585.2,764.5714285714286,84.47767857142857,4688.8,764.5714285714286,84.47767857142857,4801,764.5714285714286,84.47767857142857,4902.4]","[1433.3,1433.3,1000,0,433.3,""smooth"",""up"",""up"",""good_move"",4215.1,2781.5,2373.8,1433.7,407.6,""smooth"",""up"",""up"",""good_move"",7034.6,2819.3,2452,4215.3,367.3,""smooth"",""up"",""up"",""good_move"",10073.8,3039.1,2683.7,7034.7,355.4,""oops"",""right"",""left"",""bad_move"",12875.3,2801.1,2496.3,10074.2,304.8,""smooth"",""left"",""left"",""bad_move"",15297.3,2421.6,1992.2,12875.7,429.4,""smooth"",""right"",""right"",""good_move"",17909.8,2612.2,2239.9,15297.6,372.3,""smooth"",""right"",""right"",""good_move"",21061.5,3151.6,2836.9,17909.9,314.7,""smooth"",""right"",""right"",""good_move"",23499.7,2437.9,2134.9,21061.8,303,""oops"",""right"",""left"",""bad_move"",26380,2880,2589,23500,291,""oops"",""right"",""right"",""good_move"",29063.9,2683.7,2455.2,26380.2,228.5,""smooth"",""right"",""right"",""good_move"",32064.1,2999.9,2662.2,29064.3,337.6,""smooth"",""right"",""right"",""good_move""]","",""
"6623","","<div style=""width:500px;"">
  <p>What determined the result of this run?</p>
  </div>","76","html-slider-response","53","1157346","0.0-10.0-1.3","90","1","2025-07-02 10:19:15","80fe4187154257d5fb01684ea91b68b9","165.165.119.43","Mozilla/5.0 (Windows NT 10.0; Win64; x64) AppleWebKit/537.36 (KHTML, like Gecko) Chrome/137.0.0.0 Safari/537.36","WebKit","Chrome","137.0.0.0","Windows","10.0","https://app.prolific.com/","en-US,en;q=0.9","60a50457d02bfc23c02d4717","683db6dfa200031b80f2a654","6865078ea7faa01d69fea5c9","60a50457d02bfc23c02d4717","2025-07-02T10:38:34.303Z","","","","","","AttribQ","","","","","","","","","","","","","","","","","","","","","","","","","","","","","","","","","","","","","","50"
"3366","","<div style=""width:500px;"">
  <p>How much control did you have over the ball?</p>
  </div>","80","html-slider-response","54","1160714","0.0-10.0-2.3","90","1","2025-07-02 10:19:15","80fe4187154257d5fb01684ea91b68b9","165.165.119.43","Mozilla/5.0 (Windows NT 10.0; Win64; x64) AppleWebKit/537.36 (KHTML, like Gecko) Chrome/137.0.0.0 Safari/537.36","WebKit","Chrome","137.0.0.0","Windows","10.0","https://app.prolific.com/","en-US,en;q=0.9","60a50457d02bfc23c02d4717","683db6dfa200031b80f2a654","6865078ea7faa01d69fea5c9","60a50457d02bfc23c02d4717","2025-07-02T10:38:37.671Z","","","","","","ControlQ","","","","","","","","","","","","","","","","","","","","","","","","","","","","","","","","","","","","","","50"
"3583","","<div style=""width:500px;"">
  <p>How would you describe your current emotional state?</p>
  </div>","70","html-slider-response","55","1164298","0.0-10.0-3.3","90","1","2025-07-02 10:19:15","80fe4187154257d5fb01684ea91b68b9","165.165.119.43","Mozilla/5.0 (Windows NT 10.0; Win64; x64) AppleWebKit/537.36 (KHTML, like Gecko) Chrome/137.0.0.0 Safari/537.36","WebKit","Chrome","137.0.0.0","Windows","10.0","https://app.prolific.com/","en-US,en;q=0.9","60a50457d02bfc23c02d4717","683db6dfa200031b80f2a654","6865078ea7faa01d69fea5c9","60a50457d02bfc23c02d4717","2025-07-02T10:38:41.255Z","","","","","","StressQ","","","","","","","","","","","","","","","","","","","","","","","","","","","","","","","","","","","","","","50"
"3039","","<div style=""width:500px;"">
  <p>What best describes how you currently feel?</p>
  </div>","72","html-slider-response","56","1167338","0.0-10.0-4.3","90","1","2025-07-02 10:19:15","80fe4187154257d5fb01684ea91b68b9","165.165.119.43","Mozilla/5.0 (Windows NT 10.0; Win64; x64) AppleWebKit/537.36 (KHTML, like Gecko) Chrome/137.0.0.0 Safari/537.36","WebKit","Chrome","137.0.0.0","Windows","10.0","https://app.prolific.com/","en-US,en;q=0.9","60a50457d02bfc23c02d4717","683db6dfa200031b80f2a654","6865078ea7faa01d69fea5c9","60a50457d02bfc23c02d4717","2025-07-02T10:38:44.295Z","","","","","","MotivationQ","","","","","","","","","","","","","","","","","","","","","","","","","","","","","","","","","","","","","","50"
"","","","","ctl-task-cpt","57","1190423","0.0-10.0-0.4","90","1","2025-07-02 10:19:15","80fe4187154257d5fb01684ea91b68b9","165.165.119.43","Mozilla/5.0 (Windows NT 10.0; Win64; x64) AppleWebKit/537.36 (KHTML, like Gecko) Chrome/137.0.0.0 Safari/537.36","WebKit","Chrome","137.0.0.0","Windows","10.0","https://app.prolific.com/","en-US,en;q=0.9","60a50457d02bfc23c02d4717","683db6dfa200031b80f2a654","6865078ea7faa01d69fea5c9","60a50457d02bfc23c02d4717","2025-07-02T10:39:07.380Z","","","","","","","","","","","","","","","","win-only","0","g1:NW,g2:SE","0.6","5","0","1169516.8","1958.5","6972.5","20066.4","1","4","8","6","1","1","0","18","18","0.13636363636363635","1662.6","3000","2205","[""left"",""up""]","{""num_key_presses"":4,""num_perfect"":3,""num_errors"":1,""num_randdir"":0,""num_randdir_good_moves"":0,""num_whilered"":0,""num_whileblue"":1,""num_blue"":2,""num_good_moves"":4}","[417.57142857142856,417.47767857142856,0.1,417.57142857142856,417.47767857142856,102.3,417.57142857142856,417.47767857142856,202.5,417.57142857142856,417.47767857142856,314.1,417.57142857142856,417.47767857142856,414.5,417.57142857142856,417.47767857142856,518,480.57142857142856,464.47767857142856,618.1,534.5714285714286,497.47767857142856,731.4,571.5714285714286,555.4776785714286,832.3,602.5714285714286,599.4776785714286,933.1,547.5714285714286,567.4776785714286,1037.5,311.57142857142856,406.47767857142856,1143,209.57142857142856,270.47767857142856,1244.1,160.57142857142856,214.47767857142856,1347.5,136.57142857142856,162.47767857142856,1447.5,123.57142857142857,139.47767857142856,1548.1,105.57142857142857,99.47767857142857,1665.2,105.57142857142857,99.47767857142857,1767.6,105.57142857142857,99.47767857142857,1868.7,105.57142857142857,99.47767857142857,1973.5,105.57142857142857,99.47767857142857,2078.3,134.57142857142856,160.47767857142856,2183,439.57142857142856,390.47767857142856,2297.8,850.5714285714286,655.4776785714286,2402.9,1269.5714285714287,764.4776785714286,2508,1375.5714285714287,765.4776785714286,2612.6,1375.5714285714287,765.4776785714286,2717.8,1375.5714285714287,765.4776785714286,2831.6,1375.5714285714287,765.4776785714286,2933.3,1375.5714285714287,765.4776785714286,3037.7,1375.5714285714287,765.4776785714286,3142.9,1375.5714285714287,765.4776785714286,3246.7,1375.5714285714287,765.4776785714286,3346.8,1375.5714285714287,765.4776785714286,3446.8,1375.5714285714287,765.4776785714286,3546.8,1375.5714285714287,765.4776785714286,3646.9,1375.5714285714287,765.4776785714286,3746.9,1375.5714285714287,765.4776785714286,3847.1,1375.5714285714287,765.4776785714286,3947.3,1375.5714285714287,765.4776785714286,4047.5,1375.5714285714287,765.4776785714286,4147.5,1375.5714285714287,765.4776785714286,4252.9,1375.5714285714287,765.4776785714286,4353.2,1375.5714285714287,765.4776785714286,4457.6,1375.5714285714287,765.4776785714286,4557.7,1375.5714285714287,765.4776785714286,4658.5,1375.5714285714287,765.4776785714286,4763.4,1375.5714285714287,765.4776785714286,4867.6,1375.5714285714287,765.4776785714286,4967.6]","[4735.3,4735.3,2364.6,2004.1,366.6,""smooth"",""up"",""up"",""good_move"",7397.8,2662.3,2181.4,4735.6,480.9,""smooth"",""up"",""up"",""good_move"",10227.5,2829.6,2501.7,7398,327.8,""smooth"",""left"",""left"",""good_move"",12981,2753.1,2447.6,10227.9,305.5,""while_blue"",""left"",""left"",""good_move""]","",""
"4273","","<div style=""width:500px;"">
  <p>What determined the result of this run?</p>
  </div>","100","html-slider-response","58","1194698","0.0-10.0-1.4","90","1","2025-07-02 10:19:15","80fe4187154257d5fb01684ea91b68b9","165.165.119.43","Mozilla/5.0 (Windows NT 10.0; Win64; x64) AppleWebKit/537.36 (KHTML, like Gecko) Chrome/137.0.0.0 Safari/537.36","WebKit","Chrome","137.0.0.0","Windows","10.0","https://app.prolific.com/","en-US,en;q=0.9","60a50457d02bfc23c02d4717","683db6dfa200031b80f2a654","6865078ea7faa01d69fea5c9","60a50457d02bfc23c02d4717","2025-07-02T10:39:11.655Z","","","","","","AttribQ","","","","","","","","","","","","","","","","","","","","","","","","","","","","","","","","","","","","","","50"
"2294","","<div style=""width:500px;"">
  <p>How much control did you have over the ball?</p>
  </div>","100","html-slider-response","59","1196993","0.0-10.0-2.4","90","1","2025-07-02 10:19:15","80fe4187154257d5fb01684ea91b68b9","165.165.119.43","Mozilla/5.0 (Windows NT 10.0; Win64; x64) AppleWebKit/537.36 (KHTML, like Gecko) Chrome/137.0.0.0 Safari/537.36","WebKit","Chrome","137.0.0.0","Windows","10.0","https://app.prolific.com/","en-US,en;q=0.9","60a50457d02bfc23c02d4717","683db6dfa200031b80f2a654","6865078ea7faa01d69fea5c9","60a50457d02bfc23c02d4717","2025-07-02T10:39:13.950Z","","","","","","ControlQ","","","","","","","","","","","","","","","","","","","","","","","","","","","","","","","","","","","","","","50"
"4057","","<div style=""width:500px;"">
  <p>How would you describe your current emotional state?</p>
  </div>","97","html-slider-response","60","1201052","0.0-10.0-3.4","90","1","2025-07-02 10:19:15","80fe4187154257d5fb01684ea91b68b9","165.165.119.43","Mozilla/5.0 (Windows NT 10.0; Win64; x64) AppleWebKit/537.36 (KHTML, like Gecko) Chrome/137.0.0.0 Safari/537.36","WebKit","Chrome","137.0.0.0","Windows","10.0","https://app.prolific.com/","en-US,en;q=0.9","60a50457d02bfc23c02d4717","683db6dfa200031b80f2a654","6865078ea7faa01d69fea5c9","60a50457d02bfc23c02d4717","2025-07-02T10:39:18.009Z","","","","","","StressQ","","","","","","","","","","","","","","","","","","","","","","","","","","","","","","","","","","","","","","50"
"2933","","<div style=""width:500px;"">
  <p>What best describes how you currently feel?</p>
  </div>","86","html-slider-response","61","1203986","0.0-10.0-4.4","90","1","2025-07-02 10:19:15","80fe4187154257d5fb01684ea91b68b9","165.165.119.43","Mozilla/5.0 (Windows NT 10.0; Win64; x64) AppleWebKit/537.36 (KHTML, like Gecko) Chrome/137.0.0.0 Safari/537.36","WebKit","Chrome","137.0.0.0","Windows","10.0","https://app.prolific.com/","en-US,en;q=0.9","60a50457d02bfc23c02d4717","683db6dfa200031b80f2a654","6865078ea7faa01d69fea5c9","60a50457d02bfc23c02d4717","2025-07-02T10:39:20.943Z","","","","","","MotivationQ","","","","","","","","","","","","","","","","","","","","","","","","","","","","","","","","","","","","","","50"
"","","","","ctl-task-cpt","62","1275460","0.0-10.0-0.5","90","1","2025-07-02 10:19:15","80fe4187154257d5fb01684ea91b68b9","165.165.119.43","Mozilla/5.0 (Windows NT 10.0; Win64; x64) AppleWebKit/537.36 (KHTML, like Gecko) Chrome/137.0.0.0 Safari/537.36","WebKit","Chrome","137.0.0.0","Windows","10.0","https://app.prolific.com/","en-US,en;q=0.9","60a50457d02bfc23c02d4717","683db6dfa200031b80f2a654","6865078ea7faa01d69fea5c9","60a50457d02bfc23c02d4717","2025-07-02T10:40:32.417Z","","","","","","","","","","","","","","","","win-only","0","g1:NW,g2:SE","0.5","6","0","1206165.5","25646.6","30651.3","68466.5","1","4","4","6","2","-4","-5","13","18","0.09848484848484848","2078.8","3000","-2105","[""down"",""right""]","{""num_key_presses"":11,""num_perfect"":5,""num_errors"":1,""num_randdir"":5,""num_randdir_good_moves"":3,""num_whilered"":0,""num_whileblue"":1,""num_blue"":2,""num_good_moves"":8}","[410.57142857142856,414.47767857142856,0.3,410.57142857142856,414.47767857142856,110.5,410.57142857142856,414.47767857142856,210.8,410.57142857142856,414.47767857142856,326.4,410.57142857142856,414.47767857142856,427,410.57142857142856,414.47767857142856,528.7,639.5714285714286,585.4776785714286,629.9,683.5714285714286,644.4776785714286,734.6,711.5714285714286,690.4776785714286,834.6,726.5714285714286,731.4776785714286,934.7,689.5714285714286,713.4776785714286,1034.7,183.57142857142856,261.47767857142856,1139.2,36.57142857142857,156.47767857142856,1239.2,83.57142857142857,146.47767857142856,1340.3,505.57142857142856,412.47767857142856,1444.5,574.5714285714286,489.47767857142856,1544.7,675.5714285714286,611.4776785714286,1644.9,718.5714285714286,664.4776785714286,1761.3,731.5714285714286,694.4776785714286,1862.7,743.5714285714286,713.4776785714286,1965,756.5714285714286,734.4776785714286,2077.2,756.5714285714286,735.4776785714286,2178.7,756.5714285714286,736.4776785714286,2279.4,756.5714285714286,736.4776785714286,2380.5,756.5714285714286,736.4776785714286,2485.1,769.5714285714286,742.4776785714286,2589.6,1093.5714285714287,849.4776785714286,2692.8,1375.5714285714287,959.4776785714286,2794.7,1375.5714285714287,956.4776785714286,2895.1,1375.5714285714287,956.4776785714286,2995.3,1375.5714285714287,956.4776785714286,3095.3,1375.5714285714287,956.4776785714286,3198.7,1375.5714285714287,956.4776785714286,3298.8,1375.5714285714287,956.4776785714286,3399.1,1375.5714285714287,956.4776785714286,3504.8,1375.5714285714287,956.4776785714286,3610.4,1375.5714285714287,956.4776785714286,3726.2,1375.5714285714287,956.4776785714286,3826.8,1375.5714285714287,956.4776785714286,3926.8,1375.5714285714287,956.4776785714286,4030,1375.5714285714287,956.4776785714286,4130.1,1375.5714285714287,956.4776785714286,4230.5,1375.5714285714287,956.4776785714286,4334.6,1375.5714285714287,956.4776785714286,4440.3,1375.5714285714287,956.4776785714286,4540.4,1375.5714285714287,956.4776785714286,4644.7,1375.5714285714287,956.4776785714286,4760.5,1375.5714285714287,956.4776785714286,4861,1375.5714285714287,956.4776785714286,4961.3]","[5439.2,5439.2,2969.4,2005.5,464.3,""oops"",""down"",""down"",""good_move"",8536.2,3096.7,2557.6,5439.5,539.1,""smooth"",""right"",""right"",""good_move"",11404.1,2867.7,2487,8536.4,380.7,""smooth"",""down"",""down"",""good_move"",14431.9,3027.6,2627.1,11404.3,400.5,""oops"",""right"",""up"",""bad_move"",17220.9,2788.6,2429.6,14432.3,359,""oops"",""right"",""up"",""bad_move"",19903.8,2682.7,2330.4,17221.1,352.3,""smooth"",""left"",""left"",""bad_move"",23033.7,3129.7,2802.9,19904,326.8,""oops"",""down"",""down"",""good_move"",25969.4,2935.6,2593.1,23033.8,342.5,""oops"",""down"",""down"",""good_move"",29270.7,3301.3,2968.8,25969.5,332.5,""smooth"",""down"",""down"",""good_move"",32331.6,3060.6,2674.4,29271,386.2,""smooth"",""right"",""right"",""good_move"",35185.7,2853.5,2536.9,32332.2,316.6,""while_blue"",""right"",""right"",""good_move""]","",""
"4516","","<div style=""width:500px;"">
  <p>What determined the result of this run?</p>
  </div>","67","html-slider-response","63","1279978","0.0-10.0-1.5","90","1","2025-07-02 10:19:15","80fe4187154257d5fb01684ea91b68b9","165.165.119.43","Mozilla/5.0 (Windows NT 10.0; Win64; x64) AppleWebKit/537.36 (KHTML, like Gecko) Chrome/137.0.0.0 Safari/537.36","WebKit","Chrome","137.0.0.0","Windows","10.0","https://app.prolific.com/","en-US,en;q=0.9","60a50457d02bfc23c02d4717","683db6dfa200031b80f2a654","6865078ea7faa01d69fea5c9","60a50457d02bfc23c02d4717","2025-07-02T10:40:36.935Z","","","","","","AttribQ","","","","","","","","","","","","","","","","","","","","","","","","","","","","","","","","","","","","","","50"
"3734","","<div style=""width:500px;"">
  <p>How much control did you have over the ball?</p>
  </div>","67","html-slider-response","64","1283714","0.0-10.0-2.5","90","1","2025-07-02 10:19:15","80fe4187154257d5fb01684ea91b68b9","165.165.119.43","Mozilla/5.0 (Windows NT 10.0; Win64; x64) AppleWebKit/537.36 (KHTML, like Gecko) Chrome/137.0.0.0 Safari/537.36","WebKit","Chrome","137.0.0.0","Windows","10.0","https://app.prolific.com/","en-US,en;q=0.9","60a50457d02bfc23c02d4717","683db6dfa200031b80f2a654","6865078ea7faa01d69fea5c9","60a50457d02bfc23c02d4717","2025-07-02T10:40:40.671Z","","","","","","ControlQ","","","","","","","","","","","","","","","","","","","","","","","","","","","","","","","","","","","","","","50"
"3223","","<div style=""width:500px;"">
  <p>How would you describe your current emotional state?</p>
  </div>","87","html-slider-response","65","1286938","0.0-10.0-3.5","90","1","2025-07-02 10:19:15","80fe4187154257d5fb01684ea91b68b9","165.165.119.43","Mozilla/5.0 (Windows NT 10.0; Win64; x64) AppleWebKit/537.36 (KHTML, like Gecko) Chrome/137.0.0.0 Safari/537.36","WebKit","Chrome","137.0.0.0","Windows","10.0","https://app.prolific.com/","en-US,en;q=0.9","60a50457d02bfc23c02d4717","683db6dfa200031b80f2a654","6865078ea7faa01d69fea5c9","60a50457d02bfc23c02d4717","2025-07-02T10:40:43.895Z","","","","","","StressQ","","","","","","","","","","","","","","","","","","","","","","","","","","","","","","","","","","","","","","50"
"2447","","<div style=""width:500px;"">
  <p>What best describes how you currently feel?</p>
  </div>","86","html-slider-response","66","1289386","0.0-10.0-4.5","90","1","2025-07-02 10:19:15","80fe4187154257d5fb01684ea91b68b9","165.165.119.43","Mozilla/5.0 (Windows NT 10.0; Win64; x64) AppleWebKit/537.36 (KHTML, like Gecko) Chrome/137.0.0.0 Safari/537.36","WebKit","Chrome","137.0.0.0","Windows","10.0","https://app.prolific.com/","en-US,en;q=0.9","60a50457d02bfc23c02d4717","683db6dfa200031b80f2a654","6865078ea7faa01d69fea5c9","60a50457d02bfc23c02d4717","2025-07-02T10:40:46.343Z","","","","","","MotivationQ","","","","","","","","","","","","","","","","","","","","","","","","","","","","","","","","","","","","","","50"
"","","","","ctl-task-cpt","67","1336988","0.0-10.0-0.6","90","1","2025-07-02 10:19:15","80fe4187154257d5fb01684ea91b68b9","165.165.119.43","Mozilla/5.0 (Windows NT 10.0; Win64; x64) AppleWebKit/537.36 (KHTML, like Gecko) Chrome/137.0.0.0 Safari/537.36","WebKit","Chrome","137.0.0.0","Windows","10.0","https://app.prolific.com/","en-US,en;q=0.9","60a50457d02bfc23c02d4717","683db6dfa200031b80f2a654","6865078ea7faa01d69fea5c9","60a50457d02bfc23c02d4717","2025-07-02T10:41:33.945Z","","","","","","","","","","","","","","","","win-only","1","g1:NE,g2:SW","0.4","7","0","1291565.8","2341.2","7346.9","44576.6","1","4","4","6","1","-1","-1","12","13","0.09090909090909091","1416.2","3000","-2460","[""up"",""right""]","{""num_key_presses"":9,""num_perfect"":4,""num_errors"":0,""num_randdir"":5,""num_randdir_good_moves"":1,""num_whilered"":0,""num_whileblue"":0,""num_blue"":3,""num_good_moves"":5}","[414.57142857142856,417.47767857142856,0.2,414.57142857142856,417.47767857142856,104.9,414.57142857142856,417.47767857142856,205.9,414.57142857142856,417.47767857142856,317.5,414.57142857142856,417.47767857142856,417.6,414.57142857142856,417.47767857142856,518.6,414.57142857142856,417.47767857142856,619.5,433.57142857142856,342.47767857142856,720.1,485.57142857142856,262.47767857142856,824.3,545.5714285714286,216.47767857142856,925.1,618.5714285714286,154.47767857142856,1029.2,690.5714285714286,108.47767857142857,1129.2,729.5714285714286,87.47767857142857,1230.6,730.5714285714286,86.47767857142857,1348.4,730.5714285714286,86.47767857142857,1450.3,730.5714285714286,86.47767857142857,1551.5,730.5714285714286,86.47767857142857,1666.6,730.5714285714286,89.47767857142857,1767,729.5714285714286,98.47767857142857,1867.1,732.5714285714286,134.47767857142856,1969.4,748.5714285714286,218.47767857142856,2074.4,778.5714285714286,345.47767857142856,2175.3,911.5714285714286,502.47767857142856,2279.6,1139.5714285714287,595.4776785714286,2397.5,1306.5714285714287,611.4776785714286,2498,1334.5714285714287,611.4776785714286,2600.2,1334.5714285714287,611.4776785714286,2700.3,1334.5714285714287,611.4776785714286,2805.3,1334.5714285714287,611.4776785714286,2905.7,1334.5714285714287,611.4776785714286,3010.2,1334.5714285714287,611.4776785714286,3115.4,1334.5714285714287,611.4776785714286,3231.7,1334.5714285714287,611.4776785714286,3332.7,1334.5714285714287,611.4776785714286,3433.5,1334.5714285714287,611.4776785714286,3534.1,1334.5714285714287,611.4776785714286,3635,1334.5714285714287,611.4776785714286,3735.7,1334.5714285714287,611.4776785714286,3839.7,1334.5714285714287,611.4776785714286,3940.1,1334.5714285714287,611.4776785714286,4040.9,1334.5714285714287,611.4776785714286,4145.5,1334.5714285714287,611.4776785714286,4245.5,1334.5714285714287,611.4776785714286,4345.5,1334.5714285714287,611.4776785714286,4450.3,1334.5714285714287,611.4776785714286,4568.2,1334.5714285714287,611.4776785714286,4669.7,1334.5714285714287,611.4776785714286,4769.9,1334.5714285714287,611.4776785714286,4874.2,1334.5714285714287,611.4776785714286,4974.5]","[1563,1563,1000,0,563,""smooth"",""up"",""up"",""good_move"",4895.4,3332.1,2881.8,1563.3,450.3,""oops"",""right"",""down"",""bad_move"",14724.7,9828.8,2291.2,11994.5,439,""oops"",""right"",""down"",""bad_move"",17441.8,2716.9,2282.6,14724.9,434.3,""oops"",""left"",""down"",""bad_move"",19989.3,2547.3,2179.6,17442,367.7,""oops"",""up"",""down"",""bad_move"",23277.3,3287.8,2904.9,19989.5,382.9,""smooth"",""up"",""up"",""good_move"",25721,2443.4,2114.3,23277.6,329.1,""oops"",""up"",""right"",""good_move"",31573.5,5852.2,2566.6,28564.8,442.1,""smooth"",""up"",""up"",""good_move"",34624.7,3051.1,2677.2,31573.6,373.9,""smooth"",""up"",""up"",""good_move""]","",""
"3124","","<div style=""width:500px;"">
  <p>What determined the result of this run?</p>
  </div>","0","html-slider-response","68","1340113","0.0-10.0-1.6","90","1","2025-07-02 10:19:15","80fe4187154257d5fb01684ea91b68b9","165.165.119.43","Mozilla/5.0 (Windows NT 10.0; Win64; x64) AppleWebKit/537.36 (KHTML, like Gecko) Chrome/137.0.0.0 Safari/537.36","WebKit","Chrome","137.0.0.0","Windows","10.0","https://app.prolific.com/","en-US,en;q=0.9","60a50457d02bfc23c02d4717","683db6dfa200031b80f2a654","6865078ea7faa01d69fea5c9","60a50457d02bfc23c02d4717","2025-07-02T10:41:37.070Z","","","","","","AttribQ","","","","","","","","","","","","","","","","","","","","","","","","","","","","","","","","","","","","","","50"
"4895","","<div style=""width:500px;"">
  <p>How much control did you have over the ball?</p>
  </div>","3","html-slider-response","69","1345010","0.0-10.0-2.6","90","1","2025-07-02 10:19:15","80fe4187154257d5fb01684ea91b68b9","165.165.119.43","Mozilla/5.0 (Windows NT 10.0; Win64; x64) AppleWebKit/537.36 (KHTML, like Gecko) Chrome/137.0.0.0 Safari/537.36","WebKit","Chrome","137.0.0.0","Windows","10.0","https://app.prolific.com/","en-US,en;q=0.9","60a50457d02bfc23c02d4717","683db6dfa200031b80f2a654","6865078ea7faa01d69fea5c9","60a50457d02bfc23c02d4717","2025-07-02T10:41:41.967Z","","","","","","ControlQ","","","","","","","","","","","","","","","","","","","","","","","","","","","","","","","","","","","","","","50"
"2775","","<div style=""width:500px;"">
  <p>How would you describe your current emotional state?</p>
  </div>","100","html-slider-response","70","1347785","0.0-10.0-3.6","90","1","2025-07-02 10:19:15","80fe4187154257d5fb01684ea91b68b9","165.165.119.43","Mozilla/5.0 (Windows NT 10.0; Win64; x64) AppleWebKit/537.36 (KHTML, like Gecko) Chrome/137.0.0.0 Safari/537.36","WebKit","Chrome","137.0.0.0","Windows","10.0","https://app.prolific.com/","en-US,en;q=0.9","60a50457d02bfc23c02d4717","683db6dfa200031b80f2a654","6865078ea7faa01d69fea5c9","60a50457d02bfc23c02d4717","2025-07-02T10:41:44.743Z","","","","","","StressQ","","","","","","","","","","","","","","","","","","","","","","","","","","","","","","","","","","","","","","50"
"3567","","<div style=""width:500px;"">
  <p>What best describes how you currently feel?</p>
  </div>","64","html-slider-response","71","1351353","0.0-10.0-4.6","90","1","2025-07-02 10:19:15","80fe4187154257d5fb01684ea91b68b9","165.165.119.43","Mozilla/5.0 (Windows NT 10.0; Win64; x64) AppleWebKit/537.36 (KHTML, like Gecko) Chrome/137.0.0.0 Safari/537.36","WebKit","Chrome","137.0.0.0","Windows","10.0","https://app.prolific.com/","en-US,en;q=0.9","60a50457d02bfc23c02d4717","683db6dfa200031b80f2a654","6865078ea7faa01d69fea5c9","60a50457d02bfc23c02d4717","2025-07-02T10:41:48.310Z","","","","","","MotivationQ","","","","","","","","","","","","","","","","","","","","","","","","","","","","","","","","","","","","","","50"
"","","","","ctl-task-cpt","72","1397260","0.0-10.0-0.7","90","1","2025-07-02 10:19:15","80fe4187154257d5fb01684ea91b68b9","165.165.119.43","Mozilla/5.0 (Windows NT 10.0; Win64; x64) AppleWebKit/537.36 (KHTML, like Gecko) Chrome/137.0.0.0 Safari/537.36","WebKit","Chrome","137.0.0.0","Windows","10.0","https://app.prolific.com/","en-US,en;q=0.9","60a50457d02bfc23c02d4717","683db6dfa200031b80f2a654","6865078ea7faa01d69fea5c9","60a50457d02bfc23c02d4717","2025-07-02T10:42:34.217Z","","","","","","","","","","","","","","","","win-only","2","g1:SE,g2:NW","0.3","8","0","1353532.7","1454.2","6455.9","42886.1","1","4","8","6","1","-1","-1","11","12","0.08333333333333333","1327.6","3000","-2175","[""down"",""right""]","{""num_key_presses"":9,""num_perfect"":3,""num_errors"":0,""num_randdir"":6,""num_randdir_good_moves"":2,""num_whilered"":0,""num_whileblue"":0,""num_blue"":3,""num_good_moves"":4}","[416.57142857142856,417.47767857142856,0.3,416.57142857142856,417.47767857142856,101.8,416.57142857142856,417.47767857142856,202.8,416.57142857142856,417.47767857142856,306.9,416.57142857142856,417.47767857142856,418.6,416.57142857142856,417.47767857142856,533.2,416.57142857142856,417.47767857142856,637.9,427.57142857142856,423.47767857142856,753.9,549.5714285714286,532.4776785714286,869.3,706.5714285714286,649.4776785714286,976,767.5714285714286,705.4776785714286,1081.7,768.5714285714286,731.4776785714286,1181.8,767.5714285714286,766.4776785714286,1294,767.5714285714286,769.4776785714286,1396.5,767.5714285714286,769.4776785714286,1501.9,767.5714285714286,769.4776785714286,1606.2,767.5714285714286,769.4776785714286,1709.3,767.5714285714286,769.4776785714286,1810.2,778.5714285714286,772.4776785714286,1911.2,891.5714285714286,771.4776785714286,2012,1105.5714285714287,771.4776785714286,2112.7,1318.5714285714287,782.4776785714286,2218,1375.5714285714287,784.4776785714286,2323.9,1375.5714285714287,784.4776785714286,2427.5,1375.5714285714287,784.4776785714286,2528.9,1375.5714285714287,784.4776785714286,2630.5,1375.5714285714287,784.4776785714286,2732.8,1375.5714285714287,784.4776785714286,2845.6,1375.5714285714287,784.4776785714286,2946,1375.5714285714287,784.4776785714286,3047.2,1375.5714285714287,784.4776785714286,3147.2,1375.5714285714287,784.4776785714286,3251.5,1375.5714285714287,784.4776785714286,3352,1375.5714285714287,784.4776785714286,3453.1,1375.5714285714287,784.4776785714286,3567.8,1375.5714285714287,784.4776785714286,3668.7,1375.5714285714287,784.4776785714286,3774.5,1375.5714285714287,784.4776785714286,3879.1,1375.5714285714287,784.4776785714286,3980.4,1375.5714285714287,784.4776785714286,4083.9,1375.5714285714287,784.4776785714286,4188.9,1375.5714285714287,784.4776785714286,4291.5,1375.5714285714287,784.4776785714286,4391.8,1375.5714285714287,784.4776785714286,4491.9,1375.5714285714287,784.4776785714286,4593.7,1375.5714285714287,784.4776785714286,4697.2,1375.5714285714287,784.4776785714286,4802.6,1375.5714285714287,784.4776785714286,4920.1]","[5154.7,5154.7,2481.5,2000.6,672.6,""oops"",""down"",""right"",""good_move"",8079,2923.1,2577.2,5155.9,345.9,""oops"",""down"",""left"",""bad_move"",13798.4,5719.1,2576.5,10777.2,444.7,""smooth"",""right"",""right"",""good_move"",16842.2,3043.7,2662.6,13798.5,381.1,""oops"",""right"",""left"",""bad_move"",19608.4,2765.9,2077,16842.5,688.9,""oops"",""left"",""right"",""good_move"",24734.4,5125.8,1689.5,22478.7,566.2,""oops"",""left"",""up"",""bad_move"",28097.5,3362.9,2948.7,24734.6,414.2,""smooth"",""up"",""up"",""bad_move"",31009.4,2911.8,2529.3,28097.6,382.5,""smooth"",""down"",""down"",""good_move"",33433.2,2423.3,2094.4,31009.9,328.9,""oops"",""down"",""left"",""bad_move""]","",""
"2820","","<div style=""width:500px;"">
  <p>What determined the result of this run?</p>
  </div>","0","html-slider-response","73","1400081","0.0-10.0-1.7","90","1","2025-07-02 10:19:15","80fe4187154257d5fb01684ea91b68b9","165.165.119.43","Mozilla/5.0 (Windows NT 10.0; Win64; x64) AppleWebKit/537.36 (KHTML, like Gecko) Chrome/137.0.0.0 Safari/537.36","WebKit","Chrome","137.0.0.0","Windows","10.0","https://app.prolific.com/","en-US,en;q=0.9","60a50457d02bfc23c02d4717","683db6dfa200031b80f2a654","6865078ea7faa01d69fea5c9","60a50457d02bfc23c02d4717","2025-07-02T10:42:37.039Z","","","","","","AttribQ","","","","","","","","","","","","","","","","","","","","","","","","","","","","","","","","","","","","","","50"
"2688","","<div style=""width:500px;"">
  <p>How much control did you have over the ball?</p>
  </div>","0","html-slider-response","74","1402771","0.0-10.0-2.7","90","1","2025-07-02 10:19:15","80fe4187154257d5fb01684ea91b68b9","165.165.119.43","Mozilla/5.0 (Windows NT 10.0; Win64; x64) AppleWebKit/537.36 (KHTML, like Gecko) Chrome/137.0.0.0 Safari/537.36","WebKit","Chrome","137.0.0.0","Windows","10.0","https://app.prolific.com/","en-US,en;q=0.9","60a50457d02bfc23c02d4717","683db6dfa200031b80f2a654","6865078ea7faa01d69fea5c9","60a50457d02bfc23c02d4717","2025-07-02T10:42:39.728Z","","","","","","ControlQ","","","","","","","","","","","","","","","","","","","","","","","","","","","","","","","","","","","","","","50"
"2181","","<div style=""width:500px;"">
  <p>How would you describe your current emotional state?</p>
  </div>","100","html-slider-response","75","1404953","0.0-10.0-3.7","90","1","2025-07-02 10:19:15","80fe4187154257d5fb01684ea91b68b9","165.165.119.43","Mozilla/5.0 (Windows NT 10.0; Win64; x64) AppleWebKit/537.36 (KHTML, like Gecko) Chrome/137.0.0.0 Safari/537.36","WebKit","Chrome","137.0.0.0","Windows","10.0","https://app.prolific.com/","en-US,en;q=0.9","60a50457d02bfc23c02d4717","683db6dfa200031b80f2a654","6865078ea7faa01d69fea5c9","60a50457d02bfc23c02d4717","2025-07-02T10:42:41.910Z","","","","","","StressQ","","","","","","","","","","","","","","","","","","","","","","","","","","","","","","","","","","","","","","50"
"2989","","<div style=""width:500px;"">
  <p>What best describes how you currently feel?</p>
  </div>","64","html-slider-response","76","1407945","0.0-10.0-4.7","90","1","2025-07-02 10:19:15","80fe4187154257d5fb01684ea91b68b9","165.165.119.43","Mozilla/5.0 (Windows NT 10.0; Win64; x64) AppleWebKit/537.36 (KHTML, like Gecko) Chrome/137.0.0.0 Safari/537.36","WebKit","Chrome","137.0.0.0","Windows","10.0","https://app.prolific.com/","en-US,en;q=0.9","60a50457d02bfc23c02d4717","683db6dfa200031b80f2a654","6865078ea7faa01d69fea5c9","60a50457d02bfc23c02d4717","2025-07-02T10:42:44.902Z","","","","","","MotivationQ","","","","","","","","","","","","","","","","","","","","","","","","","","","","","","","","","","","","","","50"
"","","","","ctl-task-cpt","77","1464389","0.0-10.0-0.8","90","1","2025-07-02 10:19:15","80fe4187154257d5fb01684ea91b68b9","165.165.119.43","Mozilla/5.0 (Windows NT 10.0; Win64; x64) AppleWebKit/537.36 (KHTML, like Gecko) Chrome/137.0.0.0 Safari/537.36","WebKit","Chrome","137.0.0.0","Windows","10.0","https://app.prolific.com/","en-US,en;q=0.9","60a50457d02bfc23c02d4717","683db6dfa200031b80f2a654","6865078ea7faa01d69fea5c9","60a50457d02bfc23c02d4717","2025-07-02T10:43:41.346Z","","","","","","","","","","","","","","","","win-only","0","g1:NW,g2:SE","0.4","9","0","1410125","1061.5","6063.7","53419.9","1","4","8","6","1","1","1","12","11","0.09090909090909091","1585.4","3000","795","[""left"",""up""]","{""num_key_presses"":12,""num_perfect"":5,""num_errors"":0,""num_randdir"":7,""num_randdir_good_moves"":4,""num_whilered"":0,""num_whileblue"":0,""num_blue"":4,""num_good_moves"":8}","[411.57142857142856,416.47767857142856,0.2,411.57142857142856,416.47767857142856,107.2,411.57142857142856,416.47767857142856,214.1,411.57142857142856,416.47767857142856,318.1,411.57142857142856,416.47767857142856,419.2,411.57142857142856,416.47767857142856,521.6,411.57142857142856,416.47767857142856,625.7,544.5714285714286,468.47767857142856,745,576.5714285714286,501.47767857142856,846.9,573.5714285714286,507.47767857142856,953.9,279.57142857142856,298.47767857142856,1068.5,168.57142857142856,196.47767857142856,1180.3,120.57142857142857,125.47767857142857,1296,90.57142857142857,79.47767857142857,1408.6,80.57142857142857,69.47767857142857,1519.7,80.57142857142857,69.47767857142857,1627.2,80.57142857142857,69.47767857142857,1739.5,80.57142857142857,69.47767857142857,1845.9,80.57142857142857,69.47767857142857,1951,100.57142857142857,95.47767857142857,2063.2,289.57142857142856,256.47767857142856,2177.3,982.5714285714286,567.4776785714286,2291.6,1375.5714285714287,808.4776785714286,2407.1,1375.5714285714287,959.4776785714286,2524,1375.5714285714287,959.4776785714286,2632.5,1375.5714285714287,959.4776785714286,2745.7,1375.5714285714287,959.4776785714286,2852.2,1375.5714285714287,959.4776785714286,2959.3,1375.5714285714287,959.4776785714286,3067,1375.5714285714287,959.4776785714286,3170.9,1375.5714285714287,959.4776785714286,3276.9,1375.5714285714287,959.4776785714286,3382.3,1375.5714285714287,959.4776785714286,3488.1,1375.5714285714287,959.4776785714286,3591.2,1375.5714285714287,959.4776785714286,3695.7,1375.5714285714287,959.4776785714286,3798.8,1375.5714285714287,959.4776785714286,3902.2,1375.5714285714287,959.4776785714286,4010.8,1375.5714285714287,959.4776785714286,4118.1,1375.5714285714287,959.4776785714286,4223.2,1375.5714285714287,959.4776785714286,4331.1,1375.5714285714287,959.4776785714286,4437.5,1375.5714285714287,959.4776785714286,4544.5,1375.5714285714287,959.4776785714286,4651.4,1375.5714285714287,959.4776785714286,4755,1375.5714285714287,959.4776785714286,4863.5,1375.5714285714287,959.4776785714286,4971.8]","[1565.5,1565.5,1000,0,565.5,""oops"",""left"",""right"",""bad_move"",8291.6,6725.8,2409.9,5410.4,471.3,""oops"",""up"",""left"",""good_move"",11020.4,2728.5,2331,8291.9,397.5,""oops"",""up"",""down"",""bad_move"",13595.3,2574.5,2240.8,11020.8,333.7,""smooth"",""down"",""down"",""bad_move"",18958.2,5362.7,2333.3,16278.1,346.8,""smooth"",""left"",""left"",""good_move"",21643.8,2685.4,2298.2,18958.4,387.2,""smooth"",""up"",""up"",""good_move"",24676.1,3032,2569.9,21644.1,462.1,""oops"",""up"",""up"",""good_move"",30914.5,6238.2,2425.4,28017.5,471.6,""smooth"",""up"",""up"",""good_move"",34172.3,3257.6,2942.4,30914.7,315.2,""oops"",""left"",""right"",""bad_move"",36761.5,2588.9,2259.1,34172.6,329.8,""oops"",""up"",""up"",""good_move"",39929,3167.4,2855.3,36761.6,312.1,""smooth"",""left"",""left"",""good_move"",47066.8,7137.6,3155.7,43572.4,338.7,""oops"",""left"",""left"",""good_move""]","",""
"2986","","<div style=""width:500px;"">
  <p>What determined the result of this run?</p>
  </div>","45","html-slider-response","78","1467377","0.0-10.0-1.8","90","1","2025-07-02 10:19:15","80fe4187154257d5fb01684ea91b68b9","165.165.119.43","Mozilla/5.0 (Windows NT 10.0; Win64; x64) AppleWebKit/537.36 (KHTML, like Gecko) Chrome/137.0.0.0 Safari/537.36","WebKit","Chrome","137.0.0.0","Windows","10.0","https://app.prolific.com/","en-US,en;q=0.9","60a50457d02bfc23c02d4717","683db6dfa200031b80f2a654","6865078ea7faa01d69fea5c9","60a50457d02bfc23c02d4717","2025-07-02T10:43:44.335Z","","","","","","AttribQ","","","","","","","","","","","","","","","","","","","","","","","","","","","","","","","","","","","","","","50"
"3214","","<div style=""width:500px;"">
  <p>How much control did you have over the ball?</p>
  </div>","49","html-slider-response","79","1470593","0.0-10.0-2.8","90","1","2025-07-02 10:19:15","80fe4187154257d5fb01684ea91b68b9","165.165.119.43","Mozilla/5.0 (Windows NT 10.0; Win64; x64) AppleWebKit/537.36 (KHTML, like Gecko) Chrome/137.0.0.0 Safari/537.36","WebKit","Chrome","137.0.0.0","Windows","10.0","https://app.prolific.com/","en-US,en;q=0.9","60a50457d02bfc23c02d4717","683db6dfa200031b80f2a654","6865078ea7faa01d69fea5c9","60a50457d02bfc23c02d4717","2025-07-02T10:43:47.551Z","","","","","","ControlQ","","","","","","","","","","","","","","","","","","","","","","","","","","","","","","","","","","","","","","50"
"2646","","<div style=""width:500px;"">
  <p>How would you describe your current emotional state?</p>
  </div>","71","html-slider-response","80","1473241","0.0-10.0-3.8","90","1","2025-07-02 10:19:15","80fe4187154257d5fb01684ea91b68b9","165.165.119.43","Mozilla/5.0 (Windows NT 10.0; Win64; x64) AppleWebKit/537.36 (KHTML, like Gecko) Chrome/137.0.0.0 Safari/537.36","WebKit","Chrome","137.0.0.0","Windows","10.0","https://app.prolific.com/","en-US,en;q=0.9","60a50457d02bfc23c02d4717","683db6dfa200031b80f2a654","6865078ea7faa01d69fea5c9","60a50457d02bfc23c02d4717","2025-07-02T10:43:50.198Z","","","","","","StressQ","","","","","","","","","","","","","","","","","","","","","","","","","","","","","","","","","","","","","","50"
"2936","","<div style=""width:500px;"">
  <p>What best describes how you currently feel?</p>
  </div>","63","html-slider-response","81","1476178","0.0-10.0-4.8","90","1","2025-07-02 10:19:15","80fe4187154257d5fb01684ea91b68b9","165.165.119.43","Mozilla/5.0 (Windows NT 10.0; Win64; x64) AppleWebKit/537.36 (KHTML, like Gecko) Chrome/137.0.0.0 Safari/537.36","WebKit","Chrome","137.0.0.0","Windows","10.0","https://app.prolific.com/","en-US,en;q=0.9","60a50457d02bfc23c02d4717","683db6dfa200031b80f2a654","6865078ea7faa01d69fea5c9","60a50457d02bfc23c02d4717","2025-07-02T10:43:53.135Z","","","","","","MotivationQ","","","","","","","","","","","","","","","","","","","","","","","","","","","","","","","","","","","","","","50"
"","","","","ctl-task-cpt","82","1523596","0.0-10.0-0.9","90","1","2025-07-02 10:19:15","80fe4187154257d5fb01684ea91b68b9","165.165.119.43","Mozilla/5.0 (Windows NT 10.0; Win64; x64) AppleWebKit/537.36 (KHTML, like Gecko) Chrome/137.0.0.0 Safari/537.36","WebKit","Chrome","137.0.0.0","Windows","10.0","https://app.prolific.com/","en-US,en;q=0.9","60a50457d02bfc23c02d4717","683db6dfa200031b80f2a654","6865078ea7faa01d69fea5c9","60a50457d02bfc23c02d4717","2025-07-02T10:44:40.553Z","","","","","","","","","","","","","","","","win-only","0","g1:NW,g2:SE","0.5","10","0","1478357.4","1523.6","6527.1","44395.7","1","4","4","6","1","-1","-2","10","12","0.07575757575757576","1403.6","3000","-2170","[""left"",""up""]","{""num_key_presses"":9,""num_perfect"":4,""num_errors"":1,""num_randdir"":4,""num_randdir_good_moves"":1,""num_whilered"":0,""num_whileblue"":0,""num_blue"":3,""num_good_moves"":5}","[417.57142857142856,412.47767857142856,0.3,417.57142857142856,412.47767857142856,103.7,417.57142857142856,412.47767857142856,208.3,417.57142857142856,412.47767857142856,313.7,417.57142857142856,412.47767857142856,418.2,417.57142857142856,412.47767857142856,521.2,417.57142857142856,412.47767857142856,623.4,425.57142857142856,411.47767857142856,729.4,305.57142857142856,222.47767857142856,832.8,43.57142857142857,25.47767857142857,932.9,37.57142857142857,18.47767857142857,1034.3,10.57142857142857,5.477678571428569,1138,10.57142857142857,5.477678571428569,1252.8,58.57142857142857,49.47767857142857,1354.2,66.57142857142857,57.47767857142857,1454.3,66.57142857142857,57.47767857142857,1558.6,66.57142857142857,57.47767857142857,1664.3,66.57142857142857,57.47767857142857,1767.4,66.57142857142857,57.47767857142857,1867.9,105.57142857142857,72.47767857142857,1968.3,390.57142857142856,128.47767857142856,2068.6,1077.5714285714287,276.47767857142856,2172.6,1375.5714285714287,420.47767857142856,2274.2,1375.5714285714287,509.47767857142856,2374.2,1375.5714285714287,513.4776785714286,2474.7,1375.5714285714287,513.4776785714286,2578.5,1375.5714285714287,513.4776785714286,2690.2,1375.5714285714287,513.4776785714286,2791.6,1375.5714285714287,513.4776785714286,2905.6,1375.5714285714287,513.4776785714286,3005.7,1375.5714285714287,513.4776785714286,3106,1375.5714285714287,513.4776785714286,3218.1,1375.5714285714287,513.4776785714286,3319.6,1375.5714285714287,513.4776785714286,3421.1,1375.5714285714287,513.4776785714286,3523.6,1375.5714285714287,513.4776785714286,3624.6,1375.5714285714287,513.4776785714286,3728.6,1375.5714285714287,513.4776785714286,3832.8,1375.5714285714287,513.4776785714286,3934.6,1375.5714285714287,513.4776785714286,4040.5,1375.5714285714287,513.4776785714286,4152.6,1375.5714285714287,513.4776785714286,4267,1375.5714285714287,513.4776785714286,4371.6,1375.5714285714287,513.4776785714286,4471.7,1375.5714285714287,513.4776785714286,4572.1,1375.5714285714287,513.4776785714286,4673.2,1375.5714285714287,513.4776785714286,4773.3,1375.5714285714287,513.4776785714286,4878.6,1375.5714285714287,513.4776785714286,4982.7]","[4796.6,4796.6,2322.1,2002.2,472.3,""oops"",""up"",""left"",""good_move"",11135.7,6338.5,2260.3,8330.4,545,""oops"",""left"",""right"",""bad_move"",14161.4,3025.4,2407.7,11136,617.7,""oops"",""left"",""down"",""bad_move"",17636.9,3475.2,2824.5,14161.7,650.7,""smooth"",""up"",""up"",""good_move"",20846.4,3209.1,2664.4,17637.3,544.7,""oops"",""up"",""right"",""bad_move"",23595.9,2749.2,2220.4,20846.7,528.8,""smooth"",""left"",""left"",""good_move"",27754.9,4158.7,1918.5,27415.2,-1578.8,""error"",""-"",""-"",""no_move"",32845.5,5090.1,2846.3,28763.5,1235.7,""smooth"",""left"",""left"",""good_move"",35140.3,2294.6,1944,32845.7,350.6,""smooth"",""left"",""left"",""good_move""]","",""
"6285","","<div style=""width:500px;"">
  <p>What determined the result of this run?</p>
