"rt","response_timestamp","stimulus","response","trial_type","trial_index","time_elapsed","internal_node_id","run_id","condition","recorded_at","source_code_version","ip","user_agent","device","browser","browser_version","platform","platform_version","referer","accept_language","PROLIFIC_PID","STUDY_ID","SESSION_ID","prolific_id","realtime","view_history","question_order","consent","success","question_id","eventType","responses","item_order","radio_event_ids","radio_event_times","key_event_times","mouse_event_times","straightlining","zigzagging","honeypot","which_type","canvas_config","goals_layout","control_level","trial_number","tutorial_trial_number","trial_start_time","phase1_start_time","phase2_start_time","phase3_start_time","goal_1_value","goal_1_distance","goal_2_value","goal_2_distance","goal_selected","outcome","outcome_total","participant_final_score","participant_initial_score","participant_final_score_prop","goal_choice_rt","allocated_time","allocated_time_remaining","goal_direction","counts","mouse_movements","key_presses","correct","slider_start"
"4217","1751459440335","<p style='font-size:40px;line-height:1.25'><strong>Welcome to the experiment!</strong></p><p style='font-size:1.1em;line-height:1.25'>Thank you for your interest in our experiment! Before you begin, it is important that we obtain your informed consent to participate in the study.</p><p style='font-size:1.1em;line-height:1.25'>On the next screen will be an <strong>information sheet</strong> for you to read. To participate in the study we need you to read this information sheet and the following consent form carefully. If you agree with all the statements, please click the <strong>I agree</strong> button.</p><p style='font-size:1.1em;line-height:1.25'>Press <strong>Next</strong> to read the information sheet.</p>","0","custom-html-button-response","0","4220","0.0-0.0","251","1","2025-07-02 12:30:33","80fe4187154257d5fb01684ea91b68b9","84.40.152.172","Mozilla/5.0 (Macintosh; Intel Mac OS X 10_15_7) AppleWebKit/537.36 (KHTML, like Gecko) Chrome/137.0.0.0 Safari/537.36","Macintosh","Chrome","137.0.0.0","OS X","10_15_7","https://app.prolific.com/","en-GB,en-US;q=0.9,en;q=0.8,pl;q=0.7,de;q=0.6","60f06a479c4f3ec0a536d40a","683db6dfa200031b80f2a654","686526514380ef53734c7613","60f06a479c4f3ec0a536d40a","2025-07-02T12:30:40.337Z","","","","","","","","","","","","","","","","","","","","","","","","","","","","","","","","","","","","","","","","","","","",""
"61902","","","","instructions","1","66122","0.0-1.0","251","1","2025-07-02 12:30:33","80fe4187154257d5fb01684ea91b68b9","84.40.152.172","Mozilla/5.0 (Macintosh; Intel Mac OS X 10_15_7) AppleWebKit/537.36 (KHTML, like Gecko) Chrome/137.0.0.0 Safari/537.36","Macintosh","Chrome","137.0.0.0","OS X","10_15_7","https://app.prolific.com/","en-GB,en-US;q=0.9,en;q=0.8,pl;q=0.7,de;q=0.6","60f06a479c4f3ec0a536d40a","683db6dfa200031b80f2a654","686526514380ef53734c7613","60f06a479c4f3ec0a536d40a","","[{""page_index"":0,""viewing_time"":59871},{""page_index"":1,""viewing_time"":2030}]","","","","","","","","","","","","","","","","","","","","","","","","","","","","","","","","","","","","","","","","","","",""
"8611","","","{""Q0"":"""",""Q1"":"""",""Q2"":"""",""Q3"":"""",""Q4"":"""",""Q5"":"""",""Q6"":""I agree""}","survey-multi-choice","2","74736","0.0-2.0","251","1","2025-07-02 12:30:33","80fe4187154257d5fb01684ea91b68b9","84.40.152.172","Mozilla/5.0 (Macintosh; Intel Mac OS X 10_15_7) AppleWebKit/537.36 (KHTML, like Gecko) Chrome/137.0.0.0 Safari/537.36","Macintosh","Chrome","137.0.0.0","OS X","10_15_7","https://app.prolific.com/","en-GB,en-US;q=0.9,en;q=0.8,pl;q=0.7,de;q=0.6","60f06a479c4f3ec0a536d40a","683db6dfa200031b80f2a654","686526514380ef53734c7613","60f06a479c4f3ec0a536d40a","","","[0,1,2,3,4,5,6]","true","","","","","","","","","","","","","","","","","","","","","","","","","","","","","","","","","","","","","","","","",""
"6490","","","","fullscreen","3","82231","0.0-4.0","251","1","2025-07-02 12:30:33","80fe4187154257d5fb01684ea91b68b9","84.40.152.172","Mozilla/5.0 (Macintosh; Intel Mac OS X 10_15_7) AppleWebKit/537.36 (KHTML, like Gecko) Chrome/137.0.0.0 Safari/537.36","Macintosh","Chrome","137.0.0.0","OS X","10_15_7","https://app.prolific.com/","en-GB,en-US;q=0.9,en;q=0.8,pl;q=0.7,de;q=0.6","60f06a479c4f3ec0a536d40a","683db6dfa200031b80f2a654","686526514380ef53734c7613","60f06a479c4f3ec0a536d40a","","","","","true","","","","","","","","","","","","","","","","","","","","","","","","","","","","","","","","","","","","","","","",""
"5705","1751459524054"," <p style='font-size:1.1em;line-height:1.25'>Thank you for completing the consent form and closing all other tabs.</p><p style='font-size:1.1em;line-height:1.25'>We will now invite you to fill in some demographic information and questionnaires, before starting the game.<br>This will take about 5 minutes.<br></p><p style='font-size:1.1em;line-height:1.25'>Press the <strong>Next</strong> button to continue.</p>","0","custom-html-button-response","4","87938","0.0-5.0","251","1","2025-07-02 12:30:33","80fe4187154257d5fb01684ea91b68b9","84.40.152.172","Mozilla/5.0 (Macintosh; Intel Mac OS X 10_15_7) AppleWebKit/537.36 (KHTML, like Gecko) Chrome/137.0.0.0 Safari/537.36","Macintosh","Chrome","137.0.0.0","OS X","10_15_7","https://app.prolific.com/","en-GB,en-US;q=0.9,en;q=0.8,pl;q=0.7,de;q=0.6","60f06a479c4f3ec0a536d40a","683db6dfa200031b80f2a654","686526514380ef53734c7613","60f06a479c4f3ec0a536d40a","2025-07-02T12:32:04.055Z","","","","","","","","","","","","","","","","","","","","","","","","","","","","","","","","","","","","","","","","","","","",""
"2318","","","{""age"":""24""}","survey-text","5","90259","0.0-6.0-0.0","251","1","2025-07-02 12:30:33","80fe4187154257d5fb01684ea91b68b9","84.40.152.172","Mozilla/5.0 (Macintosh; Intel Mac OS X 10_15_7) AppleWebKit/537.36 (KHTML, like Gecko) Chrome/137.0.0.0 Safari/537.36","Macintosh","Chrome","137.0.0.0","OS X","10_15_7","https://app.prolific.com/","en-GB,en-US;q=0.9,en;q=0.8,pl;q=0.7,de;q=0.6","60f06a479c4f3ec0a536d40a","683db6dfa200031b80f2a654","686526514380ef53734c7613","60f06a479c4f3ec0a536d40a","","","","","","0","demographics","","","","","","","","","","","","","","","","","","","","","","","","","","","","","","","","","","","","","",""
"3301","","","{""gender_identity"":""male/man""}","survey-multi-choice","6","93563","0.0-6.0-1.0","251","1","2025-07-02 12:30:33","80fe4187154257d5fb01684ea91b68b9","84.40.152.172","Mozilla/5.0 (Macintosh; Intel Mac OS X 10_15_7) AppleWebKit/537.36 (KHTML, like Gecko) Chrome/137.0.0.0 Safari/537.36","Macintosh","Chrome","137.0.0.0","OS X","10_15_7","https://app.prolific.com/","en-GB,en-US;q=0.9,en;q=0.8,pl;q=0.7,de;q=0.6","60f06a479c4f3ec0a536d40a","683db6dfa200031b80f2a654","686526514380ef53734c7613","60f06a479c4f3ec0a536d40a","","","[0]","","","1","demographics","","","","","","","","","","","","","","","","","","","","","","","","","","","","","","","","","","","","","",""
"3917","","","{""assigned_sex"":""male""}","survey-multi-choice","7","97481","0.0-6.0-2.0","251","1","2025-07-02 12:30:33","80fe4187154257d5fb01684ea91b68b9","84.40.152.172","Mozilla/5.0 (Macintosh; Intel Mac OS X 10_15_7) AppleWebKit/537.36 (KHTML, like Gecko) Chrome/137.0.0.0 Safari/537.36","Macintosh","Chrome","137.0.0.0","OS X","10_15_7","https://app.prolific.com/","en-GB,en-US;q=0.9,en;q=0.8,pl;q=0.7,de;q=0.6","60f06a479c4f3ec0a536d40a","683db6dfa200031b80f2a654","686526514380ef53734c7613","60f06a479c4f3ec0a536d40a","","","[0]","","","2","demographics","","","","","","","","","","","","","","","","","","","","","","","","","","","","","","","","","","","","","",""
"4223","","","{""menstrual_cycle"":""No""}","survey-multi-choice","8","101706","0.0-6.0-3.0","251","1","2025-07-02 12:30:33","80fe4187154257d5fb01684ea91b68b9","84.40.152.172","Mozilla/5.0 (Macintosh; Intel Mac OS X 10_15_7) AppleWebKit/537.36 (KHTML, like Gecko) Chrome/137.0.0.0 Safari/537.36","Macintosh","Chrome","137.0.0.0","OS X","10_15_7","https://app.prolific.com/","en-GB,en-US;q=0.9,en;q=0.8,pl;q=0.7,de;q=0.6","60f06a479c4f3ec0a536d40a","683db6dfa200031b80f2a654","686526514380ef53734c7613","60f06a479c4f3ec0a536d40a","","","[0]","","","4","demographics","","","","","","","","","","","","","","","","","","","","","","","","","","","","","","","","","","","","","",""
"19943","","","{""education"":""Bachelor's Degree (e.g., BA)""}","survey-multi-choice","9","121651","0.0-6.0-4.0","251","1","2025-07-02 12:30:33","80fe4187154257d5fb01684ea91b68b9","84.40.152.172","Mozilla/5.0 (Macintosh; Intel Mac OS X 10_15_7) AppleWebKit/537.36 (KHTML, like Gecko) Chrome/137.0.0.0 Safari/537.36","Macintosh","Chrome","137.0.0.0","OS X","10_15_7","https://app.prolific.com/","en-GB,en-US;q=0.9,en;q=0.8,pl;q=0.7,de;q=0.6","60f06a479c4f3ec0a536d40a","683db6dfa200031b80f2a654","686526514380ef53734c7613","60f06a479c4f3ec0a536d40a","","","[0]","","","5","demographics","","","","","","","","","","","","","","","","","","","","","","","","","","","","","","","","","","","","","",""
"3836","","","{""education"":""Master's Degree (e.g., MSc)""}","survey-multi-choice","10","125489","0.0-6.0-5.0","251","1","2025-07-02 12:30:33","80fe4187154257d5fb01684ea91b68b9","84.40.152.172","Mozilla/5.0 (Macintosh; Intel Mac OS X 10_15_7) AppleWebKit/537.36 (KHTML, like Gecko) Chrome/137.0.0.0 Safari/537.36","Macintosh","Chrome","137.0.0.0","OS X","10_15_7","https://app.prolific.com/","en-GB,en-US;q=0.9,en;q=0.8,pl;q=0.7,de;q=0.6","60f06a479c4f3ec0a536d40a","683db6dfa200031b80f2a654","686526514380ef53734c7613","60f06a479c4f3ec0a536d40a","2025-07-02T12:32:41.606Z","","[0]","","","6","demographics","","","","","","","","","","","","","","","","","","","","","","","","","","","","","","","","","","","","","",""
"10431","","","{""mental_health_condition"":""no"",""mental_health_treatment"":""no"",""psychiatric_medication"":""no""}","survey-text","11","135922","0.0-7.0-0.0","251","1","2025-07-02 12:30:33","80fe4187154257d5fb01684ea91b68b9","84.40.152.172","Mozilla/5.0 (Macintosh; Intel Mac OS X 10_15_7) AppleWebKit/537.36 (KHTML, like Gecko) Chrome/137.0.0.0 Safari/537.36","Macintosh","Chrome","137.0.0.0","OS X","10_15_7","https://app.prolific.com/","en-GB,en-US;q=0.9,en;q=0.8,pl;q=0.7,de;q=0.6","60f06a479c4f3ec0a536d40a","683db6dfa200031b80f2a654","686526514380ef53734c7613","60f06a479c4f3ec0a536d40a","2025-07-02T12:32:52.039Z","","","","","1","mental_health","","","","","","","","","","","","","","","","","","","","","","","","","","","","","","","","","","","","","",""
"7997","","","{""depression_history"":[""No""]}","survey-multi-select","12","143921","0.0-7.0-1.0","251","1","2025-07-02 12:30:33","80fe4187154257d5fb01684ea91b68b9","84.40.152.172","Mozilla/5.0 (Macintosh; Intel Mac OS X 10_15_7) AppleWebKit/537.36 (KHTML, like Gecko) Chrome/137.0.0.0 Safari/537.36","Macintosh","Chrome","137.0.0.0","OS X","10_15_7","https://app.prolific.com/","en-GB,en-US;q=0.9,en;q=0.8,pl;q=0.7,de;q=0.6","60f06a479c4f3ec0a536d40a","683db6dfa200031b80f2a654","686526514380ef53734c7613","60f06a479c4f3ec0a536d40a","","","[0]","","","","mental_health","","","","","","","","","","","","","","","","","","","","","","","","","","","","","","","","","","","","","",""
"51950.90000000596","","","","survey-template","13","195875","0.0-7.0-3.0","251","1","2025-07-02 12:30:33","80fe4187154257d5fb01684ea91b68b9","84.40.152.172","Mozilla/5.0 (Macintosh; Intel Mac OS X 10_15_7) AppleWebKit/537.36 (KHTML, like Gecko) Chrome/137.0.0.0 Safari/537.36","Macintosh","Chrome","137.0.0.0","OS X","10_15_7","https://app.prolific.com/","en-GB,en-US;q=0.9,en;q=0.8,pl;q=0.7,de;q=0.6","60f06a479c4f3ec0a536d40a","683db6dfa200031b80f2a654","686526514380ef53734c7613","60f06a479c4f3ec0a536d40a","2025-07-02T12:33:51.992Z","","","","","","ius","{""Q01"":""3"",""Q02"":""4"",""Q03"":""4"",""Q04"":""2"",""Q05"":""4"",""Q06"":""4"",""Q07"":""3"",""Q08"":""0"",""Q09"":""4"",""Q10"":""3"",""Q11"":""3"",""Q12"":""3"",""Q13"":""2""}","[0,1,2,3,4,5,6,7,8,9,10,11,12]","[""Q01"",""Q01"",""Q02"",""Q03"",""Q04"",""Q05"",""Q06"",""Q07"",""Q08"",""Q09"",""Q10"",""Q11"",""Q12"",""Q13"",""Q13""]","[4887.600000023842,6185,8436.600000023842,10851.700000017881,14763.90000000596,19123.30000001192,24144.600000023842,27508.40000000596,30370.5,34166.90000000596,36605.30000001192,41211.40000000596,46390.30000001192,48377.70000001788,51359.5]","[]","[4363.9000000059605,4887.600000023842,5359.200000017881,5728.5,6185,8436.600000023842,10851.700000017881,13427.100000023842,14410.200000017881,14763.90000000596,18727.40000000596,19123.30000001192,23361.30000001192,23708.30000001192,24144.600000023842,27508.40000000596,30370.5,34166.90000000596,36605.30000001192,40055,40726.90000000596,41211.40000000596,45902.70000001788,46390.30000001192,48377.70000001788,50448.5,51359.5,51946.40000000596]","0.38461538461538464","0.4166666666666667","0","","","","","","","","","","","","","","","","","","","","","","","","","","","","",""
"2832","1751459634826","<p style='font-size:1.1em;line-height:1.25'>In the following, we will ask you a few questions relating to your experiences over the past month.<br></p><p style='font-size:1.1em;line-height:1.25'>Press the <strong>Next</strong> button to continue.</p>","0","custom-html-button-response","14","198709","0.0-7.0-4.0","251","1","2025-07-02 12:30:33","80fe4187154257d5fb01684ea91b68b9","84.40.152.172","Mozilla/5.0 (Macintosh; Intel Mac OS X 10_15_7) AppleWebKit/537.36 (KHTML, like Gecko) Chrome/137.0.0.0 Safari/537.36","Macintosh","Chrome","137.0.0.0","OS X","10_15_7","https://app.prolific.com/","en-GB,en-US;q=0.9,en;q=0.8,pl;q=0.7,de;q=0.6","60f06a479c4f3ec0a536d40a","683db6dfa200031b80f2a654","686526514380ef53734c7613","60f06a479c4f3ec0a536d40a","2025-07-02T12:33:54.827Z","","","","","","","","","","","","","","","","","","","","","","","","","","","","","","","","","","","","","","","","","","","",""
"55874.20000001788","","","","survey-template","15","254586","0.0-7.0-5.0","251","1","2025-07-02 12:30:33","80fe4187154257d5fb01684ea91b68b9","84.40.152.172","Mozilla/5.0 (Macintosh; Intel Mac OS X 10_15_7) AppleWebKit/537.36 (KHTML, like Gecko) Chrome/137.0.0.0 Safari/537.36","Macintosh","Chrome","137.0.0.0","OS X","10_15_7","https://app.prolific.com/","en-GB,en-US;q=0.9,en;q=0.8,pl;q=0.7,de;q=0.6","60f06a479c4f3ec0a536d40a","683db6dfa200031b80f2a654","686526514380ef53734c7613","60f06a479c4f3ec0a536d40a","2025-07-02T12:34:50.703Z","","","","","","pss","{""Q01"":""3"",""Q02"":""4"",""Q03"":""4"",""Q04"":""1"",""Q05"":""2"",""Q06"":""3"",""Q07"":""1"",""Q08"":""2"",""Q09"":""2"",""Q10"":""3""}","[0,1,2,3,4,5,6,7,8,9]","[""Q01"",""Q01"",""Q01"",""Q02"",""Q03"",""Q04"",""Q05"",""Q06"",""Q07"",""Q08"",""Q09"",""Q10""]","[4168.9000000059605,4943.200000017881,5801.5,9692.700000017881,12479.700000017881,17296.30000001192,22809.90000000596,28620.80000001192,35504.80000001192,40144.80000001192,44157.30000001192,54951.40000000596]","[]","[0.10000002384185791,3792,4168.9000000059605,4943.200000017881,5427.600000023842,5801.5,8047.700000017881,8899.800000011921,9442.600000023842,9692.700000017881,12479.700000017881,17296.30000001192,22568.80000001192,22809.90000000596,28620.80000001192,35504.80000001192,40144.80000001192,43466,44157.30000001192,53982.20000001788,54632.90000000596,54951.40000000596,55871.40000000596]","0.5","0.6666666666666666","0","","","","","","","","","","","","","","","","","","","","","","","","","","","","",""
"3934","1751459694638","<p style='font-size:1.1em;line-height:1.25'>Thank you for your answers! Now we will ask you a few more questions relating to your feelings in the last 24 hours.<br></p><p style='font-size:1.1em;line-height:1.25'>Press the <strong>Next</strong> button to continue.</p>","0","custom-html-button-response","16","258522","0.0-7.0-6.0","251","1","2025-07-02 12:30:33","80fe4187154257d5fb01684ea91b68b9","84.40.152.172","Mozilla/5.0 (Macintosh; Intel Mac OS X 10_15_7) AppleWebKit/537.36 (KHTML, like Gecko) Chrome/137.0.0.0 Safari/537.36","Macintosh","Chrome","137.0.0.0","OS X","10_15_7","https://app.prolific.com/","en-GB,en-US;q=0.9,en;q=0.8,pl;q=0.7,de;q=0.6","60f06a479c4f3ec0a536d40a","683db6dfa200031b80f2a654","686526514380ef53734c7613","60f06a479c4f3ec0a536d40a","2025-07-02T12:34:54.639Z","","","","","","","","","","","","","","","","","","","","","","","","","","","","","","","","","","","","","","","","","","","",""
"52051.80000001192","","","","survey-template","17","310577","0.0-7.0-7.0","251","1","2025-07-02 12:30:33","80fe4187154257d5fb01684ea91b68b9","84.40.152.172","Mozilla/5.0 (Macintosh; Intel Mac OS X 10_15_7) AppleWebKit/537.36 (KHTML, like Gecko) Chrome/137.0.0.0 Safari/537.36","Macintosh","Chrome","137.0.0.0","OS X","10_15_7","https://app.prolific.com/","en-GB,en-US;q=0.9,en;q=0.8,pl;q=0.7,de;q=0.6","60f06a479c4f3ec0a536d40a","683db6dfa200031b80f2a654","686526514380ef53734c7613","60f06a479c4f3ec0a536d40a","2025-07-02T12:35:46.694Z","","","","","","drsp","{""Q01"":""2"",""Q02"":""3"",""Q03"":""3"",""Q04"":""4"",""Q05"":""4"",""Q06"":""3"",""Q07"":""2"",""Q08"":""0"",""Q09"":""2"",""Q10"":""3"",""Q11"":""2"",""Q12"":""3"",""Q13"":""3"",""Q14"":""3"",""Q15"":""2"",""Q16"":""4"",""Q17"":""4"",""Q18"":""0"",""Q19"":""2"",""Q20"":""3"",""Q21"":""2""}","[0,1,2,3,4,5,6,7,8,9,10,11,12,13,14,15,16,17,18,19,20]","[""Q01"",""Q02"",""Q03"",""Q04"",""Q05"",""Q06"",""Q07"",""Q08"",""Q09"",""Q10"",""Q11"",""Q12"",""Q13"",""Q14"",""Q15"",""Q16"",""Q17"",""Q18"",""Q19"",""Q20"",""Q20"",""Q21""]","[4080.199999988079,5321.800000011921,6049,7978.5,9215.300000011921,12440.59999999404,14613.800000011921,16853,19153.40000000596,20859.09999999404,23056.19999998808,24927.59999999404,26485.09999999404,30268.69999998808,32939.80000001192,35093.5,35798.80000001192,38293.40000000596,43338.30000001192,46763.09999999404,47925.59999999404,50843.30000001192]","[]","[0,4080.199999988079,5321.800000011921,6049,7359.5999999940395,7978.5,9215.300000011921,11690.300000011921,11961.40000000596,12440.59999999404,14201.199999988079,14613.800000011921,16853,18850.09999999404,19153.40000000596,20859.09999999404,22542.30000001192,23056.19999998808,24353.09999999404,24927.59999999404,26064.90000000596,26485.09999999404,30268.69999998808,32939.80000001192,34429.40000000596,35093.5,35798.80000001192,38293.40000000596,43338.30000001192,46763.09999999404,47371,47925.59999999404,50843.30000001192,52045.5]","0.38095238095238093","0.5","0","","","","","","","","","","","","","","","","","","","","","","","","","","","","",""
"16067","","","","survey-template","18","326646","0.0-7.0-8.0","251","1","2025-07-02 12:30:33","80fe4187154257d5fb01684ea91b68b9","84.40.152.172","Mozilla/5.0 (Macintosh; Intel Mac OS X 10_15_7) AppleWebKit/537.36 (KHTML, like Gecko) Chrome/137.0.0.0 Safari/537.36","Macintosh","Chrome","137.0.0.0","OS X","10_15_7","https://app.prolific.com/","en-GB,en-US;q=0.9,en;q=0.8,pl;q=0.7,de;q=0.6","60f06a479c4f3ec0a536d40a","683db6dfa200031b80f2a654","686526514380ef53734c7613","60f06a479c4f3ec0a536d40a","2025-07-02T12:36:02.763Z","","","","","","stress","{""Q01"":""3"",""Q02"":""3"",""Q03"":""3""}","[0,1,2]","[""Q01"",""Q02"",""Q03"",""Q03""]","[8481.09999999404,9578.399999976158,14285.5,15048.5]","[]","[8481.09999999404,9578.399999976158,13943.899999976158,14285.5,15048.5,16065.5]","0.6666666666666666","1","0","","","","","","","","","","","","","","","","","","","","","","","","","","","","",""
"45967","","","","instructions","19","372613","0.0-8.0-0.0","251","1","2025-07-02 12:30:33","80fe4187154257d5fb01684ea91b68b9","84.40.152.172","Mozilla/5.0 (Macintosh; Intel Mac OS X 10_15_7) AppleWebKit/537.36 (KHTML, like Gecko) Chrome/137.0.0.0 Safari/537.36","Macintosh","Chrome","137.0.0.0","OS X","10_15_7","https://app.prolific.com/","en-GB,en-US;q=0.9,en;q=0.8,pl;q=0.7,de;q=0.6","60f06a479c4f3ec0a536d40a","683db6dfa200031b80f2a654","686526514380ef53734c7613","60f06a479c4f3ec0a536d40a","","[{""page_index"":0,""viewing_time"":12327},{""page_index"":1,""viewing_time"":12587},{""page_index"":2,""viewing_time"":4014},{""page_index"":3,""viewing_time"":17039}]","","","","","","","","","","","","","","","","","","","","","","","","","","","","","","","","","","","","","","","","","","",""
"","","","","ctl-task-cpt","20","397058","0.0-8.0-1.0","251","1","2025-07-02 12:30:33","80fe4187154257d5fb01684ea91b68b9","84.40.152.172","Mozilla/5.0 (Macintosh; Intel Mac OS X 10_15_7) AppleWebKit/537.36 (KHTML, like Gecko) Chrome/137.0.0.0 Safari/537.36","Macintosh","Chrome","137.0.0.0","OS X","10_15_7","https://app.prolific.com/","en-GB,en-US;q=0.9,en;q=0.8,pl;q=0.7,de;q=0.6","60f06a479c4f3ec0a536d40a","683db6dfa200031b80f2a654","686526514380ef53734c7613","60f06a479c4f3ec0a536d40a","","","","","","","","","","","","","","","","","win-only","2","g1:SE,g2:NW","1","0","1","385314.9","2018.2","6022.4","21437","2","4","4","6","1","2","1","1","0","0.007575757575757576","4004.1","4000","2065","[""down"",""right""]","{""num_key_presses"":5,""num_perfect"":4,""num_errors"":1,""num_randdir"":0,""num_randdir_good_moves"":0,""num_whilered"":0,""num_whileblue"":0,""num_blue"":1,""num_good_moves"":4}","[412.57142857142856,421.47767857142856,0.4,414.57142857142856,418.47767857142856,102.4,414.57142857142856,418.47767857142856,202.9,414.57142857142856,418.47767857142856,308.2,414.57142857142856,418.47767857142856,413,414.57142857142856,418.47767857142856,513.7,414.57142857142856,418.47767857142856,617.8,414.57142857142856,418.47767857142856,718.1,414.57142857142856,418.47767857142856,818.6,414.57142857142856,418.47767857142856,923.2,414.57142857142856,418.47767857142856,1027.7,414.57142857142856,418.47767857142856,1127.8,414.57142857142856,418.47767857142856,1228.6,414.57142857142856,418.47767857142856,1333.1,414.57142857142856,418.47767857142856,1433.6,414.57142857142856,418.47767857142856,1538.5,414.57142857142856,418.47767857142856,1642.9,414.57142857142856,418.47767857142856,1748.4,414.57142857142856,418.47767857142856,1852.6,414.57142857142856,418.47767857142856,1953.3,414.57142857142856,418.47767857142856,2058.2,414.57142857142856,418.47767857142856,2163.4,414.57142857142856,418.47767857142856,2267.5,414.57142857142856,418.47767857142856,2367.8,414.57142857142856,418.47767857142856,2468.4,414.57142857142856,418.47767857142856,2572.9,414.57142857142856,418.47767857142856,2673.3,414.57142857142856,418.47767857142856,2777.8,414.57142857142856,418.47767857142856,2877.8,414.57142857142856,418.47767857142856,2978.5,414.57142857142856,418.47767857142856,3083.1,414.57142857142856,418.47767857142856,3187.3,414.57142857142856,418.47767857142856,3288.1,414.57142857142856,418.47767857142856,3392.6,414.57142857142856,418.47767857142856,3492.9,414.57142857142856,418.47767857142856,3592.9,414.57142857142856,418.47767857142856,3698.7,414.57142857142856,418.47767857142856,3803.1,414.57142857142856,418.47767857142856,3908.4]","[1541.9,1541.8,1000,0.1,541.8,""smooth"",""right"",""right"",""good_move"",1813,270.8,2180.1,1542.2,-1909.3,""error"",""-"",""-"",""no_move"",5446.4,3633.2,2079.1,2813.5,553.8,""smooth"",""down"",""down"",""good_move"",9173.9,3727,3213.8,5446.9,513.2,""smooth"",""right"",""right"",""good_move"",15318.2,6144.1,2459.1,12518.7,340.4,""smooth"",""down"",""down"",""good_move""]","",""
"14560","","","","instructions","21","411618","0.0-8.0-2.0","251","1","2025-07-02 12:30:33","80fe4187154257d5fb01684ea91b68b9","84.40.152.172","Mozilla/5.0 (Macintosh; Intel Mac OS X 10_15_7) AppleWebKit/537.36 (KHTML, like Gecko) Chrome/137.0.0.0 Safari/537.36","Macintosh","Chrome","137.0.0.0","OS X","10_15_7","https://app.prolific.com/","en-GB,en-US;q=0.9,en;q=0.8,pl;q=0.7,de;q=0.6","60f06a479c4f3ec0a536d40a","683db6dfa200031b80f2a654","686526514380ef53734c7613","60f06a479c4f3ec0a536d40a","","[{""page_index"":0,""viewing_time"":14559}]","","","","","","","","","","","","","","","","","","","","","","","","","","","","","","","","","","","","","","","","","","",""
"","","","","ctl-task-cpt","22","462977","0.0-8.0-3.0","251","1","2025-07-02 12:30:33","80fe4187154257d5fb01684ea91b68b9","84.40.152.172","Mozilla/5.0 (Macintosh; Intel Mac OS X 10_15_7) AppleWebKit/537.36 (KHTML, like Gecko) Chrome/137.0.0.0 Safari/537.36","Macintosh","Chrome","137.0.0.0","OS X","10_15_7","https://app.prolific.com/","en-GB,en-US;q=0.9,en;q=0.8,pl;q=0.7,de;q=0.6","60f06a479c4f3ec0a536d40a","683db6dfa200031b80f2a654","686526514380ef53734c7613","60f06a479c4f3ec0a536d40a","","","","","","","","","","","","","","","","","win-only","2","g1:SE,g2:NW","0.35","0","3","424319","1118.2","5121.3","48351.7","2","4","8","6","1","-2","-6","0","0","0","4003.1","4000","-3000","[""down"",""right""]","{""num_key_presses"":13,""num_perfect"":4,""num_errors"":4,""num_randdir"":5,""num_randdir_good_moves"":1,""num_whilered"":0,""num_whileblue"":2,""num_blue"":4,""num_good_moves"":5}","[424.57142857142856,417.47767857142856,0.2,424.57142857142856,417.47767857142856,102.9,424.57142857142856,417.47767857142856,203.3,429.57142857142856,422.47767857142856,307.5,429.57142857142856,422.47767857142856,408.3,429.57142857142856,422.47767857142856,513,429.57142857142856,422.47767857142856,617.9,429.57142857142856,422.47767857142856,723.1,429.57142857142856,422.47767857142856,823.3,429.57142857142856,422.47767857142856,928.5,429.57142857142856,422.47767857142856,1032.6,429.57142857142856,422.47767857142856,1133.1,429.57142857142856,422.47767857142856,1233.5,429.57142857142856,422.47767857142856,1338,429.57142857142856,422.47767857142856,1443.1,429.57142857142856,422.47767857142856,1547.5,429.57142857142856,422.47767857142856,1648.2,429.57142857142856,422.47767857142856,1752.5,429.57142857142856,422.47767857142856,1852.9,429.57142857142856,422.47767857142856,1957.5,429.57142857142856,422.47767857142856,2063.5,429.57142857142856,422.47767857142856,2167.5,429.57142857142856,422.47767857142856,2268,429.57142857142856,422.47767857142856,2373.1,429.57142857142856,422.47767857142856,2478,429.57142857142856,422.47767857142856,2578.3,429.57142857142856,422.47767857142856,2678.3,429.57142857142856,422.47767857142856,2782.9,429.57142857142856,422.47767857142856,2887.5,429.57142857142856,422.47767857142856,2988.2,429.57142857142856,422.47767857142856,3088.5,429.57142857142856,422.47767857142856,3192.8,429.57142857142856,422.47767857142856,3293.5,429.57142857142856,422.47767857142856,3397.7,429.57142857142856,422.47767857142856,3498.1,429.57142857142856,422.47767857142856,3602.3,429.57142857142856,422.47767857142856,3702.8,429.57142857142856,422.47767857142856,3807.7,429.57142857142856,422.47767857142856,3912.6]","[1408.1,1408.1,1000,0.1,408,""smooth"",""right"",""right"",""good_move"",7007.8,5599.6,1582.4,5105,320.4,""smooth"",""down"",""down"",""good_move"",9831.4,2823.5,2032.3,7007.9,791.2,""while_blue"",""right"",""left"",""bad_move"",13207.9,3376.1,2951.9,9831.8,424.2,""oops"",""right"",""up"",""bad_move"",16087.7,2879.2,2397.4,13208.5,481.8,""oops"",""right"",""left"",""bad_move"",18904.1,2816,2484,16088.1,332,""smooth"",""left"",""left"",""bad_move"",24879.9,5975.5,1811.7,22710,358.2,""smooth"",""down"",""down"",""good_move"",27688.5,2808.4,2224.1,24880.1,584.3,""while_blue"",""right"",""right"",""good_move"",30504.7,2816,2229,27688.7,587,""oops"",""right"",""up"",""bad_move"",33716.5,3211.6,2812.3,30504.9,399.3,""oops"",""down"",""down"",""good_move"",36281.3,2564.5,2209.2,33716.8,355.3,""oops"",""right"",""left"",""bad_move"",37216.5,935,2066.4,36281.6,-1131.5,""error"",""-"",""-"",""no_move"",39665.9,2449.2,2618,38220,-1172.1,""error"",""-"",""-"",""no_move""]","",""
"12609","","","","instructions","23","475586","0.0-8.0-4.0","251","1","2025-07-02 12:30:33","80fe4187154257d5fb01684ea91b68b9","84.40.152.172","Mozilla/5.0 (Macintosh; Intel Mac OS X 10_15_7) AppleWebKit/537.36 (KHTML, like Gecko) Chrome/137.0.0.0 Safari/537.36","Macintosh","Chrome","137.0.0.0","OS X","10_15_7","https://app.prolific.com/","en-GB,en-US;q=0.9,en;q=0.8,pl;q=0.7,de;q=0.6","60f06a479c4f3ec0a536d40a","683db6dfa200031b80f2a654","686526514380ef53734c7613","60f06a479c4f3ec0a536d40a","","[{""page_index"":0,""viewing_time"":4355},{""page_index"":1,""viewing_time"":8254}]","","","","","","","","","","","","","","","","","","","","","","","","","","","","","","","","","","","","","","","","","","",""
"7507","","","{""green_ball"":[""Ball always moves in the direction I press""]}","survey-multi-select","24","483096","0.0-8.0-5.0-0.0","251","1","2025-07-02 12:30:33","80fe4187154257d5fb01684ea91b68b9","84.40.152.172","Mozilla/5.0 (Macintosh; Intel Mac OS X 10_15_7) AppleWebKit/537.36 (KHTML, like Gecko) Chrome/137.0.0.0 Safari/537.36","Macintosh","Chrome","137.0.0.0","OS X","10_15_7","https://app.prolific.com/","en-GB,en-US;q=0.9,en;q=0.8,pl;q=0.7,de;q=0.6","60f06a479c4f3ec0a536d40a","683db6dfa200031b80f2a654","686526514380ef53734c7613","60f06a479c4f3ec0a536d40a","","","[0]","","","","quiz","","","","","","","","","","","","","","","","","","","","","","","","","","","","","","","","","","","","","false",""
"3610","","<p align='center'><b>INCORRECT.</b> Usually the green ball moves in the indicated direction, but sometimes it shakes and moves randomly. </p>","0","html-button-response","25","486707","0.0-8.0-5.0-1.0","251","1","2025-07-02 12:30:33","80fe4187154257d5fb01684ea91b68b9","84.40.152.172","Mozilla/5.0 (Macintosh; Intel Mac OS X 10_15_7) AppleWebKit/537.36 (KHTML, like Gecko) Chrome/137.0.0.0 Safari/537.36","Macintosh","Chrome","137.0.0.0","OS X","10_15_7","https://app.prolific.com/","en-GB,en-US;q=0.9,en;q=0.8,pl;q=0.7,de;q=0.6","60f06a479c4f3ec0a536d40a","683db6dfa200031b80f2a654","686526514380ef53734c7613","60f06a479c4f3ec0a536d40a","","","","","","","","","","","","","","","","","","","","","","","","","","","","","","","","","","","","","","","","","","","","",""
"6027","","","{""green_ball"":[""Ball sometimes shakes and moves in a random direction""]}","survey-multi-select","26","492736","0.0-8.0-5.1-0.1","251","1","2025-07-02 12:30:33","80fe4187154257d5fb01684ea91b68b9","84.40.152.172","Mozilla/5.0 (Macintosh; Intel Mac OS X 10_15_7) AppleWebKit/537.36 (KHTML, like Gecko) Chrome/137.0.0.0 Safari/537.36","Macintosh","Chrome","137.0.0.0","OS X","10_15_7","https://app.prolific.com/","en-GB,en-US;q=0.9,en;q=0.8,pl;q=0.7,de;q=0.6","60f06a479c4f3ec0a536d40a","683db6dfa200031b80f2a654","686526514380ef53734c7613","60f06a479c4f3ec0a536d40a","","","[0]","","","","quiz","","","","","","","","","","","","","","","","","","","","","","","","","","","","","","","","","","","","","true",""
"1631","","<p align='center'><b>CORRECT!</b> Indeed, the green ball may sometimes shake and move in a random direction.</p>","0","html-button-response","27","494368","0.0-8.0-5.1-1.1","251","1","2025-07-02 12:30:33","80fe4187154257d5fb01684ea91b68b9","84.40.152.172","Mozilla/5.0 (Macintosh; Intel Mac OS X 10_15_7) AppleWebKit/537.36 (KHTML, like Gecko) Chrome/137.0.0.0 Safari/537.36","Macintosh","Chrome","137.0.0.0","OS X","10_15_7","https://app.prolific.com/","en-GB,en-US;q=0.9,en;q=0.8,pl;q=0.7,de;q=0.6","60f06a479c4f3ec0a536d40a","683db6dfa200031b80f2a654","686526514380ef53734c7613","60f06a479c4f3ec0a536d40a","","","","","","","","","","","","","","","","","","","","","","","","","","","","","","","","","","","","","","","","","","","","",""
"3966","","","{""yellow_ball"":[""Ball doesn‘t move and I get -1 penalty point""]}","survey-multi-select","28","498337","0.0-8.0-6.0-0.0","251","1","2025-07-02 12:30:33","80fe4187154257d5fb01684ea91b68b9","84.40.152.172","Mozilla/5.0 (Macintosh; Intel Mac OS X 10_15_7) AppleWebKit/537.36 (KHTML, like Gecko) Chrome/137.0.0.0 Safari/537.36","Macintosh","Chrome","137.0.0.0","OS X","10_15_7","https://app.prolific.com/","en-GB,en-US;q=0.9,en;q=0.8,pl;q=0.7,de;q=0.6","60f06a479c4f3ec0a536d40a","683db6dfa200031b80f2a654","686526514380ef53734c7613","60f06a479c4f3ec0a536d40a","","","[0]","","","","quiz","","","","","","","","","","","","","","","","","","","","","","","","","","","","","","","","","","","","","true",""
"669","","<p align='center'><b>CORRECT!</b> Indeed, the yellow ball never moves and you receive a penalty.</p>","0","html-button-response","29","499007","0.0-8.0-6.0-1.0","251","1","2025-07-02 12:30:33","80fe4187154257d5fb01684ea91b68b9","84.40.152.172","Mozilla/5.0 (Macintosh; Intel Mac OS X 10_15_7) AppleWebKit/537.36 (KHTML, like Gecko) Chrome/137.0.0.0 Safari/537.36","Macintosh","Chrome","137.0.0.0","OS X","10_15_7","https://app.prolific.com/","en-GB,en-US;q=0.9,en;q=0.8,pl;q=0.7,de;q=0.6","60f06a479c4f3ec0a536d40a","683db6dfa200031b80f2a654","686526514380ef53734c7613","60f06a479c4f3ec0a536d40a","","","","","","","","","","","","","","","","","","","","","","","","","","","","","","","","","","","","","","","","","","","","",""
"2283","","","{""blue_ball"":[""Ball always shakes and moves in a random direction""]}","survey-multi-select","30","501292","0.0-8.0-7.0-0.0","251","1","2025-07-02 12:30:33","80fe4187154257d5fb01684ea91b68b9","84.40.152.172","Mozilla/5.0 (Macintosh; Intel Mac OS X 10_15_7) AppleWebKit/537.36 (KHTML, like Gecko) Chrome/137.0.0.0 Safari/537.36","Macintosh","Chrome","137.0.0.0","OS X","10_15_7","https://app.prolific.com/","en-GB,en-US;q=0.9,en;q=0.8,pl;q=0.7,de;q=0.6","60f06a479c4f3ec0a536d40a","683db6dfa200031b80f2a654","686526514380ef53734c7613","60f06a479c4f3ec0a536d40a","","","[0]","","","","quiz","","","","","","","","","","","","","","","","","","","","","","","","","","","","","","","","","","","","","true",""
"675","","<p align='center'><b>CORRECT!</b> Indeed, the blue ball always shakes and moves in a random direction. Also there is a penalty of -1 point.</p>","0","html-button-response","31","501968","0.0-8.0-7.0-1.0","251","1","2025-07-02 12:30:33","80fe4187154257d5fb01684ea91b68b9","84.40.152.172","Mozilla/5.0 (Macintosh; Intel Mac OS X 10_15_7) AppleWebKit/537.36 (KHTML, like Gecko) Chrome/137.0.0.0 Safari/537.36","Macintosh","Chrome","137.0.0.0","OS X","10_15_7","https://app.prolific.com/","en-GB,en-US;q=0.9,en;q=0.8,pl;q=0.7,de;q=0.6","60f06a479c4f3ec0a536d40a","683db6dfa200031b80f2a654","686526514380ef53734c7613","60f06a479c4f3ec0a536d40a","","","","","","","","","","","","","","","","","","","","","","","","","","","","","","","","","","","","","","","","","","","","",""
"2899","","","{""bonus"":[""When I reach 50% of points""]}","survey-multi-select","32","504868","0.0-8.0-8.0-0.0","251","1","2025-07-02 12:30:33","80fe4187154257d5fb01684ea91b68b9","84.40.152.172","Mozilla/5.0 (Macintosh; Intel Mac OS X 10_15_7) AppleWebKit/537.36 (KHTML, like Gecko) Chrome/137.0.0.0 Safari/537.36","Macintosh","Chrome","137.0.0.0","OS X","10_15_7","https://app.prolific.com/","en-GB,en-US;q=0.9,en;q=0.8,pl;q=0.7,de;q=0.6","60f06a479c4f3ec0a536d40a","683db6dfa200031b80f2a654","686526514380ef53734c7613","60f06a479c4f3ec0a536d40a","","","[0]","","","","quiz","","","","","","","","","","","","","","","","","","","","","","","","","","","","","","","","","","","","","true",""
"1190","","<p align='center'><b>CORRECT!</b> Indeed, you receive 2 pounds extra when you reach 50% of points.</p>","0","html-button-response","33","506059","0.0-8.0-8.0-1.0","251","1","2025-07-02 12:30:33","80fe4187154257d5fb01684ea91b68b9","84.40.152.172","Mozilla/5.0 (Macintosh; Intel Mac OS X 10_15_7) AppleWebKit/537.36 (KHTML, like Gecko) Chrome/137.0.0.0 Safari/537.36","Macintosh","Chrome","137.0.0.0","OS X","10_15_7","https://app.prolific.com/","en-GB,en-US;q=0.9,en;q=0.8,pl;q=0.7,de;q=0.6","60f06a479c4f3ec0a536d40a","683db6dfa200031b80f2a654","686526514380ef53734c7613","60f06a479c4f3ec0a536d40a","","","","","","","","","","","","","","","","","","","","","","","","","","","","","","","","","","","","","","","","","","","","",""
"1303","","","","instructions","34","507363","0.0-8.0-9.0","251","1","2025-07-02 12:30:33","80fe4187154257d5fb01684ea91b68b9","84.40.152.172","Mozilla/5.0 (Macintosh; Intel Mac OS X 10_15_7) AppleWebKit/537.36 (KHTML, like Gecko) Chrome/137.0.0.0 Safari/537.36","Macintosh","Chrome","137.0.0.0","OS X","10_15_7","https://app.prolific.com/","en-GB,en-US;q=0.9,en;q=0.8,pl;q=0.7,de;q=0.6","60f06a479c4f3ec0a536d40a","683db6dfa200031b80f2a654","686526514380ef53734c7613","60f06a479c4f3ec0a536d40a","","[{""page_index"":0,""viewing_time"":1302}]","","","","","","","","","","","","","","","","","","","","","","","","","","","","","","","","","","","","","","","","","","",""
"8843","","<p>Before you start with this game please answer the following three questions yourself. </p>
  <p>Through this game, we measure several aspects of your cognitive performance, such as reaction times, multi-tasking capabilities </p>
  <p>and the ability to assess the situation you are in.</p>
  <p></p>
  <p><b>How good do you usually are in such tasks?</b></p>","57","html-slider-response","35","516207","0.0-9.0-0.0","251","1","2025-07-02 12:30:33","80fe4187154257d5fb01684ea91b68b9","84.40.152.172","Mozilla/5.0 (Macintosh; Intel Mac OS X 10_15_7) AppleWebKit/537.36 (KHTML, like Gecko) Chrome/137.0.0.0 Safari/537.36","Macintosh","Chrome","137.0.0.0","OS X","10_15_7","https://app.prolific.com/","en-GB,en-US;q=0.9,en;q=0.8,pl;q=0.7,de;q=0.6","60f06a479c4f3ec0a536d40a","683db6dfa200031b80f2a654","686526514380ef53734c7613","60f06a479c4f3ec0a536d40a","2025-07-02T12:39:12.325Z","","","","","","PreSkillQ","","","","","","","","","","","","","","","","","","","","","","","","","","","","","","","","","","","","","","50"
"4134","","<div style=""width:500px;"">
  <p>How well do you think you will perform in this task compared to other participants?</p>
  </div>","57","html-slider-response","36","520343","0.0-9.0-1.0","251","1","2025-07-02 12:30:33","80fe4187154257d5fb01684ea91b68b9","84.40.152.172","Mozilla/5.0 (Macintosh; Intel Mac OS X 10_15_7) AppleWebKit/537.36 (KHTML, like Gecko) Chrome/137.0.0.0 Safari/537.36","Macintosh","Chrome","137.0.0.0","OS X","10_15_7","https://app.prolific.com/","en-GB,en-US;q=0.9,en;q=0.8,pl;q=0.7,de;q=0.6","60f06a479c4f3ec0a536d40a","683db6dfa200031b80f2a654","686526514380ef53734c7613","60f06a479c4f3ec0a536d40a","2025-07-02T12:39:16.460Z","","","","","","PrePerfQ","","","","","","","","","","","","","","","","","","","","","","","","","","","","","","","","","","","","","","50"
"2071","","<div style=""width:500px;"">
  <p>What best describes how you currently feel?</p>
  </div>","61","html-slider-response","37","522415","0.0-9.0-2.0","251","1","2025-07-02 12:30:33","80fe4187154257d5fb01684ea91b68b9","84.40.152.172","Mozilla/5.0 (Macintosh; Intel Mac OS X 10_15_7) AppleWebKit/537.36 (KHTML, like Gecko) Chrome/137.0.0.0 Safari/537.36","Macintosh","Chrome","137.0.0.0","OS X","10_15_7","https://app.prolific.com/","en-GB,en-US;q=0.9,en;q=0.8,pl;q=0.7,de;q=0.6","60f06a479c4f3ec0a536d40a","683db6dfa200031b80f2a654","686526514380ef53734c7613","60f06a479c4f3ec0a536d40a","2025-07-02T12:39:18.532Z","","","","","","PreMotivationQ","","","","","","","","","","","","","","","","","","","","","","","","","","","","","","","","","","","","","","50"
"","","","","ctl-task-cpt","38","557428","0.0-10.0-0.0","251","1","2025-07-02 12:30:33","80fe4187154257d5fb01684ea91b68b9","84.40.152.172","Mozilla/5.0 (Macintosh; Intel Mac OS X 10_15_7) AppleWebKit/537.36 (KHTML, like Gecko) Chrome/137.0.0.0 Safari/537.36","Macintosh","Chrome","137.0.0.0","OS X","10_15_7","https://app.prolific.com/","en-GB,en-US;q=0.9,en;q=0.8,pl;q=0.7,de;q=0.6","60f06a479c4f3ec0a536d40a","683db6dfa200031b80f2a654","686526514380ef53734c7613","60f06a479c4f3ec0a536d40a","2025-07-02T12:39:53.545Z","","","","","","","","","","","","","","","","win-only","3","g1:SW,g2:NE","1","1","0","535118.8","1002.6","6005.7","32006.7","1","4","4","6","2","4","4","4","0","0.030303030303030304","3971.5","3000","490","[""up"",""right""]","{""num_key_presses"":6,""num_perfect"":6,""num_errors"":0,""num_randdir"":0,""num_randdir_good_moves"":0,""num_whilered"":0,""num_whileblue"":0,""num_blue"":3,""num_good_moves"":6}","[425.57142857142856,413.47767857142856,0.2,425.57142857142856,413.47767857142856,102.8,442.57142857142856,510.47767857142856,203.2,595.5714285714286,519.4776785714286,308.2,606.5714285714286,520.4776785714286,408.8,606.5714285714286,520.4776785714286,513.4,606.5714285714286,520.4776785714286,618.5,606.5714285714286,520.4776785714286,723.5,606.5714285714286,520.4776785714286,828.4,606.5714285714286,520.4776785714286,928.4,606.5714285714286,520.4776785714286,1033.5,606.5714285714286,520.4776785714286,1138.2,606.5714285714286,520.4776785714286,1238.5,606.5714285714286,520.4776785714286,1343.9,606.5714285714286,520.4776785714286,1448.2,606.5714285714286,520.4776785714286,1553.6,606.5714285714286,520.4776785714286,1658.3,606.5714285714286,520.4776785714286,1758.6,606.5714285714286,520.4776785714286,1858.9,606.5714285714286,520.4776785714286,1962.5,606.5714285714286,520.4776785714286,2063.6,606.5714285714286,520.4776785714286,2168.2,606.5714285714286,520.4776785714286,2273.6,606.5714285714286,520.4776785714286,2373.7,606.5714285714286,520.4776785714286,2478.8,606.5714285714286,520.4776785714286,2583.1,606.5714285714286,520.4776785714286,2688.2,606.5714285714286,520.4776785714286,2788.6,606.5714285714286,520.4776785714286,2888.6,606.5714285714286,520.4776785714286,2993.4,606.5714285714286,520.4776785714286,3098.4,606.5714285714286,520.4776785714286,3203.5,606.5714285714286,520.4776785714286,3304,606.5714285714286,520.4776785714286,3408.5,606.5714285714286,520.4776785714286,3513,606.5714285714286,520.4776785714286,3613.3,640.5714285714286,368.47767857142856,3718.4,682.5714285714286,100.47767857142857,3818.4,763.5714285714286,72.47767857142857,3919,804.5714285714286,65.47767857142857,4023.7,804.5714285714286,65.47767857142857,4128.6,804.5714285714286,65.47767857142857,4233.3,804.5714285714286,65.47767857142857,4337.8,804.5714285714286,65.47767857142857,4438.2,804.5714285714286,65.47767857142857,4543.2,804.5714285714286,65.47767857142857,4648.3,804.5714285714286,65.47767857142857,4753.4,804.5714285714286,65.47767857142857,4858.2,804.5714285714286,65.47767857142857,4959]","[1409.6,1409.6,1000,0,409.6,""smooth"",""right"",""right"",""good_move"",4520.3,3110.2,2593.1,1410.1,517.1,""smooth"",""up"",""up"",""good_move"",10121.5,5600.8,2004.8,7709.9,406.8,""smooth"",""right"",""right"",""good_move"",16017.4,5895.6,2599.7,13090.7,327,""smooth"",""up"",""up"",""good_move"",19288.6,3271,2811.8,16017.6,459.2,""smooth"",""right"",""right"",""good_move"",25904.6,6615.7,2770.5,22725.3,408.8,""smooth"",""up"",""up"",""good_move""]","",""
"3470","","<div style=""width:500px;"">
  <p>What determined the result of this run?</p>
  </div>","70","html-slider-response","39","560900","0.0-10.0-1.0","251","1","2025-07-02 12:30:33","80fe4187154257d5fb01684ea91b68b9","84.40.152.172","Mozilla/5.0 (Macintosh; Intel Mac OS X 10_15_7) AppleWebKit/537.36 (KHTML, like Gecko) Chrome/137.0.0.0 Safari/537.36","Macintosh","Chrome","137.0.0.0","OS X","10_15_7","https://app.prolific.com/","en-GB,en-US;q=0.9,en;q=0.8,pl;q=0.7,de;q=0.6","60f06a479c4f3ec0a536d40a","683db6dfa200031b80f2a654","686526514380ef53734c7613","60f06a479c4f3ec0a536d40a","2025-07-02T12:39:57.017Z","","","","","","AttribQ","","","","","","","","","","","","","","","","","","","","","","","","","","","","","","","","","","","","","","50"
"2498","","<div style=""width:500px;"">
  <p>How much control did you have over the ball?</p>
  </div>","72","html-slider-response","40","563399","0.0-10.0-2.0","251","1","2025-07-02 12:30:33","80fe4187154257d5fb01684ea91b68b9","84.40.152.172","Mozilla/5.0 (Macintosh; Intel Mac OS X 10_15_7) AppleWebKit/537.36 (KHTML, like Gecko) Chrome/137.0.0.0 Safari/537.36","Macintosh","Chrome","137.0.0.0","OS X","10_15_7","https://app.prolific.com/","en-GB,en-US;q=0.9,en;q=0.8,pl;q=0.7,de;q=0.6","60f06a479c4f3ec0a536d40a","683db6dfa200031b80f2a654","686526514380ef53734c7613","60f06a479c4f3ec0a536d40a","2025-07-02T12:39:59.516Z","","","","","","ControlQ","","","","","","","","","","","","","","","","","","","","","","","","","","","","","","","","","","","","","","50"
"2273","","<div style=""width:500px;"">
  <p>How would you describe your current emotional state?</p>
  </div>","26","html-slider-response","41","565673","0.0-10.0-3.0","251","1","2025-07-02 12:30:33","80fe4187154257d5fb01684ea91b68b9","84.40.152.172","Mozilla/5.0 (Macintosh; Intel Mac OS X 10_15_7) AppleWebKit/537.36 (KHTML, like Gecko) Chrome/137.0.0.0 Safari/537.36","Macintosh","Chrome","137.0.0.0","OS X","10_15_7","https://app.prolific.com/","en-GB,en-US;q=0.9,en;q=0.8,pl;q=0.7,de;q=0.6","60f06a479c4f3ec0a536d40a","683db6dfa200031b80f2a654","686526514380ef53734c7613","60f06a479c4f3ec0a536d40a","2025-07-02T12:40:01.790Z","","","","","","StressQ","","","","","","","","","","","","","","","","","","","","","","","","","","","","","","","","","","","","","","50"
"1888","","<div style=""width:500px;"">
  <p>What best describes how you currently feel?</p>
  </div>","63","html-slider-response","42","567562","0.0-10.0-4.0","251","1","2025-07-02 12:30:33","80fe4187154257d5fb01684ea91b68b9","84.40.152.172","Mozilla/5.0 (Macintosh; Intel Mac OS X 10_15_7) AppleWebKit/537.36 (KHTML, like Gecko) Chrome/137.0.0.0 Safari/537.36","Macintosh","Chrome","137.0.0.0","OS X","10_15_7","https://app.prolific.com/","en-GB,en-US;q=0.9,en;q=0.8,pl;q=0.7,de;q=0.6","60f06a479c4f3ec0a536d40a","683db6dfa200031b80f2a654","686526514380ef53734c7613","60f06a479c4f3ec0a536d40a","2025-07-02T12:40:03.679Z","","","","","","MotivationQ","","","","","","","","","","","","","","","","","","","","","","","","","","","","","","","","","","","","","","50"
"","","","","ctl-task-cpt","43","605168","0.0-10.0-0.1","251","1","2025-07-02 12:30:33","80fe4187154257d5fb01684ea91b68b9","84.40.152.172","Mozilla/5.0 (Macintosh; Intel Mac OS X 10_15_7) AppleWebKit/537.36 (KHTML, like Gecko) Chrome/137.0.0.0 Safari/537.36","Macintosh","Chrome","137.0.0.0","OS X","10_15_7","https://app.prolific.com/","en-GB,en-US;q=0.9,en;q=0.8,pl;q=0.7,de;q=0.6","60f06a479c4f3ec0a536d40a","683db6dfa200031b80f2a654","686526514380ef53734c7613","60f06a479c4f3ec0a536d40a","2025-07-02T12:40:41.285Z","","","","","","","","","","","","","","","","win-only","3","g1:SW,g2:NE","0.9","2","0","580266.1","1487.5","6490.6","34596.5","1","4","8","6","2","8","8","12","4","0.09090909090909091","705.9","3000","20","[""up"",""right""]","{""num_key_presses"":8,""num_perfect"":7,""num_errors"":0,""num_randdir"":1,""num_randdir_good_moves"":0,""num_whilered"":0,""num_whileblue"":0,""num_blue"":2,""num_good_moves"":7}","[406.57142857142856,418.47767857142856,0.3,406.57142857142856,418.47767857142856,102.9,409.57142857142856,420.47767857142856,203.5,409.57142857142856,420.47767857142856,303.5,430.57142857142856,403.47767857142856,408.1,800.5714285714286,141.47767857142856,512.7,795.5714285714286,120.47767857142857,613.4,774.5714285714286,108.47767857142857,713.4,774.5714285714286,108.47767857142857,813.5,698.5714285714286,288.47767857142856,913.5,648.5714285714286,514.4776785714286,1013.8,910.5714285714286,495.47767857142856,1118.7,957.5714285714286,481.47767857142856,1223.6,957.5714285714286,481.47767857142856,1328.8,957.5714285714286,481.47767857142856,1432.8,957.5714285714286,481.47767857142856,1532.9,957.5714285714286,481.47767857142856,1632.9,957.5714285714286,481.47767857142856,1733.1,957.5714285714286,481.47767857142856,1833.5,957.5714285714286,481.47767857142856,1933.9,957.5714285714286,481.47767857142856,2037.8,957.5714285714286,481.47767857142856,2137.8,957.5714285714286,481.47767857142856,2243.5,957.5714285714286,481.47767857142856,2347.6,957.5714285714286,481.47767857142856,2447.6,957.5714285714286,481.47767857142856,2547.7,957.5714285714286,481.47767857142856,2648.1,957.5714285714286,481.47767857142856,2749.1,957.5714285714286,481.47767857142856,2852.8,957.5714285714286,481.47767857142856,2953,957.5714285714286,481.47767857142856,3053.3,957.5714285714286,481.47767857142856,3153.4,957.5714285714286,481.47767857142856,3253.4,957.5714285714286,481.47767857142856,3358.6,957.5714285714286,481.47767857142856,3462.8,957.5714285714286,481.47767857142856,3563,957.5714285714286,481.47767857142856,3663.3,957.5714285714286,481.47767857142856,3763.6,957.5714285714286,481.47767857142856,3868.4,957.5714285714286,481.47767857142856,3968.7,957.5714285714286,481.47767857142856,4073.7,957.5714285714286,481.47767857142856,4177.7,957.5714285714286,481.47767857142856,4278.2,957.5714285714286,481.47767857142856,4382.7,957.5714285714286,481.47767857142856,4483,957.5714285714286,481.47767857142856,4587.9,957.5714285714286,481.47767857142856,4688.1,957.5714285714286,481.47767857142856,4793.6,957.5714285714286,481.47767857142856,4898.5,957.5714285714286,481.47767857142856,4998.6]","[1432.7,1432.7,1000,0,432.7,""smooth"",""right"",""right"",""good_move"",4851.9,3418.8,2914.7,1433.1,504.1,""smooth"",""right"",""right"",""good_move"",7410.7,2558.5,2123.8,4852.2,434.7,""smooth"",""up"",""up"",""good_move"",10212.1,2801.1,2448.8,7411,352.3,""smooth"",""right"",""right"",""good_move"",13409.8,3197.6,2858,10212.2,339.6,""oops"",""up"",""left"",""bad_move"",16362.7,2952.4,2604.1,13410.3,348.3,""smooth"",""up"",""up"",""good_move"",24764.8,8402,2155.1,22295,314.7,""smooth"",""right"",""right"",""good_move"",28010.2,3245,2950.2,24765.2,294.8,""smooth"",""up"",""up"",""good_move""]","",""
"2363","","<div style=""width:500px;"">
  <p>What determined the result of this run?</p>
  </div>","76","html-slider-response","44","607532","0.0-10.0-1.1","251","1","2025-07-02 12:30:33","80fe4187154257d5fb01684ea91b68b9","84.40.152.172","Mozilla/5.0 (Macintosh; Intel Mac OS X 10_15_7) AppleWebKit/537.36 (KHTML, like Gecko) Chrome/137.0.0.0 Safari/537.36","Macintosh","Chrome","137.0.0.0","OS X","10_15_7","https://app.prolific.com/","en-GB,en-US;q=0.9,en;q=0.8,pl;q=0.7,de;q=0.6","60f06a479c4f3ec0a536d40a","683db6dfa200031b80f2a654","686526514380ef53734c7613","60f06a479c4f3ec0a536d40a","2025-07-02T12:40:43.649Z","","","","","","AttribQ","","","","","","","","","","","","","","","","","","","","","","","","","","","","","","","","","","","","","","50"
"2546","","<div style=""width:500px;"">
  <p>How much control did you have over the ball?</p>
  </div>","63","html-slider-response","45","610078","0.0-10.0-2.1","251","1","2025-07-02 12:30:33","80fe4187154257d5fb01684ea91b68b9","84.40.152.172","Mozilla/5.0 (Macintosh; Intel Mac OS X 10_15_7) AppleWebKit/537.36 (KHTML, like Gecko) Chrome/137.0.0.0 Safari/537.36","Macintosh","Chrome","137.0.0.0","OS X","10_15_7","https://app.prolific.com/","en-GB,en-US;q=0.9,en;q=0.8,pl;q=0.7,de;q=0.6","60f06a479c4f3ec0a536d40a","683db6dfa200031b80f2a654","686526514380ef53734c7613","60f06a479c4f3ec0a536d40a","2025-07-02T12:40:46.195Z","","","","","","ControlQ","","","","","","","","","","","","","","","","","","","","","","","","","","","","","","","","","","","","","","50"
"1617","","<div style=""width:500px;"">
  <p>How would you describe your current emotional state?</p>
  </div>","18","html-slider-response","46","611696","0.0-10.0-3.1","251","1","2025-07-02 12:30:33","80fe4187154257d5fb01684ea91b68b9","84.40.152.172","Mozilla/5.0 (Macintosh; Intel Mac OS X 10_15_7) AppleWebKit/537.36 (KHTML, like Gecko) Chrome/137.0.0.0 Safari/537.36","Macintosh","Chrome","137.0.0.0","OS X","10_15_7","https://app.prolific.com/","en-GB,en-US;q=0.9,en;q=0.8,pl;q=0.7,de;q=0.6","60f06a479c4f3ec0a536d40a","683db6dfa200031b80f2a654","686526514380ef53734c7613","60f06a479c4f3ec0a536d40a","2025-07-02T12:40:47.813Z","","","","","","StressQ","","","","","","","","","","","","","","","","","","","","","","","","","","","","","","","","","","","","","","50"
"2681","","<div style=""width:500px;"">
  <p>What best describes how you currently feel?</p>
  </div>","70","html-slider-response","47","614377","0.0-10.0-4.1","251","1","2025-07-02 12:30:33","80fe4187154257d5fb01684ea91b68b9","84.40.152.172","Mozilla/5.0 (Macintosh; Intel Mac OS X 10_15_7) AppleWebKit/537.36 (KHTML, like Gecko) Chrome/137.0.0.0 Safari/537.36","Macintosh","Chrome","137.0.0.0","OS X","10_15_7","https://app.prolific.com/","en-GB,en-US;q=0.9,en;q=0.8,pl;q=0.7,de;q=0.6","60f06a479c4f3ec0a536d40a","683db6dfa200031b80f2a654","686526514380ef53734c7613","60f06a479c4f3ec0a536d40a","2025-07-02T12:40:50.494Z","","","","","","MotivationQ","","","","","","","","","","","","","","","","","","","","","","","","","","","","","","","","","","","","","","50"
"","","","","ctl-task-cpt","48","649458","0.0-10.0-0.2","251","1","2025-07-02 12:30:33","80fe4187154257d5fb01684ea91b68b9","84.40.152.172","Mozilla/5.0 (Macintosh; Intel Mac OS X 10_15_7) AppleWebKit/537.36 (KHTML, like Gecko) Chrome/137.0.0.0 Safari/537.36","Macintosh","Chrome","137.0.0.0","OS X","10_15_7","https://app.prolific.com/","en-GB,en-US;q=0.9,en;q=0.8,pl;q=0.7,de;q=0.6","60f06a479c4f3ec0a536d40a","683db6dfa200031b80f2a654","686526514380ef53734c7613","60f06a479c4f3ec0a536d40a","2025-07-02T12:41:25.575Z","","","","","","","","","","","","","","","","win-only","0","g1:NW,g2:SE","0.8","3","0","627082.8","689.9","5690.9","32071.4","1","4","4","6","2","-4","-4","8","12","0.06060606060606061","803.2","3000","-3000","[""down"",""right""]","{""num_key_presses"":8,""num_perfect"":6,""num_errors"":0,""num_randdir"":2,""num_randdir_good_moves"":0,""num_whilered"":0,""num_whileblue"":0,""num_blue"":1,""num_good_moves"":6}","[421.57142857142856,411.47767857142856,0.1,421.57142857142856,411.47767857142856,100.8,422.57142857142856,417.47767857142856,201.2,422.57142857142856,417.47767857142856,306.3,411.57142857142856,414.47767857142856,411.3,512.5714285714286,511.47767857142856,511.5,730.5714285714286,645.4776785714286,615.4,768.5714285714286,686.4776785714286,715.4,783.5714285714286,705.4776785714286,815.9,783.5714285714286,706.4776785714286,916.2,779.5714285714286,708.4776785714286,1016.3,761.5714285714286,713.4776785714286,1121.2,755.5714285714286,715.4776785714286,1221.5,834.5714285714286,614.4776785714286,1326.3,1064.5714285714287,521.4776785714286,1430.9,1065.5714285714287,520.4776785714286,1531.1,1065.5714285714287,520.4776785714286,1636.5,1065.5714285714287,520.4776785714286,1741.1,1065.5714285714287,520.4776785714286,1841.1,1065.5714285714287,520.4776785714286,1945.6,1065.5714285714287,520.4776785714286,2046.3,1065.5714285714287,520.4776785714286,2150.5,1065.5714285714287,520.4776785714286,2251.5,1065.5714285714287,520.4776785714286,2356.2,1065.5714285714287,520.4776785714286,2461.2,1065.5714285714287,520.4776785714286,2561.4,1065.5714285714287,520.4776785714286,2665.4,1065.5714285714287,520.4776785714286,2765.7,1065.5714285714287,520.4776785714286,2866,1065.5714285714287,520.4776785714286,2971.1,1065.5714285714287,520.4776785714286,3075.7,1065.5714285714287,520.4776785714286,3175.9,1065.5714285714287,520.4776785714286,3276.4,1065.5714285714287,520.4776785714286,3376.4,1065.5714285714287,520.4776785714286,3481.1,1065.5714285714287,520.4776785714286,3581.3,1065.5714285714287,520.4776785714286,3686,1065.5714285714287,520.4776785714286,3790.5,1065.5714285714287,520.4776785714286,3890.7,1065.5714285714287,520.4776785714286,3990.8,1065.5714285714287,520.4776785714286,4090.9,1065.5714285714287,520.4776785714286,4191.3,1065.5714285714287,520.4776785714286,4296.1,1065.5714285714287,520.4776785714286,4401.3,1065.5714285714287,520.4776785714286,4505.4,1065.5714285714287,520.4776785714286,4605.8,1065.5714285714287,520.4776785714286,4706.3,1065.5714285714287,520.4776785714286,4810.6,1065.5714285714287,520.4776785714286,4910.7]","[1346.5,1346.5,1000,0,346.5,""smooth"",""down"",""down"",""good_move"",6938.5,5591.6,2135.6,4500.3,302.6,""smooth"",""right"",""right"",""good_move"",9602.4,2663.6,2347.6,6938.8,316,""smooth"",""down"",""down"",""good_move"",12633.7,3031.2,2656.7,9602.6,374.5,""smooth"",""right"",""right"",""good_move"",15890,3256,2772.2,12634,483.8,""oops"",""down"",""up"",""bad_move"",18650.3,2760,2373.8,15890.3,386.2,""oops"",""down"",""left"",""bad_move"",21370.5,2719.9,2414.1,18650.6,305.8,""smooth"",""right"",""right"",""good_move"",23676.6,2305.9,2013.4,21370.7,292.5,""smooth"",""down"",""down"",""good_move""]","",""
"2972","","<div style=""width:500px;"">
  <p>What determined the result of this run?</p>
  </div>","37","html-slider-response","49","652431","0.0-10.0-1.2","251","1","2025-07-02 12:30:33","80fe4187154257d5fb01684ea91b68b9","84.40.152.172","Mozilla/5.0 (Macintosh; Intel Mac OS X 10_15_7) AppleWebKit/537.36 (KHTML, like Gecko) Chrome/137.0.0.0 Safari/537.36","Macintosh","Chrome","137.0.0.0","OS X","10_15_7","https://app.prolific.com/","en-GB,en-US;q=0.9,en;q=0.8,pl;q=0.7,de;q=0.6","60f06a479c4f3ec0a536d40a","683db6dfa200031b80f2a654","686526514380ef53734c7613","60f06a479c4f3ec0a536d40a","2025-07-02T12:41:28.548Z","","","","","","AttribQ","","","","","","","","","","","","","","","","","","","","","","","","","","","","","","","","","","","","","","50"
"2699","","<div style=""width:500px;"">
  <p>How much control did you have over the ball?</p>
  </div>","29","html-slider-response","50","655130","0.0-10.0-2.2","251","1","2025-07-02 12:30:33","80fe4187154257d5fb01684ea91b68b9","84.40.152.172","Mozilla/5.0 (Macintosh; Intel Mac OS X 10_15_7) AppleWebKit/537.36 (KHTML, like Gecko) Chrome/137.0.0.0 Safari/537.36","Macintosh","Chrome","137.0.0.0","OS X","10_15_7","https://app.prolific.com/","en-GB,en-US;q=0.9,en;q=0.8,pl;q=0.7,de;q=0.6","60f06a479c4f3ec0a536d40a","683db6dfa200031b80f2a654","686526514380ef53734c7613","60f06a479c4f3ec0a536d40a","2025-07-02T12:41:31.248Z","","","","","","ControlQ","","","","","","","","","","","","","","","","","","","","","","","","","","","","","","","","","","","","","","50"
"3382","","<div style=""width:500px;"">
  <p>How would you describe your current emotional state?</p>
  </div>","47","html-slider-response","51","658513","0.0-10.0-3.2","251","1","2025-07-02 12:30:33","80fe4187154257d5fb01684ea91b68b9","84.40.152.172","Mozilla/5.0 (Macintosh; Intel Mac OS X 10_15_7) AppleWebKit/537.36 (KHTML, like Gecko) Chrome/137.0.0.0 Safari/537.36","Macintosh","Chrome","137.0.0.0","OS X","10_15_7","https://app.prolific.com/","en-GB,en-US;q=0.9,en;q=0.8,pl;q=0.7,de;q=0.6","60f06a479c4f3ec0a536d40a","683db6dfa200031b80f2a654","686526514380ef53734c7613","60f06a479c4f3ec0a536d40a","2025-07-02T12:41:34.630Z","","","","","","StressQ","","","","","","","","","","","","","","","","","","","","","","","","","","","","","","","","","","","","","","50"
"1813","","<div style=""width:500px;"">
  <p>What best describes how you currently feel?</p>
  </div>","58","html-slider-response","52","660327","0.0-10.0-4.2","251","1","2025-07-02 12:30:33","80fe4187154257d5fb01684ea91b68b9","84.40.152.172","Mozilla/5.0 (Macintosh; Intel Mac OS X 10_15_7) AppleWebKit/537.36 (KHTML, like Gecko) Chrome/137.0.0.0 Safari/537.36","Macintosh","Chrome","137.0.0.0","OS X","10_15_7","https://app.prolific.com/","en-GB,en-US;q=0.9,en;q=0.8,pl;q=0.7,de;q=0.6","60f06a479c4f3ec0a536d40a","683db6dfa200031b80f2a654","686526514380ef53734c7613","60f06a479c4f3ec0a536d40a","2025-07-02T12:41:36.444Z","","","","","","MotivationQ","","","","","","","","","","","","","","","","","","","","","","","","","","","","","","","","","","","","","","50"
"","","","","ctl-task-cpt","53","688337","0.0-10.0-0.3","251","1","2025-07-02 12:30:33","80fe4187154257d5fb01684ea91b68b9","84.40.152.172","Mozilla/5.0 (Macintosh; Intel Mac OS X 10_15_7) AppleWebKit/537.36 (KHTML, like Gecko) Chrome/137.0.0.0 Safari/537.36","Macintosh","Chrome","137.0.0.0","OS X","10_15_7","https://app.prolific.com/","en-GB,en-US;q=0.9,en;q=0.8,pl;q=0.7,de;q=0.6","60f06a479c4f3ec0a536d40a","683db6dfa200031b80f2a654","686526514380ef53734c7613","60f06a479c4f3ec0a536d40a","2025-07-02T12:42:04.454Z","","","","","","","","","","","","","","","","win-only","1","g1:NE,g2:SW","0.7","4","0","673033.3","628.5","5630.8","25001.3","1","4","8","6","2","8","8","16","8","0.12121212121212122","777.4","3000","515","[""down"",""left""]","{""num_key_presses"":6,""num_perfect"":5,""num_errors"":0,""num_randdir"":1,""num_randdir_good_moves"":1,""num_whilered"":0,""num_whileblue"":0,""num_blue"":1,""num_good_moves"":6}","[412.57142857142856,423.47767857142856,0.1,413.57142857142856,422.47767857142856,102.4,413.57142857142856,422.47767857142856,207.2,414.57142857142856,423.47767857142856,311.7,601.5714285714286,323.47767857142856,411.7,380.57142857142856,490.47767857142856,511.9,103.57142857142857,704.4776785714286,612.7,89.57142857142857,729.4776785714286,717.6,82.57142857142857,738.4776785714286,817.8,82.57142857142857,738.4776785714286,922.2,85.57142857142857,738.4776785714286,1027,140.57142857142856,712.4776785714286,1127.1,452.57142857142856,478.47767857142856,1227.6,463.57142857142856,443.47767857142856,1331.8,457.57142857142856,452.47767857142856,1432.1,456.57142857142856,453.47767857142856,1532.3,456.57142857142856,453.47767857142856,1632.5,456.57142857142856,453.47767857142856,1737.7,456.57142857142856,453.47767857142856,1842.4,456.57142857142856,453.47767857142856,1947.4,456.57142857142856,453.47767857142856,2047.5,456.57142857142856,453.47767857142856,2152.3,456.57142857142856,453.47767857142856,2252.7,456.57142857142856,453.47767857142856,2357,456.57142857142856,453.47767857142856,2457.4,456.57142857142856,453.47767857142856,2557.5,456.57142857142856,453.47767857142856,2662.4,456.57142857142856,453.47767857142856,2762.5,456.57142857142856,453.47767857142856,2867.4,456.57142857142856,453.47767857142856,2972.4,456.57142857142856,453.47767857142856,3076.6,456.57142857142856,453.47767857142856,3176.9,456.57142857142856,453.47767857142856,3277.5,456.57142857142856,453.47767857142856,3381.8,456.57142857142856,453.47767857142856,3482.4,456.57142857142856,453.47767857142856,3582.6,456.57142857142856,453.47767857142856,3687.7,456.57142857142856,453.47767857142856,3787.8,456.57142857142856,453.47767857142856,3892.5,456.57142857142856,453.47767857142856,3992.6,456.57142857142856,453.47767857142856,4096.8,456.57142857142856,453.47767857142856,4197.6,456.57142857142856,453.47767857142856,4302.5,456.57142857142856,453.47767857142856,4407.5,456.57142857142856,453.47767857142856,4512.5,456.57142857142856,453.47767857142856,4617.2,456.57142857142856,453.47767857142856,4717.6,456.57142857142856,453.47767857142856,4817.7,456.57142857142856,453.47767857142856,4921.7]","[1329.6,1329.6,1000,0,329.6,""oops"",""down"",""left"",""good_move"",7129.6,5799.6,2226.5,4485.3,417.8,""smooth"",""down"",""down"",""good_move"",10825.6,3695.6,3214.2,7130,481.4,""smooth"",""left"",""left"",""good_move"",14032.8,3206.9,2897.6,10825.9,309.3,""smooth"",""left"",""left"",""good_move"",16851.5,2818.5,2325.2,14033,493.3,""smooth"",""down"",""down"",""good_move"",19282.4,2430.6,1950.8,16851.8,479.8,""smooth"",""down"",""down"",""good_move""]","",""
"2149","","<div style=""width:500px;"">
  <p>What determined the result of this run?</p>
  </div>","60","html-slider-response","54","690487","0.0-10.0-1.3","251","1","2025-07-02 12:30:33","80fe4187154257d5fb01684ea91b68b9","84.40.152.172","Mozilla/5.0 (Macintosh; Intel Mac OS X 10_15_7) AppleWebKit/537.36 (KHTML, like Gecko) Chrome/137.0.0.0 Safari/537.36","Macintosh","Chrome","137.0.0.0","OS X","10_15_7","https://app.prolific.com/","en-GB,en-US;q=0.9,en;q=0.8,pl;q=0.7,de;q=0.6","60f06a479c4f3ec0a536d40a","683db6dfa200031b80f2a654","686526514380ef53734c7613","60f06a479c4f3ec0a536d40a","2025-07-02T12:42:06.604Z","","","","","","AttribQ","","","","","","","","","","","","","","","","","","","","","","","","","","","","","","","","","","","","","","50"
"3031","","<div style=""width:500px;"">
  <p>How much control did you have over the ball?</p>
  </div>","60","html-slider-response","55","693519","0.0-10.0-2.3","251","1","2025-07-02 12:30:33","80fe4187154257d5fb01684ea91b68b9","84.40.152.172","Mozilla/5.0 (Macintosh; Intel Mac OS X 10_15_7) AppleWebKit/537.36 (KHTML, like Gecko) Chrome/137.0.0.0 Safari/537.36","Macintosh","Chrome","137.0.0.0","OS X","10_15_7","https://app.prolific.com/","en-GB,en-US;q=0.9,en;q=0.8,pl;q=0.7,de;q=0.6","60f06a479c4f3ec0a536d40a","683db6dfa200031b80f2a654","686526514380ef53734c7613","60f06a479c4f3ec0a536d40a","2025-07-02T12:42:09.636Z","","","","","","ControlQ","","","","","","","","","","","","","","","","","","","","","","","","","","","","","","","","","","","","","","50"
"1483","","<div style=""width:500px;"">
  <p>How would you describe your current emotional state?</p>
  </div>","29","html-slider-response","56","695003","0.0-10.0-3.3","251","1","2025-07-02 12:30:33","80fe4187154257d5fb01684ea91b68b9","84.40.152.172","Mozilla/5.0 (Macintosh; Intel Mac OS X 10_15_7) AppleWebKit/537.36 (KHTML, like Gecko) Chrome/137.0.0.0 Safari/537.36","Macintosh","Chrome","137.0.0.0","OS X","10_15_7","https://app.prolific.com/","en-GB,en-US;q=0.9,en;q=0.8,pl;q=0.7,de;q=0.6","60f06a479c4f3ec0a536d40a","683db6dfa200031b80f2a654","686526514380ef53734c7613","60f06a479c4f3ec0a536d40a","2025-07-02T12:42:11.120Z","","","","","","StressQ","","","","","","","","","","","","","","","","","","","","","","","","","","","","","","","","","","","","","","50"
"2151","","<div style=""width:500px;"">
  <p>What best describes how you currently feel?</p>
  </div>","72","html-slider-response","57","697155","0.0-10.0-4.3","251","1","2025-07-02 12:30:33","80fe4187154257d5fb01684ea91b68b9","84.40.152.172","Mozilla/5.0 (Macintosh; Intel Mac OS X 10_15_7) AppleWebKit/537.36 (KHTML, like Gecko) Chrome/137.0.0.0 Safari/537.36","Macintosh","Chrome","137.0.0.0","OS X","10_15_7","https://app.prolific.com/","en-GB,en-US;q=0.9,en;q=0.8,pl;q=0.7,de;q=0.6","60f06a479c4f3ec0a536d40a","683db6dfa200031b80f2a654","686526514380ef53734c7613","60f06a479c4f3ec0a536d40a","2025-07-02T12:42:13.272Z","","","","","","MotivationQ","","","","","","","","","","","","","","","","","","","","","","","","","","","","","","","","","","","","","","50"
"","","","","ctl-task-cpt","58","728441","0.0-10.0-0.4","251","1","2025-07-02 12:30:33","80fe4187154257d5fb01684ea91b68b9","84.40.152.172","Mozilla/5.0 (Macintosh; Intel Mac OS X 10_15_7) AppleWebKit/537.36 (KHTML, like Gecko) Chrome/137.0.0.0 Safari/537.36","Macintosh","Chrome","137.0.0.0","OS X","10_15_7","https://app.prolific.com/","en-GB,en-US;q=0.9,en;q=0.8,pl;q=0.7,de;q=0.6","60f06a479c4f3ec0a536d40a","683db6dfa200031b80f2a654","686526514380ef53734c7613","60f06a479c4f3ec0a536d40a","2025-07-02T12:42:44.558Z","","","","","","","","","","","","","","","","win-only","0","g1:NW,g2:SE","0.6","5","0","709862.4","545.5","5546.4","28275.8","1","4","8","6","2","8","8","24","16","0.18181818181818182","759","3000","520","[""down"",""right""]","{""num_key_presses"":6,""num_perfect"":5,""num_errors"":0,""num_randdir"":1,""num_randdir_good_moves"":1,""num_whilered"":0,""num_whileblue"":0,""num_blue"":2,""num_good_moves"":6}","[417.57142857142856,408.47767857142856,0.1,417.57142857142856,408.47767857142856,100,417.57142857142856,415.47767857142856,200.8,409.57142857142856,421.47767857142856,305.3,349.57142857142856,387.47767857142856,409.8,412.57142857142856,434.47767857142856,510.7,674.5714285714286,710.4776785714286,614.9,699.5714285714286,744.4776785714286,715.4,711.5714285714286,751.4776785714286,820.5,712.5714285714286,751.4776785714286,926,711.5714285714286,750.4776785714286,1030.8,725.5714285714286,630.4776785714286,1135.8,855.5714285714286,516.4776785714286,1240,885.5714285714286,506.47767857142856,1340.5,886.5714285714286,506.47767857142856,1440.6,886.5714285714286,506.47767857142856,1540.7,886.5714285714286,506.47767857142856,1644.9,886.5714285714286,506.47767857142856,1745.1,886.5714285714286,506.47767857142856,1845.8,886.5714285714286,506.47767857142856,1950,886.5714285714286,506.47767857142856,2050.4,886.5714285714286,506.47767857142856,2155.2,886.5714285714286,506.47767857142856,2260.4,886.5714285714286,506.47767857142856,2365.5,886.5714285714286,506.47767857142856,2469.9,886.5714285714286,506.47767857142856,2570.3,886.5714285714286,506.47767857142856,2670.9,886.5714285714286,506.47767857142856,2775.4,886.5714285714286,506.47767857142856,2880.7,886.5714285714286,506.47767857142856,2985.2,886.5714285714286,506.47767857142856,3089.9,886.5714285714286,506.47767857142856,3195.1,886.5714285714286,506.47767857142856,3300.2,886.5714285714286,506.47767857142856,3400.3,886.5714285714286,506.47767857142856,3500.9,886.5714285714286,506.47767857142856,3605.2,886.5714285714286,506.47767857142856,3705.8,886.5714285714286,506.47767857142856,3809.7,886.5714285714286,506.47767857142856,3910.7,886.5714285714286,506.47767857142856,4010.8,886.5714285714286,506.47767857142856,4115.2,886.5714285714286,506.47767857142856,4215.5,886.5714285714286,506.47767857142856,4319.9,886.5714285714286,506.47767857142856,4420.6,886.5714285714286,506.47767857142856,4525.2,886.5714285714286,506.47767857142856,4625.8,886.5714285714286,506.47767857142856,4730.2,886.5714285714286,506.47767857142856,4835,886.5714285714286,506.47767857142856,4935.5]","[4346.4,4346.5,2057.5,2004.9,284.1,""oops"",""right"",""right"",""good_move"",7057.1,2710.3,2243.1,4346.8,467.2,""smooth"",""down"",""down"",""good_move"",13713.2,6655.9,2594.7,10749.7,368.8,""smooth"",""right"",""right"",""good_move"",16594.3,2880.9,2441.9,13713.4,439,""smooth"",""right"",""right"",""good_move"",19229,2634.6,2197.4,16594.4,437.2,""smooth"",""down"",""down"",""good_move"",22634.9,3405.6,2896.4,19229.3,509.2,""smooth"",""down"",""down"",""good_move""]","",""
"3312","","<div style=""width:500px;"">
  <p>What determined the result of this run?</p>
  </div>","68","html-slider-response","59","731754","0.0-10.0-1.4","251","1","2025-07-02 12:30:33","80fe4187154257d5fb01684ea91b68b9","84.40.152.172","Mozilla/5.0 (Macintosh; Intel Mac OS X 10_15_7) AppleWebKit/537.36 (KHTML, like Gecko) Chrome/137.0.0.0 Safari/537.36","Macintosh","Chrome","137.0.0.0","OS X","10_15_7","https://app.prolific.com/","en-GB,en-US;q=0.9,en;q=0.8,pl;q=0.7,de;q=0.6","60f06a479c4f3ec0a536d40a","683db6dfa200031b80f2a654","686526514380ef53734c7613","60f06a479c4f3ec0a536d40a","2025-07-02T12:42:47.871Z","","","","","","AttribQ","","","","","","","","","","","","","","","","","","","","","","","","","","","","","","","","","","","","","","50"
"1385","","<div style=""width:500px;"">
  <p>How much control did you have over the ball?</p>
  </div>","68","html-slider-response","60","733139","0.0-10.0-2.4","251","1","2025-07-02 12:30:33","80fe4187154257d5fb01684ea91b68b9","84.40.152.172","Mozilla/5.0 (Macintosh; Intel Mac OS X 10_15_7) AppleWebKit/537.36 (KHTML, like Gecko) Chrome/137.0.0.0 Safari/537.36","Macintosh","Chrome","137.0.0.0","OS X","10_15_7","https://app.prolific.com/","en-GB,en-US;q=0.9,en;q=0.8,pl;q=0.7,de;q=0.6","60f06a479c4f3ec0a536d40a","683db6dfa200031b80f2a654","686526514380ef53734c7613","60f06a479c4f3ec0a536d40a","2025-07-02T12:42:49.256Z","","","","","","ControlQ","","","","","","","","","","","","","","","","","","","","","","","","","","","","","","","","","","","","","","50"
"2434","","<div style=""width:500px;"">
  <p>How would you describe your current emotional state?</p>
  </div>","71","html-slider-response","61","735574","0.0-10.0-3.4","251","1","2025-07-02 12:30:33","80fe4187154257d5fb01684ea91b68b9","84.40.152.172","Mozilla/5.0 (Macintosh; Intel Mac OS X 10_15_7) AppleWebKit/537.36 (KHTML, like Gecko) Chrome/137.0.0.0 Safari/537.36","Macintosh","Chrome","137.0.0.0","OS X","10_15_7","https://app.prolific.com/","en-GB,en-US;q=0.9,en;q=0.8,pl;q=0.7,de;q=0.6","60f06a479c4f3ec0a536d40a","683db6dfa200031b80f2a654","686526514380ef53734c7613","60f06a479c4f3ec0a536d40a","2025-07-02T12:42:51.691Z","","","","","","StressQ","","","","","","","","","","","","","","","","","","","","","","","","","","","","","","","","","","","","","","50"
"1412","","<div style=""width:500px;"">
  <p>What best describes how you currently feel?</p>
  </div>","67","html-slider-response","62","736986","0.0-10.0-4.4","251","1","2025-07-02 12:30:33","80fe4187154257d5fb01684ea91b68b9","84.40.152.172","Mozilla/5.0 (Macintosh; Intel Mac OS X 10_15_7) AppleWebKit/537.36 (KHTML, like Gecko) Chrome/137.0.0.0 Safari/537.36","Macintosh","Chrome","137.0.0.0","OS X","10_15_7","https://app.prolific.com/","en-GB,en-US;q=0.9,en;q=0.8,pl;q=0.7,de;q=0.6","60f06a479c4f3ec0a536d40a","683db6dfa200031b80f2a654","686526514380ef53734c7613","60f06a479c4f3ec0a536d40a","2025-07-02T12:42:53.104Z","","","","","","MotivationQ","","","","","","","","","","","","","","","","","","","","","","","","","","","","","","","","","","","","","","50"
"","","","","ctl-task-cpt","63","782602","0.0-10.0-0.5","251","1","2025-07-02 12:30:33","80fe4187154257d5fb01684ea91b68b9","84.40.152.172","Mozilla/5.0 (Macintosh; Intel Mac OS X 10_15_7) AppleWebKit/537.36 (KHTML, like Gecko) Chrome/137.0.0.0 Safari/537.36","Macintosh","Chrome","137.0.0.0","OS X","10_15_7","https://app.prolific.com/","en-GB,en-US;q=0.9,en;q=0.8,pl;q=0.7,de;q=0.6","60f06a479c4f3ec0a536d40a","683db6dfa200031b80f2a654","686526514380ef53734c7613","60f06a479c4f3ec0a536d40a","2025-07-02T12:43:38.719Z","","","","","","","","","","","","","","","","win-only","1","g1:NE,g2:SW","0.5","6","0","749694.7","583.5","5586","42605.8","1","4","4","6","2","-4","-5","19","24","0.14393939393939395","681.2","3000","-3000","[""down"",""left""]","{""num_key_presses"":10,""num_perfect"":4,""num_errors"":1,""num_randdir"":5,""num_randdir_good_moves"":3,""num_whilered"":0,""num_whileblue"":1,""num_blue"":3,""num_good_moves"":7}","[407.57142857142856,426.47767857142856,0.2,407.57142857142856,426.47767857142856,101.9,407.57142857142856,426.47767857142856,207,427.57142857142856,430.47767857142856,307.3,401.57142857142856,460.47767857142856,407.3,195.57142857142856,682.4776785714286,511.6,149.57142857142856,719.4776785714286,612.6,114.57142857142857,736.4776785714286,716.9,113.57142857142857,735.4776785714286,822.3,158.57142857142856,717.4776785714286,922.5,397.57142857142856,641.4776785714286,1022.5,567.5714285714286,606.4776785714286,1122.5,577.5714285714286,604.4776785714286,1227.7,577.5714285714286,604.4776785714286,1332.4,577.5714285714286,604.4776785714286,1436.6,577.5714285714286,604.4776785714286,1536.8,577.5714285714286,604.4776785714286,1637,577.5714285714286,604.4776785714286,1737.3,577.5714285714286,604.4776785714286,1841.7,577.5714285714286,604.4776785714286,1942.3,577.5714285714286,604.4776785714286,2046.9,577.5714285714286,604.4776785714286,2147.7,577.5714285714286,604.4776785714286,2251.7,577.5714285714286,604.4776785714286,2351.8,577.5714285714286,604.4776785714286,2452.2,577.5714285714286,604.4776785714286,2552.7,577.5714285714286,604.4776785714286,2657.6,577.5714285714286,604.4776785714286,2757.8,577.5714285714286,604.4776785714286,2862.1,577.5714285714286,604.4776785714286,2962.5,577.5714285714286,604.4776785714286,3067.2,577.5714285714286,604.4776785714286,3172.5,577.5714285714286,604.4776785714286,3272.5,577.5714285714286,604.4776785714286,3376.5,577.5714285714286,604.4776785714286,3476.6,577.5714285714286,604.4776785714286,3576.8,577.5714285714286,604.4776785714286,3681.7,577.5714285714286,604.4776785714286,3781.8,577.5714285714286,604.4776785714286,3882.3,577.5714285714286,604.4776785714286,3987.2,577.5714285714286,604.4776785714286,4092.6,577.5714285714286,604.4776785714286,4196.8,577.5714285714286,604.4776785714286,4297.2,577.5714285714286,604.4776785714286,4401.8,577.5714285714286,604.4776785714286,4502,577.5714285714286,604.4776785714286,4602.4,577.5714285714286,604.4776785714286,4706.7,577.5714285714286,604.4776785714286,4807,577.5714285714286,604.4776785714286,4912.5]","[1306.3,1306.3,1000,0,306.3,""smooth"",""down"",""down"",""good_move"",4715.3,3408.6,3077.6,1306.7,331,""oops"",""left"",""up"",""bad_move"",7026.7,2311.2,1968.8,4715.5,342.4,""while_blue"",""down"",""right"",""bad_move"",11002.3,3975.3,3680.9,7027,294.4,""oops"",""down"",""down"",""good_move"",13691.5,2688.8,2388.5,11002.7,300.3,""smooth"",""down"",""down"",""good_move"",19484.1,5792.5,2018.3,17209.7,256.1,""oops"",""down"",""down"",""good_move"",22123.6,2639.3,2345.5,19484.3,293.8,""oops"",""left"",""left"",""good_move"",28420.1,6296.3,2423.2,25705,291.9,""smooth"",""left"",""left"",""good_move"",30916.1,2495.6,2064.5,28420.5,431.2,""smooth"",""left"",""left"",""good_move"",34196.1,3279.7,2946,30916.4,333.7,""oops"",""left"",""right"",""bad_move""]","",""
"2634","","<div style=""width:500px;"">
  <p>What determined the result of this run?</p>
  </div>","36","html-slider-response","64","785236","0.0-10.0-1.5","251","1","2025-07-02 12:30:33","80fe4187154257d5fb01684ea91b68b9","84.40.152.172","Mozilla/5.0 (Macintosh; Intel Mac OS X 10_15_7) AppleWebKit/537.36 (KHTML, like Gecko) Chrome/137.0.0.0 Safari/537.36","Macintosh","Chrome","137.0.0.0","OS X","10_15_7","https://app.prolific.com/","en-GB,en-US;q=0.9,en;q=0.8,pl;q=0.7,de;q=0.6","60f06a479c4f3ec0a536d40a","683db6dfa200031b80f2a654","686526514380ef53734c7613","60f06a479c4f3ec0a536d40a","2025-07-02T12:43:41.353Z","","","","","","AttribQ","","","","","","","","","","","","","","","","","","","","","","","","","","","","","","","","","","","","","","50"
"3540","","<div style=""width:500px;"">
  <p>How much control did you have over the ball?</p>
  </div>","56","html-slider-response","65","788777","0.0-10.0-2.5","251","1","2025-07-02 12:30:33","80fe4187154257d5fb01684ea91b68b9","84.40.152.172","Mozilla/5.0 (Macintosh; Intel Mac OS X 10_15_7) AppleWebKit/537.36 (KHTML, like Gecko) Chrome/137.0.0.0 Safari/537.36","Macintosh","Chrome","137.0.0.0","OS X","10_15_7","https://app.prolific.com/","en-GB,en-US;q=0.9,en;q=0.8,pl;q=0.7,de;q=0.6","60f06a479c4f3ec0a536d40a","683db6dfa200031b80f2a654","686526514380ef53734c7613","60f06a479c4f3ec0a536d40a","2025-07-02T12:43:44.894Z","","","","","","ControlQ","","","","","","","","","","","","","","","","","","","","","","","","","","","","","","","","","","","","","","50"
"1545","","<div style=""width:500px;"">
  <p>How would you describe your current emotional state?</p>
  </div>","49","html-slider-response","66","790323","0.0-10.0-3.5","251","1","2025-07-02 12:30:33","80fe4187154257d5fb01684ea91b68b9","84.40.152.172","Mozilla/5.0 (Macintosh; Intel Mac OS X 10_15_7) AppleWebKit/537.36 (KHTML, like Gecko) Chrome/137.0.0.0 Safari/537.36","Macintosh","Chrome","137.0.0.0","OS X","10_15_7","https://app.prolific.com/","en-GB,en-US;q=0.9,en;q=0.8,pl;q=0.7,de;q=0.6","60f06a479c4f3ec0a536d40a","683db6dfa200031b80f2a654","686526514380ef53734c7613","60f06a479c4f3ec0a536d40a","2025-07-02T12:43:46.440Z","","","","","","StressQ","","","","","","","","","","","","","","","","","","","","","","","","","","","","","","","","","","","","","","50"
"1860","","<div style=""width:500px;"">
  <p>What best describes how you currently feel?</p>
  </div>","50","html-slider-response","67","792183","0.0-10.0-4.5","251","1","2025-07-02 12:30:33","80fe4187154257d5fb01684ea91b68b9","84.40.152.172","Mozilla/5.0 (Macintosh; Intel Mac OS X 10_15_7) AppleWebKit/537.36 (KHTML, like Gecko) Chrome/137.0.0.0 Safari/537.36","Macintosh","Chrome","137.0.0.0","OS X","10_15_7","https://app.prolific.com/","en-GB,en-US;q=0.9,en;q=0.8,pl;q=0.7,de;q=0.6","60f06a479c4f3ec0a536d40a","683db6dfa200031b80f2a654","686526514380ef53734c7613","60f06a479c4f3ec0a536d40a","2025-07-02T12:43:48.300Z","","","","","","MotivationQ","","","","","","","","","","","","","","","","","","","","","","","","","","","","","","","","","","","","","","50"
"","","","","ctl-task-cpt","68","840996","0.0-10.0-0.6","251","1","2025-07-02 12:30:33","80fe4187154257d5fb01684ea91b68b9","84.40.152.172","Mozilla/5.0 (Macintosh; Intel Mac OS X 10_15_7) AppleWebKit/537.36 (KHTML, like Gecko) Chrome/137.0.0.0 Safari/537.36","Macintosh","Chrome","137.0.0.0","OS X","10_15_7","https://app.prolific.com/","en-GB,en-US;q=0.9,en;q=0.8,pl;q=0.7,de;q=0.6","60f06a479c4f3ec0a536d40a","683db6dfa200031b80f2a654","686526514380ef53734c7613","60f06a479c4f3ec0a536d40a","2025-07-02T12:44:37.113Z","","","","","","","","","","","","","","","","win-only","2","g1:SE,g2:NW","0.4","7","0","804892.2","496.4","5501.2","45805.7","1","4","8","6","2","-8","-12","7","19","0.05303030303030303","712.6","3000","-3000","[""left"",""up""]","{""num_key_presses"":15,""num_perfect"":4,""num_errors"":4,""num_randdir"":5,""num_randdir_good_moves"":2,""num_whilered"":2,""num_whileblue"":1,""num_blue"":2,""num_good_moves"":7}","[422.57142857142856,406.47767857142856,0.1,422.57142857142856,408.47767857142856,103.8,418.57142857142856,416.47767857142856,204.4,419.57142857142856,422.47767857142856,309,320.57142857142856,339.47767857142856,409.5,329.57142857142856,329.47767857142856,514.7,224.57142857142856,243.47767857142856,618.8,80.57142857142857,103.47767857142857,721.4,74.57142857142857,98.47767857142857,824.3,77.57142857142857,102.47767857142857,929.6,132.57142857142856,227.47767857142856,1034.1,251.57142857142856,326.47767857142856,1134.2,251.57142857142856,326.47767857142856,1234.3,251.57142857142856,326.47767857142856,1334.3,251.57142857142856,326.47767857142856,1434.7,251.57142857142856,326.47767857142856,1539.1,251.57142857142856,326.47767857142856,1639.8,251.57142857142856,326.47767857142856,1744.4,251.57142857142856,326.47767857142856,1844.7,251.57142857142856,326.47767857142856,1949,251.57142857142856,326.47767857142856,2049.3,251.57142857142856,326.47767857142856,2153.8,251.57142857142856,326.47767857142856,2254.2,251.57142857142856,326.47767857142856,2358.7,251.57142857142856,326.47767857142856,2459.4,251.57142857142856,326.47767857142856,2564.3,251.57142857142856,326.47767857142856,2664.7,251.57142857142856,326.47767857142856,2769.7,251.57142857142856,326.47767857142856,2873.9,251.57142857142856,326.47767857142856,2974,251.57142857142856,326.47767857142856,3074.1,251.57142857142856,326.47767857142856,3174.3,251.57142857142856,326.47767857142856,3279.7,251.57142857142856,326.47767857142856,3384.2,251.57142857142856,326.47767857142856,3484.6,251.57142857142856,326.47767857142856,3589.6,251.57142857142856,326.47767857142856,3689.6,251.57142857142856,326.47767857142856,3794.4,251.57142857142856,326.47767857142856,3899.2,251.57142857142856,326.47767857142856,3999.5,251.57142857142856,326.47767857142856,4104.1,251.57142857142856,326.47767857142856,4209.3,251.57142857142856,326.47767857142856,4309.3,251.57142857142856,326.47767857142856,4414.1,251.57142857142856,326.47767857142856,4514.1,251.57142857142856,326.47767857142856,4619.6,251.57142857142856,326.47767857142856,4724,251.57142857142856,326.47767857142856,4829.2,251.57142857142856,326.47767857142856,4933.9]","[4668.7,4668.7,2359.8,2004.6,304.3,""oops"",""up"",""right"",""bad_move"",6779.4,2110.6,1805,4668.9,305.6,""smooth"",""up"",""up"",""good_move"",9299.2,2519.5,2235.7,6779.7,283.8,""oops"",""up"",""down"",""bad_move"",12668.2,3368.7,3104.9,9299.5,263.8,""oops"",""up"",""left"",""good_move"",14973.6,2305.2,1980.2,12668.4,325,""smooth"",""up"",""up"",""good_move"",17700.3,2726.4,2461.2,14974,265.2,""oops"",""left"",""up"",""good_move"",20572,2871.4,2575.4,17700.6,296,""smooth"",""up"",""up"",""good_move"",23036.2,2464.1,2201.7,20572.2,262.4,""oops"",""left"",""down"",""bad_move"",25460.8,2424.3,2653.3,23036.5,-229,""error"",""-"",""-"",""no_move"",25668.1,207.1,2653.3,23036.5,-21.7,""while_red"",""-"",""-"",""no_move"",29107.7,3646.7,2267.3,26464.5,375.9,""smooth"",""left"",""left"",""good_move"",31812.3,2704.3,3277.4,29108,-573.1,""error"",""-"",""-"",""no_move"",32301.3,489,3277.4,29108,-84.1,""while_red"",""-"",""-"",""no_move"",33844.2,2031.9,2412.5,32814.7,-1383,""error"",""-"",""-"",""no_move"",37853.9,4009.7,2749.8,34849.7,254.5,""while_blue"",""up"",""left"",""good_move""]","",""
"3716","","<div style=""width:500px;"">
  <p>What determined the result of this run?</p>
  </div>","36","html-slider-response","69","844713","0.0-10.0-1.6","251","1","2025-07-02 12:30:33","80fe4187154257d5fb01684ea91b68b9","84.40.152.172","Mozilla/5.0 (Macintosh; Intel Mac OS X 10_15_7) AppleWebKit/537.36 (KHTML, like Gecko) Chrome/137.0.0.0 Safari/537.36","Macintosh","Chrome","137.0.0.0","OS X","10_15_7","https://app.prolific.com/","en-GB,en-US;q=0.9,en;q=0.8,pl;q=0.7,de;q=0.6","60f06a479c4f3ec0a536d40a","683db6dfa200031b80f2a654","686526514380ef53734c7613","60f06a479c4f3ec0a536d40a","2025-07-02T12:44:40.830Z","","","","","","AttribQ","","","","","","","","","","","","","","","","","","","","","","","","","","","","","","","","","","","","","","50"
"1388","","<div style=""width:500px;"">
  <p>How much control did you have over the ball?</p>
  </div>","35","html-slider-response","70","846101","0.0-10.0-2.6","251","1","2025-07-02 12:30:33","80fe4187154257d5fb01684ea91b68b9","84.40.152.172","Mozilla/5.0 (Macintosh; Intel Mac OS X 10_15_7) AppleWebKit/537.36 (KHTML, like Gecko) Chrome/137.0.0.0 Safari/537.36","Macintosh","Chrome","137.0.0.0","OS X","10_15_7","https://app.prolific.com/","en-GB,en-US;q=0.9,en;q=0.8,pl;q=0.7,de;q=0.6","60f06a479c4f3ec0a536d40a","683db6dfa200031b80f2a654","686526514380ef53734c7613","60f06a479c4f3ec0a536d40a","2025-07-02T12:44:42.218Z","","","","","","ControlQ","","","","","","","","","","","","","","","","","","","","","","","","","","","","","","","","","","","","","","50"
"1984","","<div style=""width:500px;"">
  <p>How would you describe your current emotional state?</p>
  </div>","63","html-slider-response","71","848086","0.0-10.0-3.6","251","1","2025-07-02 12:30:33","80fe4187154257d5fb01684ea91b68b9","84.40.152.172","Mozilla/5.0 (Macintosh; Intel Mac OS X 10_15_7) AppleWebKit/537.36 (KHTML, like Gecko) Chrome/137.0.0.0 Safari/537.36","Macintosh","Chrome","137.0.0.0","OS X","10_15_7","https://app.prolific.com/","en-GB,en-US;q=0.9,en;q=0.8,pl;q=0.7,de;q=0.6","60f06a479c4f3ec0a536d40a","683db6dfa200031b80f2a654","686526514380ef53734c7613","60f06a479c4f3ec0a536d40a","2025-07-02T12:44:44.203Z","","","","","","StressQ","","","","","","","","","","","","","","","","","","","","","","","","","","","","","","","","","","","","","","50"
"1748","","<div style=""width:500px;"">
  <p>What best describes how you currently feel?</p>
  </div>","39","html-slider-response","72","849834","0.0-10.0-4.6","251","1","2025-07-02 12:30:33","80fe4187154257d5fb01684ea91b68b9","84.40.152.172","Mozilla/5.0 (Macintosh; Intel Mac OS X 10_15_7) AppleWebKit/537.36 (KHTML, like Gecko) Chrome/137.0.0.0 Safari/537.36","Macintosh","Chrome","137.0.0.0","OS X","10_15_7","https://app.prolific.com/","en-GB,en-US;q=0.9,en;q=0.8,pl;q=0.7,de;q=0.6","60f06a479c4f3ec0a536d40a","683db6dfa200031b80f2a654","686526514380ef53734c7613","60f06a479c4f3ec0a536d40a","2025-07-02T12:44:45.951Z","","","","","","MotivationQ","","","","","","","","","","","","","","","","","","","","","","","","","","","","","","","","","","","","","","50"
"","","","","ctl-task-cpt","73","900694","0.0-10.0-0.7","251","1","2025-07-02 12:30:33","80fe4187154257d5fb01684ea91b68b9","84.40.152.172","Mozilla/5.0 (Macintosh; Intel Mac OS X 10_15_7) AppleWebKit/537.36 (KHTML, like Gecko) Chrome/137.0.0.0 Safari/537.36","Macintosh","Chrome","137.0.0.0","OS X","10_15_7","https://app.prolific.com/","en-GB,en-US;q=0.9,en;q=0.8,pl;q=0.7,de;q=0.6","60f06a479c4f3ec0a536d40a","683db6dfa200031b80f2a654","686526514380ef53734c7613","60f06a479c4f3ec0a536d40a","2025-07-02T12:45:36.811Z","","","","","","","","","","","","","","","","win-only","2","g1:SE,g2:NW","0.3","8","0","862545","802.5","5806","47851.2","1","4","4","6","2","-4","-5","2","7","0.015151515151515152","815.4","3000","-3005","[""left"",""up""]","{""num_key_presses"":10,""num_perfect"":3,""num_errors"":1,""num_randdir"":6,""num_randdir_good_moves"":3,""num_whilered"":0,""num_whileblue"":1,""num_blue"":4,""num_good_moves"":6}","[415.57142857142856,418.47767857142856,0.1,415.57142857142856,417.47767857142856,102.8,413.57142857142856,419.47767857142856,203.1,414.57142857142856,419.47767857142856,308.7,450.57142857142856,463.47767857142856,413.3,410.57142857142856,444.47767857142856,517.6,107.57142857142857,122.47767857142857,617.9,75.57142857142857,94.47767857142857,718.1,100.57142857142857,113.47767857142857,826.8,100.57142857142857,113.47767857142857,928.2,119.57142857142857,169.47767857142856,1033.8,233.57142857142856,361.47767857142856,1138.1,245.57142857142856,364.47767857142856,1238.6,245.57142857142856,364.47767857142856,1338.9,245.57142857142856,364.47767857142856,1442.9,245.57142857142856,364.47767857142856,1543.4,245.57142857142856,364.47767857142856,1648.4,245.57142857142856,364.47767857142856,1753.5,245.57142857142856,364.47767857142856,1853.8,245.57142857142856,364.47767857142856,1958.3,245.57142857142856,364.47767857142856,2063.8,245.57142857142856,364.47767857142856,2168.1,245.57142857142856,364.47767857142856,2268.8,245.57142857142856,364.47767857142856,2373,245.57142857142856,364.47767857142856,2473.7,245.57142857142856,364.47767857142856,2577.9,245.57142857142856,364.47767857142856,2680.8,245.57142857142856,364.47767857142856,2783.8,245.57142857142856,364.47767857142856,2888.8,245.57142857142856,364.47767857142856,2989.2,245.57142857142856,364.47767857142856,3092.7,245.57142857142856,364.47767857142856,3192.9,245.57142857142856,364.47767857142856,3293.5,245.57142857142856,364.47767857142856,3398.2,245.57142857142856,364.47767857142856,3503,245.57142857142856,364.47767857142856,3608.2,245.57142857142856,364.47767857142856,3708.6,245.57142857142856,364.47767857142856,3808.6,245.57142857142856,364.47767857142856,3909.4,245.57142857142856,364.47767857142856,4013.2,245.57142857142856,364.47767857142856,4113.8,245.57142857142856,364.47767857142856,4218.5,245.57142857142856,364.47767857142856,4318.5,245.57142857142856,364.47767857142856,4423.1,245.57142857142856,364.47767857142856,4523.5,245.57142857142856,364.47767857142856,4628.3,245.57142857142856,364.47767857142856,4733.3,245.57142857142856,364.47767857142856,4833.4,245.57142857142856,364.47767857142856,4933.7]","[4776.3,4776.3,2394.2,2009.7,372.4,""oops"",""left"",""up"",""good_move"",8144.9,3368.4,3057.9,4776.5,310.5,""smooth"",""left"",""left"",""good_move"",11344.8,3199.6,2880.4,8145.2,319.2,""oops"",""up"",""up"",""good_move"",13936.8,2591.8,2243.6,11345,348.2,""smooth"",""left"",""left"",""good_move"",21433.2,7496.1,2403.6,18689.6,340,""oops"",""left"",""right"",""bad_move"",28649.4,7216,2686.3,25679.9,283.2,""oops"",""up"",""right"",""bad_move"",31960.3,3310.7,2971.9,28649.6,338.8,""oops"",""up"",""down"",""bad_move"",34474.3,2513.8,2057.9,31960.5,455.9,""smooth"",""down"",""down"",""bad_move"",36361,1886.6,1803.1,34474.4,83.5,""oops"",""left"",""up"",""good_move"",39752.2,3391.1,3038.4,36361.1,352.7,""while_blue"",""left"",""up"",""good_move""]","",""
"3065","","<div style=""width:500px;"">
  <p>What determined the result of this run?</p>
  </div>","3","html-slider-response","74","903760","0.0-10.0-1.7","251","1","2025-07-02 12:30:33","80fe4187154257d5fb01684ea91b68b9","84.40.152.172","Mozilla/5.0 (Macintosh; Intel Mac OS X 10_15_7) AppleWebKit/537.36 (KHTML, like Gecko) Chrome/137.0.0.0 Safari/537.36","Macintosh","Chrome","137.0.0.0","OS X","10_15_7","https://app.prolific.com/","en-GB,en-US;q=0.9,en;q=0.8,pl;q=0.7,de;q=0.6","60f06a479c4f3ec0a536d40a","683db6dfa200031b80f2a654","686526514380ef53734c7613","60f06a479c4f3ec0a536d40a","2025-07-02T12:45:39.877Z","","","","","","AttribQ","","","","","","","","","","","","","","","","","","","","","","","","","","","","","","","","","","","","","","50"
"1371","","<div style=""width:500px;"">
  <p>How much control did you have over the ball?</p>
  </div>","16","html-slider-response","75","905131","0.0-10.0-2.7","251","1","2025-07-02 12:30:33","80fe4187154257d5fb01684ea91b68b9","84.40.152.172","Mozilla/5.0 (Macintosh; Intel Mac OS X 10_15_7) AppleWebKit/537.36 (KHTML, like Gecko) Chrome/137.0.0.0 Safari/537.36","Macintosh","Chrome","137.0.0.0","OS X","10_15_7","https://app.prolific.com/","en-GB,en-US;q=0.9,en;q=0.8,pl;q=0.7,de;q=0.6","60f06a479c4f3ec0a536d40a","683db6dfa200031b80f2a654","686526514380ef53734c7613","60f06a479c4f3ec0a536d40a","2025-07-02T12:45:41.248Z","","","","","","ControlQ","","","","","","","","","","","","","","","","","","","","","","","","","","","","","","","","","","","","","","50"
"1179","","<div style=""width:500px;"">
  <p>How would you describe your current emotional state?</p>
  </div>","57","html-slider-response","76","906310","0.0-10.0-3.7","251","1","2025-07-02 12:30:33","80fe4187154257d5fb01684ea91b68b9","84.40.152.172","Mozilla/5.0 (Macintosh; Intel Mac OS X 10_15_7) AppleWebKit/537.36 (KHTML, like Gecko) Chrome/137.0.0.0 Safari/537.36","Macintosh","Chrome","137.0.0.0","OS X","10_15_7","https://app.prolific.com/","en-GB,en-US;q=0.9,en;q=0.8,pl;q=0.7,de;q=0.6","60f06a479c4f3ec0a536d40a","683db6dfa200031b80f2a654","686526514380ef53734c7613","60f06a479c4f3ec0a536d40a","2025-07-02T12:45:42.427Z","","","","","","StressQ","","","","","","","","","","","","","","","","","","","","","","","","","","","","","","","","","","","","","","50"
"1957","","<div style=""width:500px;"">
  <p>What best describes how you currently feel?</p>
  </div>","70","html-slider-response","77","908268","0.0-10.0-4.7","251","1","2025-07-02 12:30:33","80fe4187154257d5fb01684ea91b68b9","84.40.152.172","Mozilla/5.0 (Macintosh; Intel Mac OS X 10_15_7) AppleWebKit/537.36 (KHTML, like Gecko) Chrome/137.0.0.0 Safari/537.36","Macintosh","Chrome","137.0.0.0","OS X","10_15_7","https://app.prolific.com/","en-GB,en-US;q=0.9,en;q=0.8,pl;q=0.7,de;q=0.6","60f06a479c4f3ec0a536d40a","683db6dfa200031b80f2a654","686526514380ef53734c7613","60f06a479c4f3ec0a536d40a","2025-07-02T12:45:44.385Z","","","","","","MotivationQ","","","","","","","","","","","","","","","","","","","","","","","","","","","","","","","","","","","","","","50"
"","","","","ctl-task-cpt","78","953478","0.0-10.0-0.8","251","1","2025-07-02 12:30:33","80fe4187154257d5fb01684ea91b68b9","84.40.152.172","Mozilla/5.0 (Macintosh; Intel Mac OS X 10_15_7) AppleWebKit/537.36 (KHTML, like Gecko) Chrome/137.0.0.0 Safari/537.36","Macintosh","Chrome","137.0.0.0","OS X","10_15_7","https://app.prolific.com/","en-GB,en-US;q=0.9,en;q=0.8,pl;q=0.7,de;q=0.6","60f06a479c4f3ec0a536d40a","683db6dfa200031b80f2a654","686526514380ef53734c7613","60f06a479c4f3ec0a536d40a","2025-07-02T12:46:29.595Z","","","","","","","","","","","","","","","","win-only","3","g1:SW,g2:NE","0.4","9","0","920980.1","817.4","5821.2","42201.1","1","4","8","6","2","-8","-10","0","2","0","581.2","3000","-2995","[""up"",""right""]","{""num_key_presses"":12,""num_perfect"":4,""num_errors"":2,""num_randdir"":5,""num_randdir_good_moves"":2,""num_whilered"":1,""num_whileblue"":1,""num_blue"":2,""num_good_moves"":6}","[408.57142857142856,416.47767857142856,0.1,409.57142857142856,415.47767857142856,103.4,407.57142857142856,418.47767857142856,203.5,406.57142857142856,420.47767857142856,303.5,665.5714285714286,218.47767857142856,408.7,768.5714285714286,121.47767857142857,513.5,768.5714285714286,119.47767857142857,613.6,761.5714285714286,123.47767857142857,713.6,453.57142857142856,415.47767857142856,818.5,417.57142857142856,442.47767857142856,918.8,417.57142857142856,442.47767857142856,1023.5,577.5714285714286,398.47767857142856,1123.6,590.5714285714286,394.47767857142856,1223.7,590.5714285714286,394.47767857142856,1328.7,590.5714285714286,394.47767857142856,1433.3,590.5714285714286,394.47767857142856,1538.6,590.5714285714286,394.47767857142856,1638.8,590.5714285714286,394.47767857142856,1743.2,590.5714285714286,394.47767857142856,1843.3,590.5714285714286,394.47767857142856,1943.3,590.5714285714286,394.47767857142856,2043.3,590.5714285714286,394.47767857142856,2148.1,590.5714285714286,394.47767857142856,2248.9,590.5714285714286,394.47767857142856,2353.7,590.5714285714286,394.47767857142856,2458,590.5714285714286,394.47767857142856,2563,590.5714285714286,394.47767857142856,2668.7,590.5714285714286,394.47767857142856,2773.3,590.5714285714286,394.47767857142856,2873.3,590.5714285714286,394.47767857142856,2978.6,590.5714285714286,394.47767857142856,3083.4,590.5714285714286,394.47767857142856,3188.5,590.5714285714286,394.47767857142856,3294.3,590.5714285714286,394.47767857142856,3398.4,590.5714285714286,394.47767857142856,3503.1,590.5714285714286,394.47767857142856,3608.3,590.5714285714286,394.47767857142856,3708.7,590.5714285714286,394.47767857142856,3813.3,590.5714285714286,394.47767857142856,3913.7,590.5714285714286,394.47767857142856,4017.8,590.5714285714286,394.47767857142856,4118.4,590.5714285714286,394.47767857142856,4222.9,590.5714285714286,394.47767857142856,4323.3,590.5714285714286,394.47767857142856,4423.5,590.5714285714286,394.47767857142856,4523.7,590.5714285714286,394.47767857142856,4628.2,590.5714285714286,394.47767857142856,4728.3,590.5714285714286,394.47767857142856,4833.2,590.5714285714286,394.47767857142856,4933.5]","[1327.7,1327.8,1000,0,327.8,""smooth"",""up"",""up"",""good_move"",4199.3,2871.3,2547.1,1328,324.2,""smooth"",""up"",""up"",""good_move"",6943.8,2744.4,2422.6,4199.4,321.8,""smooth"",""up"",""up"",""good_move"",13360.2,6416.4,2040.7,11034.8,284.7,""smooth"",""right"",""right"",""good_move"",15911.9,2551.5,2124.4,13360.4,427.1,""oops"",""right"",""left"",""bad_move"",19047.4,3135.3,2795.1,15912.1,340.2,""oops"",""right"",""left"",""bad_move"",21927.5,2879.9,2601.4,19047.6,278.5,""while_blue"",""right"",""down"",""bad_move"",24448.3,2520.6,2199.6,21927.7,321,""oops"",""up"",""right"",""good_move"",27439.2,2990.7,2707.5,24448.5,283.2,""oops"",""up"",""left"",""bad_move"",29737.1,2297.8,2779.7,27439.4,-481.9,""error"",""-"",""-"",""no_move"",30177.8,440.5,2779.7,27439.4,-41.3,""while_red"",""-"",""-"",""no_move"",33599.8,3862.5,2536.7,30739.1,324,""oops"",""up"",""up"",""good_move""]","",""
"2668","","<div style=""width:500px;"">
  <p>What determined the result of this run?</p>
  </div>","9","html-slider-response","79","956146","0.0-10.0-1.8","251","1","2025-07-02 12:30:33","80fe4187154257d5fb01684ea91b68b9","84.40.152.172","Mozilla/5.0 (Macintosh; Intel Mac OS X 10_15_7) AppleWebKit/537.36 (KHTML, like Gecko) Chrome/137.0.0.0 Safari/537.36","Macintosh","Chrome","137.0.0.0","OS X","10_15_7","https://app.prolific.com/","en-GB,en-US;q=0.9,en;q=0.8,pl;q=0.7,de;q=0.6","60f06a479c4f3ec0a536d40a","683db6dfa200031b80f2a654","686526514380ef53734c7613","60f06a479c4f3ec0a536d40a","2025-07-02T12:46:32.263Z","","","","","","AttribQ","","","","","","","","","","","","","","","","","","","","","","","","","","","","","","","","","","","","","","50"
"2278","","<div style=""width:500px;"">
  <p>How much control did you have over the ball?</p>
  </div>","0","html-slider-response","80","958425","0.0-10.0-2.8","251","1","2025-07-02 12:30:33","80fe4187154257d5fb01684ea91b68b9","84.40.152.172","Mozilla/5.0 (Macintosh; Intel Mac OS X 10_15_7) AppleWebKit/537.36 (KHTML, like Gecko) Chrome/137.0.0.0 Safari/537.36","Macintosh","Chrome","137.0.0.0","OS X","10_15_7","https://app.prolific.com/","en-GB,en-US;q=0.9,en;q=0.8,pl;q=0.7,de;q=0.6","60f06a479c4f3ec0a536d40a","683db6dfa200031b80f2a654","686526514380ef53734c7613","60f06a479c4f3ec0a536d40a","2025-07-02T12:46:34.542Z","","","","","","ControlQ","","","","","","","","","","","","","","","","","","","","","","","","","","","","","","","","","","","","","","50"
"1783","","<div style=""width:500px;"">
  <p>How would you describe your current emotional state?</p>
  </div>","86","html-slider-response","81","960208","0.0-10.0-3.8","251","1","2025-07-02 12:30:33","80fe4187154257d5fb01684ea91b68b9","84.40.152.172","Mozilla/5.0 (Macintosh; Intel Mac OS X 10_15_7) AppleWebKit/537.36 (KHTML, like Gecko) Chrome/137.0.0.0 Safari/537.36","Macintosh","Chrome","137.0.0.0","OS X","10_15_7","https://app.prolific.com/","en-GB,en-US;q=0.9,en;q=0.8,pl;q=0.7,de;q=0.6","60f06a479c4f3ec0a536d40a","683db6dfa200031b80f2a654","686526514380ef53734c7613","60f06a479c4f3ec0a536d40a","2025-07-02T12:46:36.325Z","","","","","","StressQ","","","","","","","","","","","","","","","","","","","","","","","","","","","","","","","","","","","","","","50"
"1443","","<div style=""width:500px;"">
  <p>What best describes how you currently feel?</p>
