"rt","response_timestamp","stimulus","response","trial_type","trial_index","time_elapsed","internal_node_id","run_id","condition","recorded_at","source_code_version","ip","user_agent","device","browser","browser_version","platform","platform_version","referer","accept_language","PROLIFIC_PID","STUDY_ID","SESSION_ID","prolific_id","realtime","view_history","question_order","consent","success","question_id","eventType","responses","item_order","radio_event_ids","radio_event_times","key_event_times","mouse_event_times","straightlining","zigzagging","honeypot","which_type","canvas_config","goals_layout","control_level","trial_number","tutorial_trial_number","trial_start_time","phase1_start_time","phase2_start_time","phase3_start_time","goal_1_value","goal_1_distance","goal_2_value","goal_2_distance","goal_selected","outcome","outcome_total","participant_final_score","participant_initial_score","participant_final_score_prop","goal_choice_rt","allocated_time","allocated_time_remaining","goal_direction","counts","mouse_movements","key_presses","correct","slider_start"
"3564","1751451170927","<p style='font-size:40px;line-height:1.25'><strong>Welcome to the experiment!</strong></p><p style='font-size:1.1em;line-height:1.25'>Thank you for your interest in our experiment! Before you begin, it is important that we obtain your informed consent to participate in the study.</p><p style='font-size:1.1em;line-height:1.25'>On the next screen will be an <strong>information sheet</strong> for you to read. To participate in the study we need you to read this information sheet and the following consent form carefully. If you agree with all the statements, please click the <strong>I agree</strong> button.</p><p style='font-size:1.1em;line-height:1.25'>Press <strong>Next</strong> to read the information sheet.</p>","0","custom-html-button-response","0","3574","0.0-0.0","71","1","2025-07-02 10:19:01","80fe4187154257d5fb01684ea91b68b9","105.0.2.155","Mozilla/5.0 (Windows NT 10.0; Win64; x64) AppleWebKit/537.36 (KHTML, like Gecko) Chrome/137.0.0.0 Safari/537.36","WebKit","Chrome","137.0.0.0","Windows","10.0","https://app.prolific.com/","en-ZA,en-GB;q=0.9,en-US;q=0.8,en;q=0.7","60f7c71d1cffec381351b0b3","683db6dfa200031b80f2a654","686507667a727ce832886dd5","60f7c71d1cffec381351b0b3","2025-07-02T10:12:50.933Z","","","","","","","","","","","","","","","","","","","","","","","","","","","","","","","","","","","","","","","","","","","",""
"7420","","","","instructions","1","10999","0.0-1.0","71","1","2025-07-02 10:19:01","80fe4187154257d5fb01684ea91b68b9","105.0.2.155","Mozilla/5.0 (Windows NT 10.0; Win64; x64) AppleWebKit/537.36 (KHTML, like Gecko) Chrome/137.0.0.0 Safari/537.36","WebKit","Chrome","137.0.0.0","Windows","10.0","https://app.prolific.com/","en-ZA,en-GB;q=0.9,en-US;q=0.8,en;q=0.7","60f7c71d1cffec381351b0b3","683db6dfa200031b80f2a654","686507667a727ce832886dd5","60f7c71d1cffec381351b0b3","","[{""page_index"":0,""viewing_time"":5736},{""page_index"":1,""viewing_time"":1683}]","","","","","","","","","","","","","","","","","","","","","","","","","","","","","","","","","","","","","","","","","","",""
"7098","","","{""Q0"":"""",""Q1"":"""",""Q2"":"""",""Q3"":"""",""Q4"":"""",""Q5"":"""",""Q6"":""I agree""}","survey-multi-choice","2","18106","0.0-2.0","71","1","2025-07-02 10:19:01","80fe4187154257d5fb01684ea91b68b9","105.0.2.155","Mozilla/5.0 (Windows NT 10.0; Win64; x64) AppleWebKit/537.36 (KHTML, like Gecko) Chrome/137.0.0.0 Safari/537.36","WebKit","Chrome","137.0.0.0","Windows","10.0","https://app.prolific.com/","en-ZA,en-GB;q=0.9,en-US;q=0.8,en;q=0.7","60f7c71d1cffec381351b0b3","683db6dfa200031b80f2a654","686507667a727ce832886dd5","60f7c71d1cffec381351b0b3","","","[0,1,2,3,4,5,6]","true","","","","","","","","","","","","","","","","","","","","","","","","","","","","","","","","","","","","","","","","",""
"2381","","","","fullscreen","3","21505","0.0-4.0","71","1","2025-07-02 10:19:01","80fe4187154257d5fb01684ea91b68b9","105.0.2.155","Mozilla/5.0 (Windows NT 10.0; Win64; x64) AppleWebKit/537.36 (KHTML, like Gecko) Chrome/137.0.0.0 Safari/537.36","WebKit","Chrome","137.0.0.0","Windows","10.0","https://app.prolific.com/","en-ZA,en-GB;q=0.9,en-US;q=0.8,en;q=0.7","60f7c71d1cffec381351b0b3","683db6dfa200031b80f2a654","686507667a727ce832886dd5","60f7c71d1cffec381351b0b3","","","","","true","","","","","","","","","","","","","","","","","","","","","","","","","","","","","","","","","","","","","","","",""
"3022","1751451191889"," <p style='font-size:1.1em;line-height:1.25'>Thank you for completing the consent form and closing all other tabs.</p><p style='font-size:1.1em;line-height:1.25'>We will now invite you to fill in some demographic information and questionnaires, before starting the game.<br>This will take about 5 minutes.<br></p><p style='font-size:1.1em;line-height:1.25'>Press the <strong>Next</strong> button to continue.</p>","0","custom-html-button-response","4","24534","0.0-5.0","71","1","2025-07-02 10:19:01","80fe4187154257d5fb01684ea91b68b9","105.0.2.155","Mozilla/5.0 (Windows NT 10.0; Win64; x64) AppleWebKit/537.36 (KHTML, like Gecko) Chrome/137.0.0.0 Safari/537.36","WebKit","Chrome","137.0.0.0","Windows","10.0","https://app.prolific.com/","en-ZA,en-GB;q=0.9,en-US;q=0.8,en;q=0.7","60f7c71d1cffec381351b0b3","683db6dfa200031b80f2a654","686507667a727ce832886dd5","60f7c71d1cffec381351b0b3","2025-07-02T10:13:11.892Z","","","","","","","","","","","","","","","","","","","","","","","","","","","","","","","","","","","","","","","","","","","",""
"4440","","","{""age"":""27""}","survey-text","5","28987","0.0-6.0-0.0","71","1","2025-07-02 10:19:01","80fe4187154257d5fb01684ea91b68b9","105.0.2.155","Mozilla/5.0 (Windows NT 10.0; Win64; x64) AppleWebKit/537.36 (KHTML, like Gecko) Chrome/137.0.0.0 Safari/537.36","WebKit","Chrome","137.0.0.0","Windows","10.0","https://app.prolific.com/","en-ZA,en-GB;q=0.9,en-US;q=0.8,en;q=0.7","60f7c71d1cffec381351b0b3","683db6dfa200031b80f2a654","686507667a727ce832886dd5","60f7c71d1cffec381351b0b3","","","","","","0","demographics","","","","","","","","","","","","","","","","","","","","","","","","","","","","","","","","","","","","","",""
"2942","","","{""gender_identity"":""female/woman""}","survey-multi-choice","6","31933","0.0-6.0-1.0","71","1","2025-07-02 10:19:01","80fe4187154257d5fb01684ea91b68b9","105.0.2.155","Mozilla/5.0 (Windows NT 10.0; Win64; x64) AppleWebKit/537.36 (KHTML, like Gecko) Chrome/137.0.0.0 Safari/537.36","WebKit","Chrome","137.0.0.0","Windows","10.0","https://app.prolific.com/","en-ZA,en-GB;q=0.9,en-US;q=0.8,en;q=0.7","60f7c71d1cffec381351b0b3","683db6dfa200031b80f2a654","686507667a727ce832886dd5","60f7c71d1cffec381351b0b3","","","[0]","","","1","demographics","","","","","","","","","","","","","","","","","","","","","","","","","","","","","","","","","","","","","",""
"3043","","","{""assigned_sex"":""female""}","survey-multi-choice","7","34981","0.0-6.0-2.0","71","1","2025-07-02 10:19:01","80fe4187154257d5fb01684ea91b68b9","105.0.2.155","Mozilla/5.0 (Windows NT 10.0; Win64; x64) AppleWebKit/537.36 (KHTML, like Gecko) Chrome/137.0.0.0 Safari/537.36","WebKit","Chrome","137.0.0.0","Windows","10.0","https://app.prolific.com/","en-ZA,en-GB;q=0.9,en-US;q=0.8,en;q=0.7","60f7c71d1cffec381351b0b3","683db6dfa200031b80f2a654","686507667a727ce832886dd5","60f7c71d1cffec381351b0b3","","","[0]","","","2","demographics","","","","","","","","","","","","","","","","","","","","","","","","","","","","","","","","","","","","","",""
"3555","","","{""menstrual_cycle"":""Yes""}","survey-multi-choice","8","38540","0.0-6.0-3.0","71","1","2025-07-02 10:19:01","80fe4187154257d5fb01684ea91b68b9","105.0.2.155","Mozilla/5.0 (Windows NT 10.0; Win64; x64) AppleWebKit/537.36 (KHTML, like Gecko) Chrome/137.0.0.0 Safari/537.36","WebKit","Chrome","137.0.0.0","Windows","10.0","https://app.prolific.com/","en-ZA,en-GB;q=0.9,en-US;q=0.8,en;q=0.7","60f7c71d1cffec381351b0b3","683db6dfa200031b80f2a654","686507667a727ce832886dd5","60f7c71d1cffec381351b0b3","","","[0]","","","4","demographics","","","","","","","","","","","","","","","","","","","","","","","","","","","","","","","","","","","","","",""
"4991","","","{""education"":""Bachelor's Degree (e.g., BA)""}","survey-multi-choice","9","43535","0.0-6.0-4.0","71","1","2025-07-02 10:19:01","80fe4187154257d5fb01684ea91b68b9","105.0.2.155","Mozilla/5.0 (Windows NT 10.0; Win64; x64) AppleWebKit/537.36 (KHTML, like Gecko) Chrome/137.0.0.0 Safari/537.36","WebKit","Chrome","137.0.0.0","Windows","10.0","https://app.prolific.com/","en-ZA,en-GB;q=0.9,en-US;q=0.8,en;q=0.7","60f7c71d1cffec381351b0b3","683db6dfa200031b80f2a654","686507667a727ce832886dd5","60f7c71d1cffec381351b0b3","","","[0]","","","5","demographics","","","","","","","","","","","","","","","","","","","","","","","","","","","","","","","","","","","","","",""
"6991","","","{""education"":""GCSE/Standard Grades""}","survey-multi-choice","10","50531","0.0-6.0-5.0","71","1","2025-07-02 10:19:01","80fe4187154257d5fb01684ea91b68b9","105.0.2.155","Mozilla/5.0 (Windows NT 10.0; Win64; x64) AppleWebKit/537.36 (KHTML, like Gecko) Chrome/137.0.0.0 Safari/537.36","WebKit","Chrome","137.0.0.0","Windows","10.0","https://app.prolific.com/","en-ZA,en-GB;q=0.9,en-US;q=0.8,en;q=0.7","60f7c71d1cffec381351b0b3","683db6dfa200031b80f2a654","686507667a727ce832886dd5","60f7c71d1cffec381351b0b3","2025-07-02T10:13:37.889Z","","[0]","","","6","demographics","","","","","","","","","","","","","","","","","","","","","","","","","","","","","","","","","","","","","",""
"37574","","","{""mental_health_condition"":""yes"",""mental_health_treatment"":""anti-anxiery medication"",""psychiatric_medication"":""No""}","survey-text","11","88144","0.0-7.0-0.0","71","1","2025-07-02 10:19:01","80fe4187154257d5fb01684ea91b68b9","105.0.2.155","Mozilla/5.0 (Windows NT 10.0; Win64; x64) AppleWebKit/537.36 (KHTML, like Gecko) Chrome/137.0.0.0 Safari/537.36","WebKit","Chrome","137.0.0.0","Windows","10.0","https://app.prolific.com/","en-ZA,en-GB;q=0.9,en-US;q=0.8,en;q=0.7","60f7c71d1cffec381351b0b3","683db6dfa200031b80f2a654","686507667a727ce832886dd5","60f7c71d1cffec381351b0b3","2025-07-02T10:14:15.502Z","","","","","1","mental_health","","","","","","","","","","","","","","","","","","","","","","","","","","","","","","","","","","","","","",""
"8078","","","{""depression_history"":[""Yes""]}","survey-multi-select","12","96232","0.0-7.0-1.0","71","1","2025-07-02 10:19:01","80fe4187154257d5fb01684ea91b68b9","105.0.2.155","Mozilla/5.0 (Windows NT 10.0; Win64; x64) AppleWebKit/537.36 (KHTML, like Gecko) Chrome/137.0.0.0 Safari/537.36","WebKit","Chrome","137.0.0.0","Windows","10.0","https://app.prolific.com/","en-ZA,en-GB;q=0.9,en-US;q=0.8,en;q=0.7","60f7c71d1cffec381351b0b3","683db6dfa200031b80f2a654","686507667a727ce832886dd5","60f7c71d1cffec381351b0b3","","","[0]","","","","mental_health","","","","","","","","","","","","","","","","","","","","","","","","","","","","","","","","","","","","","",""
"16402","","","{""depression_episodes"":""1-2"",""depression_recent"":""Within the past year""}","survey-multi-choice","13","112639","0.0-7.0-2.0-0.0","71","1","2025-07-02 10:19:01","80fe4187154257d5fb01684ea91b68b9","105.0.2.155","Mozilla/5.0 (Windows NT 10.0; Win64; x64) AppleWebKit/537.36 (KHTML, like Gecko) Chrome/137.0.0.0 Safari/537.36","WebKit","Chrome","137.0.0.0","Windows","10.0","https://app.prolific.com/","en-ZA,en-GB;q=0.9,en-US;q=0.8,en;q=0.7","60f7c71d1cffec381351b0b3","683db6dfa200031b80f2a654","686507667a727ce832886dd5","60f7c71d1cffec381351b0b3","2025-07-02T10:14:39.998Z","","[0,1]","","","3","mental_health","","","","","","","","","","","","","","","","","","","","","","","","","","","","","","","","","","","","","",""
"64163.799999999814","","","","survey-template","14","176820","0.0-7.0-3.0","71","1","2025-07-02 10:19:01","80fe4187154257d5fb01684ea91b68b9","105.0.2.155","Mozilla/5.0 (Windows NT 10.0; Win64; x64) AppleWebKit/537.36 (KHTML, like Gecko) Chrome/137.0.0.0 Safari/537.36","WebKit","Chrome","137.0.0.0","Windows","10.0","https://app.prolific.com/","en-ZA,en-GB;q=0.9,en-US;q=0.8,en;q=0.7","60f7c71d1cffec381351b0b3","683db6dfa200031b80f2a654","686507667a727ce832886dd5","60f7c71d1cffec381351b0b3","2025-07-02T10:15:44.178Z","","","","","","ius","{""Q01"":""3"",""Q02"":""3"",""Q03"":""1"",""Q04"":""3"",""Q05"":""3"",""Q06"":""1"",""Q07"":""1"",""Q08"":""0"",""Q09"":""3"",""Q10"":""3"",""Q11"":""1"",""Q12"":""3"",""Q13"":""3""}","[0,1,2,3,4,5,6,7,8,9,10,11,12]","[""Q01"",""Q02"",""Q03"",""Q04"",""Q05"",""Q06"",""Q07"",""Q08"",""Q09"",""Q10"",""Q11"",""Q12"",""Q13""]","[8214.299999999814,11378.099999999627,14309.700000000186,19498.099999999627,23484.700000000186,27090.799999999814,37335.700000000186,45533.200000000186,50504.89999999944,51853.89999999944,55305.700000000186,60160,62502]","[]","[8214.299999999814,11378.099999999627,14309.700000000186,19498.099999999627,23484.700000000186,27090.799999999814,37335.700000000186,45533.200000000186,48713.200000000186,50504.89999999944,51853.89999999944,55305.700000000186,60160,62502,64154.299999999814]","0.6153846153846154","0.08333333333333333","0","","","","","","","","","","","","","","","","","","","","","","","","","","","","",""
"3060","1751451347242","<p style='font-size:1.1em;line-height:1.25'>In the following, we will ask you a few questions relating to your experiences over the past month.<br></p><p style='font-size:1.1em;line-height:1.25'>Press the <strong>Next</strong> button to continue.</p>","0","custom-html-button-response","15","179885","0.0-7.0-4.0","71","1","2025-07-02 10:19:01","80fe4187154257d5fb01684ea91b68b9","105.0.2.155","Mozilla/5.0 (Windows NT 10.0; Win64; x64) AppleWebKit/537.36 (KHTML, like Gecko) Chrome/137.0.0.0 Safari/537.36","WebKit","Chrome","137.0.0.0","Windows","10.0","https://app.prolific.com/","en-ZA,en-GB;q=0.9,en-US;q=0.8,en;q=0.7","60f7c71d1cffec381351b0b3","683db6dfa200031b80f2a654","686507667a727ce832886dd5","60f7c71d1cffec381351b0b3","2025-07-02T10:15:47.243Z","","","","","","","","","","","","","","","","","","","","","","","","","","","","","","","","","","","","","","","","","","","",""
"45429.60000000056","","","","survey-template","16","225325","0.0-7.0-5.0","71","1","2025-07-02 10:19:01","80fe4187154257d5fb01684ea91b68b9","105.0.2.155","Mozilla/5.0 (Windows NT 10.0; Win64; x64) AppleWebKit/537.36 (KHTML, like Gecko) Chrome/137.0.0.0 Safari/537.36","WebKit","Chrome","137.0.0.0","Windows","10.0","https://app.prolific.com/","en-ZA,en-GB;q=0.9,en-US;q=0.8,en;q=0.7","60f7c71d1cffec381351b0b3","683db6dfa200031b80f2a654","686507667a727ce832886dd5","60f7c71d1cffec381351b0b3","2025-07-02T10:16:32.683Z","","","","","","pss","{""Q01"":""3"",""Q02"":""3"",""Q03"":""3"",""Q04"":""2"",""Q05"":""2"",""Q06"":""2"",""Q07"":""2"",""Q08"":""2"",""Q09"":""2"",""Q10"":""2""}","[0,1,2,3,4,5,6,7,8,9]","[""Q01"",""Q02"",""Q03"",""Q04"",""Q05"",""Q06"",""Q07"",""Q07"",""Q08"",""Q09"",""Q10""]","[4412.600000000559,8267.200000000186,11415.400000000373,16138.200000000186,22738.300000000745,26957.5,32532.900000000373,37039.300000000745,37977.10000000056,40669.10000000056,43839.90000000037]","[]","[0.10000000055879354,4412.600000000559,8267.200000000186,11415.400000000373,16138.200000000186,22738.300000000745,26957.5,32532.900000000373,37039.300000000745,37977.10000000056,40669.10000000056,43839.90000000037,45423.200000000186]","0.7","0.1111111111111111","0","","","","","","","","","","","","","","","","","","","","","","","","","","","","",""
"3621","1751451396309","<p style='font-size:1.1em;line-height:1.25'>Thank you for your answers! Now we will ask you a few more questions relating to your feelings in the last 24 hours.<br></p><p style='font-size:1.1em;line-height:1.25'>Press the <strong>Next</strong> button to continue.</p>","0","custom-html-button-response","17","228952","0.0-7.0-6.0","71","1","2025-07-02 10:19:01","80fe4187154257d5fb01684ea91b68b9","105.0.2.155","Mozilla/5.0 (Windows NT 10.0; Win64; x64) AppleWebKit/537.36 (KHTML, like Gecko) Chrome/137.0.0.0 Safari/537.36","WebKit","Chrome","137.0.0.0","Windows","10.0","https://app.prolific.com/","en-ZA,en-GB;q=0.9,en-US;q=0.8,en;q=0.7","60f7c71d1cffec381351b0b3","683db6dfa200031b80f2a654","686507667a727ce832886dd5","60f7c71d1cffec381351b0b3","2025-07-02T10:16:36.310Z","","","","","","","","","","","","","","","","","","","","","","","","","","","","","","","","","","","","","","","","","","","",""
"63640.200000000186","","","","survey-template","18","292607","0.0-7.0-7.0","71","1","2025-07-02 10:19:01","80fe4187154257d5fb01684ea91b68b9","105.0.2.155","Mozilla/5.0 (Windows NT 10.0; Win64; x64) AppleWebKit/537.36 (KHTML, like Gecko) Chrome/137.0.0.0 Safari/537.36","WebKit","Chrome","137.0.0.0","Windows","10.0","https://app.prolific.com/","en-ZA,en-GB;q=0.9,en-US;q=0.8,en;q=0.7","60f7c71d1cffec381351b0b3","683db6dfa200031b80f2a654","686507667a727ce832886dd5","60f7c71d1cffec381351b0b3","2025-07-02T10:17:39.965Z","","","","","","drsp","{""Q01"":""0"",""Q02"":""0"",""Q03"":""0"",""Q04"":""0"",""Q05"":""1"",""Q06"":""0"",""Q07"":""0"",""Q08"":""0"",""Q09"":""0"",""Q10"":""0"",""Q11"":""2"",""Q12"":""2"",""Q13"":""2"",""Q14"":""1"",""Q15"":""4"",""Q16"":""0"",""Q17"":""0"",""Q18"":""0"",""Q19"":""0"",""Q20"":""0"",""Q21"":""0""}","[0,1,2,3,4,5,6,7,8,9,10,11,12,13,14,15,16,17,18,19,20]","[""Q01"",""Q02"",""Q03"",""Q04"",""Q05"",""Q06"",""Q07"",""Q08"",""Q09"",""Q10"",""Q11"",""Q12"",""Q13"",""Q14"",""Q14"",""Q15"",""Q16"",""Q17"",""Q18"",""Q19"",""Q20"",""Q21""]","[6001.700000000186,7351.300000000745,8910.100000000559,10531.200000000186,12655.800000000745,15044.800000000745,17107.400000000373,22465.60000000056,23932.60000000056,25506.800000000745,28097.10000000056,30353.900000000373,33659.200000000186,38590.700000000186,43414.60000000056,45423.300000000745,47471.10000000056,50293.60000000056,53769,57870.60000000056,59755.10000000056,61376]","[]","[0,6001.700000000186,7351.300000000745,8910.100000000559,10531.200000000186,12655.800000000745,15044.800000000745,17107.400000000373,22465.60000000056,23932.60000000056,25506.800000000745,28097.10000000056,30353.900000000373,33659.200000000186,38590.700000000186,43414.60000000056,45423.300000000745,47471.10000000056,50293.60000000056,53769,57870.60000000056,59755.10000000056,61376,63625.700000000186]","0.7142857142857143","0.15","0","","","","","","","","","","","","","","","","","","","","","","","","","","","","",""
"15114.900000000373","","","","survey-template","19","307729","0.0-7.0-8.0","71","1","2025-07-02 10:19:01","80fe4187154257d5fb01684ea91b68b9","105.0.2.155","Mozilla/5.0 (Windows NT 10.0; Win64; x64) AppleWebKit/537.36 (KHTML, like Gecko) Chrome/137.0.0.0 Safari/537.36","WebKit","Chrome","137.0.0.0","Windows","10.0","https://app.prolific.com/","en-ZA,en-GB;q=0.9,en-US;q=0.8,en;q=0.7","60f7c71d1cffec381351b0b3","683db6dfa200031b80f2a654","686507667a727ce832886dd5","60f7c71d1cffec381351b0b3","2025-07-02T10:17:55.087Z","","","","","","stress","{""Q01"":""0"",""Q02"":""2"",""Q03"":""0""}","[0,1,2]","[""Q01"",""Q02"",""Q03""]","[6208.9000000003725,9427.700000000186,13212.300000000745]","[]","[6208.9000000003725,9427.700000000186,13212.300000000745,15112.400000000373]","0.6666666666666666","0","0","","","","","","","","","","","","","","","","","","","","","","","","","","","","",""
"149593","","","","instructions","20","457326","0.0-8.0-0.0","71","1","2025-07-02 10:19:01","80fe4187154257d5fb01684ea91b68b9","105.0.2.155","Mozilla/5.0 (Windows NT 10.0; Win64; x64) AppleWebKit/537.36 (KHTML, like Gecko) Chrome/137.0.0.0 Safari/537.36","WebKit","Chrome","137.0.0.0","Windows","10.0","https://app.prolific.com/","en-ZA,en-GB;q=0.9,en-US;q=0.8,en;q=0.7","60f7c71d1cffec381351b0b3","683db6dfa200031b80f2a654","686507667a727ce832886dd5","60f7c71d1cffec381351b0b3","","[{""page_index"":0,""viewing_time"":34986},{""page_index"":1,""viewing_time"":84395},{""page_index"":2,""viewing_time"":11517},{""page_index"":3,""viewing_time"":18694}]","","","","","","","","","","","","","","","","","","","","","","","","","","","","","","","","","","","","","","","","","","",""
"","","","","ctl-task-cpt","21","490314","0.0-8.0-1.0","71","1","2025-07-02 10:19:01","80fe4187154257d5fb01684ea91b68b9","105.0.2.155","Mozilla/5.0 (Windows NT 10.0; Win64; x64) AppleWebKit/537.36 (KHTML, like Gecko) Chrome/137.0.0.0 Safari/537.36","WebKit","Chrome","137.0.0.0","Windows","10.0","https://app.prolific.com/","en-ZA,en-GB;q=0.9,en-US;q=0.8,en;q=0.7","60f7c71d1cffec381351b0b3","683db6dfa200031b80f2a654","686507667a727ce832886dd5","60f7c71d1cffec381351b0b3","","","","","","","","","","","","","","","","","win-only","3","g1:SW,g2:NE","1","0","1","464412.3","5530.5","9540.4","29967.7","2","4","4","6","2","4","2","2","0","0.015151515151515152","4009.8","4000","1250","[""up"",""right""]","{""num_key_presses"":12,""num_perfect"":6,""num_errors"":2,""num_randdir"":0,""num_randdir_good_moves"":0,""num_whilered"":4,""num_whileblue"":0,""num_blue"":0,""num_good_moves"":6}","[293.22232142857143,294.12857142857143,2.5,293.22232142857143,294.12857142857143,103,293.22232142857143,294.12857142857143,203.4,293.22232142857143,294.12857142857143,309.9,293.22232142857143,294.12857142857143,430.7,293.22232142857143,294.12857142857143,533.4,293.22232142857143,294.12857142857143,641.7,293.22232142857143,294.12857142857143,742.1,293.22232142857143,294.12857142857143,844.3,293.22232142857143,294.12857142857143,959.4,293.22232142857143,294.12857142857143,1062.2,293.22232142857143,302.12857142857143,1190.2,289.22232142857143,312.12857142857143,1291.4,289.22232142857143,313.12857142857143,1403.7,288.22232142857143,314.12857142857143,1509.4,287.22232142857143,315.12857142857143,1610.3,285.22232142857143,322.12857142857143,1711.1,285.22232142857143,327.12857142857143,1813.4,285.22232142857143,327.12857142857143,1919.5,285.22232142857143,335.12857142857143,2092.5,285.22232142857143,352.12857142857143,2207.3,285.22232142857143,360.12857142857143,2313,285.22232142857143,364.12857142857143,2419.3,284.22232142857143,368.12857142857143,2531,284.22232142857143,371.12857142857143,2640.7,284.22232142857143,371.12857142857143,2741.9,281.22232142857143,366.12857142857143,2856.9,281.22232142857143,364.12857142857143,2957.9,280.22232142857143,362.12857142857143,3069.2,280.22232142857143,362.12857142857143,3174.2,280.22232142857143,361.12857142857143,3278.2,280.22232142857143,361.12857142857143,3386.2,280.22232142857143,360.12857142857143,3569.9,280.22232142857143,360.12857142857143,3672.2,279.22232142857143,360.12857142857143,3775.5,278.22232142857143,361.12857142857143,3877,278.22232142857143,361.12857142857143,3984]","[2022.3,2022.2,1000,0.1,1022.3,""smooth"",""up"",""up"",""good_move"",3324,1298.2,2748.3,2026.1,-1450.3,""error"",""-"",""-"",""no_move"",3581,254.5,2748.3,2026.1,-1193.4,""while_red"",""-"",""-"",""no_move"",3743,416.5,2748.3,2026.1,-1031.4,""while_red"",""-"",""-"",""no_move"",7648.5,4322.1,2372.7,4329.4,946.5,""smooth"",""up"",""up"",""good_move"",7809.7,151.5,2607.4,7658.3,-2455.9,""error"",""-"",""-"",""no_move"",7937.8,126.6,2607.4,7658.3,-2327.8,""while_red"",""-"",""-"",""no_move"",8077.4,266.1,2607.4,7658.3,-2188.3,""while_red"",""-"",""-"",""no_move"",11831,4019.7,2349.1,8811.9,670,""smooth"",""up"",""up"",""good_move"",14790.6,2954.6,2507.4,11836.3,447.1,""smooth"",""right"",""right"",""good_move"",17659.7,2867,2440.1,14792.9,426.8,""smooth"",""right"",""right"",""good_move"",20258.7,2596.7,2171.1,17662.2,425.4,""smooth"",""right"",""right"",""good_move""]","",""
"13839","","","","instructions","22","504155","0.0-8.0-2.0","71","1","2025-07-02 10:19:01","80fe4187154257d5fb01684ea91b68b9","105.0.2.155","Mozilla/5.0 (Windows NT 10.0; Win64; x64) AppleWebKit/537.36 (KHTML, like Gecko) Chrome/137.0.0.0 Safari/537.36","WebKit","Chrome","137.0.0.0","Windows","10.0","https://app.prolific.com/","en-ZA,en-GB;q=0.9,en-US;q=0.8,en;q=0.7","60f7c71d1cffec381351b0b3","683db6dfa200031b80f2a654","686507667a727ce832886dd5","60f7c71d1cffec381351b0b3","","[{""page_index"":0,""viewing_time"":13838}]","","","","","","","","","","","","","","","","","","","","","","","","","","","","","","","","","","","","","","","","","","",""
"","","","","ctl-task-cpt","23","537826","0.0-8.0-3.0","71","1","2025-07-02 10:19:01","80fe4187154257d5fb01684ea91b68b9","105.0.2.155","Mozilla/5.0 (Windows NT 10.0; Win64; x64) AppleWebKit/537.36 (KHTML, like Gecko) Chrome/137.0.0.0 Safari/537.36","WebKit","Chrome","137.0.0.0","Windows","10.0","https://app.prolific.com/","en-ZA,en-GB;q=0.9,en-US;q=0.8,en;q=0.7","60f7c71d1cffec381351b0b3","683db6dfa200031b80f2a654","686507667a727ce832886dd5","60f7c71d1cffec381351b0b3","","","","","","","","","","","","","","","","","win-only","3","g1:SW,g2:NE","0.35","0","3","511234.3","2823.3","6840.9","30643.8","2","4","8","6","1","2","-1","0","0","0","4017.3","4000","1865","[""down"",""left""]","{""num_key_presses"":9,""num_perfect"":3,""num_errors"":3,""num_randdir"":3,""num_randdir_good_moves"":3,""num_whilered"":0,""num_whileblue"":0,""num_blue"":0,""num_good_moves"":5}","[296.22232142857143,288.12857142857143,4.9,296.22232142857143,288.12857142857143,100.2,296.22232142857143,288.12857142857143,210.5,296.22232142857143,288.12857142857143,311.6,296.22232142857143,288.12857142857143,425.5,296.22232142857143,288.12857142857143,534.5,296.22232142857143,288.12857142857143,635.2,296.22232142857143,288.12857142857143,747.5,296.22232142857143,288.12857142857143,857.4,296.22232142857143,288.12857142857143,964.9,296.22232142857143,288.12857142857143,1098.6,296.22232142857143,288.12857142857143,1201.2,296.22232142857143,288.12857142857143,1307.9,296.22232142857143,288.12857142857143,1408,296.22232142857143,288.12857142857143,1513.1,296.22232142857143,288.12857142857143,1614.7,296.22232142857143,288.12857142857143,1731.7,296.22232142857143,288.12857142857143,1832,296.22232142857143,288.12857142857143,1946.6,296.22232142857143,288.12857142857143,2048.8,296.22232142857143,288.12857142857143,2199.8,296.22232142857143,288.12857142857143,2300.1,296.22232142857143,288.12857142857143,2408.3,296.22232142857143,288.12857142857143,2527.6,296.22232142857143,288.12857142857143,2633.3,296.22232142857143,288.12857142857143,2749.5,296.22232142857143,288.12857142857143,2857.5,296.22232142857143,288.12857142857143,2965.2,296.22232142857143,288.12857142857143,3067,296.22232142857143,288.12857142857143,3167.2,296.22232142857143,288.12857142857143,3276.5,296.22232142857143,288.12857142857143,3391.8,296.22232142857143,288.12857142857143,3494.4,296.22232142857143,288.12857142857143,3599.4,296.22232142857143,288.12857142857143,3708.1,296.22232142857143,288.12857142857143,3812.6,296.22232142857143,288.12857142857143,3915.8]","[1799.9,1799.9,1000,0,799.9,""smooth"",""up"",""up"",""bad_move"",3309.5,1503.8,2575.3,1805.7,-1071.5,""error"",""-"",""-"",""no_move"",4860,1548.9,2529.9,4313.5,-1983.4,""error"",""-"",""-"",""no_move"",8597,3736.6,2325.3,5874.1,397.7,""oops"",""up"",""left"",""good_move"",9523.7,925.9,2589.3,8597.8,-1663.4,""error"",""-"",""-"",""no_move"",14392.9,4869,2764.4,10526.5,1102,""oops"",""left"",""down"",""good_move"",17818.1,3424.5,2865.4,14393.6,559.1,""smooth"",""left"",""left"",""good_move"",20580.2,2759.7,2256.9,17820.5,502.8,""smooth"",""down"",""down"",""good_move"",23660.6,3065.2,2683.9,20595.6,381.2,""oops"",""down"",""down"",""good_move""]","",""
"143377","","","","instructions","24","681207","0.0-8.0-4.0","71","1","2025-07-02 10:19:01","80fe4187154257d5fb01684ea91b68b9","105.0.2.155","Mozilla/5.0 (Windows NT 10.0; Win64; x64) AppleWebKit/537.36 (KHTML, like Gecko) Chrome/137.0.0.0 Safari/537.36","WebKit","Chrome","137.0.0.0","Windows","10.0","https://app.prolific.com/","en-ZA,en-GB;q=0.9,en-US;q=0.8,en;q=0.7","60f7c71d1cffec381351b0b3","683db6dfa200031b80f2a654","686507667a727ce832886dd5","60f7c71d1cffec381351b0b3","","[{""page_index"":0,""viewing_time"":107295},{""page_index"":1,""viewing_time"":36081}]","","","","","","","","","","","","","","","","","","","","","","","","","","","","","","","","","","","","","","","","","","",""
"60799","","","{""green_ball"":[""Ball always moves in the direction I press""]}","survey-multi-select","25","742014","0.0-8.0-5.0-0.0","71","1","2025-07-02 10:19:01","80fe4187154257d5fb01684ea91b68b9","105.0.2.155","Mozilla/5.0 (Windows NT 10.0; Win64; x64) AppleWebKit/537.36 (KHTML, like Gecko) Chrome/137.0.0.0 Safari/537.36","WebKit","Chrome","137.0.0.0","Windows","10.0","https://app.prolific.com/","en-ZA,en-GB;q=0.9,en-US;q=0.8,en;q=0.7","60f7c71d1cffec381351b0b3","683db6dfa200031b80f2a654","686507667a727ce832886dd5","60f7c71d1cffec381351b0b3","","","[0]","","","","quiz","","","","","","","","","","","","","","","","","","","","","","","","","","","","","","","","","","","","","false",""
"3858","","<p align='center'><b>INCORRECT.</b> Usually the green ball moves in the indicated direction, but sometimes it shakes and moves randomly. </p>","0","html-button-response","26","745881","0.0-8.0-5.0-1.0","71","1","2025-07-02 10:19:01","80fe4187154257d5fb01684ea91b68b9","105.0.2.155","Mozilla/5.0 (Windows NT 10.0; Win64; x64) AppleWebKit/537.36 (KHTML, like Gecko) Chrome/137.0.0.0 Safari/537.36","WebKit","Chrome","137.0.0.0","Windows","10.0","https://app.prolific.com/","en-ZA,en-GB;q=0.9,en-US;q=0.8,en;q=0.7","60f7c71d1cffec381351b0b3","683db6dfa200031b80f2a654","686507667a727ce832886dd5","60f7c71d1cffec381351b0b3","","","","","","","","","","","","","","","","","","","","","","","","","","","","","","","","","","","","","","","","","","","","",""
"4658","","","{""green_ball"":[""Ball sometimes shakes and moves in a random direction""]}","survey-multi-select","27","750559","0.0-8.0-5.1-0.1","71","1","2025-07-02 10:19:01","80fe4187154257d5fb01684ea91b68b9","105.0.2.155","Mozilla/5.0 (Windows NT 10.0; Win64; x64) AppleWebKit/537.36 (KHTML, like Gecko) Chrome/137.0.0.0 Safari/537.36","WebKit","Chrome","137.0.0.0","Windows","10.0","https://app.prolific.com/","en-ZA,en-GB;q=0.9,en-US;q=0.8,en;q=0.7","60f7c71d1cffec381351b0b3","683db6dfa200031b80f2a654","686507667a727ce832886dd5","60f7c71d1cffec381351b0b3","","","[0]","","","","quiz","","","","","","","","","","","","","","","","","","","","","","","","","","","","","","","","","","","","","true",""
"2463","","<p align='center'><b>CORRECT!</b> Indeed, the green ball may sometimes shake and move in a random direction.</p>","0","html-button-response","28","753025","0.0-8.0-5.1-1.1","71","1","2025-07-02 10:19:01","80fe4187154257d5fb01684ea91b68b9","105.0.2.155","Mozilla/5.0 (Windows NT 10.0; Win64; x64) AppleWebKit/537.36 (KHTML, like Gecko) Chrome/137.0.0.0 Safari/537.36","WebKit","Chrome","137.0.0.0","Windows","10.0","https://app.prolific.com/","en-ZA,en-GB;q=0.9,en-US;q=0.8,en;q=0.7","60f7c71d1cffec381351b0b3","683db6dfa200031b80f2a654","686507667a727ce832886dd5","60f7c71d1cffec381351b0b3","","","","","","","","","","","","","","","","","","","","","","","","","","","","","","","","","","","","","","","","","","","","",""
"6905","","","{""yellow_ball"":[""Ball doesn‘t move and I get -1 penalty point""]}","survey-multi-select","29","759938","0.0-8.0-6.0-0.0","71","1","2025-07-02 10:19:01","80fe4187154257d5fb01684ea91b68b9","105.0.2.155","Mozilla/5.0 (Windows NT 10.0; Win64; x64) AppleWebKit/537.36 (KHTML, like Gecko) Chrome/137.0.0.0 Safari/537.36","WebKit","Chrome","137.0.0.0","Windows","10.0","https://app.prolific.com/","en-ZA,en-GB;q=0.9,en-US;q=0.8,en;q=0.7","60f7c71d1cffec381351b0b3","683db6dfa200031b80f2a654","686507667a727ce832886dd5","60f7c71d1cffec381351b0b3","","","[0]","","","","quiz","","","","","","","","","","","","","","","","","","","","","","","","","","","","","","","","","","","","","true",""
"1910","","<p align='center'><b>CORRECT!</b> Indeed, the yellow ball never moves and you receive a penalty.</p>","0","html-button-response","30","761852","0.0-8.0-6.0-1.0","71","1","2025-07-02 10:19:01","80fe4187154257d5fb01684ea91b68b9","105.0.2.155","Mozilla/5.0 (Windows NT 10.0; Win64; x64) AppleWebKit/537.36 (KHTML, like Gecko) Chrome/137.0.0.0 Safari/537.36","WebKit","Chrome","137.0.0.0","Windows","10.0","https://app.prolific.com/","en-ZA,en-GB;q=0.9,en-US;q=0.8,en;q=0.7","60f7c71d1cffec381351b0b3","683db6dfa200031b80f2a654","686507667a727ce832886dd5","60f7c71d1cffec381351b0b3","","","","","","","","","","","","","","","","","","","","","","","","","","","","","","","","","","","","","","","","","","","","",""
"5902","","","{""blue_ball"":[""Ball doesn‘t move and I get -1 penalty point""]}","survey-multi-select","31","767763","0.0-8.0-7.0-0.0","71","1","2025-07-02 10:19:01","80fe4187154257d5fb01684ea91b68b9","105.0.2.155","Mozilla/5.0 (Windows NT 10.0; Win64; x64) AppleWebKit/537.36 (KHTML, like Gecko) Chrome/137.0.0.0 Safari/537.36","WebKit","Chrome","137.0.0.0","Windows","10.0","https://app.prolific.com/","en-ZA,en-GB;q=0.9,en-US;q=0.8,en;q=0.7","60f7c71d1cffec381351b0b3","683db6dfa200031b80f2a654","686507667a727ce832886dd5","60f7c71d1cffec381351b0b3","","","[0]","","","","quiz","","","","","","","","","","","","","","","","","","","","","","","","","","","","","","","","","","","","","false",""
"1738","","<p align='center'><b>INCORRECT.</b> The blue ball always shakes and moves randomly.</p>","0","html-button-response","32","769518","0.0-8.0-7.0-1.0","71","1","2025-07-02 10:19:01","80fe4187154257d5fb01684ea91b68b9","105.0.2.155","Mozilla/5.0 (Windows NT 10.0; Win64; x64) AppleWebKit/537.36 (KHTML, like Gecko) Chrome/137.0.0.0 Safari/537.36","WebKit","Chrome","137.0.0.0","Windows","10.0","https://app.prolific.com/","en-ZA,en-GB;q=0.9,en-US;q=0.8,en;q=0.7","60f7c71d1cffec381351b0b3","683db6dfa200031b80f2a654","686507667a727ce832886dd5","60f7c71d1cffec381351b0b3","","","","","","","","","","","","","","","","","","","","","","","","","","","","","","","","","","","","","","","","","","","","",""
"2355","","","{""blue_ball"":[""Ball sometimes shakes and moves in a random direction""]}","survey-multi-select","33","771886","0.0-8.0-7.1-0.1","71","1","2025-07-02 10:19:01","80fe4187154257d5fb01684ea91b68b9","105.0.2.155","Mozilla/5.0 (Windows NT 10.0; Win64; x64) AppleWebKit/537.36 (KHTML, like Gecko) Chrome/137.0.0.0 Safari/537.36","WebKit","Chrome","137.0.0.0","Windows","10.0","https://app.prolific.com/","en-ZA,en-GB;q=0.9,en-US;q=0.8,en;q=0.7","60f7c71d1cffec381351b0b3","683db6dfa200031b80f2a654","686507667a727ce832886dd5","60f7c71d1cffec381351b0b3","","","[0]","","","","quiz","","","","","","","","","","","","","","","","","","","","","","","","","","","","","","","","","","","","","false",""
"1662","","<p align='center'><b>INCORRECT.</b> The blue ball always shakes and moves randomly.</p>","0","html-button-response","34","773551","0.0-8.0-7.1-1.1","71","1","2025-07-02 10:19:01","80fe4187154257d5fb01684ea91b68b9","105.0.2.155","Mozilla/5.0 (Windows NT 10.0; Win64; x64) AppleWebKit/537.36 (KHTML, like Gecko) Chrome/137.0.0.0 Safari/537.36","WebKit","Chrome","137.0.0.0","Windows","10.0","https://app.prolific.com/","en-ZA,en-GB;q=0.9,en-US;q=0.8,en;q=0.7","60f7c71d1cffec381351b0b3","683db6dfa200031b80f2a654","686507667a727ce832886dd5","60f7c71d1cffec381351b0b3","","","","","","","","","","","","","","","","","","","","","","","","","","","","","","","","","","","","","","","","","","","","",""
"5326","","","{""blue_ball"":[""Ball always shakes and moves in a random direction""]}","survey-multi-select","35","778883","0.0-8.0-7.2-0.2","71","1","2025-07-02 10:19:01","80fe4187154257d5fb01684ea91b68b9","105.0.2.155","Mozilla/5.0 (Windows NT 10.0; Win64; x64) AppleWebKit/537.36 (KHTML, like Gecko) Chrome/137.0.0.0 Safari/537.36","WebKit","Chrome","137.0.0.0","Windows","10.0","https://app.prolific.com/","en-ZA,en-GB;q=0.9,en-US;q=0.8,en;q=0.7","60f7c71d1cffec381351b0b3","683db6dfa200031b80f2a654","686507667a727ce832886dd5","60f7c71d1cffec381351b0b3","","","[0]","","","","quiz","","","","","","","","","","","","","","","","","","","","","","","","","","","","","","","","","","","","","true",""
"2241","","<p align='center'><b>CORRECT!</b> Indeed, the blue ball always shakes and moves in a random direction. Also there is a penalty of -1 point.</p>","0","html-button-response","36","781130","0.0-8.0-7.2-1.2","71","1","2025-07-02 10:19:01","80fe4187154257d5fb01684ea91b68b9","105.0.2.155","Mozilla/5.0 (Windows NT 10.0; Win64; x64) AppleWebKit/537.36 (KHTML, like Gecko) Chrome/137.0.0.0 Safari/537.36","WebKit","Chrome","137.0.0.0","Windows","10.0","https://app.prolific.com/","en-ZA,en-GB;q=0.9,en-US;q=0.8,en;q=0.7","60f7c71d1cffec381351b0b3","683db6dfa200031b80f2a654","686507667a727ce832886dd5","60f7c71d1cffec381351b0b3","","","","","","","","","","","","","","","","","","","","","","","","","","","","","","","","","","","","","","","","","","","","",""
"4088","","","{""bonus"":[""When I reach 50% of points""]}","survey-multi-select","37","785225","0.0-8.0-8.0-0.0","71","1","2025-07-02 10:19:01","80fe4187154257d5fb01684ea91b68b9","105.0.2.155","Mozilla/5.0 (Windows NT 10.0; Win64; x64) AppleWebKit/537.36 (KHTML, like Gecko) Chrome/137.0.0.0 Safari/537.36","WebKit","Chrome","137.0.0.0","Windows","10.0","https://app.prolific.com/","en-ZA,en-GB;q=0.9,en-US;q=0.8,en;q=0.7","60f7c71d1cffec381351b0b3","683db6dfa200031b80f2a654","686507667a727ce832886dd5","60f7c71d1cffec381351b0b3","","","[0]","","","","quiz","","","","","","","","","","","","","","","","","","","","","","","","","","","","","","","","","","","","","true",""
"1787","","<p align='center'><b>CORRECT!</b> Indeed, you receive 2 pounds extra when you reach 50% of points.</p>","0","html-button-response","38","787020","0.0-8.0-8.0-1.0","71","1","2025-07-02 10:19:01","80fe4187154257d5fb01684ea91b68b9","105.0.2.155","Mozilla/5.0 (Windows NT 10.0; Win64; x64) AppleWebKit/537.36 (KHTML, like Gecko) Chrome/137.0.0.0 Safari/537.36","WebKit","Chrome","137.0.0.0","Windows","10.0","https://app.prolific.com/","en-ZA,en-GB;q=0.9,en-US;q=0.8,en;q=0.7","60f7c71d1cffec381351b0b3","683db6dfa200031b80f2a654","686507667a727ce832886dd5","60f7c71d1cffec381351b0b3","","","","","","","","","","","","","","","","","","","","","","","","","","","","","","","","","","","","","","","","","","","","",""
"3801","","","","instructions","39","790825","0.0-8.0-9.0","71","1","2025-07-02 10:19:01","80fe4187154257d5fb01684ea91b68b9","105.0.2.155","Mozilla/5.0 (Windows NT 10.0; Win64; x64) AppleWebKit/537.36 (KHTML, like Gecko) Chrome/137.0.0.0 Safari/537.36","WebKit","Chrome","137.0.0.0","Windows","10.0","https://app.prolific.com/","en-ZA,en-GB;q=0.9,en-US;q=0.8,en;q=0.7","60f7c71d1cffec381351b0b3","683db6dfa200031b80f2a654","686507667a727ce832886dd5","60f7c71d1cffec381351b0b3","","[{""page_index"":0,""viewing_time"":3800}]","","","","","","","","","","","","","","","","","","","","","","","","","","","","","","","","","","","","","","","","","","",""
"6096","","<p>Before you start with this game please answer the following three questions yourself. </p>
  <p>Through this game, we measure several aspects of your cognitive performance, such as reaction times, multi-tasking capabilities </p>
  <p>and the ability to assess the situation you are in.</p>
  <p></p>
  <p><b>How good do you usually are in such tasks?</b></p>","32","html-slider-response","40","796928","0.0-9.0-0.0","71","1","2025-07-02 10:19:01","80fe4187154257d5fb01684ea91b68b9","105.0.2.155","Mozilla/5.0 (Windows NT 10.0; Win64; x64) AppleWebKit/537.36 (KHTML, like Gecko) Chrome/137.0.0.0 Safari/537.36","WebKit","Chrome","137.0.0.0","Windows","10.0","https://app.prolific.com/","en-ZA,en-GB;q=0.9,en-US;q=0.8,en;q=0.7","60f7c71d1cffec381351b0b3","683db6dfa200031b80f2a654","686507667a727ce832886dd5","60f7c71d1cffec381351b0b3","2025-07-02T10:26:04.287Z","","","","","","PreSkillQ","","","","","","","","","","","","","","","","","","","","","","","","","","","","","","","","","","","","","","50"
"6046","","<div style=""width:500px;"">
  <p>How well do you think you will perform in this task compared to other participants?</p>
  </div>","58","html-slider-response","41","802983","0.0-9.0-1.0","71","1","2025-07-02 10:19:01","80fe4187154257d5fb01684ea91b68b9","105.0.2.155","Mozilla/5.0 (Windows NT 10.0; Win64; x64) AppleWebKit/537.36 (KHTML, like Gecko) Chrome/137.0.0.0 Safari/537.36","WebKit","Chrome","137.0.0.0","Windows","10.0","https://app.prolific.com/","en-ZA,en-GB;q=0.9,en-US;q=0.8,en;q=0.7","60f7c71d1cffec381351b0b3","683db6dfa200031b80f2a654","686507667a727ce832886dd5","60f7c71d1cffec381351b0b3","2025-07-02T10:26:10.341Z","","","","","","PrePerfQ","","","","","","","","","","","","","","","","","","","","","","","","","","","","","","","","","","","","","","50"
"4357","","<div style=""width:500px;"">
  <p>What best describes how you currently feel?</p>
  </div>","87","html-slider-response","42","807344","0.0-9.0-2.0","71","1","2025-07-02 10:19:01","80fe4187154257d5fb01684ea91b68b9","105.0.2.155","Mozilla/5.0 (Windows NT 10.0; Win64; x64) AppleWebKit/537.36 (KHTML, like Gecko) Chrome/137.0.0.0 Safari/537.36","WebKit","Chrome","137.0.0.0","Windows","10.0","https://app.prolific.com/","en-ZA,en-GB;q=0.9,en-US;q=0.8,en;q=0.7","60f7c71d1cffec381351b0b3","683db6dfa200031b80f2a654","686507667a727ce832886dd5","60f7c71d1cffec381351b0b3","2025-07-02T10:26:14.702Z","","","","","","PreMotivationQ","","","","","","","","","","","","","","","","","","","","","","","","","","","","","","","","","","","","","","50"
"","","","","ctl-task-cpt","43","848754","0.0-10.0-0.0","71","1","2025-07-02 10:19:01","80fe4187154257d5fb01684ea91b68b9","105.0.2.155","Mozilla/5.0 (Windows NT 10.0; Win64; x64) AppleWebKit/537.36 (KHTML, like Gecko) Chrome/137.0.0.0 Safari/537.36","WebKit","Chrome","137.0.0.0","Windows","10.0","https://app.prolific.com/","en-ZA,en-GB;q=0.9,en-US;q=0.8,en;q=0.7","60f7c71d1cffec381351b0b3","683db6dfa200031b80f2a654","686507667a727ce832886dd5","60f7c71d1cffec381351b0b3","2025-07-02T10:26:56.112Z","","","","","","","","","","","","","","","","win-only","2","g1:SE,g2:NW","1","1","0","814428.6","3621.7","8641.7","38373.8","1","4","8","6","1","-1","-3","0","0","0","5020","3000","-1670","[""down"",""right""]","{""num_key_presses"":8,""num_perfect"":6,""num_errors"":2,""num_randdir"":0,""num_randdir_good_moves"":0,""num_whilered"":0,""num_whileblue"":1,""num_blue"":2,""num_good_moves"":1}","[294.22232142857143,297.12857142857143,4.5,294.22232142857143,297.12857142857143,101.5,294.22232142857143,297.12857142857143,206.1,294.22232142857143,297.12857142857143,310.2,294.22232142857143,297.12857142857143,412.5,294.22232142857143,297.12857142857143,517,294.22232142857143,297.12857142857143,626.5,294.22232142857143,297.12857142857143,734.1,294.22232142857143,297.12857142857143,839,294.22232142857143,297.12857142857143,990.9,294.22232142857143,297.12857142857143,1093.1,294.22232142857143,297.12857142857143,1205.8,294.22232142857143,297.12857142857143,1313.6,294.22232142857143,297.12857142857143,1419.9,294.22232142857143,297.12857142857143,1521.8,294.22232142857143,297.12857142857143,1631.9,294.22232142857143,297.12857142857143,1735.8,294.22232142857143,297.12857142857143,1838.7,294.22232142857143,297.12857142857143,1940.4,294.22232142857143,297.12857142857143,2052.4,294.22232142857143,297.12857142857143,2163.9,294.22232142857143,297.12857142857143,2270.9,294.22232142857143,297.12857142857143,2375.1,294.22232142857143,297.12857142857143,2476.4,294.22232142857143,297.12857142857143,2586,294.22232142857143,297.12857142857143,2690.1,294.22232142857143,297.12857142857143,2794.3,294.22232142857143,297.12857142857143,2900.2,294.22232142857143,297.12857142857143,3003.7,294.22232142857143,297.12857142857143,3105.7,294.22232142857143,297.12857142857143,3206.8,294.22232142857143,297.12857142857143,3309.5,294.22232142857143,297.12857142857143,3410.1,294.22232142857143,297.12857142857143,3519,294.22232142857143,297.12857142857143,3625.1,294.22232142857143,297.12857142857143,3728.8,294.22232142857143,297.12857142857143,3830,294.22232142857143,297.12857142857143,3936.3,294.22232142857143,297.12857142857143,4038.3,294.22232142857143,297.12857142857143,4143.6,294.22232142857143,297.12857142857143,4251.7,294.22232142857143,297.12857142857143,4357.4,185.22232142857143,90.12857142857143,4460,111.22232142857143,-74.87142857142857,4565.9,111.22232142857143,-74.87142857142857,4668,111.22232142857143,-74.87142857142857,4776.7,111.22232142857143,-74.87142857142857,4883.5,88.22232142857143,1.1285714285714263,4987.9]","[1935.2,1935.2,1000,0,935.3,""smooth"",""left"",""left"",""bad_move"",2575.2,637.5,2836.8,1937.9,-2199.5,""error"",""-"",""-"",""no_move"",6054.6,3477.5,2050,3593,411.6,""smooth"",""left"",""left"",""bad_move"",9359.7,3304.9,2774.7,6054.8,530.2,""while_blue"",""left"",""left"",""bad_move"",16525,7162.5,3447.8,12532.8,544.4,""smooth"",""up"",""up"",""bad_move"",20234.2,3705.9,2837.7,16528.4,868.2,""smooth"",""up"",""up"",""bad_move"",23287.6,3045.2,2223.3,20242.5,821.8,""smooth"",""up"",""up"",""bad_move"",27452.6,4161.4,1870.1,23291.2,2291.3,""smooth"",""right"",""right"",""good_move""]","",""
"7175","","<div style=""width:500px;"">
  <p>What determined the result of this run?</p>
  </div>","79","html-slider-response","44","855939","0.0-10.0-1.0","71","1","2025-07-02 10:19:01","80fe4187154257d5fb01684ea91b68b9","105.0.2.155","Mozilla/5.0 (Windows NT 10.0; Win64; x64) AppleWebKit/537.36 (KHTML, like Gecko) Chrome/137.0.0.0 Safari/537.36","WebKit","Chrome","137.0.0.0","Windows","10.0","https://app.prolific.com/","en-ZA,en-GB;q=0.9,en-US;q=0.8,en;q=0.7","60f7c71d1cffec381351b0b3","683db6dfa200031b80f2a654","686507667a727ce832886dd5","60f7c71d1cffec381351b0b3","2025-07-02T10:27:03.297Z","","","","","","AttribQ","","","","","","","","","","","","","","","","","","","","","","","","","","","","","","","","","","","","","","50"
"4027","","<div style=""width:500px;"">
  <p>How much control did you have over the ball?</p>
  </div>","96","html-slider-response","45","859973","0.0-10.0-2.0","71","1","2025-07-02 10:19:01","80fe4187154257d5fb01684ea91b68b9","105.0.2.155","Mozilla/5.0 (Windows NT 10.0; Win64; x64) AppleWebKit/537.36 (KHTML, like Gecko) Chrome/137.0.0.0 Safari/537.36","WebKit","Chrome","137.0.0.0","Windows","10.0","https://app.prolific.com/","en-ZA,en-GB;q=0.9,en-US;q=0.8,en;q=0.7","60f7c71d1cffec381351b0b3","683db6dfa200031b80f2a654","686507667a727ce832886dd5","60f7c71d1cffec381351b0b3","2025-07-02T10:27:07.331Z","","","","","","ControlQ","","","","","","","","","","","","","","","","","","","","","","","","","","","","","","","","","","","","","","50"
"4901","","<div style=""width:500px;"">
  <p>How would you describe your current emotional state?</p>
  </div>","23","html-slider-response","46","864881","0.0-10.0-3.0","71","1","2025-07-02 10:19:01","80fe4187154257d5fb01684ea91b68b9","105.0.2.155","Mozilla/5.0 (Windows NT 10.0; Win64; x64) AppleWebKit/537.36 (KHTML, like Gecko) Chrome/137.0.0.0 Safari/537.36","WebKit","Chrome","137.0.0.0","Windows","10.0","https://app.prolific.com/","en-ZA,en-GB;q=0.9,en-US;q=0.8,en;q=0.7","60f7c71d1cffec381351b0b3","683db6dfa200031b80f2a654","686507667a727ce832886dd5","60f7c71d1cffec381351b0b3","2025-07-02T10:27:12.240Z","","","","","","StressQ","","","","","","","","","","","","","","","","","","","","","","","","","","","","","","","","","","","","","","50"
"4118","","<div style=""width:500px;"">
  <p>What best describes how you currently feel?</p>
  </div>","71","html-slider-response","47","869013","0.0-10.0-4.0","71","1","2025-07-02 10:19:01","80fe4187154257d5fb01684ea91b68b9","105.0.2.155","Mozilla/5.0 (Windows NT 10.0; Win64; x64) AppleWebKit/537.36 (KHTML, like Gecko) Chrome/137.0.0.0 Safari/537.36","WebKit","Chrome","137.0.0.0","Windows","10.0","https://app.prolific.com/","en-ZA,en-GB;q=0.9,en-US;q=0.8,en;q=0.7","60f7c71d1cffec381351b0b3","683db6dfa200031b80f2a654","686507667a727ce832886dd5","60f7c71d1cffec381351b0b3","2025-07-02T10:27:16.371Z","","","","","","MotivationQ","","","","","","","","","","","","","","","","","","","","","","","","","","","","","","","","","","","","","","50"
"","","","","ctl-task-cpt","48","891539","0.0-10.0-0.1","71","1","2025-07-02 10:19:01","80fe4187154257d5fb01684ea91b68b9","105.0.2.155","Mozilla/5.0 (Windows NT 10.0; Win64; x64) AppleWebKit/537.36 (KHTML, like Gecko) Chrome/137.0.0.0 Safari/537.36","WebKit","Chrome","137.0.0.0","Windows","10.0","https://app.prolific.com/","en-ZA,en-GB;q=0.9,en-US;q=0.8,en;q=0.7","60f7c71d1cffec381351b0b3","683db6dfa200031b80f2a654","686507667a727ce832886dd5","60f7c71d1cffec381351b0b3","2025-07-02T10:27:38.898Z","","","","","","","","","","","","","","","","win-only","3","g1:SW,g2:NE","0.9","2","0","876105.6","1987.1","6995.5","19447","1","4","4","6","1","1","0","0","0","0","5008.4","3000","2240","[""down"",""left""]","{""num_key_presses"":5,""num_perfect"":4,""num_errors"":1,""num_randdir"":0,""num_randdir_good_moves"":0,""num_whilered"":0,""num_whileblue"":0,""num_blue"":0,""num_good_moves"":4}","[298.22232142857143,292.12857142857143,5.6,298.22232142857143,292.12857142857143,100.2,298.22232142857143,292.12857142857143,200.7,298.22232142857143,292.12857142857143,309.3,298.22232142857143,292.12857142857143,409.9,298.22232142857143,292.12857142857143,516.4,298.22232142857143,292.12857142857143,620.3,298.22232142857143,292.12857142857143,725.2,298.22232142857143,292.12857142857143,835.7,298.22232142857143,292.12857142857143,941.3,298.22232142857143,292.12857142857143,1045.3,298.22232142857143,292.12857142857143,1156.7,298.22232142857143,292.12857142857143,1282.6,298.22232142857143,292.12857142857143,1389.6,298.22232142857143,292.12857142857143,1502.1,298.22232142857143,292.12857142857143,1611.3,298.22232142857143,292.12857142857143,1723.6,298.22232142857143,292.12857142857143,1829.3,298.22232142857143,292.12857142857143,1933,298.22232142857143,292.12857142857143,2040.2,298.22232142857143,292.12857142857143,2141.9,298.22232142857143,292.12857142857143,2243.8,298.22232142857143,292.12857142857143,2348.2,298.22232142857143,292.12857142857143,2457.6,298.22232142857143,292.12857142857143,2559.9,298.22232142857143,292.12857142857143,2681.9,298.22232142857143,292.12857142857143,2791.3,298.22232142857143,292.12857142857143,2891.8,298.22232142857143,292.12857142857143,2998.7,298.22232142857143,292.12857142857143,3103.1,298.22232142857143,292.12857142857143,3211.1,298.22232142857143,292.12857142857143,3320.6,298.22232142857143,292.12857142857143,3427.8,298.22232142857143,292.12857142857143,3532,298.22232142857143,292.12857142857143,3634.8,298.22232142857143,292.12857142857143,3735.2,298.22232142857143,292.12857142857143,3845.3,298.22232142857143,292.12857142857143,3954.4,298.22232142857143,292.12857142857143,4056.2,298.22232142857143,292.12857142857143,4163.3,298.22232142857143,292.12857142857143,4265.4,298.22232142857143,292.12857142857143,4373.1,298.22232142857143,292.12857142857143,4477.1,298.22232142857143,292.12857142857143,4582.7,298.22232142857143,292.12857142857143,4683.1,298.22232142857143,292.12857142857143,4792.9,298.22232142857143,292.12857142857143,4893.9]","[441.3,441.4,1000,0,-558.6,""error"",""-"",""-"",""no_move"",3897.8,3455,1941.7,1449.5,506.7,""smooth"",""left"",""left"",""good_move"",6606.8,2705.9,1680.2,3901,1025.6,""smooth"",""left"",""left"",""good_move"",9346.8,2739.8,1842.5,6607,897.3,""smooth"",""down"",""down"",""good_move"",12053.5,2706,2258.2,9347.5,447.8,""smooth"",""down"",""down"",""good_move""]","",""
"3779","","<div style=""width:500px;"">
  <p>What determined the result of this run?</p>
  </div>","87","html-slider-response","49","895325","0.0-10.0-1.1","71","1","2025-07-02 10:19:01","80fe4187154257d5fb01684ea91b68b9","105.0.2.155","Mozilla/5.0 (Windows NT 10.0; Win64; x64) AppleWebKit/537.36 (KHTML, like Gecko) Chrome/137.0.0.0 Safari/537.36","WebKit","Chrome","137.0.0.0","Windows","10.0","https://app.prolific.com/","en-ZA,en-GB;q=0.9,en-US;q=0.8,en;q=0.7","60f7c71d1cffec381351b0b3","683db6dfa200031b80f2a654","686507667a727ce832886dd5","60f7c71d1cffec381351b0b3","2025-07-02T10:27:42.683Z","","","","","","AttribQ","","","","","","","","","","","","","","","","","","","","","","","","","","","","","","","","","","","","","","50"
"3461","","<div style=""width:500px;"">
  <p>How much control did you have over the ball?</p>
  </div>","92","html-slider-response","50","898794","0.0-10.0-2.1","71","1","2025-07-02 10:19:01","80fe4187154257d5fb01684ea91b68b9","105.0.2.155","Mozilla/5.0 (Windows NT 10.0; Win64; x64) AppleWebKit/537.36 (KHTML, like Gecko) Chrome/137.0.0.0 Safari/537.36","WebKit","Chrome","137.0.0.0","Windows","10.0","https://app.prolific.com/","en-ZA,en-GB;q=0.9,en-US;q=0.8,en;q=0.7","60f7c71d1cffec381351b0b3","683db6dfa200031b80f2a654","686507667a727ce832886dd5","60f7c71d1cffec381351b0b3","2025-07-02T10:27:46.152Z","","","","","","ControlQ","","","","","","","","","","","","","","","","","","","","","","","","","","","","","","","","","","","","","","50"
"5702","","<div style=""width:500px;"">
  <p>How would you describe your current emotional state?</p>
  </div>","13","html-slider-response","51","904503","0.0-10.0-3.1","71","1","2025-07-02 10:19:01","80fe4187154257d5fb01684ea91b68b9","105.0.2.155","Mozilla/5.0 (Windows NT 10.0; Win64; x64) AppleWebKit/537.36 (KHTML, like Gecko) Chrome/137.0.0.0 Safari/537.36","WebKit","Chrome","137.0.0.0","Windows","10.0","https://app.prolific.com/","en-ZA,en-GB;q=0.9,en-US;q=0.8,en;q=0.7","60f7c71d1cffec381351b0b3","683db6dfa200031b80f2a654","686507667a727ce832886dd5","60f7c71d1cffec381351b0b3","2025-07-02T10:27:51.861Z","","","","","","StressQ","","","","","","","","","","","","","","","","","","","","","","","","","","","","","","","","","","","","","","50"
"3124","","<div style=""width:500px;"">
  <p>What best describes how you currently feel?</p>
  </div>","78","html-slider-response","52","907634","0.0-10.0-4.1","71","1","2025-07-02 10:19:01","80fe4187154257d5fb01684ea91b68b9","105.0.2.155","Mozilla/5.0 (Windows NT 10.0; Win64; x64) AppleWebKit/537.36 (KHTML, like Gecko) Chrome/137.0.0.0 Safari/537.36","WebKit","Chrome","137.0.0.0","Windows","10.0","https://app.prolific.com/","en-ZA,en-GB;q=0.9,en-US;q=0.8,en;q=0.7","60f7c71d1cffec381351b0b3","683db6dfa200031b80f2a654","686507667a727ce832886dd5","60f7c71d1cffec381351b0b3","2025-07-02T10:27:54.992Z","","","","","","MotivationQ","","","","","","","","","","","","","","","","","","","","","","","","","","","","","","","","","","","","","","50"
"","","","","ctl-task-cpt","53","945923","0.0-10.0-0.2","71","1","2025-07-02 10:19:01","80fe4187154257d5fb01684ea91b68b9","105.0.2.155","Mozilla/5.0 (Windows NT 10.0; Win64; x64) AppleWebKit/537.36 (KHTML, like Gecko) Chrome/137.0.0.0 Safari/537.36","WebKit","Chrome","137.0.0.0","Windows","10.0","https://app.prolific.com/","en-ZA,en-GB;q=0.9,en-US;q=0.8,en;q=0.7","60f7c71d1cffec381351b0b3","683db6dfa200031b80f2a654","686507667a727ce832886dd5","60f7c71d1cffec381351b0b3","2025-07-02T10:28:33.281Z","","","","","","","","","","","","","","","","win-only","1","g1:NE,g2:SW","0.8","3","0","914715.1","2664","7684.8","35255.8","1","4","4","6","2","4","4","4","0","0.030303030303030304","2184.2","3000","1980","[""down"",""left""]","{""num_key_presses"":6,""num_perfect"":6,""num_errors"":0,""num_randdir"":0,""num_randdir_good_moves"":0,""num_whilered"":0,""num_whileblue"":0,""num_blue"":2,""num_good_moves"":6}","[298.22232142857143,296.12857142857143,3,298.22232142857143,296.12857142857143,111.7,298.22232142857143,296.12857142857143,235.7,298.22232142857143,296.12857142857143,342.4,323.22232142857143,252.12857142857143,463.3,426.22232142857143,147.12857142857143,582.5,447.22232142857143,134.12857142857143,688.1,402.22232142857143,200.12857142857143,802.8,334.22232142857143,279.12857142857143,922.1,317.22232142857143,319.12857142857143,1042.2,317.22232142857143,323.12857142857143,1161.5,317.22232142857143,323.12857142857143,1277.6,304.22232142857143,331.12857142857143,1381.8,211.22232142857143,365.12857142857143,1481.9,100.22232142857143,414.12857142857143,1603.5,82.22232142857143,448.12857142857143,1710.6,56.222321428571426,495.12857142857143,1813.8,35.222321428571426,524.1285714285714,1925,35.222321428571426,524.1285714285714,2030.1,35.222321428571426,524.1285714285714,2140.8,35.222321428571426,524.1285714285714,2242.9,35.222321428571426,524.1285714285714,2377.5,35.222321428571426,524.1285714285714,2486.3,35.222321428571426,524.1285714285714,2605.4,35.222321428571426,524.1285714285714,2711.2,35.222321428571426,524.1285714285714,2818,35.222321428571426,524.1285714285714,2929.8,43.222321428571426,517.1285714285714,3033.4,52.222321428571426,512.1285714285714,3142.7,65.22232142857143,501.12857142857143,3279.7,100.22232142857143,470.12857142857143,3386.3,152.22232142857143,434.12857142857143,3503.2,193.22232142857143,408.12857142857143,3604.3,243.22232142857143,374.12857142857143,3714,243.22232142857143,373.12857142857143,3833.5,243.22232142857143,373.12857142857143,3935.5,243.22232142857143,373.12857142857143,4050.5,243.22232142857143,373.12857142857143,4178,243.22232142857143,373.12857142857143,4301.3,243.22232142857143,373.12857142857143,4444.1,243.22232142857143,373.12857142857143,4560.2,243.22232142857143,373.12857142857143,4678,243.22232142857143,373.12857142857143,4809.8,243.22232142857143,373.12857142857143,4964.9]","[2348,2348,1000,0,1348,""smooth"",""left"",""left"",""good_move"",10791.8,8438.2,3093.7,7257.2,440.9,""smooth"",""left"",""left"",""good_move"",14795.3,3999.3,3536.4,10796.1,463,""smooth"",""left"",""left"",""good_move"",21603.9,6804.2,2677.2,18418.6,508.1,""smooth"",""down"",""down"",""good_move"",24471.2,2865.8,2169.9,21605.4,695.9,""smooth"",""down"",""down"",""good_move"",27117.4,2641.9,2179.8,24475.5,462.1,""smooth"",""down"",""down"",""good_move""]","",""
"3738","","<div style=""width:500px;"">
  <p>What determined the result of this run?</p>
  </div>","90","html-slider-response","54","949665","0.0-10.0-1.2","71","1","2025-07-02 10:19:01","80fe4187154257d5fb01684ea91b68b9","105.0.2.155","Mozilla/5.0 (Windows NT 10.0; Win64; x64) AppleWebKit/537.36 (KHTML, like Gecko) Chrome/137.0.0.0 Safari/537.36","WebKit","Chrome","137.0.0.0","Windows","10.0","https://app.prolific.com/","en-ZA,en-GB;q=0.9,en-US;q=0.8,en;q=0.7","60f7c71d1cffec381351b0b3","683db6dfa200031b80f2a654","686507667a727ce832886dd5","60f7c71d1cffec381351b0b3","2025-07-02T10:28:37.024Z","","","","","","AttribQ","","","","","","","","","","","","","","","","","","","","","","","","","","","","","","","","","","","","","","50"
"3581","","<div style=""width:500px;"">
  <p>How much control did you have over the ball?</p>
  </div>","98","html-slider-response","55","953259","0.0-10.0-2.2","71","1","2025-07-02 10:19:01","80fe4187154257d5fb01684ea91b68b9","105.0.2.155","Mozilla/5.0 (Windows NT 10.0; Win64; x64) AppleWebKit/537.36 (KHTML, like Gecko) Chrome/137.0.0.0 Safari/537.36","WebKit","Chrome","137.0.0.0","Windows","10.0","https://app.prolific.com/","en-ZA,en-GB;q=0.9,en-US;q=0.8,en;q=0.7","60f7c71d1cffec381351b0b3","683db6dfa200031b80f2a654","686507667a727ce832886dd5","60f7c71d1cffec381351b0b3","2025-07-02T10:28:40.617Z","","","","","","ControlQ","","","","","","","","","","","","","","","","","","","","","","","","","","","","","","","","","","","","","","50"
"3571","","<div style=""width:500px;"">
  <p>How would you describe your current emotional state?</p>
  </div>","2","html-slider-response","56","956835","0.0-10.0-3.2","71","1","2025-07-02 10:19:01","80fe4187154257d5fb01684ea91b68b9","105.0.2.155","Mozilla/5.0 (Windows NT 10.0; Win64; x64) AppleWebKit/537.36 (KHTML, like Gecko) Chrome/137.0.0.0 Safari/537.36","WebKit","Chrome","137.0.0.0","Windows","10.0","https://app.prolific.com/","en-ZA,en-GB;q=0.9,en-US;q=0.8,en;q=0.7","60f7c71d1cffec381351b0b3","683db6dfa200031b80f2a654","686507667a727ce832886dd5","60f7c71d1cffec381351b0b3","2025-07-02T10:28:44.193Z","","","","","","StressQ","","","","","","","","","","","","","","","","","","","","","","","","","","","","","","","","","","","","","","50"
"3635","","<div style=""width:500px;"">
  <p>What best describes how you currently feel?</p>
  </div>","83","html-slider-response","57","960474","0.0-10.0-4.2","71","1","2025-07-02 10:19:01","80fe4187154257d5fb01684ea91b68b9","105.0.2.155","Mozilla/5.0 (Windows NT 10.0; Win64; x64) AppleWebKit/537.36 (KHTML, like Gecko) Chrome/137.0.0.0 Safari/537.36","WebKit","Chrome","137.0.0.0","Windows","10.0","https://app.prolific.com/","en-ZA,en-GB;q=0.9,en-US;q=0.8,en;q=0.7","60f7c71d1cffec381351b0b3","683db6dfa200031b80f2a654","686507667a727ce832886dd5","60f7c71d1cffec381351b0b3","2025-07-02T10:28:47.833Z","","","","","","MotivationQ","","","","","","","","","","","","","","","","","","","","","","","","","","","","","","","","","","","","","","50"
"","","","","ctl-task-cpt","58","1057435","0.0-10.0-0.3","71","1","2025-07-02 10:19:01","80fe4187154257d5fb01684ea91b68b9","105.0.2.155","Mozilla/5.0 (Windows NT 10.0; Win64; x64) AppleWebKit/537.36 (KHTML, like Gecko) Chrome/137.0.0.0 Safari/537.36","WebKit","Chrome","137.0.0.0","Windows","10.0","https://app.prolific.com/","en-ZA,en-GB;q=0.9,en-US;q=0.8,en;q=0.7","60f7c71d1cffec381351b0b3","683db6dfa200031b80f2a654","686507667a727ce832886dd5","60f7c71d1cffec381351b0b3","2025-07-02T10:30:24.793Z","","","","","","","","","","","","","","","","win-only","1","g1:NE,g2:SW","0.7","4","0","967560.2","1719.8","6746.9","93931.2","1","4","8","6","2","8","6","10","4","0.07575757575757576","2156.6","3000","1585","[""down"",""left""]","{""num_key_presses"":15,""num_perfect"":9,""num_errors"":2,""num_randdir"":4,""num_randdir_good_moves"":1,""num_whilered"":0,""num_whileblue"":1,""num_blue"":7,""num_good_moves"":10}","[292.22232142857143,292.12857142857143,3.5,292.22232142857143,292.12857142857143,106.1,292.22232142857143,292.12857142857143,217.5,292.22232142857143,292.12857142857143,332.5,292.22232142857143,292.12857142857143,455,292.22232142857143,292.12857142857143,569.4,292.22232142857143,292.12857142857143,680.3,292.22232142857143,292.12857142857143,783.6,292.22232142857143,297.12857142857143,901.1,292.22232142857143,328.12857142857143,1017.6,285.22232142857143,351.12857142857143,1125,277.22232142857143,360.12857142857143,1244.9,263.22232142857143,366.12857142857143,1365.2,183.22232142857143,401.12857142857143,1479.5,113.22232142857143,442.12857142857143,1585.7,83.22232142857143,470.12857142857143,1690.1,70.22232142857143,485.12857142857143,1820.9,61.222321428571426,505.12857142857143,1928.3,61.222321428571426,509.12857142857143,2045.5,61.222321428571426,509.12857142857143,2169.9,61.222321428571426,509.12857142857143,2288.6,61.222321428571426,509.12857142857143,2392.3,61.222321428571426,509.12857142857143,2497.8,61.222321428571426,509.12857142857143,2617.7,61.222321428571426,509.12857142857143,2729.4,61.222321428571426,509.12857142857143,2843.7,61.222321428571426,509.12857142857143,2957,61.222321428571426,509.12857142857143,3064.1,61.222321428571426,509.12857142857143,3171.6,61.222321428571426,509.12857142857143,3344.3,61.222321428571426,509.12857142857143,3465.4,61.222321428571426,509.12857142857143,3567.3,61.222321428571426,509.12857142857143,3670.8,61.222321428571426,509.12857142857143,3772.1,61.222321428571426,509.12857142857143,3879.9,61.222321428571426,509.12857142857143,4034.9,61.222321428571426,509.12857142857143,4160,61.222321428571426,509.12857142857143,4261.5,61.222321428571426,509.12857142857143,4365.4,61.222321428571426,509.12857142857143,4489.3,61.222321428571426,509.12857142857143,4620.7,61.222321428571426,509.12857142857143,4747.4,61.222321428571426,509.12857142857143,4851.6,61.222321428571426,509.12857142857143,4969.2]","[1600.5,1600.6,1000,0,600.6,""smooth"",""down"",""down"",""good_move"",4486.2,2882.3,2274.3,1604,607.9,""smooth"",""down"",""down"",""good_move"",7941.7,3453.8,2968.4,4488,485.3,""oops"",""down"",""up"",""bad_move"",9156.2,1213.7,3165.4,7942.6,-1951.8,""error"",""-"",""-"",""no_move"",17685.7,8527.9,2915.4,14315.7,454.6,""oops"",""down"",""right"",""bad_move"",21949.5,4262.1,2160.9,17687.5,2101.1,""smooth"",""down"",""down"",""good_move"",25486.2,3534.2,2736.5,21952,797.7,""oops"",""down"",""right"",""bad_move"",30691.2,5203.4,1583.9,28210.1,897.2,""smooth"",""down"",""down"",""good_move"",36647.6,5954,1999.8,34211.8,436.1,""smooth"",""left"",""left"",""good_move"",42538.1,5888.1,2289.9,36650,3598.2,""smooth"",""left"",""left"",""good_move"",49731.8,7192.4,2392.6,42539.4,4799.8,""smooth"",""left"",""left"",""good_move"",57423,7681.2,7246.4,49741.8,434.8,""while_blue"",""left"",""up"",""bad_move"",68606.2,11177,2025.4,66035.2,545.6,""smooth"",""left"",""left"",""good_move"",83259.5,14652.2,2684.8,80135.1,439.6,""oops"",""left"",""left"",""good_move"",86776.3,3511.2,2613.1,83265.1,898.1,""smooth"",""down"",""down"",""good_move""]","",""
"5320","","<div style=""width:500px;"">
  <p>What determined the result of this run?</p>
  </div>","59","html-slider-response","59","1062762","0.0-10.0-1.3","71","1","2025-07-02 10:19:01","80fe4187154257d5fb01684ea91b68b9","105.0.2.155","Mozilla/5.0 (Windows NT 10.0; Win64; x64) AppleWebKit/537.36 (KHTML, like Gecko) Chrome/137.0.0.0 Safari/537.36","WebKit","Chrome","137.0.0.0","Windows","10.0","https://app.prolific.com/","en-ZA,en-GB;q=0.9,en-US;q=0.8,en;q=0.7","60f7c71d1cffec381351b0b3","683db6dfa200031b80f2a654","686507667a727ce832886dd5","60f7c71d1cffec381351b0b3","2025-07-02T10:30:30.120Z","","","","","","AttribQ","","","","","","","","","","","","","","","","","","","","","","","","","","","","","","","","","","","","","","50"
"3820","","<div style=""width:500px;"">
  <p>How much control did you have over the ball?</p>
  </div>","39","html-slider-response","60","1066587","0.0-10.0-2.3","71","1","2025-07-02 10:19:01","80fe4187154257d5fb01684ea91b68b9","105.0.2.155","Mozilla/5.0 (Windows NT 10.0; Win64; x64) AppleWebKit/537.36 (KHTML, like Gecko) Chrome/137.0.0.0 Safari/537.36","WebKit","Chrome","137.0.0.0","Windows","10.0","https://app.prolific.com/","en-ZA,en-GB;q=0.9,en-US;q=0.8,en;q=0.7","60f7c71d1cffec381351b0b3","683db6dfa200031b80f2a654","686507667a727ce832886dd5","60f7c71d1cffec381351b0b3","2025-07-02T10:30:33.945Z","","","","","","ControlQ","","","","","","","","","","","","","","","","","","","","","","","","","","","","","","","","","","","","","","50"
"4588","","<div style=""width:500px;"">
  <p>How would you describe your current emotional state?</p>
  </div>","17","html-slider-response","61","1071179","0.0-10.0-3.3","71","1","2025-07-02 10:19:01","80fe4187154257d5fb01684ea91b68b9","105.0.2.155","Mozilla/5.0 (Windows NT 10.0; Win64; x64) AppleWebKit/537.36 (KHTML, like Gecko) Chrome/137.0.0.0 Safari/537.36","WebKit","Chrome","137.0.0.0","Windows","10.0","https://app.prolific.com/","en-ZA,en-GB;q=0.9,en-US;q=0.8,en;q=0.7","60f7c71d1cffec381351b0b3","683db6dfa200031b80f2a654","686507667a727ce832886dd5","60f7c71d1cffec381351b0b3","2025-07-02T10:30:38.537Z","","","","","","StressQ","","","","","","","","","","","","","","","","","","","","","","","","","","","","","","","","","","","","","","50"
"6853","","<div style=""width:500px;"">
  <p>What best describes how you currently feel?</p>
  </div>","85","html-slider-response","62","1078039","0.0-10.0-4.3","71","1","2025-07-02 10:19:01","80fe4187154257d5fb01684ea91b68b9","105.0.2.155","Mozilla/5.0 (Windows NT 10.0; Win64; x64) AppleWebKit/537.36 (KHTML, like Gecko) Chrome/137.0.0.0 Safari/537.36","WebKit","Chrome","137.0.0.0","Windows","10.0","https://app.prolific.com/","en-ZA,en-GB;q=0.9,en-US;q=0.8,en;q=0.7","60f7c71d1cffec381351b0b3","683db6dfa200031b80f2a654","686507667a727ce832886dd5","60f7c71d1cffec381351b0b3","2025-07-02T10:30:45.398Z","","","","","","MotivationQ","","","","","","","","","","","","","","","","","","","","","","","","","","","","","","","","","","","","","","50"
"","","","","ctl-task-cpt","63","1137057","0.0-10.0-0.4","71","1","2025-07-02 10:19:01","80fe4187154257d5fb01684ea91b68b9","105.0.2.155","Mozilla/5.0 (Windows NT 10.0; Win64; x64) AppleWebKit/537.36 (KHTML, like Gecko) Chrome/137.0.0.0 Safari/537.36","WebKit","Chrome","137.0.0.0","Windows","10.0","https://app.prolific.com/","en-ZA,en-GB;q=0.9,en-US;q=0.8,en;q=0.7","60f7c71d1cffec381351b0b3","683db6dfa200031b80f2a654","686507667a727ce832886dd5","60f7c71d1cffec381351b0b3","2025-07-02T10:31:44.417Z","","","","","","","","","","","","","","","","win-only","1","g1:NE,g2:SW","0.6","5","0","1085123.1","2679.6","7688.1","55979.1","1","4","8","6","2","8","8","18","10","0.13636363636363635","2099.9","3000","2125","[""down"",""left""]","{""num_key_presses"":8,""num_perfect"":5,""num_errors"":0,""num_randdir"":3,""num_randdir_good_moves"":2,""num_whilered"":0,""num_whileblue"":0,""num_blue"":6,""num_good_moves"":7}","[298.22232142857143,299.12857142857143,1.5,298.22232142857143,299.12857142857143,104.5,298.22232142857143,299.12857142857143,212.5,298.22232142857143,299.12857142857143,313.5,298.22232142857143,299.12857142857143,443.2,298.22232142857143,299.12857142857143,551.6,298.22232142857143,299.12857142857143,664,298.22232142857143,299.12857142857143,764.5,298.22232142857143,299.12857142857143,866,298.22232142857143,299.12857142857143,982.1,298.22232142857143,299.12857142857143,1089.8,298.22232142857143,299.12857142857143,1196.8,298.22232142857143,299.12857142857143,1311.2,263.22232142857143,317.12857142857143,1434.4,147.22232142857143,391.12857142857143,1541.4,102.22232142857143,446.12857142857143,1666.7,80.22232142857143,529.1285714285714,1769.3,63.222321428571426,574.1285714285714,1885.3,63.222321428571426,574.1285714285714,1990.2,63.222321428571426,574.1285714285714,2117.6,63.222321428571426,574.1285714285714,2244.8,63.222321428571426,574.1285714285714,2381.3,63.222321428571426,574.1285714285714,2490.1,63.222321428571426,574.1285714285714,2600,63.222321428571426,574.1285714285714,2710.6,63.222321428571426,574.1285714285714,2817.3,63.222321428571426,574.1285714285714,2917.5,63.222321428571426,574.1285714285714,3027.3,63.222321428571426,574.1285714285714,3134.7,63.222321428571426,574.1285714285714,3247.9,63.222321428571426,574.1285714285714,3362.8,63.222321428571426,574.1285714285714,3476,63.222321428571426,574.1285714285714,3587.1,63.222321428571426,574.1285714285714,3690,63.222321428571426,574.1285714285714,3795.8,63.222321428571426,574.1285714285714,3912.5,63.222321428571426,574.1285714285714,4014.6,63.222321428571426,574.1285714285714,4117.7,63.222321428571426,574.1285714285714,4217.8,63.222321428571426,574.1285714285714,4343,63.222321428571426,574.1285714285714,4456.8,63.222321428571426,574.1285714285714,4559.8,63.222321428571426,574.1285714285714,4661.6,63.222321428571426,574.1285714285714,4766.9,63.222321428571426,574.1285714285714,4867.4,63.222321428571426,574.1285714285714,4981.8]","[1532.2,1532.2,1000,0,532.2,""smooth"",""down"",""down"",""good_move"",11718.7,10184.8,1862.6,9371.3,484.8,""smooth"",""down"",""down"",""good_move"",14774.9,3054.9,2439,11720.1,615.9,""smooth"",""down"",""down"",""good_move"",20382.7,5605.7,2220.9,17713.9,447.9,""oops"",""left"",""up"",""bad_move"",24763.9,4378.6,2640.9,20385.4,1737.6,""smooth"",""left"",""left"",""good_move"",29366.9,4600.2,2030.2,24766.8,2570,""oops"",""left"",""down"",""good_move"",32424.7,3048.8,2434.2,29375.9,614.6,""oops"",""left"",""left"",""good_move"",47934.5,15507.6,2555,44926.6,452.9,""smooth"",""left"",""left"",""good_move""]","",""
"6354","","<div style=""width:500px;"">
  <p>What determined the result of this run?</p>
  </div>","55","html-slider-response","64","1143421","0.0-10.0-1.4","71","1","2025-07-02 10:19:01","80fe4187154257d5fb01684ea91b68b9","105.0.2.155","Mozilla/5.0 (Windows NT 10.0; Win64; x64) AppleWebKit/537.36 (KHTML, like Gecko) Chrome/137.0.0.0 Safari/537.36","WebKit","Chrome","137.0.0.0","Windows","10.0","https://app.prolific.com/","en-ZA,en-GB;q=0.9,en-US;q=0.8,en;q=0.7","60f7c71d1cffec381351b0b3","683db6dfa200031b80f2a654","686507667a727ce832886dd5","60f7c71d1cffec381351b0b3","2025-07-02T10:31:50.780Z","","","","","","AttribQ","","","","","","","","","","","","","","","","","","","","","","","","","","","","","","","","","","","","","","50"
"3411","","<div style=""width:500px;"">
  <p>How much control did you have over the ball?</p>
  </div>","44","html-slider-response","65","1146841","0.0-10.0-2.4","71","1","2025-07-02 10:19:01","80fe4187154257d5fb01684ea91b68b9","105.0.2.155","Mozilla/5.0 (Windows NT 10.0; Win64; x64) AppleWebKit/537.36 (KHTML, like Gecko) Chrome/137.0.0.0 Safari/537.36","WebKit","Chrome","137.0.0.0","Windows","10.0","https://app.prolific.com/","en-ZA,en-GB;q=0.9,en-US;q=0.8,en;q=0.7","60f7c71d1cffec381351b0b3","683db6dfa200031b80f2a654","686507667a727ce832886dd5","60f7c71d1cffec381351b0b3","2025-07-02T10:31:54.199Z","","","","","","ControlQ","","","","","","","","","","","","","","","","","","","","","","","","","","","","","","","","","","","","","","50"
"3820","","<div style=""width:500px;"">
  <p>How would you describe your current emotional state?</p>
  </div>","15","html-slider-response","66","1150667","0.0-10.0-3.4","71","1","2025-07-02 10:19:01","80fe4187154257d5fb01684ea91b68b9","105.0.2.155","Mozilla/5.0 (Windows NT 10.0; Win64; x64) AppleWebKit/537.36 (KHTML, like Gecko) Chrome/137.0.0.0 Safari/537.36","WebKit","Chrome","137.0.0.0","Windows","10.0","https://app.prolific.com/","en-ZA,en-GB;q=0.9,en-US;q=0.8,en;q=0.7","60f7c71d1cffec381351b0b3","683db6dfa200031b80f2a654","686507667a727ce832886dd5","60f7c71d1cffec381351b0b3","2025-07-02T10:31:58.025Z","","","","","","StressQ","","","","","","","","","","","","","","","","","","","","","","","","","","","","","","","","","","","","","","50"
"3941","","<div style=""width:500px;"">
  <p>What best describes how you currently feel?</p>
  </div>","80","html-slider-response","67","1154613","0.0-10.0-4.4","71","1","2025-07-02 10:19:01","80fe4187154257d5fb01684ea91b68b9","105.0.2.155","Mozilla/5.0 (Windows NT 10.0; Win64; x64) AppleWebKit/537.36 (KHTML, like Gecko) Chrome/137.0.0.0 Safari/537.36","WebKit","Chrome","137.0.0.0","Windows","10.0","https://app.prolific.com/","en-ZA,en-GB;q=0.9,en-US;q=0.8,en;q=0.7","60f7c71d1cffec381351b0b3","683db6dfa200031b80f2a654","686507667a727ce832886dd5","60f7c71d1cffec381351b0b3","2025-07-02T10:32:01.971Z","","","","","","MotivationQ","","","","","","","","","","","","","","","","","","","","","","","","","","","","","","","","","","","","","","50"
"","","","","ctl-task-cpt","68","1289423","0.0-10.0-0.5","71","1","2025-07-02 10:19:01","80fe4187154257d5fb01684ea91b68b9","105.0.2.155","Mozilla/5.0 (Windows NT 10.0; Win64; x64) AppleWebKit/537.36 (KHTML, like Gecko) Chrome/137.0.0.0 Safari/537.36","WebKit","Chrome","137.0.0.0","Windows","10.0","https://app.prolific.com/","en-ZA,en-GB;q=0.9,en-US;q=0.8,en;q=0.7","60f7c71d1cffec381351b0b3","683db6dfa200031b80f2a654","686507667a727ce832886dd5","60f7c71d1cffec381351b0b3","2025-07-02T10:34:16.781Z","","","","","","","","","","","","","","","","win-only","0","g1:NW,g2:SE","0.5","6","0","1161700.4","2445","7458.1","131737.3","1","4","4","6","2","4","4","22","18","0.16666666666666666","1806.3","3000","1940","[""down"",""right""]","{""num_key_presses"":18,""num_perfect"":10,""num_errors"":0,""num_randdir"":8,""num_randdir_good_moves"":2,""num_whilered"":0,""num_whileblue"":0,""num_blue"":10,""num_good_moves"":12}","[289.22232142857143,293.12857142857143,0.8,289.22232142857143,293.12857142857143,102.8,289.22232142857143,293.12857142857143,221.7,289.22232142857143,293.12857142857143,331.4,289.22232142857143,293.12857142857143,439.8,289.22232142857143,293.12857142857143,543.3,290.22232142857143,301.12857142857143,662.1,294.22232142857143,310.12857142857143,763.2,374.22232142857143,374.12857142857143,864,450.22232142857143,436.12857142857143,968.6,450.22232142857143,436.12857142857143,1076.2,459.22232142857143,448.12857142857143,1204.9,505.22232142857143,514.1285714285714,1325.7,514.2223214285714,524.1285714285714,1458.3,517.2223214285714,526.1285714285714,1582.6,517.2223214285714,526.1285714285714,1691.4,517.2223214285714,526.1285714285714,1799.7,517.2223214285714,526.1285714285714,1905.1,517.2223214285714,526.1285714285714,2044.8,517.2223214285714,526.1285714285714,2164.2,517.2223214285714,526.1285714285714,2277.3,517.2223214285714,526.1285714285714,2400.5,517.2223214285714,526.1285714285714,2515.2,517.2223214285714,526.1285714285714,2616.7,517.2223214285714,526.1285714285714,2726,517.2223214285714,526.1285714285714,2850.4,517.2223214285714,526.1285714285714,2964.9,517.2223214285714,526.1285714285714,3081.3,517.2223214285714,526.1285714285714,3182.3,517.2223214285714,526.1285714285714,3297.7,517.2223214285714,526.1285714285714,3413.5,517.2223214285714,526.1285714285714,3536.3,517.2223214285714,526.1285714285714,3642.4,517.2223214285714,526.1285714285714,3754.4,517.2223214285714,526.1285714285714,3871.3,517.2223214285714,526.1285714285714,3986.9,517.2223214285714,526.1285714285714,4090.7,517.2223214285714,526.1285714285714,4196.9,517.2223214285714,526.1285714285714,4312.4,517.2223214285714,526.1285714285714,4428.2,517.2223214285714,526.1285714285714,4558.5,517.2223214285714,526.1285714285714,4679.4,517.2223214285714,526.1285714285714,4795,517.2223214285714,526.1285714285714,4907.1]","[4751.1,4751.2,2294.2,2018.6,438.4,""smooth"",""down"",""down"",""good_move"",10483.6,5729.8,1752.1,8261.9,469.6,""oops"",""down"",""up"",""bad_move"",16979.1,6492.8,2048.5,10486.4,4444.3,""smooth"",""down"",""down"",""good_move"",19603.6,2622.2,1898.2,16981.5,724,""smooth"",""down"",""down"",""good_move"",22893.4,3283.6,2712.4,19609.8,571.2,""smooth"",""down"",""down"",""good_move"",25641,2746,2069.7,22895.3,676,""smooth"",""right"",""right"",""good_move"",33267.9,7624.5,2512.3,30213.7,541.9,""oops"",""right"",""left"",""bad_move"",48728.7,15458.7,3673.9,44508.2,546.6,""oops"",""right"",""right"",""good_move"",52027.5,3289.6,2706.2,48737.9,583.4,""oops"",""right"",""left"",""bad_move"",59463.5,7431,2364.4,52032.6,5066.6,""oops"",""right"",""up"",""bad_move"",76790.3,17325.5,2665.6,73580.9,543.8,""oops"",""right"",""right"",""good_move"",80033.8,3241.2,2535.3,76792.6,705.9,""smooth"",""right"",""right"",""good_move"",89388.5,9354.5,2241.3,86609.4,537.8,""oops"",""right"",""up"",""bad_move"",100278,10885.4,3075.6,89392.6,7809.8,""smooth"",""right"",""right"",""good_move"",103475.8,3196.4,2450,100279.5,746.4,""oops"",""down"",""left"",""bad_move"",114314.3,10826.5,2772,103487.8,8054.5,""smooth"",""down"",""down"",""good_move"",117317.7,3002,2364.1,114315.7,637.9,""smooth"",""down"",""down"",""good_move"",120941.5,3622.2,2725.2,117319.4,896.9,""smooth"",""right"",""right"",""good_move""]","",""
"5049","","<div style=""width:500px;"">
  <p>What determined the result of this run?</p>
  </div>","75","html-slider-response","69","1294480","0.0-10.0-1.5","71","1","2025-07-02 10:19:01","80fe4187154257d5fb01684ea91b68b9","105.0.2.155","Mozilla/5.0 (Windows NT 10.0; Win64; x64) AppleWebKit/537.36 (KHTML, like Gecko) Chrome/137.0.0.0 Safari/537.36","WebKit","Chrome","137.0.0.0","Windows","10.0","https://app.prolific.com/","en-ZA,en-GB;q=0.9,en-US;q=0.8,en;q=0.7","60f7c71d1cffec381351b0b3","683db6dfa200031b80f2a654","686507667a727ce832886dd5","60f7c71d1cffec381351b0b3","2025-07-02T10:34:21.838Z","","","","","","AttribQ","","","","","","","","","","","","","","","","","","","","","","","","","","","","","","","","","","","","","","50"
"3437","","<div style=""width:500px;"">
  <p>How much control did you have over the ball?</p>
  </div>","19","html-slider-response","70","1297925","0.0-10.0-2.5","71","1","2025-07-02 10:19:01","80fe4187154257d5fb01684ea91b68b9","105.0.2.155","Mozilla/5.0 (Windows NT 10.0; Win64; x64) AppleWebKit/537.36 (KHTML, like Gecko) Chrome/137.0.0.0 Safari/537.36","WebKit","Chrome","137.0.0.0","Windows","10.0","https://app.prolific.com/","en-ZA,en-GB;q=0.9,en-US;q=0.8,en;q=0.7","60f7c71d1cffec381351b0b3","683db6dfa200031b80f2a654","686507667a727ce832886dd5","60f7c71d1cffec381351b0b3","2025-07-02T10:34:25.283Z","","","","","","ControlQ","","","","","","","","","","","","","","","","","","","","","","","","","","","","","","","","","","","","","","50"
"3232","","<div style=""width:500px;"">
  <p>How would you describe your current emotional state?</p>
  </div>","17","html-slider-response","71","1301166","0.0-10.0-3.5","71","1","2025-07-02 10:19:01","80fe4187154257d5fb01684ea91b68b9","105.0.2.155","Mozilla/5.0 (Windows NT 10.0; Win64; x64) AppleWebKit/537.36 (KHTML, like Gecko) Chrome/137.0.0.0 Safari/537.36","WebKit","Chrome","137.0.0.0","Windows","10.0","https://app.prolific.com/","en-ZA,en-GB;q=0.9,en-US;q=0.8,en;q=0.7","60f7c71d1cffec381351b0b3","683db6dfa200031b80f2a654","686507667a727ce832886dd5","60f7c71d1cffec381351b0b3","2025-07-02T10:34:28.525Z","","","","","","StressQ","","","","","","","","","","","","","","","","","","","","","","","","","","","","","","","","","","","","","","50"
"4570","","<div style=""width:500px;"">
  <p>What best describes how you currently feel?</p>
  </div>","68","html-slider-response","72","1305752","0.0-10.0-4.5","71","1","2025-07-02 10:19:01","80fe4187154257d5fb01684ea91b68b9","105.0.2.155","Mozilla/5.0 (Windows NT 10.0; Win64; x64) AppleWebKit/537.36 (KHTML, like Gecko) Chrome/137.0.0.0 Safari/537.36","WebKit","Chrome","137.0.0.0","Windows","10.0","https://app.prolific.com/","en-ZA,en-GB;q=0.9,en-US;q=0.8,en;q=0.7","60f7c71d1cffec381351b0b3","683db6dfa200031b80f2a654","686507667a727ce832886dd5","60f7c71d1cffec381351b0b3","2025-07-02T10:34:33.110Z","","","","","","MotivationQ","","","","","","","","","","","","","","","","","","","","","","","","","","","","","","","","","","","","","","50"
"","","","","ctl-task-cpt","73","1417503","0.0-10.0-0.6","71","1","2025-07-02 10:19:01","80fe4187154257d5fb01684ea91b68b9","105.0.2.155","Mozilla/5.0 (Windows NT 10.0; Win64; x64) AppleWebKit/537.36 (KHTML, like Gecko) Chrome/137.0.0.0 Safari/537.36","WebKit","Chrome","137.0.0.0","Windows","10.0","https://app.prolific.com/","en-ZA,en-GB;q=0.9,en-US;q=0.8,en;q=0.7","60f7c71d1cffec381351b0b3","683db6dfa200031b80f2a654","686507667a727ce832886dd5","60f7c71d1cffec381351b0b3","2025-07-02T10:36:24.862Z","","","","","","","","","","","","","","","","win-only","1","g1:NE,g2:SW","0.4","7","0","1312868.1","1947.1","6969.9","108670.4","1","4","4","6","2","4","4","26","22","0.19696969696969696","1456.5","3000","1100","[""down"",""left""]","{""num_key_presses"":20,""num_perfect"":8,""num_errors"":0,""num_randdir"":12,""num_randdir_good_moves"":5,""num_whilered"":0,""num_whileblue"":0,""num_blue"":4,""num_good_moves"":13}","[296.22232142857143,295.12857142857143,1.2,296.22232142857143,295.12857142857143,120.1,296.22232142857143,295.12857142857143,223.6,296.22232142857143,295.12857142857143,344.8,296.22232142857143,295.12857142857143,475.9,272.22232142857143,359.12857142857143,598.6,236.22232142857143,438.12857142857143,736.9,236.22232142857143,438.12857142857143,846,191.22232142857143,485.12857142857143,972.9,91.22232142857143,535.1285714285714,1081.2,79.22232142857143,540.1285714285714,1189.7,79.22232142857143,540.1285714285714,1310.2,79.22232142857143,540.1285714285714,1430.4,79.22232142857143,540.1285714285714,1534.1,79.22232142857143,540.1285714285714,1661.3,79.22232142857143,540.1285714285714,1777.1,80.22232142857143,542.1285714285714,1935.5,119.22232142857143,565.1285714285714,2073.5,144.22232142857143,566.1285714285714,2178.3,146.22232142857143,566.1285714285714,2294.9,146.22232142857143,566.1285714285714,2416.3,146.22232142857143,566.1285714285714,2543.9,146.22232142857143,566.1285714285714,2644.4,146.22232142857143,566.1285714285714,2771,146.22232142857143,566.1285714285714,2917.1,146.22232142857143,566.1285714285714,3018.7,146.22232142857143,566.1285714285714,3122.4,146.22232142857143,566.1285714285714,3236.2,146.22232142857143,566.1285714285714,3360.7,146.22232142857143,566.1285714285714,3474.5,146.22232142857143,566.1285714285714,3593,146.22232142857143,566.1285714285714,3701.6,146.22232142857143,566.1285714285714,3810.1,146.22232142857143,566.1285714285714,3953.2,146.22232142857143,566.1285714285714,4058.4,146.22232142857143,566.1285714285714,4159.2,146.22232142857143,566.1285714285714,4283.3,146.22232142857143,566.1285714285714,4399.3,146.22232142857143,566.1285714285714,4516.6,146.22232142857143,566.1285714285714,4631.2,146.22232142857143,566.1285714285714,4745.1,146.22232142857143,566.1285714285714,4855.4,146.22232142857143,566.1285714285714,4986.8]","[1709.9,1709.9,1000,0,709.9,""smooth"",""down"",""down"",""good_move"",4925.7,3205.7,2686,1720,519.7,""smooth"",""down"",""down"",""good_move"",8515.4,3588.1,3104,4927.3,484.1,""smooth"",""down"",""down"",""good_move"",11628.4,3111.2,2512.9,8517.3,598.2,""oops"",""left"",""up"",""bad_move"",21395.6,9760.7,2897.2,17992.7,505.7,""smooth"",""left"",""left"",""good_move"",30838.9,9441.8,2339.7,27956,543.2,""oops"",""left"",""left"",""good_move"",38354.1,7513.2,2834,30840.9,4679.2,""oops"",""left"",""right"",""bad_move"",42731.7,4376.4,2876.5,38355.6,1499.6,""oops"",""down"",""down"",""good_move"",45714.6,2980.7,2387.1,42733.9,593.6,""oops"",""left"",""up"",""bad_move"",51277.7,5561.5,1918.4,45716.2,3643.1,""oops"",""down"",""right"",""bad_move"",58536.1,7246.5,3062,55002.5,471.6,""smooth"",""left"",""left"",""good_move"",64121,5583.6,2113.4,58537.4,3470.2,""smooth"",""left"",""left"",""good_move"",68793.3,4666.8,1855.3,64126.6,2811.4,""smooth"",""left"",""left"",""good_move"",74414.5,5617.8,2258.4,68796.7,3359.4,""oops"",""down"",""right"",""bad_move"",77865.3,3448.2,2937.2,74417.2,511,""oops"",""down"",""right"",""bad_move"",84728.4,6860.5,2836.4,81350.2,541.9,""smooth"",""left"",""left"",""good_move"",89425.7,4695.5,2081.8,84730.2,2613.8,""oops"",""left"",""right"",""bad_move"",91990.2,2562.4,1901.6,89427.9,660.7,""oops"",""down"",""left"",""good_move"",98509.6,6507.1,2244.8,92002.5,4262.3,""oops"",""left"",""down"",""good_move"",101136.9,2621.7,1872.6,98515.2,749.2,""oops"",""left"",""left"",""good_move""]","",""
"4440","","<div style=""width:500px;"">
  <p>What determined the result of this run?</p>
  </div>","75","html-slider-response","74","1421949","0.0-10.0-1.6","71","1","2025-07-02 10:19:01","80fe4187154257d5fb01684ea91b68b9","105.0.2.155","Mozilla/5.0 (Windows NT 10.0; Win64; x64) AppleWebKit/537.36 (KHTML, like Gecko) Chrome/137.0.0.0 Safari/537.36","WebKit","Chrome","137.0.0.0","Windows","10.0","https://app.prolific.com/","en-ZA,en-GB;q=0.9,en-US;q=0.8,en;q=0.7","60f7c71d1cffec381351b0b3","683db6dfa200031b80f2a654","686507667a727ce832886dd5","60f7c71d1cffec381351b0b3","2025-07-02T10:36:29.308Z","","","","","","AttribQ","","","","","","","","","","","","","","","","","","","","","","","","","","","","","","","","","","","","","","50"
"4833","","<div style=""width:500px;"">
  <p>How much control did you have over the ball?</p>
  </div>","44","html-slider-response","75","1426789","0.0-10.0-2.6","71","1","2025-07-02 10:19:01","80fe4187154257d5fb01684ea91b68b9","105.0.2.155","Mozilla/5.0 (Windows NT 10.0; Win64; x64) AppleWebKit/537.36 (KHTML, like Gecko) Chrome/137.0.0.0 Safari/537.36","WebKit","Chrome","137.0.0.0","Windows","10.0","https://app.prolific.com/","en-ZA,en-GB;q=0.9,en-US;q=0.8,en;q=0.7","60f7c71d1cffec381351b0b3","683db6dfa200031b80f2a654","686507667a727ce832886dd5","60f7c71d1cffec381351b0b3","2025-07-02T10:36:34.148Z","","","","","","ControlQ","","","","","","","","","","","","","","","","","","","","","","","","","","","","","","","","","","","","","","50"
"3121","","<div style=""width:500px;"">
  <p>How would you describe your current emotional state?</p>
  </div>","22","html-slider-response","76","1429916","0.0-10.0-3.6","71","1","2025-07-02 10:19:01","80fe4187154257d5fb01684ea91b68b9","105.0.2.155","Mozilla/5.0 (Windows NT 10.0; Win64; x64) AppleWebKit/537.36 (KHTML, like Gecko) Chrome/137.0.0.0 Safari/537.36","WebKit","Chrome","137.0.0.0","Windows","10.0","https://app.prolific.com/","en-ZA,en-GB;q=0.9,en-US;q=0.8,en;q=0.7","60f7c71d1cffec381351b0b3","683db6dfa200031b80f2a654","686507667a727ce832886dd5","60f7c71d1cffec381351b0b3","2025-07-02T10:36:37.274Z","","","","","","StressQ","","","","","","","","","","","","","","","","","","","","","","","","","","","","","","","","","","","","","","50"
"7128","","<div style=""width:500px;"">
  <p>What best describes how you currently feel?</p>
  </div>","75","html-slider-response","77","1437053","0.0-10.0-4.6","71","1","2025-07-02 10:19:01","80fe4187154257d5fb01684ea91b68b9","105.0.2.155","Mozilla/5.0 (Windows NT 10.0; Win64; x64) AppleWebKit/537.36 (KHTML, like Gecko) Chrome/137.0.0.0 Safari/537.36","WebKit","Chrome","137.0.0.0","Windows","10.0","https://app.prolific.com/","en-ZA,en-GB;q=0.9,en-US;q=0.8,en;q=0.7","60f7c71d1cffec381351b0b3","683db6dfa200031b80f2a654","686507667a727ce832886dd5","60f7c71d1cffec381351b0b3","2025-07-02T10:36:44.411Z","","","","","","MotivationQ","","","","","","","","","","","","","","","","","","","","","","","","","","","","","","","","","","","","","","50"
"","","","","ctl-task-cpt","78","1477895","0.0-10.0-0.7","71","1","2025-07-02 10:19:01","80fe4187154257d5fb01684ea91b68b9","105.0.2.155","Mozilla/5.0 (Windows NT 10.0; Win64; x64) AppleWebKit/537.36 (KHTML, like Gecko) Chrome/137.0.0.0 Safari/537.36","WebKit","Chrome","137.0.0.0","Windows","10.0","https://app.prolific.com/","en-ZA,en-GB;q=0.9,en-US;q=0.8,en;q=0.7","60f7c71d1cffec381351b0b3","683db6dfa200031b80f2a654","686507667a727ce832886dd5","60f7c71d1cffec381351b0b3","2025-07-02T10:37:25.253Z","","","","","","","","","","","","","","","","win-only","3","g1:SW,g2:NE","0.3","8","0","1444138.5","2392.2","7427.9","37794.7","1","4","8","6","2","8","8","34","26","0.25757575757575757","2388.9","3000","2560","[""up"",""right""]","{""num_key_presses"":6,""num_perfect"":2,""num_errors"":0,""num_randdir"":4,""num_randdir_good_moves"":4,""num_whilered"":0,""num_whileblue"":0,""num_blue"":1,""num_good_moves"":6}","[300.22232142857143,290.12857142857143,1.4,300.22232142857143,290.12857142857143,114.8,300.22232142857143,290.12857142857143,228.3,300.22232142857143,290.12857142857143,342.3,300.22232142857143,290.12857142857143,448.2,300.22232142857143,290.12857142857143,566.3,300.22232142857143,290.12857142857143,682.7,299.22232142857143,295.12857142857143,820.3,280.22232142857143,314.12857142857143,957.1,280.22232142857143,313.12857142857143,1059.7,332.22232142857143,245.12857142857143,1165.6,335.22232142857143,243.12857142857143,1268.9,335.22232142857143,243.12857142857143,1378.2,335.22232142857143,243.12857142857143,1489.5,405.22232142857143,180.12857142857143,1604.8,412.22232142857143,176.12857142857143,1715.3,488.22232142857143,62.128571428571426,1885.4,508.22232142857143,46.128571428571426,2000.1,514.2223214285714,44.128571428571426,2116.7,514.2223214285714,44.128571428571426,2235.2,514.2223214285714,44.128571428571426,2356.2,514.2223214285714,44.128571428571426,2484.4,514.2223214285714,44.128571428571426,2610,514.2223214285714,44.128571428571426,2737.8,501.22232142857143,72.12857142857143,2847.9,459.22232142857143,142.12857142857143,2971.5,426.22232142857143,183.12857142857143,3098.8,425.22232142857143,183.12857142857143,3219.2,425.22232142857143,186.12857142857143,3342.9,404.22232142857143,204.12857142857143,3467.1,386.22232142857143,212.12857142857143,3571.8,384.22232142857143,212.12857142857143,3684.6,384.22232142857143,212.12857142857143,3786.2,384.22232142857143,212.12857142857143,3887.7,384.22232142857143,212.12857142857143,3988.1,384.22232142857143,212.12857142857143,4111.4,384.22232142857143,212.12857142857143,4262.5,384.22232142857143,212.12857142857143,4373.4,384.22232142857143,212.12857142857143,4476,384.22232142857143,212.12857142857143,4593.1,384.22232142857143,212.12857142857143,4705.9,384.22232142857143,212.12857142857143,4829.2,384.22232142857143,212.12857142857143,4941.1]","[5447.4,5447.3,2913.8,2033.3,500.3,""smooth"",""right"",""right"",""good_move"",9072.4,3623,2967.3,5449.4,655.7,""smooth"",""right"",""right"",""good_move"",11622.3,2547.2,1886.7,9075.3,660.3,""oops"",""right"",""right"",""good_move"",14204.5,2579,2045.8,11625.5,533.2,""oops"",""up"",""up"",""good_move"",21223,7013.2,2083.4,14209.8,4929.8,""oops"",""up"",""up"",""good_move"",29478,8253.7,2286.9,21224.3,5966.8,""oops"",""up"",""up"",""good_move""]","",""
"3870","","<div style=""width:500px;"">
  <p>What determined the result of this run?</p>
  </div>","80","html-slider-response","79","1481770","0.0-10.0-1.7","71","1","2025-07-02 10:19:01","80fe4187154257d5fb01684ea91b68b9","105.0.2.155","Mozilla/5.0 (Windows NT 10.0; Win64; x64) AppleWebKit/537.36 (KHTML, like Gecko) Chrome/137.0.0.0 Safari/537.36","WebKit","Chrome","137.0.0.0","Windows","10.0","https://app.prolific.com/","en-ZA,en-GB;q=0.9,en-US;q=0.8,en;q=0.7","60f7c71d1cffec381351b0b3","683db6dfa200031b80f2a654","686507667a727ce832886dd5","60f7c71d1cffec381351b0b3","2025-07-02T10:37:29.128Z","","","","","","AttribQ","","","","","","","","","","","","","","","","","","","","","","","","","","","","","","","","","","","","","","50"
"3192","","<div style=""width:500px;"">
  <p>How much control did you have over the ball?</p>
  </div>","78","html-slider-response","80","1484970","0.0-10.0-2.7","71","1","2025-07-02 10:19:01","80fe4187154257d5fb01684ea91b68b9","105.0.2.155","Mozilla/5.0 (Windows NT 10.0; Win64; x64) AppleWebKit/537.36 (KHTML, like Gecko) Chrome/137.0.0.0 Safari/537.36","WebKit","Chrome","137.0.0.0","Windows","10.0","https://app.prolific.com/","en-ZA,en-GB;q=0.9,en-US;q=0.8,en;q=0.7","60f7c71d1cffec381351b0b3","683db6dfa200031b80f2a654","686507667a727ce832886dd5","60f7c71d1cffec381351b0b3","2025-07-02T10:37:32.329Z","","","","","","ControlQ","","","","","","","","","","","","","","","","","","","","","","","","","","","","","","","","","","","","","","50"
"4668","","<div style=""width:500px;"">
  <p>How would you describe your current emotional state?</p>
  </div>","19","html-slider-response","81","1489645","0.0-10.0-3.7","71","1","2025-07-02 10:19:01","80fe4187154257d5fb01684ea91b68b9","105.0.2.155","Mozilla/5.0 (Windows NT 10.0; Win64; x64) AppleWebKit/537.36 (KHTML, like Gecko) Chrome/137.0.0.0 Safari/537.36","WebKit","Chrome","137.0.0.0","Windows","10.0","https://app.prolific.com/","en-ZA,en-GB;q=0.9,en-US;q=0.8,en;q=0.7","60f7c71d1cffec381351b0b3","683db6dfa200031b80f2a654","686507667a727ce832886dd5","60f7c71d1cffec381351b0b3","2025-07-02T10:37:37.003Z","","","","","","StressQ","","","","","","","","","","","","","","","","","","","","","","","","","","","","","","","","","","","","","","50"
"3391","","<div style=""width:500px;"">
  <p>What best describes how you currently feel?</p>
  </div>","76","html-slider-response","82","1493040","0.0-10.0-4.7","71","1","2025-07-02 10:19:01","80fe4187154257d5fb01684ea91b68b9","105.0.2.155","Mozilla/5.0 (Windows NT 10.0; Win64; x64) AppleWebKit/537.36 (KHTML, like Gecko) Chrome/137.0.0.0 Safari/537.36","WebKit","Chrome","137.0.0.0","Windows","10.0","https://app.prolific.com/","en-ZA,en-GB;q=0.9,en-US;q=0.8,en;q=0.7","60f7c71d1cffec381351b0b3","683db6dfa200031b80f2a654","686507667a727ce832886dd5","60f7c71d1cffec381351b0b3","2025-07-02T10:37:40.398Z","","","","","","MotivationQ","","","","","","","","","","","","","","","","","","","","","","","","","","","","","","","","","","","","","","50"
"","","","","ctl-task-cpt","83","1664321","0.0-10.0-0.8","71","1","2025-07-02 10:19:01","80fe4187154257d5fb01684ea91b68b9","105.0.2.155","Mozilla/5.0 (Windows NT 10.0; Win64; x64) AppleWebKit/537.36 (KHTML, like Gecko) Chrome/137.0.0.0 Safari/537.36","WebKit","Chrome","137.0.0.0","Windows","10.0","https://app.prolific.com/","en-ZA,en-GB;q=0.9,en-US;q=0.8,en;q=0.7","60f7c71d1cffec381351b0b3","683db6dfa200031b80f2a654","686507667a727ce832886dd5","60f7c71d1cffec381351b0b3","2025-07-02T10:40:31.679Z","","","","","","","","","","","","","","","","win-only","1","g1:NE,g2:SW","0.4","9","0","1500123.9","1684.9","6706.8","168179.6","1","4","4","6","2","4","4","38","34","0.2878787878787879","1445.3","3000","2045","[""down"",""left""]","{""num_key_presses"":20,""num_perfect"":8,""num_errors"":0,""num_randdir"":12,""num_randdir_good_moves"":5,""num_whilered"":0,""num_whileblue"":0,""num_blue"":4,""num_good_moves"":13}","[298.22232142857143,297.12857142857143,1.6,298.22232142857143,297.12857142857143,107.4,298.22232142857143,297.12857142857143,240,298.22232142857143,297.12857142857143,375.3,298.22232142857143,297.12857142857143,505.3,298.22232142857143,297.12857142857143,626.7,298.22232142857143,297.12857142857143,754.1,224.22232142857143,353.12857142857143,893.3,137.22232142857143,447.12857142857143,1024,79.22232142857143,508.12857142857143,1151.3,71.22232142857143,517.1285714285714,1260.2,71.22232142857143,517.1285714285714,1365.8,71.22232142857143,517.1285714285714,1486.9,71.22232142857143,517.1285714285714,1597.3,71.22232142857143,517.1285714285714,1724.5,98.22232142857143,517.1285714285714,1870.3,195.22232142857143,502.12857142857143,2001.2,245.22232142857143,463.12857142857143,2134.7,249.22232142857143,460.12857142857143,2243.4,249.22232142857143,460.12857142857143,2347.6,249.22232142857143,460.12857142857143,2451.9,249.22232142857143,460.12857142857143,2561.5,249.22232142857143,460.12857142857143,2662.2,249.22232142857143,460.12857142857143,2776.2,249.22232142857143,460.12857142857143,2901.1,249.22232142857143,460.12857142857143,3030.3,249.22232142857143,460.12857142857143,3132.1,249.22232142857143,460.12857142857143,3255.8,249.22232142857143,460.12857142857143,3387.8,249.22232142857143,460.12857142857143,3488.6,249.22232142857143,460.12857142857143,3623.6,249.22232142857143,460.12857142857143,3727,249.22232142857143,460.12857142857143,3837.3,249.22232142857143,460.12857142857143,3961.5,249.22232142857143,460.12857142857143,4081.8,249.22232142857143,460.12857142857143,4213.5,249.22232142857143,460.12857142857143,4344,249.22232142857143,460.12857142857143,4445.4,249.22232142857143,460.12857142857143,4583.9,249.22232142857143,460.12857142857143,4711.4,249.22232142857143,460.12857142857143,4864.7,249.22232142857143,460.12857142857143,4977]","[4837.7,4837.7,2279.7,2041.5,516.5,""oops"",""down"",""left"",""good_move"",12333.6,7494.1,2618.8,4839.5,4875.3,""smooth"",""left"",""left"",""good_move"",30348.4,18013.6,2793.9,26951.5,603,""smooth"",""left"",""left"",""good_move"",39803.8,9453.6,2868.4,30350.2,6585.2,""smooth"",""down"",""down"",""good_move"",42806.5,3000.8,2339.1,39807,660.5,""oops"",""down"",""right"",""bad_move"",46536,3727.5,2787.3,42808.6,940.2,""oops"",""down"",""left"",""good_move"",60394.7,13844.7,2855.6,57021.8,517.3,""smooth"",""down"",""down"",""good_move"",63442,3045.6,2347.4,60396.4,698.2,""oops"",""down"",""up"",""bad_move"",76596.9,13151.8,2176.3,63445.1,10975.5,""oops"",""down"",""down"",""good_move"",79744.8,3146.8,2442.8,76598,704,""oops"",""down"",""up"",""bad_move"",93501.2,13754.1,2242.9,79747.2,11511.1,""oops"",""down"",""right"",""bad_move"",97922.2,4419.9,2792.4,93502.3,1627.6,""smooth"",""down"",""down"",""good_move"",101358.8,3434.4,2664.9,97924.4,769.5,""smooth"",""down"",""down"",""good_move"",104071.3,2710.9,2098.3,101360.4,612.6,""oops"",""down"",""right"",""bad_move"",107425.5,3352.2,2781.9,104073.3,570.3,""oops"",""left"",""right"",""bad_move"",110947.7,3520.7,2476.2,107427.1,1044.4,""smooth"",""left"",""left"",""good_move"",125128.8,14179.1,2302.4,110949.7,11876.7,""oops"",""left"",""up"",""bad_move"",140434.9,15303.3,2477.7,125131.6,12825.6,""smooth"",""left"",""left"",""good_move"",155350.4,14914.2,2953.1,140436.2,11961.1,""oops"",""left"",""down"",""good_move"",159635.6,4283.5,3296.5,155352.1,987,""oops"",""down"",""down"",""good_move""]","",""
"8910","","<div style=""width:500px;"">
  <p>What determined the result of this run?</p>
