"rt","response_timestamp","stimulus","response","trial_type","trial_index","time_elapsed","internal_node_id","run_id","condition","recorded_at","source_code_version","ip","user_agent","device","browser","browser_version","platform","platform_version","referer","accept_language","PROLIFIC_PID","STUDY_ID","SESSION_ID","prolific_id","realtime","view_history","question_order","consent","success","question_id","eventType","responses","item_order","radio_event_ids","radio_event_times","key_event_times","mouse_event_times","straightlining","zigzagging","honeypot","which_type","canvas_config","goals_layout","control_level","trial_number","tutorial_trial_number","trial_start_time","phase1_start_time","phase2_start_time","phase3_start_time","goal_1_value","goal_1_distance","goal_2_value","goal_2_distance","goal_selected","outcome","outcome_total","participant_final_score","participant_initial_score","participant_final_score_prop","goal_choice_rt","allocated_time","allocated_time_remaining","goal_direction","counts","mouse_movements","key_presses","correct","slider_start"
"826","1751451501354","<p style='font-size:40px;line-height:1.25'><strong>Welcome to the experiment!</strong></p><p style='font-size:1.1em;line-height:1.25'>Thank you for your interest in our experiment! Before you begin, it is important that we obtain your informed consent to participate in the study.</p><p style='font-size:1.1em;line-height:1.25'>On the next screen will be an <strong>information sheet</strong> for you to read. To participate in the study we need you to read this information sheet and the following consent form carefully. If you agree with all the statements, please click the <strong>I agree</strong> button.</p><p style='font-size:1.1em;line-height:1.25'>Press <strong>Next</strong> to read the information sheet.</p>","0","custom-html-button-response","0","828","0.0-0.0","8","1","2025-07-02 10:18:18","80fe4187154257d5fb01684ea91b68b9","87.206.229.195","Mozilla/5.0 (Windows NT 10.0; Win64; x64) AppleWebKit/537.36 (KHTML, like Gecko) Chrome/137.0.0.0 Safari/537.36","WebKit","Chrome","137.0.0.0","Windows","10.0","https://app.prolific.com/","en-US,en;q=0.9,pl;q=0.8","60fc39cce64c39328a7c8904","683db6dfa200031b80f2a654","6865075186541d4a5141b4e3","60fc39cce64c39328a7c8904","2025-07-02T10:18:21.355Z","","","","","","","","","","","","","","","","","","","","","","","","","","","","","","","","","","","","","","","","","","","",""
"2512","","","","instructions","1","3340","0.0-1.0","8","1","2025-07-02 10:18:18","80fe4187154257d5fb01684ea91b68b9","87.206.229.195","Mozilla/5.0 (Windows NT 10.0; Win64; x64) AppleWebKit/537.36 (KHTML, like Gecko) Chrome/137.0.0.0 Safari/537.36","WebKit","Chrome","137.0.0.0","Windows","10.0","https://app.prolific.com/","en-US,en;q=0.9,pl;q=0.8","60fc39cce64c39328a7c8904","683db6dfa200031b80f2a654","6865075186541d4a5141b4e3","60fc39cce64c39328a7c8904","","[{""page_index"":0,""viewing_time"":1737},{""page_index"":1,""viewing_time"":775}]","","","","","","","","","","","","","","","","","","","","","","","","","","","","","","","","","","","","","","","","","","",""
"2342","","","{""Q0"":"""",""Q1"":"""",""Q2"":"""",""Q3"":"""",""Q4"":"""",""Q5"":"""",""Q6"":""I agree""}","survey-multi-choice","2","5683","0.0-2.0","8","1","2025-07-02 10:18:18","80fe4187154257d5fb01684ea91b68b9","87.206.229.195","Mozilla/5.0 (Windows NT 10.0; Win64; x64) AppleWebKit/537.36 (KHTML, like Gecko) Chrome/137.0.0.0 Safari/537.36","WebKit","Chrome","137.0.0.0","Windows","10.0","https://app.prolific.com/","en-US,en;q=0.9,pl;q=0.8","60fc39cce64c39328a7c8904","683db6dfa200031b80f2a654","6865075186541d4a5141b4e3","60fc39cce64c39328a7c8904","","","[0,1,2,3,4,5,6]","true","","","","","","","","","","","","","","","","","","","","","","","","","","","","","","","","","","","","","","","","",""
"1029","","","","fullscreen","3","7713","0.0-4.0","8","1","2025-07-02 10:18:18","80fe4187154257d5fb01684ea91b68b9","87.206.229.195","Mozilla/5.0 (Windows NT 10.0; Win64; x64) AppleWebKit/537.36 (KHTML, like Gecko) Chrome/137.0.0.0 Safari/537.36","WebKit","Chrome","137.0.0.0","Windows","10.0","https://app.prolific.com/","en-US,en;q=0.9,pl;q=0.8","60fc39cce64c39328a7c8904","683db6dfa200031b80f2a654","6865075186541d4a5141b4e3","60fc39cce64c39328a7c8904","","","","","true","","","","","","","","","","","","","","","","","","","","","","","","","","","","","","","","","","","","","","","",""
"1677","1751451509917"," <p style='font-size:1.1em;line-height:1.25'>Thank you for completing the consent form and closing all other tabs.</p><p style='font-size:1.1em;line-height:1.25'>We will now invite you to fill in some demographic information and questionnaires, before starting the game.<br>This will take about 5 minutes.<br></p><p style='font-size:1.1em;line-height:1.25'>Press the <strong>Next</strong> button to continue.</p>","0","custom-html-button-response","4","9390","0.0-5.0","8","1","2025-07-02 10:18:18","80fe4187154257d5fb01684ea91b68b9","87.206.229.195","Mozilla/5.0 (Windows NT 10.0; Win64; x64) AppleWebKit/537.36 (KHTML, like Gecko) Chrome/137.0.0.0 Safari/537.36","WebKit","Chrome","137.0.0.0","Windows","10.0","https://app.prolific.com/","en-US,en;q=0.9,pl;q=0.8","60fc39cce64c39328a7c8904","683db6dfa200031b80f2a654","6865075186541d4a5141b4e3","60fc39cce64c39328a7c8904","2025-07-02T10:18:29.917Z","","","","","","","","","","","","","","","","","","","","","","","","","","","","","","","","","","","","","","","","","","","",""
"2914","","","{""age"":""29""}","survey-text","5","12305","0.0-6.0-0.0","8","1","2025-07-02 10:18:18","80fe4187154257d5fb01684ea91b68b9","87.206.229.195","Mozilla/5.0 (Windows NT 10.0; Win64; x64) AppleWebKit/537.36 (KHTML, like Gecko) Chrome/137.0.0.0 Safari/537.36","WebKit","Chrome","137.0.0.0","Windows","10.0","https://app.prolific.com/","en-US,en;q=0.9,pl;q=0.8","60fc39cce64c39328a7c8904","683db6dfa200031b80f2a654","6865075186541d4a5141b4e3","60fc39cce64c39328a7c8904","","","","","","0","demographics","","","","","","","","","","","","","","","","","","","","","","","","","","","","","","","","","","","","","",""
"1251","","","{""gender_identity"":""male/man""}","survey-multi-choice","6","13556","0.0-6.0-1.0","8","1","2025-07-02 10:18:18","80fe4187154257d5fb01684ea91b68b9","87.206.229.195","Mozilla/5.0 (Windows NT 10.0; Win64; x64) AppleWebKit/537.36 (KHTML, like Gecko) Chrome/137.0.0.0 Safari/537.36","WebKit","Chrome","137.0.0.0","Windows","10.0","https://app.prolific.com/","en-US,en;q=0.9,pl;q=0.8","60fc39cce64c39328a7c8904","683db6dfa200031b80f2a654","6865075186541d4a5141b4e3","60fc39cce64c39328a7c8904","","","[0]","","","1","demographics","","","","","","","","","","","","","","","","","","","","","","","","","","","","","","","","","","","","","",""
"1919","","","{""assigned_sex"":""male""}","survey-multi-choice","7","15476","0.0-6.0-2.0","8","1","2025-07-02 10:18:18","80fe4187154257d5fb01684ea91b68b9","87.206.229.195","Mozilla/5.0 (Windows NT 10.0; Win64; x64) AppleWebKit/537.36 (KHTML, like Gecko) Chrome/137.0.0.0 Safari/537.36","WebKit","Chrome","137.0.0.0","Windows","10.0","https://app.prolific.com/","en-US,en;q=0.9,pl;q=0.8","60fc39cce64c39328a7c8904","683db6dfa200031b80f2a654","6865075186541d4a5141b4e3","60fc39cce64c39328a7c8904","","","[0]","","","2","demographics","","","","","","","","","","","","","","","","","","","","","","","","","","","","","","","","","","","","","",""
"3414","","","{""menstrual_cycle"":""No""}","survey-multi-choice","8","18890","0.0-6.0-3.0","8","1","2025-07-02 10:18:18","80fe4187154257d5fb01684ea91b68b9","87.206.229.195","Mozilla/5.0 (Windows NT 10.0; Win64; x64) AppleWebKit/537.36 (KHTML, like Gecko) Chrome/137.0.0.0 Safari/537.36","WebKit","Chrome","137.0.0.0","Windows","10.0","https://app.prolific.com/","en-US,en;q=0.9,pl;q=0.8","60fc39cce64c39328a7c8904","683db6dfa200031b80f2a654","6865075186541d4a5141b4e3","60fc39cce64c39328a7c8904","","","[0]","","","4","demographics","","","","","","","","","","","","","","","","","","","","","","","","","","","","","","","","","","","","","",""
"11948","","","{""education"":""A-level/National Diploma/Highers""}","survey-multi-choice","9","30838","0.0-6.0-4.0","8","1","2025-07-02 10:18:18","80fe4187154257d5fb01684ea91b68b9","87.206.229.195","Mozilla/5.0 (Windows NT 10.0; Win64; x64) AppleWebKit/537.36 (KHTML, like Gecko) Chrome/137.0.0.0 Safari/537.36","WebKit","Chrome","137.0.0.0","Windows","10.0","https://app.prolific.com/","en-US,en;q=0.9,pl;q=0.8","60fc39cce64c39328a7c8904","683db6dfa200031b80f2a654","6865075186541d4a5141b4e3","60fc39cce64c39328a7c8904","","","[0]","","","5","demographics","","","","","","","","","","","","","","","","","","","","","","","","","","","","","","","","","","","","","",""
"5566","","","{""education"":""Higher National Diploma""}","survey-multi-choice","10","36405","0.0-6.0-5.0","8","1","2025-07-02 10:18:18","80fe4187154257d5fb01684ea91b68b9","87.206.229.195","Mozilla/5.0 (Windows NT 10.0; Win64; x64) AppleWebKit/537.36 (KHTML, like Gecko) Chrome/137.0.0.0 Safari/537.36","WebKit","Chrome","137.0.0.0","Windows","10.0","https://app.prolific.com/","en-US,en;q=0.9,pl;q=0.8","60fc39cce64c39328a7c8904","683db6dfa200031b80f2a654","6865075186541d4a5141b4e3","60fc39cce64c39328a7c8904","2025-07-02T10:18:56.932Z","","[0]","","","6","demographics","","","","","","","","","","","","","","","","","","","","","","","","","","","","","","","","","","","","","",""
"11686","","","{""mental_health_condition"":""N/A"",""mental_health_treatment"":""N/A"",""psychiatric_medication"":""N/A""}","survey-text","11","48093","0.0-7.0-0.0","8","1","2025-07-02 10:18:18","80fe4187154257d5fb01684ea91b68b9","87.206.229.195","Mozilla/5.0 (Windows NT 10.0; Win64; x64) AppleWebKit/537.36 (KHTML, like Gecko) Chrome/137.0.0.0 Safari/537.36","WebKit","Chrome","137.0.0.0","Windows","10.0","https://app.prolific.com/","en-US,en;q=0.9,pl;q=0.8","60fc39cce64c39328a7c8904","683db6dfa200031b80f2a654","6865075186541d4a5141b4e3","60fc39cce64c39328a7c8904","2025-07-02T10:19:08.620Z","","","","","1","mental_health","","","","","","","","","","","","","","","","","","","","","","","","","","","","","","","","","","","","","",""
"10936","","","{""depression_history"":[""Yes""]}","survey-multi-select","12","59029","0.0-7.0-1.0","8","1","2025-07-02 10:18:18","80fe4187154257d5fb01684ea91b68b9","87.206.229.195","Mozilla/5.0 (Windows NT 10.0; Win64; x64) AppleWebKit/537.36 (KHTML, like Gecko) Chrome/137.0.0.0 Safari/537.36","WebKit","Chrome","137.0.0.0","Windows","10.0","https://app.prolific.com/","en-US,en;q=0.9,pl;q=0.8","60fc39cce64c39328a7c8904","683db6dfa200031b80f2a654","6865075186541d4a5141b4e3","60fc39cce64c39328a7c8904","","","[0]","","","","mental_health","","","","","","","","","","","","","","","","","","","","","","","","","","","","","","","","","","","","","",""
"5934","","","{""depression_episodes"":""3-5"",""depression_recent"":""More than 1 year ago""}","survey-multi-choice","13","64964","0.0-7.0-2.0-0.0","8","1","2025-07-02 10:18:18","80fe4187154257d5fb01684ea91b68b9","87.206.229.195","Mozilla/5.0 (Windows NT 10.0; Win64; x64) AppleWebKit/537.36 (KHTML, like Gecko) Chrome/137.0.0.0 Safari/537.36","WebKit","Chrome","137.0.0.0","Windows","10.0","https://app.prolific.com/","en-US,en;q=0.9,pl;q=0.8","60fc39cce64c39328a7c8904","683db6dfa200031b80f2a654","6865075186541d4a5141b4e3","60fc39cce64c39328a7c8904","2025-07-02T10:19:25.491Z","","[0,1]","","","3","mental_health","","","","","","","","","","","","","","","","","","","","","","","","","","","","","","","","","","","","","",""
"49645.59999996424","","","","survey-template","14","114612","0.0-7.0-3.0","8","1","2025-07-02 10:18:18","80fe4187154257d5fb01684ea91b68b9","87.206.229.195","Mozilla/5.0 (Windows NT 10.0; Win64; x64) AppleWebKit/537.36 (KHTML, like Gecko) Chrome/137.0.0.0 Safari/537.36","WebKit","Chrome","137.0.0.0","Windows","10.0","https://app.prolific.com/","en-US,en;q=0.9,pl;q=0.8","60fc39cce64c39328a7c8904","683db6dfa200031b80f2a654","6865075186541d4a5141b4e3","60fc39cce64c39328a7c8904","2025-07-02T10:20:15.139Z","","","","","","ius","{""Q01"":""3"",""Q02"":""3"",""Q03"":""1"",""Q04"":""4"",""Q05"":""4"",""Q06"":""1"",""Q07"":""1"",""Q08"":""0"",""Q09"":""3"",""Q10"":""3"",""Q11"":""1"",""Q12"":""3"",""Q13"":""2""}","[0,1,2,3,4,5,6,7,8,9,10,11,12]","[""Q01"",""Q02"",""Q03"",""Q04"",""Q05"",""Q06"",""Q07"",""Q08"",""Q09"",""Q10"",""Q11"",""Q12"",""Q13""]","[3148.599999964237,7083.399999976158,15474.5,20116.599999964237,22556.69999998808,25798.599999964237,28034.599999964237,30652.69999998808,35848.5,38191.59999996424,40358.59999996424,44772.5,49113.59999996424]","[]","[3148.599999964237,6226.399999976158,7083.399999976158,15474.5,20116.599999964237,22556.69999998808,25798.599999964237,28034.599999964237,30652.69999998808,35848.5,38191.59999996424,40358.59999996424,43071.69999998808,43978.5,44772.5,49113.59999996424,49644.69999998808]","0.38461538461538464","0.16666666666666666","0","","","","","","","","","","","","","","","","","","","","","","","","","","","","",""
"1249","1751451616388","<p style='font-size:1.1em;line-height:1.25'>In the following, we will ask you a few questions relating to your experiences over the past month.<br></p><p style='font-size:1.1em;line-height:1.25'>Press the <strong>Next</strong> button to continue.</p>","0","custom-html-button-response","15","115861","0.0-7.0-4.0","8","1","2025-07-02 10:18:18","80fe4187154257d5fb01684ea91b68b9","87.206.229.195","Mozilla/5.0 (Windows NT 10.0; Win64; x64) AppleWebKit/537.36 (KHTML, like Gecko) Chrome/137.0.0.0 Safari/537.36","WebKit","Chrome","137.0.0.0","Windows","10.0","https://app.prolific.com/","en-US,en;q=0.9,pl;q=0.8","60fc39cce64c39328a7c8904","683db6dfa200031b80f2a654","6865075186541d4a5141b4e3","60fc39cce64c39328a7c8904","2025-07-02T10:20:16.388Z","","","","","","","","","","","","","","","","","","","","","","","","","","","","","","","","","","","","","","","","","","","",""
"55812.299999952316","","","","survey-template","16","171675","0.0-7.0-5.0","8","1","2025-07-02 10:18:18","80fe4187154257d5fb01684ea91b68b9","87.206.229.195","Mozilla/5.0 (Windows NT 10.0; Win64; x64) AppleWebKit/537.36 (KHTML, like Gecko) Chrome/137.0.0.0 Safari/537.36","WebKit","Chrome","137.0.0.0","Windows","10.0","https://app.prolific.com/","en-US,en;q=0.9,pl;q=0.8","60fc39cce64c39328a7c8904","683db6dfa200031b80f2a654","6865075186541d4a5141b4e3","60fc39cce64c39328a7c8904","2025-07-02T10:21:12.202Z","","","","","","pss","{""Q01"":""2"",""Q02"":""1"",""Q03"":""2"",""Q04"":""1"",""Q05"":""2"",""Q06"":""0"",""Q07"":""2"",""Q08"":""1"",""Q09"":""2"",""Q10"":""0""}","[0,1,2,3,4,5,6,7,8,9]","[""Q01"",""Q02"",""Q03"",""Q04"",""Q05"",""Q06"",""Q07"",""Q08"",""Q09"",""Q10""]","[7751.199999988079,19336.299999952316,22271.299999952316,25746.299999952316,29089.299999952316,33123.39999997616,36965.39999997616,44285.39999997616,50538.39999997616,55229.39999997616]","[]","[0.09999996423721313,6628.299999952316,7751.199999988079,19336.299999952316,22271.299999952316,25746.299999952316,29089.299999952316,33123.39999997616,36965.39999997616,44285.39999997616,50538.39999997616,55229.39999997616,55811.5]","0.5","0.6666666666666666","0","","","","","","","","","","","","","","","","","","","","","","","","","","","","",""
"1396","1751451673598","<p style='font-size:1.1em;line-height:1.25'>Thank you for your answers! Now we will ask you a few more questions relating to your feelings in the last 24 hours.<br></p><p style='font-size:1.1em;line-height:1.25'>Press the <strong>Next</strong> button to continue.</p>","0","custom-html-button-response","17","173071","0.0-7.0-6.0","8","1","2025-07-02 10:18:18","80fe4187154257d5fb01684ea91b68b9","87.206.229.195","Mozilla/5.0 (Windows NT 10.0; Win64; x64) AppleWebKit/537.36 (KHTML, like Gecko) Chrome/137.0.0.0 Safari/537.36","WebKit","Chrome","137.0.0.0","Windows","10.0","https://app.prolific.com/","en-US,en;q=0.9,pl;q=0.8","60fc39cce64c39328a7c8904","683db6dfa200031b80f2a654","6865075186541d4a5141b4e3","60fc39cce64c39328a7c8904","2025-07-02T10:21:13.598Z","","","","","","","","","","","","","","","","","","","","","","","","","","","","","","","","","","","","","","","","","","","",""
"52622.19999998808","","","","survey-template","18","225695","0.0-7.0-7.0","8","1","2025-07-02 10:18:18","80fe4187154257d5fb01684ea91b68b9","87.206.229.195","Mozilla/5.0 (Windows NT 10.0; Win64; x64) AppleWebKit/537.36 (KHTML, like Gecko) Chrome/137.0.0.0 Safari/537.36","WebKit","Chrome","137.0.0.0","Windows","10.0","https://app.prolific.com/","en-US,en;q=0.9,pl;q=0.8","60fc39cce64c39328a7c8904","683db6dfa200031b80f2a654","6865075186541d4a5141b4e3","60fc39cce64c39328a7c8904","2025-07-02T10:22:06.222Z","","","","","","drsp","{""Q01"":""0"",""Q02"":""0"",""Q03"":""0"",""Q04"":""1"",""Q05"":""0"",""Q06"":""0"",""Q07"":""2"",""Q08"":""0"",""Q09"":""1"",""Q10"":""1"",""Q11"":""1"",""Q12"":""0"",""Q13"":""0"",""Q14"":""1"",""Q15"":""0"",""Q16"":""0"",""Q17"":""0"",""Q18"":""1"",""Q19"":""0"",""Q20"":""0"",""Q21"":""0""}","[0,1,2,3,4,5,6,7,8,9,10,11,12,13,14,15,16,17,18,19,20]","[""Q01"",""Q02"",""Q03"",""Q04"",""Q04"",""Q05"",""Q06"",""Q07"",""Q08"",""Q09"",""Q10"",""Q11"",""Q12"",""Q13"",""Q14"",""Q14"",""Q15"",""Q16"",""Q17"",""Q18"",""Q19"",""Q20"",""Q21""]","[1951.800000011921,2599.800000011921,3252.699999988079,3944.599999964237,5075.699999988079,5621.699999988079,7681.899999976158,9665.599999964237,12033.899999976158,14234.699999988079,16179.800000011921,17761.80000001192,19952.69999998808,21243.69999998808,23777.599999964237,25040.599999964237,26903.69999998808,30149.69999998808,31632.69999998808,38460.69999998808,43135.69999998808,47742.69999998808,51981.69999998808]","[]","[0.09999996423721313,1951.800000011921,2599.800000011921,3252.699999988079,3944.599999964237,5075.699999988079,5621.699999988079,7681.899999976158,8963.800000011921,9665.599999964237,12033.899999976158,14234.699999988079,15637.699999988079,16179.800000011921,17761.80000001192,19952.69999998808,21243.69999998808,23777.599999964237,25040.599999964237,26903.69999998808,30149.69999998808,31321.69999998808,31632.69999998808,38085.80000001192,38460.69999998808,43135.69999998808,47273.69999998808,47742.69999998808,51981.69999998808,52620.59999996424]","0.6666666666666666","0.4","0","","","","","","","","","","","","","","","","","","","","","","","","","","","","",""
"12426.900000035763","","","","survey-template","19","238123","0.0-7.0-8.0","8","1","2025-07-02 10:18:18","80fe4187154257d5fb01684ea91b68b9","87.206.229.195","Mozilla/5.0 (Windows NT 10.0; Win64; x64) AppleWebKit/537.36 (KHTML, like Gecko) Chrome/137.0.0.0 Safari/537.36","WebKit","Chrome","137.0.0.0","Windows","10.0","https://app.prolific.com/","en-US,en;q=0.9,pl;q=0.8","60fc39cce64c39328a7c8904","683db6dfa200031b80f2a654","6865075186541d4a5141b4e3","60fc39cce64c39328a7c8904","2025-07-02T10:22:18.650Z","","","","","","stress","{""Q01"":""1"",""Q02"":""1"",""Q03"":""0""}","[0,1,2]","[""Q01"",""Q02"",""Q03""]","[4415.400000035763,7401.300000011921,11813.400000035763]","[]","[4415.400000035763,7401.300000011921,11813.400000035763,12426.600000023842]","0.3333333333333333","0","0","","","","","","","","","","","","","","","","","","","","","","","","","","","","",""
"39295","","","","instructions","20","277418","0.0-8.0-0.0","8","1","2025-07-02 10:18:18","80fe4187154257d5fb01684ea91b68b9","87.206.229.195","Mozilla/5.0 (Windows NT 10.0; Win64; x64) AppleWebKit/537.36 (KHTML, like Gecko) Chrome/137.0.0.0 Safari/537.36","WebKit","Chrome","137.0.0.0","Windows","10.0","https://app.prolific.com/","en-US,en;q=0.9,pl;q=0.8","60fc39cce64c39328a7c8904","683db6dfa200031b80f2a654","6865075186541d4a5141b4e3","60fc39cce64c39328a7c8904","","[{""page_index"":0,""viewing_time"":11821},{""page_index"":1,""viewing_time"":9907},{""page_index"":2,""viewing_time"":2711},{""page_index"":3,""viewing_time"":14856}]","","","","","","","","","","","","","","","","","","","","","","","","","","","","","","","","","","","","","","","","","","",""
"","","","","ctl-task-cpt","21","315825","0.0-8.0-1.0","8","1","2025-07-02 10:18:18","80fe4187154257d5fb01684ea91b68b9","87.206.229.195","Mozilla/5.0 (Windows NT 10.0; Win64; x64) AppleWebKit/537.36 (KHTML, like Gecko) Chrome/137.0.0.0 Safari/537.36","WebKit","Chrome","137.0.0.0","Windows","10.0","https://app.prolific.com/","en-US,en;q=0.9,pl;q=0.8","60fc39cce64c39328a7c8904","683db6dfa200031b80f2a654","6865075186541d4a5141b4e3","60fc39cce64c39328a7c8904","","","","","","","","","","","","","","","","","win-only","2","g1:SE,g2:NW","1","0","1","278534.9","2147.4","6150.7","35402.8","2","4","4","6","1","-2","-3","0","0","0","4003.3","4000","-3005","[""down"",""right""]","{""num_key_presses"":8,""num_perfect"":7,""num_errors"":1,""num_randdir"":0,""num_randdir_good_moves"":0,""num_whilered"":0,""num_whileblue"":1,""num_blue"":2,""num_good_moves"":1}","[418.57142857142856,420.47767857142856,0.2,418.57142857142856,420.47767857142856,103.9,418.57142857142856,420.47767857142856,208.1,418.57142857142856,420.47767857142856,308.3,418.57142857142856,420.47767857142856,408.5,418.57142857142856,420.47767857142856,513.7,418.57142857142856,420.47767857142856,613.8,420.57142857142856,424.47767857142856,718.9,449.57142857142856,467.47767857142856,823.1,475.57142857142856,503.47767857142856,923.4,493.57142857142856,519.4776785714286,1027.9,502.57142857142856,517.4776785714286,1133.2,518.5714285714286,490.47767857142856,1233.3,519.5714285714286,489.47767857142856,1333.5,519.5714285714286,489.47767857142856,1438.7,519.5714285714286,489.47767857142856,1538.8,521.5714285714286,489.47767857142856,1644,522.5714285714286,489.47767857142856,1748.1,523.5714285714286,490.47767857142856,1852.7,523.5714285714286,490.47767857142856,1952.8,523.5714285714286,490.47767857142856,2052.8,523.5714285714286,490.47767857142856,2158.4,523.5714285714286,490.47767857142856,2258.6,523.5714285714286,490.47767857142856,2358.8,523.5714285714286,490.47767857142856,2463.9,513.5714285714286,481.47767857142856,2568.5,518.5714285714286,486.47767857142856,2668.6,669.5714285714286,628.4776785714286,2768.9,711.5714285714286,728.4776785714286,2869,756.5714285714286,759.4776785714286,2974.2,775.5714285714286,780.4776785714286,3078,770.5714285714286,768.4776785714286,3178,768.5714285714286,761.4776785714286,3278.1,743.5714285714286,731.4776785714286,3378.1,484.57142857142856,478.47767857142856,3478.1,295.57142857142856,276.47767857142856,3578.2,182.57142857142856,183.47767857142856,3683,126.57142857142857,141.47767857142856,3783.8,96.57142857142857,96.47767857142857,3888.9,90.57142857142857,80.47767857142857,3993.6]","[1764.7,1764.7,1000,0,764.7,""smooth"",""up"",""up"",""bad_move"",5443.7,3678.8,3117.7,1765,561,""smooth"",""up"",""up"",""bad_move"",8144,2700.2,2230.4,5443.8,469.8,""smooth"",""up"",""up"",""bad_move"",10652,2507.9,2136.6,8144.1,371.3,""smooth"",""left"",""left"",""bad_move"",13622,2969.8,2643.2,10652.2,326.6,""while_blue"",""left"",""right"",""good_move"",20214.8,6592.6,2636.7,17180.1,398,""smooth"",""left"",""left"",""bad_move"",23443.9,3229,2729.1,20214.9,499.9,""smooth"",""left"",""left"",""bad_move"",26020,2576.1,2159.5,23443.9,416.6,""smooth"",""left"",""left"",""bad_move""]","",""
"11994","","","","instructions","22","327819","0.0-8.0-2.0","8","1","2025-07-02 10:18:18","80fe4187154257d5fb01684ea91b68b9","87.206.229.195","Mozilla/5.0 (Windows NT 10.0; Win64; x64) AppleWebKit/537.36 (KHTML, like Gecko) Chrome/137.0.0.0 Safari/537.36","WebKit","Chrome","137.0.0.0","Windows","10.0","https://app.prolific.com/","en-US,en;q=0.9,pl;q=0.8","60fc39cce64c39328a7c8904","683db6dfa200031b80f2a654","6865075186541d4a5141b4e3","60fc39cce64c39328a7c8904","","[{""page_index"":0,""viewing_time"":11994}]","","","","","","","","","","","","","","","","","","","","","","","","","","","","","","","","","","","","","","","","","","",""
"","","","","ctl-task-cpt","23","368681","0.0-8.0-3.0","8","1","2025-07-02 10:18:18","80fe4187154257d5fb01684ea91b68b9","87.206.229.195","Mozilla/5.0 (Windows NT 10.0; Win64; x64) AppleWebKit/537.36 (KHTML, like Gecko) Chrome/137.0.0.0 Safari/537.36","WebKit","Chrome","137.0.0.0","Windows","10.0","https://app.prolific.com/","en-US,en;q=0.9,pl;q=0.8","60fc39cce64c39328a7c8904","683db6dfa200031b80f2a654","6865075186541d4a5141b4e3","60fc39cce64c39328a7c8904","","","","","","","","","","","","","","","","","win-only","2","g1:SE,g2:NW","0.35","0","3","328935.2","1038.1","5040.3","37851.2","2","4","8","6","2","-8","-9","0","0","0","3010","4000","-3010","[""left"",""up""]","{""num_key_presses"":10,""num_perfect"":4,""num_errors"":1,""num_randdir"":5,""num_randdir_good_moves"":3,""num_whilered"":0,""num_whileblue"":0,""num_blue"":1,""num_good_moves"":5}","[424.57142857142856,407.47767857142856,0.1,424.57142857142856,409.47767857142856,102.6,424.57142857142856,410.47767857142856,207.2,424.57142857142856,411.47767857142856,307.4,458.57142857142856,405.47767857142856,407.7,488.57142857142856,403.47767857142856,512.8,488.57142857142856,403.47767857142856,617.8,488.57142857142856,403.47767857142856,718.1,488.57142857142856,397.47767857142856,823.3,487.57142857142856,396.47767857142856,927.4,481.57142857142856,395.47767857142856,1027.5,428.57142857142856,370.47767857142856,1127.6,244.57142857142856,208.47767857142856,1227.8,115.57142857142857,77.47767857142857,1327.9,83.57142857142857,61.47767857142857,1432.9,72.57142857142857,82.47767857142857,1538,72.57142857142857,82.47767857142857,1642.7,72.57142857142857,83.47767857142857,1748.4,72.57142857142857,83.47767857142857,1852.9,72.57142857142857,83.47767857142857,1957.7,72.57142857142857,83.47767857142857,2057.8,72.57142857142857,83.47767857142857,2163,72.57142857142857,83.47767857142857,2263.2,72.57142857142857,83.47767857142857,2367.3,72.57142857142857,83.47767857142857,2467.6,72.57142857142857,83.47767857142857,2567.7,72.57142857142857,83.47767857142857,2672.4,72.57142857142857,83.47767857142857,2772.6,72.57142857142857,83.47767857142857,2877.8,72.57142857142857,83.47767857142857,2977.8,72.57142857142857,83.47767857142857,3082.5,72.57142857142857,83.47767857142857,3182.7,72.57142857142857,83.47767857142857,3283,142.57142857142856,73.47767857142857,3387.1,424.57142857142856,-50.52232142857143,3487.2,435.57142857142856,-58.52232142857143,3588,435.57142857142856,-58.52232142857143,3688.2,435.57142857142856,-58.52232142857143,3788.5,435.57142857142856,-58.52232142857143,3888.5,435.57142857142856,-58.52232142857143,3992.8]","[1379.2,1379.2,1000,0,379.2,""oops"",""up"",""down"",""bad_move"",7825.8,6446.5,2254.6,5180.6,390.6,""oops"",""up"",""right"",""bad_move"",10975.8,3149.8,2460.7,7826,689.1,""smooth"",""down"",""down"",""bad_move"",14564.8,3588.9,3199.4,10975.9,389.5,""oops"",""up"",""left"",""good_move"",17973.1,3408.2,3009.9,14564.9,398.3,""smooth"",""right"",""right"",""bad_move"",20988.3,3015.1,2683.3,17973.2,331.8,""smooth"",""up"",""up"",""good_move"",23530.9,2542.4,2193.6,20988.5,348.8,""oops"",""up"",""up"",""good_move"",26287.4,2756.4,2342.8,23531,413.6,""smooth"",""left"",""left"",""good_move"",26350.4,63,3155.9,26287.4,-3092.9,""error"",""-"",""-"",""no_move"",30461.2,4110.9,2761.9,27355.1,344.3,""oops"",""up"",""left"",""good_move""]","",""
"15811","","","","instructions","24","384492","0.0-8.0-4.0","8","1","2025-07-02 10:18:18","80fe4187154257d5fb01684ea91b68b9","87.206.229.195","Mozilla/5.0 (Windows NT 10.0; Win64; x64) AppleWebKit/537.36 (KHTML, like Gecko) Chrome/137.0.0.0 Safari/537.36","WebKit","Chrome","137.0.0.0","Windows","10.0","https://app.prolific.com/","en-US,en;q=0.9,pl;q=0.8","60fc39cce64c39328a7c8904","683db6dfa200031b80f2a654","6865075186541d4a5141b4e3","60fc39cce64c39328a7c8904","","[{""page_index"":0,""viewing_time"":10305},{""page_index"":1,""viewing_time"":5506}]","","","","","","","","","","","","","","","","","","","","","","","","","","","","","","","","","","","","","","","","","","",""
"8057","","","{""green_ball"":[""Ball sometimes shakes and moves in a random direction""]}","survey-multi-select","25","392551","0.0-8.0-5.0-0.0","8","1","2025-07-02 10:18:18","80fe4187154257d5fb01684ea91b68b9","87.206.229.195","Mozilla/5.0 (Windows NT 10.0; Win64; x64) AppleWebKit/537.36 (KHTML, like Gecko) Chrome/137.0.0.0 Safari/537.36","WebKit","Chrome","137.0.0.0","Windows","10.0","https://app.prolific.com/","en-US,en;q=0.9,pl;q=0.8","60fc39cce64c39328a7c8904","683db6dfa200031b80f2a654","6865075186541d4a5141b4e3","60fc39cce64c39328a7c8904","","","[0]","","","","quiz","","","","","","","","","","","","","","","","","","","","","","","","","","","","","","","","","","","","","true",""
"1592","","<p align='center'><b>CORRECT!</b> Indeed, the green ball may sometimes shake and move in a random direction.</p>","0","html-button-response","26","394143","0.0-8.0-5.0-1.0","8","1","2025-07-02 10:18:18","80fe4187154257d5fb01684ea91b68b9","87.206.229.195","Mozilla/5.0 (Windows NT 10.0; Win64; x64) AppleWebKit/537.36 (KHTML, like Gecko) Chrome/137.0.0.0 Safari/537.36","WebKit","Chrome","137.0.0.0","Windows","10.0","https://app.prolific.com/","en-US,en;q=0.9,pl;q=0.8","60fc39cce64c39328a7c8904","683db6dfa200031b80f2a654","6865075186541d4a5141b4e3","60fc39cce64c39328a7c8904","","","","","","","","","","","","","","","","","","","","","","","","","","","","","","","","","","","","","","","","","","","","",""
"7011","","","{""yellow_ball"":[""Ball doesn‘t move and I get -1 penalty point""]}","survey-multi-select","27","401155","0.0-8.0-6.0-0.0","8","1","2025-07-02 10:18:18","80fe4187154257d5fb01684ea91b68b9","87.206.229.195","Mozilla/5.0 (Windows NT 10.0; Win64; x64) AppleWebKit/537.36 (KHTML, like Gecko) Chrome/137.0.0.0 Safari/537.36","WebKit","Chrome","137.0.0.0","Windows","10.0","https://app.prolific.com/","en-US,en;q=0.9,pl;q=0.8","60fc39cce64c39328a7c8904","683db6dfa200031b80f2a654","6865075186541d4a5141b4e3","60fc39cce64c39328a7c8904","","","[0]","","","","quiz","","","","","","","","","","","","","","","","","","","","","","","","","","","","","","","","","","","","","true",""
"1164","","<p align='center'><b>CORRECT!</b> Indeed, the yellow ball never moves and you receive a penalty.</p>","0","html-button-response","28","402321","0.0-8.0-6.0-1.0","8","1","2025-07-02 10:18:18","80fe4187154257d5fb01684ea91b68b9","87.206.229.195","Mozilla/5.0 (Windows NT 10.0; Win64; x64) AppleWebKit/537.36 (KHTML, like Gecko) Chrome/137.0.0.0 Safari/537.36","WebKit","Chrome","137.0.0.0","Windows","10.0","https://app.prolific.com/","en-US,en;q=0.9,pl;q=0.8","60fc39cce64c39328a7c8904","683db6dfa200031b80f2a654","6865075186541d4a5141b4e3","60fc39cce64c39328a7c8904","","","","","","","","","","","","","","","","","","","","","","","","","","","","","","","","","","","","","","","","","","","","",""
"12626","","","{""blue_ball"":[""Ball always shakes and moves in a random direction""]}","survey-multi-select","29","414948","0.0-8.0-7.0-0.0","8","1","2025-07-02 10:18:18","80fe4187154257d5fb01684ea91b68b9","87.206.229.195","Mozilla/5.0 (Windows NT 10.0; Win64; x64) AppleWebKit/537.36 (KHTML, like Gecko) Chrome/137.0.0.0 Safari/537.36","WebKit","Chrome","137.0.0.0","Windows","10.0","https://app.prolific.com/","en-US,en;q=0.9,pl;q=0.8","60fc39cce64c39328a7c8904","683db6dfa200031b80f2a654","6865075186541d4a5141b4e3","60fc39cce64c39328a7c8904","","","[0]","","","","quiz","","","","","","","","","","","","","","","","","","","","","","","","","","","","","","","","","","","","","true",""
"1200","","<p align='center'><b>CORRECT!</b> Indeed, the blue ball always shakes and moves in a random direction. Also there is a penalty of -1 point.</p>","0","html-button-response","30","416148","0.0-8.0-7.0-1.0","8","1","2025-07-02 10:18:18","80fe4187154257d5fb01684ea91b68b9","87.206.229.195","Mozilla/5.0 (Windows NT 10.0; Win64; x64) AppleWebKit/537.36 (KHTML, like Gecko) Chrome/137.0.0.0 Safari/537.36","WebKit","Chrome","137.0.0.0","Windows","10.0","https://app.prolific.com/","en-US,en;q=0.9,pl;q=0.8","60fc39cce64c39328a7c8904","683db6dfa200031b80f2a654","6865075186541d4a5141b4e3","60fc39cce64c39328a7c8904","","","","","","","","","","","","","","","","","","","","","","","","","","","","","","","","","","","","","","","","","","","","",""
"7140","","","{""bonus"":[""When I reach 80% of points""]}","survey-multi-select","31","423290","0.0-8.0-8.0-0.0","8","1","2025-07-02 10:18:18","80fe4187154257d5fb01684ea91b68b9","87.206.229.195","Mozilla/5.0 (Windows NT 10.0; Win64; x64) AppleWebKit/537.36 (KHTML, like Gecko) Chrome/137.0.0.0 Safari/537.36","WebKit","Chrome","137.0.0.0","Windows","10.0","https://app.prolific.com/","en-US,en;q=0.9,pl;q=0.8","60fc39cce64c39328a7c8904","683db6dfa200031b80f2a654","6865075186541d4a5141b4e3","60fc39cce64c39328a7c8904","","","[0]","","","","quiz","","","","","","","","","","","","","","","","","","","","","","","","","","","","","","","","","","","","","false",""
"2697","","<p align='center'><b>INCORRECT.</b> You receive 2 pounds extra when you reach 50% of points </p>","0","html-button-response","32","425987","0.0-8.0-8.0-1.0","8","1","2025-07-02 10:18:18","80fe4187154257d5fb01684ea91b68b9","87.206.229.195","Mozilla/5.0 (Windows NT 10.0; Win64; x64) AppleWebKit/537.36 (KHTML, like Gecko) Chrome/137.0.0.0 Safari/537.36","WebKit","Chrome","137.0.0.0","Windows","10.0","https://app.prolific.com/","en-US,en;q=0.9,pl;q=0.8","60fc39cce64c39328a7c8904","683db6dfa200031b80f2a654","6865075186541d4a5141b4e3","60fc39cce64c39328a7c8904","","","","","","","","","","","","","","","","","","","","","","","","","","","","","","","","","","","","","","","","","","","","",""
"1648","","","{""bonus"":[""When I reach 50% of points""]}","survey-multi-select","33","427637","0.0-8.0-8.1-0.1","8","1","2025-07-02 10:18:18","80fe4187154257d5fb01684ea91b68b9","87.206.229.195","Mozilla/5.0 (Windows NT 10.0; Win64; x64) AppleWebKit/537.36 (KHTML, like Gecko) Chrome/137.0.0.0 Safari/537.36","WebKit","Chrome","137.0.0.0","Windows","10.0","https://app.prolific.com/","en-US,en;q=0.9,pl;q=0.8","60fc39cce64c39328a7c8904","683db6dfa200031b80f2a654","6865075186541d4a5141b4e3","60fc39cce64c39328a7c8904","","","[0]","","","","quiz","","","","","","","","","","","","","","","","","","","","","","","","","","","","","","","","","","","","","true",""
"904","","<p align='center'><b>CORRECT!</b> Indeed, you receive 2 pounds extra when you reach 50% of points.</p>","0","html-button-response","34","428541","0.0-8.0-8.1-1.1","8","1","2025-07-02 10:18:18","80fe4187154257d5fb01684ea91b68b9","87.206.229.195","Mozilla/5.0 (Windows NT 10.0; Win64; x64) AppleWebKit/537.36 (KHTML, like Gecko) Chrome/137.0.0.0 Safari/537.36","WebKit","Chrome","137.0.0.0","Windows","10.0","https://app.prolific.com/","en-US,en;q=0.9,pl;q=0.8","60fc39cce64c39328a7c8904","683db6dfa200031b80f2a654","6865075186541d4a5141b4e3","60fc39cce64c39328a7c8904","","","","","","","","","","","","","","","","","","","","","","","","","","","","","","","","","","","","","","","","","","","","",""
"1355","","","","instructions","35","429896","0.0-8.0-9.0","8","1","2025-07-02 10:18:18","80fe4187154257d5fb01684ea91b68b9","87.206.229.195","Mozilla/5.0 (Windows NT 10.0; Win64; x64) AppleWebKit/537.36 (KHTML, like Gecko) Chrome/137.0.0.0 Safari/537.36","WebKit","Chrome","137.0.0.0","Windows","10.0","https://app.prolific.com/","en-US,en;q=0.9,pl;q=0.8","60fc39cce64c39328a7c8904","683db6dfa200031b80f2a654","6865075186541d4a5141b4e3","60fc39cce64c39328a7c8904","","[{""page_index"":0,""viewing_time"":1355}]","","","","","","","","","","","","","","","","","","","","","","","","","","","","","","","","","","","","","","","","","","",""
"4036","","<p>Before you start with this game please answer the following three questions yourself. </p>
  <p>Through this game, we measure several aspects of your cognitive performance, such as reaction times, multi-tasking capabilities </p>
  <p>and the ability to assess the situation you are in.</p>
  <p></p>
  <p><b>How good do you usually are in such tasks?</b></p>","87","html-slider-response","36","433933","0.0-9.0-0.0","8","1","2025-07-02 10:18:18","80fe4187154257d5fb01684ea91b68b9","87.206.229.195","Mozilla/5.0 (Windows NT 10.0; Win64; x64) AppleWebKit/537.36 (KHTML, like Gecko) Chrome/137.0.0.0 Safari/537.36","WebKit","Chrome","137.0.0.0","Windows","10.0","https://app.prolific.com/","en-US,en;q=0.9,pl;q=0.8","60fc39cce64c39328a7c8904","683db6dfa200031b80f2a654","6865075186541d4a5141b4e3","60fc39cce64c39328a7c8904","2025-07-02T10:25:34.460Z","","","","","","PreSkillQ","","","","","","","","","","","","","","","","","","","","","","","","","","","","","","","","","","","","","","50"
"3475","","<div style=""width:500px;"">
  <p>How well do you think you will perform in this task compared to other participants?</p>
  </div>","76","html-slider-response","37","437408","0.0-9.0-1.0","8","1","2025-07-02 10:18:18","80fe4187154257d5fb01684ea91b68b9","87.206.229.195","Mozilla/5.0 (Windows NT 10.0; Win64; x64) AppleWebKit/537.36 (KHTML, like Gecko) Chrome/137.0.0.0 Safari/537.36","WebKit","Chrome","137.0.0.0","Windows","10.0","https://app.prolific.com/","en-US,en;q=0.9,pl;q=0.8","60fc39cce64c39328a7c8904","683db6dfa200031b80f2a654","6865075186541d4a5141b4e3","60fc39cce64c39328a7c8904","2025-07-02T10:25:37.935Z","","","","","","PrePerfQ","","","","","","","","","","","","","","","","","","","","","","","","","","","","","","","","","","","","","","50"
"2783","","<div style=""width:500px;"">
  <p>What best describes how you currently feel?</p>
  </div>","98","html-slider-response","38","440192","0.0-9.0-2.0","8","1","2025-07-02 10:18:18","80fe4187154257d5fb01684ea91b68b9","87.206.229.195","Mozilla/5.0 (Windows NT 10.0; Win64; x64) AppleWebKit/537.36 (KHTML, like Gecko) Chrome/137.0.0.0 Safari/537.36","WebKit","Chrome","137.0.0.0","Windows","10.0","https://app.prolific.com/","en-US,en;q=0.9,pl;q=0.8","60fc39cce64c39328a7c8904","683db6dfa200031b80f2a654","6865075186541d4a5141b4e3","60fc39cce64c39328a7c8904","2025-07-02T10:25:40.719Z","","","","","","PreMotivationQ","","","","","","","","","","","","","","","","","","","","","","","","","","","","","","","","","","","","","","50"
"","","","","ctl-task-cpt","39","477836","0.0-10.0-0.0","8","1","2025-07-02 10:18:18","80fe4187154257d5fb01684ea91b68b9","87.206.229.195","Mozilla/5.0 (Windows NT 10.0; Win64; x64) AppleWebKit/537.36 (KHTML, like Gecko) Chrome/137.0.0.0 Safari/537.36","WebKit","Chrome","137.0.0.0","Windows","10.0","https://app.prolific.com/","en-US,en;q=0.9,pl;q=0.8","60fc39cce64c39328a7c8904","683db6dfa200031b80f2a654","6865075186541d4a5141b4e3","60fc39cce64c39328a7c8904","2025-07-02T10:26:18.363Z","","","","","","","","","","","","","","","","win-only","0","g1:NW,g2:SE","1","1","0","441309.2","1192.4","6195.9","34626.1","1","4","4","6","2","4","3","3","0","0.022727272727272728","1098.8","3000","10","[""down"",""right""]","{""num_key_presses"":7,""num_perfect"":6,""num_errors"":1,""num_randdir"":0,""num_randdir_good_moves"":0,""num_whilered"":0,""num_whileblue"":0,""num_blue"":3,""num_good_moves"":6}","[418.57142857142856,412.47767857142856,0.1,418.57142857142856,412.47767857142856,103.5,427.57142857142856,407.47767857142856,208.2,542.5714285714286,325.47767857142856,313.3,629.5714285714286,263.47767857142856,413.3,629.5714285714286,263.47767857142856,513.5,629.5714285714286,263.47767857142856,618.3,632.5714285714286,300.47767857142856,722.9,724.5714285714286,576.4776785714286,823.1,788.5714285714286,723.4776785714286,923.4,784.5714285714286,745.4776785714286,1028.5,782.5714285714286,743.4776785714286,1128.8,782.5714285714286,743.4776785714286,1228.9,782.5714285714286,743.4776785714286,1333.3,817.5714285714286,711.4776785714286,1438.6,891.5714285714286,556.4776785714286,1543.4,891.5714285714286,555.4776785714286,1643.5,891.5714285714286,555.4776785714286,1743.8,891.5714285714286,555.4776785714286,1848.3,891.5714285714286,555.4776785714286,1948.6,891.5714285714286,555.4776785714286,2053.7,891.5714285714286,555.4776785714286,2154,891.5714285714286,555.4776785714286,2258,891.5714285714286,555.4776785714286,2358.1,891.5714285714286,555.4776785714286,2458.4,891.5714285714286,555.4776785714286,2558.4,891.5714285714286,555.4776785714286,2658.5,891.5714285714286,555.4776785714286,2758.5,891.5714285714286,555.4776785714286,2858.5,891.5714285714286,555.4776785714286,2963.4,891.5714285714286,555.4776785714286,3068.6,891.5714285714286,555.4776785714286,3168.7,891.5714285714286,555.4776785714286,3273.3,891.5714285714286,555.4776785714286,3378.5,891.5714285714286,555.4776785714286,3483.2,891.5714285714286,555.4776785714286,3583.4,891.5714285714286,555.4776785714286,3688.5,891.5714285714286,555.4776785714286,3793.6,891.5714285714286,555.4776785714286,3893.8,891.5714285714286,555.4776785714286,3994.1,891.5714285714286,555.4776785714286,4098.2,891.5714285714286,555.4776785714286,4198.4,891.5714285714286,555.4776785714286,4303.1,891.5714285714286,555.4776785714286,4403.2,891.5714285714286,555.4776785714286,4508,891.5714285714286,555.4776785714286,4608,891.5714285714286,555.4776785714286,4708.2,891.5714285714286,555.4776785714286,4813.3,891.5714285714286,555.4776785714286,4913.5]","[4650.1,4650.1,2131.8,2010.1,508.2,""smooth"",""down"",""down"",""good_move"",10635.2,5985.1,2398.6,7829.8,406.8,""smooth"",""right"",""right"",""good_move"",14347.7,3712.4,3124.5,10635.3,587.9,""smooth"",""down"",""down"",""good_move"",17284.5,2936.7,2443.2,14347.8,493.5,""smooth"",""right"",""right"",""good_move"",20884.1,3599.4,2094.4,20529.7,-1740,""error"",""-"",""-"",""no_move"",24686.7,3802.4,2423.3,21885.5,377.9,""smooth"",""down"",""down"",""good_move"",28343.2,3656.4,3011.6,24686.8,644.8,""smooth"",""right"",""right"",""good_move""]","",""
"3444","","<div style=""width:500px;"">
  <p>What determined the result of this run?</p>
  </div>","100","html-slider-response","40","481280","0.0-10.0-1.0","8","1","2025-07-02 10:18:18","80fe4187154257d5fb01684ea91b68b9","87.206.229.195","Mozilla/5.0 (Windows NT 10.0; Win64; x64) AppleWebKit/537.36 (KHTML, like Gecko) Chrome/137.0.0.0 Safari/537.36","WebKit","Chrome","137.0.0.0","Windows","10.0","https://app.prolific.com/","en-US,en;q=0.9,pl;q=0.8","60fc39cce64c39328a7c8904","683db6dfa200031b80f2a654","6865075186541d4a5141b4e3","60fc39cce64c39328a7c8904","2025-07-02T10:26:21.807Z","","","","","","AttribQ","","","","","","","","","","","","","","","","","","","","","","","","","","","","","","","","","","","","","","50"
"2111","","<div style=""width:500px;"">
  <p>How much control did you have over the ball?</p>
  </div>","100","html-slider-response","41","483392","0.0-10.0-2.0","8","1","2025-07-02 10:18:18","80fe4187154257d5fb01684ea91b68b9","87.206.229.195","Mozilla/5.0 (Windows NT 10.0; Win64; x64) AppleWebKit/537.36 (KHTML, like Gecko) Chrome/137.0.0.0 Safari/537.36","WebKit","Chrome","137.0.0.0","Windows","10.0","https://app.prolific.com/","en-US,en;q=0.9,pl;q=0.8","60fc39cce64c39328a7c8904","683db6dfa200031b80f2a654","6865075186541d4a5141b4e3","60fc39cce64c39328a7c8904","2025-07-02T10:26:23.919Z","","","","","","ControlQ","","","","","","","","","","","","","","","","","","","","","","","","","","","","","","","","","","","","","","50"
"4268","","<div style=""width:500px;"">
  <p>How would you describe your current emotional state?</p>
  </div>","11","html-slider-response","42","487660","0.0-10.0-3.0","8","1","2025-07-02 10:18:18","80fe4187154257d5fb01684ea91b68b9","87.206.229.195","Mozilla/5.0 (Windows NT 10.0; Win64; x64) AppleWebKit/537.36 (KHTML, like Gecko) Chrome/137.0.0.0 Safari/537.36","WebKit","Chrome","137.0.0.0","Windows","10.0","https://app.prolific.com/","en-US,en;q=0.9,pl;q=0.8","60fc39cce64c39328a7c8904","683db6dfa200031b80f2a654","6865075186541d4a5141b4e3","60fc39cce64c39328a7c8904","2025-07-02T10:26:28.187Z","","","","","","StressQ","","","","","","","","","","","","","","","","","","","","","","","","","","","","","","","","","","","","","","50"
"3639","","<div style=""width:500px;"">
  <p>What best describes how you currently feel?</p>
  </div>","95","html-slider-response","43","491299","0.0-10.0-4.0","8","1","2025-07-02 10:18:18","80fe4187154257d5fb01684ea91b68b9","87.206.229.195","Mozilla/5.0 (Windows NT 10.0; Win64; x64) AppleWebKit/537.36 (KHTML, like Gecko) Chrome/137.0.0.0 Safari/537.36","WebKit","Chrome","137.0.0.0","Windows","10.0","https://app.prolific.com/","en-US,en;q=0.9,pl;q=0.8","60fc39cce64c39328a7c8904","683db6dfa200031b80f2a654","6865075186541d4a5141b4e3","60fc39cce64c39328a7c8904","2025-07-02T10:26:31.826Z","","","","","","MotivationQ","","","","","","","","","","","","","","","","","","","","","","","","","","","","","","","","","","","","","","50"
"","","","","ctl-task-cpt","44","525221","0.0-10.0-0.1","8","1","2025-07-02 10:18:18","80fe4187154257d5fb01684ea91b68b9","87.206.229.195","Mozilla/5.0 (Windows NT 10.0; Win64; x64) AppleWebKit/537.36 (KHTML, like Gecko) Chrome/137.0.0.0 Safari/537.36","WebKit","Chrome","137.0.0.0","Windows","10.0","https://app.prolific.com/","en-US,en;q=0.9,pl;q=0.8","60fc39cce64c39328a7c8904","683db6dfa200031b80f2a654","6865075186541d4a5141b4e3","60fc39cce64c39328a7c8904","2025-07-02T10:27:05.748Z","","","","","","","","","","","","","","","","win-only","1","g1:NE,g2:SW","0.9","2","0","492415.7","964.8","5965.2","30906.5","1","4","8","6","2","8","7","10","3","0.07575757575757576","1957.9","3000","305","[""down"",""left""]","{""num_key_presses"":8,""num_perfect"":6,""num_errors"":1,""num_randdir"":1,""num_randdir_good_moves"":1,""num_whilered"":0,""num_whileblue"":1,""num_blue"":2,""num_good_moves"":7}","[425.57142857142856,418.47767857142856,0,425.57142857142856,418.47767857142856,100.7,435.57142857142856,419.47767857142856,200.9,1280.5714285714287,330.47767857142856,305.5,1370.5714285714287,303.47767857142856,405.9,1370.5714285714287,303.47767857142856,511.6,1370.5714285714287,303.47767857142856,616.8,1370.5714285714287,303.47767857142856,720.5,1370.5714285714287,303.47767857142856,820.6,1370.5714285714287,303.47767857142856,926.2,1370.5714285714287,303.47767857142856,1026.5,1370.5714285714287,303.47767857142856,1130.9,939.5714285714286,295.47767857142856,1231.4,320.57142857142856,401.47767857142856,1335.7,347.57142857142856,390.47767857142856,1435.8,238.57142857142856,364.47767857142856,1536.5,72.57142857142857,532.4776785714286,1640.4,84.57142857142857,678.4776785714286,1740.9,71.57142857142857,750.4776785714286,1845.7,58.57142857142857,746.4776785714286,1951.5,55.57142857142857,731.4776785714286,2056.3,55.57142857142857,728.4776785714286,2161.4,55.57142857142857,728.4776785714286,2265.4,55.57142857142857,728.4776785714286,2365.4,55.57142857142857,728.4776785714286,2466.5,55.57142857142857,728.4776785714286,2570.4,55.57142857142857,728.4776785714286,2671,55.57142857142857,728.4776785714286,2776,55.57142857142857,728.4776785714286,2876.7,55.57142857142857,728.4776785714286,2981,55.57142857142857,728.4776785714286,3081.1,55.57142857142857,728.4776785714286,3181.2,55.57142857142857,728.4776785714286,3286,55.57142857142857,728.4776785714286,3390.7,55.57142857142857,728.4776785714286,3491,55.57142857142857,728.4776785714286,3591.2,55.57142857142857,728.4776785714286,3691.5,55.57142857142857,728.4776785714286,3795.8,55.57142857142857,728.4776785714286,3895.9,55.57142857142857,728.4776785714286,3995.9,55.57142857142857,728.4776785714286,4095.9,55.57142857142857,728.4776785714286,4196,55.57142857142857,728.4776785714286,4301.2,55.57142857142857,728.4776785714286,4401.4,55.57142857142857,728.4776785714286,4506,55.57142857142857,728.4776785714286,4606.2,55.57142857142857,728.4776785714286,4706.3,55.57142857142857,728.4776785714286,4811.4,55.57142857142857,728.4776785714286,4911.6]","[1464.7,1464.7,1000,0,464.7,""smooth"",""down"",""down"",""good_move"",8203.3,6738.4,3001.7,4845.3,356.3,""smooth"",""down"",""down"",""good_move"",10632.8,2429.4,1983.4,8203.4,446,""smooth"",""down"",""down"",""good_move"",13840.3,3207.4,2837.2,10632.9,370.2,""smooth"",""left"",""left"",""good_move"",16584.3,2743.8,2357.6,13840.5,386.2,""oops"",""left"",""left"",""good_move"",19419.6,2835.2,2382.6,16584.4,452.6,""smooth"",""right"",""right"",""bad_move"",22047.4,2627.6,2365,19419.8,262.7,""smooth"",""left"",""left"",""good_move"",24853.3,2805.7,2453.3,22047.6,352.4,""while_blue"",""left"",""left"",""good_move""]","",""
"2475","","<div style=""width:500px;"">
  <p>What determined the result of this run?</p>
  </div>","100","html-slider-response","45","527697","0.0-10.0-1.1","8","1","2025-07-02 10:18:18","80fe4187154257d5fb01684ea91b68b9","87.206.229.195","Mozilla/5.0 (Windows NT 10.0; Win64; x64) AppleWebKit/537.36 (KHTML, like Gecko) Chrome/137.0.0.0 Safari/537.36","WebKit","Chrome","137.0.0.0","Windows","10.0","https://app.prolific.com/","en-US,en;q=0.9,pl;q=0.8","60fc39cce64c39328a7c8904","683db6dfa200031b80f2a654","6865075186541d4a5141b4e3","60fc39cce64c39328a7c8904","2025-07-02T10:27:08.224Z","","","","","","AttribQ","","","","","","","","","","","","","","","","","","","","","","","","","","","","","","","","","","","","","","50"
"2360","","<div style=""width:500px;"">
  <p>How much control did you have over the ball?</p>
  </div>","100","html-slider-response","46","530057","0.0-10.0-2.1","8","1","2025-07-02 10:18:18","80fe4187154257d5fb01684ea91b68b9","87.206.229.195","Mozilla/5.0 (Windows NT 10.0; Win64; x64) AppleWebKit/537.36 (KHTML, like Gecko) Chrome/137.0.0.0 Safari/537.36","WebKit","Chrome","137.0.0.0","Windows","10.0","https://app.prolific.com/","en-US,en;q=0.9,pl;q=0.8","60fc39cce64c39328a7c8904","683db6dfa200031b80f2a654","6865075186541d4a5141b4e3","60fc39cce64c39328a7c8904","2025-07-02T10:27:10.584Z","","","","","","ControlQ","","","","","","","","","","","","","","","","","","","","","","","","","","","","","","","","","","","","","","50"
"2334","","<div style=""width:500px;"">
  <p>How would you describe your current emotional state?</p>
  </div>","0","html-slider-response","47","532391","0.0-10.0-3.1","8","1","2025-07-02 10:18:18","80fe4187154257d5fb01684ea91b68b9","87.206.229.195","Mozilla/5.0 (Windows NT 10.0; Win64; x64) AppleWebKit/537.36 (KHTML, like Gecko) Chrome/137.0.0.0 Safari/537.36","WebKit","Chrome","137.0.0.0","Windows","10.0","https://app.prolific.com/","en-US,en;q=0.9,pl;q=0.8","60fc39cce64c39328a7c8904","683db6dfa200031b80f2a654","6865075186541d4a5141b4e3","60fc39cce64c39328a7c8904","2025-07-02T10:27:12.918Z","","","","","","StressQ","","","","","","","","","","","","","","","","","","","","","","","","","","","","","","","","","","","","","","50"
"1911","","<div style=""width:500px;"">
  <p>What best describes how you currently feel?</p>
  </div>","96","html-slider-response","48","534303","0.0-10.0-4.1","8","1","2025-07-02 10:18:18","80fe4187154257d5fb01684ea91b68b9","87.206.229.195","Mozilla/5.0 (Windows NT 10.0; Win64; x64) AppleWebKit/537.36 (KHTML, like Gecko) Chrome/137.0.0.0 Safari/537.36","WebKit","Chrome","137.0.0.0","Windows","10.0","https://app.prolific.com/","en-US,en;q=0.9,pl;q=0.8","60fc39cce64c39328a7c8904","683db6dfa200031b80f2a654","6865075186541d4a5141b4e3","60fc39cce64c39328a7c8904","2025-07-02T10:27:14.830Z","","","","","","MotivationQ","","","","","","","","","","","","","","","","","","","","","","","","","","","","","","","","","","","","","","50"
"","","","","ctl-task-cpt","49","563127","0.0-10.0-0.2","8","1","2025-07-02 10:18:18","80fe4187154257d5fb01684ea91b68b9","87.206.229.195","Mozilla/5.0 (Windows NT 10.0; Win64; x64) AppleWebKit/537.36 (KHTML, like Gecko) Chrome/137.0.0.0 Safari/537.36","WebKit","Chrome","137.0.0.0","Windows","10.0","https://app.prolific.com/","en-US,en;q=0.9,pl;q=0.8","60fc39cce64c39328a7c8904","683db6dfa200031b80f2a654","6865075186541d4a5141b4e3","60fc39cce64c39328a7c8904","2025-07-02T10:27:43.654Z","","","","","","","","","","","","","","","","win-only","0","g1:NW,g2:SE","0.8","3","0","535419.6","763.2","5765.5","25805.7","1","4","4","6","2","4","4","14","10","0.10606060606060606","1979.5","3000","260","[""down"",""right""]","{""num_key_presses"":6,""num_perfect"":4,""num_errors"":0,""num_randdir"":2,""num_randdir_good_moves"":2,""num_whilered"":0,""num_whileblue"":0,""num_blue"":1,""num_good_moves"":6}","[418.57142857142856,414.47767857142856,0,418.57142857142856,414.47767857142856,102.1,471.57142857142856,405.47767857142856,203.2,652.5714285714286,373.47767857142856,307.5,666.5714285714286,365.47767857142856,412.7,660.5714285714286,364.47767857142856,518.2,653.5714285714286,364.47767857142856,622.9,653.5714285714286,367.47767857142856,727.6,766.5714285714286,663.4776785714286,832.3,842.5714285714286,804.4776785714286,933,823.5714285714286,798.4776785714286,1037,743.5714285714286,728.4776785714286,1138.1,490.57142857142856,445.47767857142856,1243.4,343.57142857142856,273.47767857142856,1347.1,375.57142857142856,328.47767857142856,1447.3,651.5714285714286,625.4776785714286,1547.5,795.5714285714286,791.4776785714286,1653.2,818.5714285714286,796.4776785714286,1757.7,835.5714285714286,792.4776785714286,1862,787.5714285714286,758.4776785714286,1962.2,786.5714285714286,757.4776785714286,2066.9,946.5714285714286,660.4776785714286,2166.9,1303.5714285714287,427.47767857142856,2267.5,1345.5714285714287,410.47767857142856,2372.4,1345.5714285714287,410.47767857142856,2472.6,1345.5714285714287,410.47767857142856,2572.7,1345.5714285714287,410.47767857142856,2677.8,1345.5714285714287,410.47767857142856,2782,1345.5714285714287,410.47767857142856,2882.7,1345.5714285714287,410.47767857142856,2987.4,1345.5714285714287,410.47767857142856,3091.9,1345.5714285714287,410.47767857142856,3192,1345.5714285714287,410.47767857142856,3296.9,1345.5714285714287,410.47767857142856,3397.1,1345.5714285714287,410.47767857142856,3497.8,1345.5714285714287,410.47767857142856,3602,1345.5714285714287,410.47767857142856,3702.2,1345.5714285714287,410.47767857142856,3803.2,1345.5714285714287,410.47767857142856,3907,1345.5714285714287,410.47767857142856,4007.2,1345.5714285714287,410.47767857142856,4107.3,1345.5714285714287,410.47767857142856,4207.5,1345.5714285714287,410.47767857142856,4307.7,1345.5714285714287,410.47767857142856,4412.4,1345.5714285714287,410.47767857142856,4512.6,1345.5714285714287,410.47767857142856,4617,1345.5714285714287,410.47767857142856,4717,1345.5714285714287,410.47767857142856,4817.1,1345.5714285714287,410.47767857142856,4917.1]","[1512.4,1512.4,1000,0,512.4,""oops"",""down"",""down"",""good_move"",8307.4,6794.8,2592.8,5325.7,388.9,""oops"",""down"",""right"",""good_move"",11367.4,3059.9,2597.2,8307.5,462.7,""smooth"",""down"",""down"",""good_move"",14281.3,2913.9,2415.6,11367.4,498.3,""smooth"",""down"",""down"",""good_move"",17408.6,3127.2,2620,14281.4,507.2,""smooth"",""right"",""right"",""good_move"",19952.2,2543.5,2149.6,17408.7,393.9,""smooth"",""right"",""right"",""good_move""]","",""
"2988","","<div style=""width:500px;"">
  <p>What determined the result of this run?</p>
  </div>","100","html-slider-response","50","566115","0.0-10.0-1.2","8","1","2025-07-02 10:18:18","80fe4187154257d5fb01684ea91b68b9","87.206.229.195","Mozilla/5.0 (Windows NT 10.0; Win64; x64) AppleWebKit/537.36 (KHTML, like Gecko) Chrome/137.0.0.0 Safari/537.36","WebKit","Chrome","137.0.0.0","Windows","10.0","https://app.prolific.com/","en-US,en;q=0.9,pl;q=0.8","60fc39cce64c39328a7c8904","683db6dfa200031b80f2a654","6865075186541d4a5141b4e3","60fc39cce64c39328a7c8904","2025-07-02T10:27:46.642Z","","","","","","AttribQ","","","","","","","","","","","","","","","","","","","","","","","","","","","","","","","","","","","","","","50"
"1864","","<div style=""width:500px;"">
  <p>How much control did you have over the ball?</p>
  </div>","100","html-slider-response","51","567979","0.0-10.0-2.2","8","1","2025-07-02 10:18:18","80fe4187154257d5fb01684ea91b68b9","87.206.229.195","Mozilla/5.0 (Windows NT 10.0; Win64; x64) AppleWebKit/537.36 (KHTML, like Gecko) Chrome/137.0.0.0 Safari/537.36","WebKit","Chrome","137.0.0.0","Windows","10.0","https://app.prolific.com/","en-US,en;q=0.9,pl;q=0.8","60fc39cce64c39328a7c8904","683db6dfa200031b80f2a654","6865075186541d4a5141b4e3","60fc39cce64c39328a7c8904","2025-07-02T10:27:48.506Z","","","","","","ControlQ","","","","","","","","","","","","","","","","","","","","","","","","","","","","","","","","","","","","","","50"
"1749","","<div style=""width:500px;"">
  <p>How would you describe your current emotional state?</p>
  </div>","0","html-slider-response","52","569729","0.0-10.0-3.2","8","1","2025-07-02 10:18:18","80fe4187154257d5fb01684ea91b68b9","87.206.229.195","Mozilla/5.0 (Windows NT 10.0; Win64; x64) AppleWebKit/537.36 (KHTML, like Gecko) Chrome/137.0.0.0 Safari/537.36","WebKit","Chrome","137.0.0.0","Windows","10.0","https://app.prolific.com/","en-US,en;q=0.9,pl;q=0.8","60fc39cce64c39328a7c8904","683db6dfa200031b80f2a654","6865075186541d4a5141b4e3","60fc39cce64c39328a7c8904","2025-07-02T10:27:50.256Z","","","","","","StressQ","","","","","","","","","","","","","","","","","","","","","","","","","","","","","","","","","","","","","","50"
"1637","","<div style=""width:500px;"">
  <p>What best describes how you currently feel?</p>
  </div>","100","html-slider-response","53","571367","0.0-10.0-4.2","8","1","2025-07-02 10:18:18","80fe4187154257d5fb01684ea91b68b9","87.206.229.195","Mozilla/5.0 (Windows NT 10.0; Win64; x64) AppleWebKit/537.36 (KHTML, like Gecko) Chrome/137.0.0.0 Safari/537.36","WebKit","Chrome","137.0.0.0","Windows","10.0","https://app.prolific.com/","en-US,en;q=0.9,pl;q=0.8","60fc39cce64c39328a7c8904","683db6dfa200031b80f2a654","6865075186541d4a5141b4e3","60fc39cce64c39328a7c8904","2025-07-02T10:27:51.894Z","","","","","","MotivationQ","","","","","","","","","","","","","","","","","","","","","","","","","","","","","","","","","","","","","","50"
"","","","","ctl-task-cpt","54","613002","0.0-10.0-0.3","8","1","2025-07-02 10:18:18","80fe4187154257d5fb01684ea91b68b9","87.206.229.195","Mozilla/5.0 (Windows NT 10.0; Win64; x64) AppleWebKit/537.36 (KHTML, like Gecko) Chrome/137.0.0.0 Safari/537.36","WebKit","Chrome","137.0.0.0","Windows","10.0","https://app.prolific.com/","en-US,en;q=0.9,pl;q=0.8","60fc39cce64c39328a7c8904","683db6dfa200031b80f2a654","6865075186541d4a5141b4e3","60fc39cce64c39328a7c8904","2025-07-02T10:28:33.529Z","","","","","","","","","","","","","","","","win-only","2","g1:SE,g2:NW","0.7","4","0","572483.6","748.7","5751","38616.4","1","4","8","6","2","-8","-8","6","14","0.045454545454545456","1056.5","3000","-3015","[""left"",""up""]","{""num_key_presses"":7,""num_perfect"":5,""num_errors"":0,""num_randdir"":2,""num_randdir_good_moves"":0,""num_whilered"":0,""num_whileblue"":0,""num_blue"":4,""num_good_moves"":5}","[418.57142857142856,417.47767857142856,0,418.57142857142856,417.47767857142856,101.7,420.57142857142856,425.47767857142856,201.9,450.57142857142856,445.47767857142856,302,508.57142857142856,510.47767857142856,406.9,560.5714285714286,554.4776785714286,507.4,591.5714285714286,550.4776785714286,607.6,300.57142857142856,317.47767857142856,711.7,153.57142857142856,198.47767857142856,811.9,77.57142857142857,120.47767857142857,912.8,51.57142857142857,88.47767857142857,1016.9,51.57142857142857,87.47767857142857,1117,51.57142857142857,87.47767857142857,1217.8,170.57142857142856,123.47767857142857,1322.3,722.5714285714286,194.47767857142856,1422.5,809.5714285714286,189.47767857142856,1527.2,809.5714285714286,189.47767857142856,1632.2,809.5714285714286,189.47767857142856,1737.1,809.5714285714286,189.47767857142856,1837.3,809.5714285714286,189.47767857142856,1941.9,809.5714285714286,189.47767857142856,2042,809.5714285714286,189.47767857142856,2142.3,809.5714285714286,189.47767857142856,2247,809.5714285714286,189.47767857142856,2347.2,809.5714285714286,189.47767857142856,2452.3,809.5714285714286,189.47767857142856,2556.5,809.5714285714286,189.47767857142856,2656.5,809.5714285714286,189.47767857142856,2762.2,809.5714285714286,189.47767857142856,2867.5,809.5714285714286,189.47767857142856,2972.1,809.5714285714286,189.47767857142856,3072.8,809.5714285714286,189.47767857142856,3177,809.5714285714286,189.47767857142856,3277.1,809.5714285714286,189.47767857142856,3381.5,809.5714285714286,189.47767857142856,3487.4,809.5714285714286,189.47767857142856,3592.6,809.5714285714286,189.47767857142856,3697.1,809.5714285714286,189.47767857142856,3802.4,809.5714285714286,189.47767857142856,3906.5,809.5714285714286,189.47767857142856,4012.2,809.5714285714286,189.47767857142856,4112.4,809.5714285714286,189.47767857142856,4217.6,809.5714285714286,189.47767857142856,4317.7,809.5714285714286,189.47767857142856,4421.9,809.5714285714286,189.47767857142856,4522.1,809.5714285714286,189.47767857142856,4622.3,809.5714285714286,189.47767857142856,4727,809.5714285714286,189.47767857142856,4827.1,809.5714285714286,189.47767857142856,4931.5]","[1419.8,1419.8,1000,0,419.8,""smooth"",""up"",""up"",""good_move"",10667.2,9247.3,2820,7444.8,402.4,""smooth"",""up"",""up"",""good_move"",13862.1,3194.8,2752.7,10667.3,442.1,""oops"",""up"",""right"",""bad_move"",15725.3,1863.1,1423.2,13862.2,439.9,""smooth"",""up"",""up"",""good_move"",18497.3,2771.9,2412,15725.4,359.9,""smooth"",""left"",""left"",""good_move"",25270,6772.6,2882.2,22035.2,352.6,""oops"",""left"",""down"",""bad_move"",28026.7,2756.6,2286.5,25270.1,470.1,""smooth"",""left"",""left"",""good_move""]","",""
"4965","","<div style=""width:500px;"">
  <p>What determined the result of this run?</p>
  </div>","72","html-slider-response","55","617967","0.0-10.0-1.3","8","1","2025-07-02 10:18:18","80fe4187154257d5fb01684ea91b68b9","87.206.229.195","Mozilla/5.0 (Windows NT 10.0; Win64; x64) AppleWebKit/537.36 (KHTML, like Gecko) Chrome/137.0.0.0 Safari/537.36","WebKit","Chrome","137.0.0.0","Windows","10.0","https://app.prolific.com/","en-US,en;q=0.9,pl;q=0.8","60fc39cce64c39328a7c8904","683db6dfa200031b80f2a654","6865075186541d4a5141b4e3","60fc39cce64c39328a7c8904","2025-07-02T10:28:38.494Z","","","","","","AttribQ","","","","","","","","","","","","","","","","","","","","","","","","","","","","","","","","","","","","","","50"
"2238","","<div style=""width:500px;"">
  <p>How much control did you have over the ball?</p>
  </div>","71","html-slider-response","56","620206","0.0-10.0-2.3","8","1","2025-07-02 10:18:18","80fe4187154257d5fb01684ea91b68b9","87.206.229.195","Mozilla/5.0 (Windows NT 10.0; Win64; x64) AppleWebKit/537.36 (KHTML, like Gecko) Chrome/137.0.0.0 Safari/537.36","WebKit","Chrome","137.0.0.0","Windows","10.0","https://app.prolific.com/","en-US,en;q=0.9,pl;q=0.8","60fc39cce64c39328a7c8904","683db6dfa200031b80f2a654","6865075186541d4a5141b4e3","60fc39cce64c39328a7c8904","2025-07-02T10:28:40.733Z","","","","","","ControlQ","","","","","","","","","","","","","","","","","","","","","","","","","","","","","","","","","","","","","","50"
"2388","","<div style=""width:500px;"">
  <p>How would you describe your current emotional state?</p>
  </div>","0","html-slider-response","57","622594","0.0-10.0-3.3","8","1","2025-07-02 10:18:18","80fe4187154257d5fb01684ea91b68b9","87.206.229.195","Mozilla/5.0 (Windows NT 10.0; Win64; x64) AppleWebKit/537.36 (KHTML, like Gecko) Chrome/137.0.0.0 Safari/537.36","WebKit","Chrome","137.0.0.0","Windows","10.0","https://app.prolific.com/","en-US,en;q=0.9,pl;q=0.8","60fc39cce64c39328a7c8904","683db6dfa200031b80f2a654","6865075186541d4a5141b4e3","60fc39cce64c39328a7c8904","2025-07-02T10:28:43.121Z","","","","","","StressQ","","","","","","","","","","","","","","","","","","","","","","","","","","","","","","","","","","","","","","50"
"1726","","<div style=""width:500px;"">
  <p>What best describes how you currently feel?</p>
  </div>","100","html-slider-response","58","624320","0.0-10.0-4.3","8","1","2025-07-02 10:18:18","80fe4187154257d5fb01684ea91b68b9","87.206.229.195","Mozilla/5.0 (Windows NT 10.0; Win64; x64) AppleWebKit/537.36 (KHTML, like Gecko) Chrome/137.0.0.0 Safari/537.36","WebKit","Chrome","137.0.0.0","Windows","10.0","https://app.prolific.com/","en-US,en;q=0.9,pl;q=0.8","60fc39cce64c39328a7c8904","683db6dfa200031b80f2a654","6865075186541d4a5141b4e3","60fc39cce64c39328a7c8904","2025-07-02T10:28:44.847Z","","","","","","MotivationQ","","","","","","","","","","","","","","","","","","","","","","","","","","","","","","","","","","","","","","50"
"","","","","ctl-task-cpt","59","662135","0.0-10.0-0.4","8","1","2025-07-02 10:18:18","80fe4187154257d5fb01684ea91b68b9","87.206.229.195","Mozilla/5.0 (Windows NT 10.0; Win64; x64) AppleWebKit/537.36 (KHTML, like Gecko) Chrome/137.0.0.0 Safari/537.36","WebKit","Chrome","137.0.0.0","Windows","10.0","https://app.prolific.com/","en-US,en;q=0.9,pl;q=0.8","60fc39cce64c39328a7c8904","683db6dfa200031b80f2a654","6865075186541d4a5141b4e3","60fc39cce64c39328a7c8904","2025-07-02T10:29:22.662Z","","","","","","","","","","","","","","","","win-only","0","g1:NW,g2:SE","0.6","5","0","625436.7","760.3","5765.8","34796.1","1","4","8","6","2","-8","-8","0","6","0","1213.7","3000","-3015","[""down"",""right""]","{""num_key_presses"":7,""num_perfect"":5,""num_errors"":0,""num_randdir"":2,""num_randdir_good_moves"":0,""num_whilered"":0,""num_whileblue"":0,""num_blue"":2,""num_good_moves"":5}","[411.57142857142856,416.47767857142856,0.1,411.57142857142856,416.47767857142856,100.8,432.57142857142856,419.47767857142856,201,583.5714285714286,418.47767857142856,301,683.5714285714286,416.47767857142856,401.1,721.5714285714286,429.47767857142856,505.6,789.5714285714286,504.47767857142856,605.9,832.5714285714286,723.4776785714286,711,813.5714285714286,774.4776785714286,815.6,768.5714285714286,752.4776785714286,915.8,767.5714285714286,752.4776785714286,1021,767.5714285714286,751.4776785714286,1124.9,767.5714285714286,751.4776785714286,1224.9,767.5714285714286,751.4776785714286,1325.3,769.5714285714286,748.4776785714286,1425.7,870.5714285714286,686.4776785714286,1530.9,1070.5714285714287,514.4776785714286,1636,1080.5714285714287,487.47767857142856,1740.1,1082.5714285714287,484.47767857142856,1840.9,1082.5714285714287,484.47767857142856,1945.2,1082.5714285714287,484.47767857142856,2049.9,1082.5714285714287,484.47767857142856,2154.8,1082.5714285714287,484.47767857142856,2255,1082.5714285714287,484.47767857142856,2355.8,1082.5714285714287,484.47767857142856,2461,1082.5714285714287,484.47767857142856,2565.6,1082.5714285714287,484.47767857142856,2670.4,1082.5714285714287,484.47767857142856,2771,1082.5714285714287,484.47767857142856,2874.8,1082.5714285714287,484.47767857142856,2974.9,1082.5714285714287,484.47767857142856,3075,1082.5714285714287,484.47767857142856,3180.7,1082.5714285714287,484.47767857142856,3280.8,1082.5714285714287,484.47767857142856,3385.1,1082.5714285714287,484.47767857142856,3486.1,1082.5714285714287,484.47767857142856,3590.9,1082.5714285714287,484.47767857142856,3696,1082.5714285714287,484.47767857142856,3799.8,1082.5714285714287,484.47767857142856,3899.9,1082.5714285714287,484.47767857142856,3999.9,1082.5714285714287,484.47767857142856,4099.9,1082.5714285714287,484.47767857142856,4199.9,1082.5714285714287,484.47767857142856,4305.5,1082.5714285714287,484.47767857142856,4405.8,1082.5714285714287,484.47767857142856,4509.9,1082.5714285714287,484.47767857142856,4610.3,1082.5714285714287,484.47767857142856,4710.4,1082.5714285714287,484.47767857142856,4814.8,1082.5714285714287,484.47767857142856,4915.1]","[5422.8,5422.8,3025.4,2005.2,392.2,""smooth"",""down"",""down"",""good_move"",8415.2,2992.2,2422.2,5423,570,""oops"",""right"",""up"",""bad_move"",11250.1,2834.8,2454.9,8415.3,379.9,""smooth"",""down"",""down"",""good_move"",14906.6,3656.3,3268.9,11250.3,387.4,""smooth"",""down"",""down"",""good_move"",18079.3,3172.6,2838.3,14906.7,334.3,""smooth"",""right"",""right"",""good_move"",20509.3,2429.9,2062.1,18079.4,367.8,""oops"",""down"",""up"",""bad_move"",26145.5,5636.1,2639,23180.4,326.1,""smooth"",""right"",""right"",""good_move""]","",""
"3545","","<div style=""width:500px;"">
  <p>What determined the result of this run?</p>
  </div>","52","html-slider-response","60","665680","0.0-10.0-1.4","8","1","2025-07-02 10:18:18","80fe4187154257d5fb01684ea91b68b9","87.206.229.195","Mozilla/5.0 (Windows NT 10.0; Win64; x64) AppleWebKit/537.36 (KHTML, like Gecko) Chrome/137.0.0.0 Safari/537.36","WebKit","Chrome","137.0.0.0","Windows","10.0","https://app.prolific.com/","en-US,en;q=0.9,pl;q=0.8","60fc39cce64c39328a7c8904","683db6dfa200031b80f2a654","6865075186541d4a5141b4e3","60fc39cce64c39328a7c8904","2025-07-02T10:29:26.207Z","","","","","","AttribQ","","","","","","","","","","","","","","","","","","","","","","","","","","","","","","","","","","","","","","50"
"1947","","<div style=""width:500px;"">
  <p>How much control did you have over the ball?</p>
  </div>","29","html-slider-response","61","667628","0.0-10.0-2.4","8","1","2025-07-02 10:18:18","80fe4187154257d5fb01684ea91b68b9","87.206.229.195","Mozilla/5.0 (Windows NT 10.0; Win64; x64) AppleWebKit/537.36 (KHTML, like Gecko) Chrome/137.0.0.0 Safari/537.36","WebKit","Chrome","137.0.0.0","Windows","10.0","https://app.prolific.com/","en-US,en;q=0.9,pl;q=0.8","60fc39cce64c39328a7c8904","683db6dfa200031b80f2a654","6865075186541d4a5141b4e3","60fc39cce64c39328a7c8904","2025-07-02T10:29:28.155Z","","","","","","ControlQ","","","","","","","","","","","","","","","","","","","","","","","","","","","","","","","","","","","","","","50"
"1634","","<div style=""width:500px;"">
  <p>How would you describe your current emotional state?</p>
  </div>","0","html-slider-response","62","669263","0.0-10.0-3.4","8","1","2025-07-02 10:18:18","80fe4187154257d5fb01684ea91b68b9","87.206.229.195","Mozilla/5.0 (Windows NT 10.0; Win64; x64) AppleWebKit/537.36 (KHTML, like Gecko) Chrome/137.0.0.0 Safari/537.36","WebKit","Chrome","137.0.0.0","Windows","10.0","https://app.prolific.com/","en-US,en;q=0.9,pl;q=0.8","60fc39cce64c39328a7c8904","683db6dfa200031b80f2a654","6865075186541d4a5141b4e3","60fc39cce64c39328a7c8904","2025-07-02T10:29:29.790Z","","","","","","StressQ","","","","","","","","","","","","","","","","","","","","","","","","","","","","","","","","","","","","","","50"
"1457","","<div style=""width:500px;"">
  <p>What best describes how you currently feel?</p>
  </div>","100","html-slider-response","63","670719","0.0-10.0-4.4","8","1","2025-07-02 10:18:18","80fe4187154257d5fb01684ea91b68b9","87.206.229.195","Mozilla/5.0 (Windows NT 10.0; Win64; x64) AppleWebKit/537.36 (KHTML, like Gecko) Chrome/137.0.0.0 Safari/537.36","WebKit","Chrome","137.0.0.0","Windows","10.0","https://app.prolific.com/","en-US,en;q=0.9,pl;q=0.8","60fc39cce64c39328a7c8904","683db6dfa200031b80f2a654","6865075186541d4a5141b4e3","60fc39cce64c39328a7c8904","2025-07-02T10:29:31.246Z","","","","","","MotivationQ","","","","","","","","","","","","","","","","","","","","","","","","","","","","","","","","","","","","","","50"
"","","","","ctl-task-cpt","64","703313","0.0-10.0-0.5","8","1","2025-07-02 10:18:18","80fe4187154257d5fb01684ea91b68b9","87.206.229.195","Mozilla/5.0 (Windows NT 10.0; Win64; x64) AppleWebKit/537.36 (KHTML, like Gecko) Chrome/137.0.0.0 Safari/537.36","WebKit","Chrome","137.0.0.0","Windows","10.0","https://app.prolific.com/","en-US,en;q=0.9,pl;q=0.8","60fc39cce64c39328a7c8904","683db6dfa200031b80f2a654","6865075186541d4a5141b4e3","60fc39cce64c39328a7c8904","2025-07-02T10:30:03.840Z","","","","","","","","","","","","","","","","win-only","3","g1:SW,g2:NE","0.5","6","0","671835.7","744.7","5745.8","29575.7","1","4","4","6","1","-1","-1","0","0","0","5001","3000","-3015","[""down"",""left""]","{""num_key_presses"":7,""num_perfect"":3,""num_errors"":0,""num_randdir"":4,""num_randdir_good_moves"":1,""num_whilered"":0,""num_whileblue"":0,""num_blue"":1,""num_good_moves"":3}","[417.57142857142856,406.47767857142856,0,422.57142857142856,405.47767857142856,102.1,452.57142857142856,440.47767857142856,206,565.5714285714286,462.47767857142856,311,633.5714285714286,457.47767857142856,411.2,754.5714285714286,421.47767857142856,516.7,1284.5714285714287,339.47767857142856,620.8,1284.5714285714287,339.47767857142856,720.8,1371.5714285714287,329.47767857142856,820.8,1371.5714285714287,329.47767857142856,920.9,1371.5714285714287,329.47767857142856,1021,1371.5714285714287,329.47767857142856,1121,1371.5714285714287,329.47767857142856,1226.6,1371.5714285714287,329.47767857142856,1326.7,1371.5714285714287,329.47767857142856,1426.9,1371.5714285714287,329.47767857142856,1531.5,1371.5714285714287,329.47767857142856,1631.7,1371.5714285714287,329.47767857142856,1736.5,1371.5714285714287,329.47767857142856,1841.5,1371.5714285714287,329.47767857142856,1941.8,1371.5714285714287,329.47767857142856,2045.7,1371.5714285714287,329.47767857142856,2146.4,1371.5714285714287,329.47767857142856,2251.7,1371.5714285714287,329.47767857142856,2351.9,1371.5714285714287,329.47767857142856,2455.9,1371.5714285714287,329.47767857142856,2561,1371.5714285714287,329.47767857142856,2661.5,1371.5714285714287,329.47767857142856,2761.7,1371.5714285714287,329.47767857142856,2866.7,1371.5714285714287,329.47767857142856,2971,1371.5714285714287,329.47767857142856,3075.7,1371.5714285714287,329.47767857142856,3176.3,1371.5714285714287,329.47767857142856,3280.7,1371.5714285714287,329.47767857142856,3381,1371.5714285714287,329.47767857142856,3486.4,1371.5714285714287,329.47767857142856,3586.4,1371.5714285714287,329.47767857142856,3690.6,1371.5714285714287,329.47767857142856,3790.7,1371.5714285714287,329.47767857142856,3896.6,1371.5714285714287,329.47767857142856,4000.8,1371.5714285714287,329.47767857142856,4100.9,1371.5714285714287,329.47767857142856,4200.9,1371.5714285714287,329.47767857142856,4301.2,1371.5714285714287,329.47767857142856,4405.8,1371.5714285714287,329.47767857142856,4510.8,745.5714285714286,325.47767857142856,4611.5,620.5714285714286,312.47767857142856,4711.9,589.5714285714286,288.47767857142856,4815.7,589.5714285714286,288.47767857142856,4915.8]","[1648.6,1648.6,1000,0,648.6,""smooth"",""down"",""down"",""good_move"",4888.5,3239.7,2794.3,1648.8,445.4,""oops"",""down"",""right"",""bad_move"",7813.6,2924.9,2515.9,4888.7,409,""oops"",""down"",""right"",""bad_move"",10131.3,2317.6,1939.7,7813.7,377.9,""oops"",""down"",""down"",""good_move"",12909.6,2778.1,2438.9,10131.5,339.2,""oops"",""left"",""right"",""bad_move"",18872.1,5962.4,1979.6,16510.5,382,""smooth"",""right"",""up"",""bad_move"",20982.2,2110,1698.4,18872.2,411.6,""smooth"",""left"",""left"",""good_move""]","",""
"2395","","<div style=""width:500px;"">
  <p>What determined the result of this run?</p>
  </div>","50","html-slider-response","65","705708","0.0-10.0-1.5","8","1","2025-07-02 10:18:18","80fe4187154257d5fb01684ea91b68b9","87.206.229.195","Mozilla/5.0 (Windows NT 10.0; Win64; x64) AppleWebKit/537.36 (KHTML, like Gecko) Chrome/137.0.0.0 Safari/537.36","WebKit","Chrome","137.0.0.0","Windows","10.0","https://app.prolific.com/","en-US,en;q=0.9,pl;q=0.8","60fc39cce64c39328a7c8904","683db6dfa200031b80f2a654","6865075186541d4a5141b4e3","60fc39cce64c39328a7c8904","2025-07-02T10:30:06.235Z","","","","","","AttribQ","","","","","","","","","","","","","","","","","","","","","","","","","","","","","","","","","","","","","","50"
"2469","","<div style=""width:500px;"">
  <p>How much control did you have over the ball?</p>
  </div>","0","html-slider-response","66","708178","0.0-10.0-2.5","8","1","2025-07-02 10:18:18","80fe4187154257d5fb01684ea91b68b9","87.206.229.195","Mozilla/5.0 (Windows NT 10.0; Win64; x64) AppleWebKit/537.36 (KHTML, like Gecko) Chrome/137.0.0.0 Safari/537.36","WebKit","Chrome","137.0.0.0","Windows","10.0","https://app.prolific.com/","en-US,en;q=0.9,pl;q=0.8","60fc39cce64c39328a7c8904","683db6dfa200031b80f2a654","6865075186541d4a5141b4e3","60fc39cce64c39328a7c8904","2025-07-02T10:30:08.705Z","","","","","","ControlQ","","","","","","","","","","","","","","","","","","","","","","","","","","","","","","","","","","","","","","50"
"1608","","<div style=""width:500px;"">
  <p>How would you describe your current emotional state?</p>
  </div>","0","html-slider-response","67","709786","0.0-10.0-3.5","8","1","2025-07-02 10:18:18","80fe4187154257d5fb01684ea91b68b9","87.206.229.195","Mozilla/5.0 (Windows NT 10.0; Win64; x64) AppleWebKit/537.36 (KHTML, like Gecko) Chrome/137.0.0.0 Safari/537.36","WebKit","Chrome","137.0.0.0","Windows","10.0","https://app.prolific.com/","en-US,en;q=0.9,pl;q=0.8","60fc39cce64c39328a7c8904","683db6dfa200031b80f2a654","6865075186541d4a5141b4e3","60fc39cce64c39328a7c8904","2025-07-02T10:30:10.313Z","","","","","","StressQ","","","","","","","","","","","","","","","","","","","","","","","","","","","","","","","","","","","","","","50"
"1802","","<div style=""width:500px;"">
  <p>What best describes how you currently feel?</p>
  </div>","100","html-slider-response","68","711589","0.0-10.0-4.5","8","1","2025-07-02 10:18:18","80fe4187154257d5fb01684ea91b68b9","87.206.229.195","Mozilla/5.0 (Windows NT 10.0; Win64; x64) AppleWebKit/537.36 (KHTML, like Gecko) Chrome/137.0.0.0 Safari/537.36","WebKit","Chrome","137.0.0.0","Windows","10.0","https://app.prolific.com/","en-US,en;q=0.9,pl;q=0.8","60fc39cce64c39328a7c8904","683db6dfa200031b80f2a654","6865075186541d4a5141b4e3","60fc39cce64c39328a7c8904","2025-07-02T10:30:12.116Z","","","","","","MotivationQ","","","","","","","","","","","","","","","","","","","","","","","","","","","","","","","","","","","","","","50"
"","","","","ctl-task-cpt","69","748817","0.0-10.0-0.6","8","1","2025-07-02 10:18:18","80fe4187154257d5fb01684ea91b68b9","87.206.229.195","Mozilla/5.0 (Windows NT 10.0; Win64; x64) AppleWebKit/537.36 (KHTML, like Gecko) Chrome/137.0.0.0 Safari/537.36","WebKit","Chrome","137.0.0.0","Windows","10.0","https://app.prolific.com/","en-US,en;q=0.9,pl;q=0.8","60fc39cce64c39328a7c8904","683db6dfa200031b80f2a654","6865075186541d4a5141b4e3","60fc39cce64c39328a7c8904","2025-07-02T10:30:49.344Z","","","","","","","","","","","","","","","","win-only","3","g1:SW,g2:NE","0.4","7","0","712705.6","3643.7","8645.7","34210.9","1","4","4","6","2","-4","-4","0","0","0","1724.8","3000","-3015","[""up"",""right""]","{""num_key_presses"":6,""num_perfect"":2,""num_errors"":0,""num_randdir"":4,""num_randdir_good_moves"":3,""num_whilered"":0,""num_whileblue"":0,""num_blue"":2,""num_good_moves"":5}","[415.57142857142856,407.47767857142856,0.1,415.57142857142856,407.47767857142856,101.9,418.57142857142856,407.47767857142856,206.8,418.57142857142856,407.47767857142856,307.1,418.57142857142856,407.47767857142856,411.8,420.57142857142856,407.47767857142856,512.7,421.57142857142856,407.47767857142856,617.5,464.57142857142856,388.47767857142856,721.9,490.57142857142856,365.47767857142856,826.7,490.57142857142856,365.47767857142856,926.7,493.57142857142856,348.47767857142856,1026.8,625.5714285714286,259.47767857142856,1126.9,729.5714285714286,151.47767857142856,1227.1,756.5714285714286,84.47767857142857,1331.6,768.5714285714286,46.47767857142857,1432.5,768.5714285714286,46.47767857142857,1536.5,768.5714285714286,46.47767857142857,1636.5,765.5714285714286,62.47767857142857,1736.7,765.5714285714286,62.47767857142857,1842.5,765.5714285714286,66.47767857142857,1946.9,805.5714285714286,130.47767857142856,2052.4,924.5714285714286,213.47767857142856,2157.6,970.5714285714286,230.47767857142856,2261.4,982.5714285714286,234.47767857142856,2361.5,982.5714285714286,234.47767857142856,2461.6,982.5714285714286,234.47767857142856,2567.5,982.5714285714286,234.47767857142856,2667.6,982.5714285714286,234.47767857142856,2772.5,982.5714285714286,234.47767857142856,2876.8,982.5714285714286,234.47767857142856,2982.6,982.5714285714286,234.47767857142856,3086.7,982.5714285714286,234.47767857142856,3192.7,982.5714285714286,234.47767857142856,3296.8,982.5714285714286,234.47767857142856,3396.8,982.5714285714286,234.47767857142856,3497,982.5714285714286,234.47767857142856,3597,982.5714285714286,234.47767857142856,3702.5,982.5714285714286,234.47767857142856,3806.7,982.5714285714286,234.47767857142856,3906.9,982.5714285714286,234.47767857142856,4011.7,982.5714285714286,234.47767857142856,4111.8,982.5714285714286,234.47767857142856,4217.6,982.5714285714286,234.47767857142856,4317.6,982.5714285714286,234.47767857142856,4421.7,982.5714285714286,234.47767857142856,4521.9,982.5714285714286,234.47767857142856,4621.9,982.5714285714286,234.47767857142856,4727.8,982.5714285714286,234.47767857142856,4831.8,982.5714285714286,234.47767857142856,4932.7]","[1451.1,1451.1,1000,0,451.1,""smooth"",""up"",""up"",""good_move"",12622.4,11171.1,2885.9,9350.7,385.8,""oops"",""up"",""left"",""bad_move"",14850,2227.5,1733,12622.5,494.5,""oops"",""up"",""right"",""good_move"",17493.5,2643.3,2239.3,14850.2,404,""smooth"",""up"",""up"",""good_move"",19822.3,2328.7,1780.3,17493.6,548.4,""oops"",""up"",""right"",""good_move"",23130.7,3308.2,2917.3,19822.5,390.9,""oops"",""up"",""up"",""good_move""]","",""
"2295","","<div style=""width:500px;"">
  <p>What determined the result of this run?</p>
  </div>","41","html-slider-response","70","751113","0.0-10.0-1.6","8","1","2025-07-02 10:18:18","80fe4187154257d5fb01684ea91b68b9","87.206.229.195","Mozilla/5.0 (Windows NT 10.0; Win64; x64) AppleWebKit/537.36 (KHTML, like Gecko) Chrome/137.0.0.0 Safari/537.36","WebKit","Chrome","137.0.0.0","Windows","10.0","https://app.prolific.com/","en-US,en;q=0.9,pl;q=0.8","60fc39cce64c39328a7c8904","683db6dfa200031b80f2a654","6865075186541d4a5141b4e3","60fc39cce64c39328a7c8904","2025-07-02T10:30:51.640Z","","","","","","AttribQ","","","","","","","","","","","","","","","","","","","","","","","","","","","","","","","","","","","","","","50"
"2791","","<div style=""width:500px;"">
  <p>How much control did you have over the ball?</p>
  </div>","10","html-slider-response","71","753904","0.0-10.0-2.6","8","1","2025-07-02 10:18:18","80fe4187154257d5fb01684ea91b68b9","87.206.229.195","Mozilla/5.0 (Windows NT 10.0; Win64; x64) AppleWebKit/537.36 (KHTML, like Gecko) Chrome/137.0.0.0 Safari/537.36","WebKit","Chrome","137.0.0.0","Windows","10.0","https://app.prolific.com/","en-US,en;q=0.9,pl;q=0.8","60fc39cce64c39328a7c8904","683db6dfa200031b80f2a654","6865075186541d4a5141b4e3","60fc39cce64c39328a7c8904","2025-07-02T10:30:54.431Z","","","","","","ControlQ","","","","","","","","","","","","","","","","","","","","","","","","","","","","","","","","","","","","","","50"
"1948","","<div style=""width:500px;"">
  <p>How would you describe your current emotional state?</p>
  </div>","0","html-slider-response","72","755852","0.0-10.0-3.6","8","1","2025-07-02 10:18:18","80fe4187154257d5fb01684ea91b68b9","87.206.229.195","Mozilla/5.0 (Windows NT 10.0; Win64; x64) AppleWebKit/537.36 (KHTML, like Gecko) Chrome/137.0.0.0 Safari/537.36","WebKit","Chrome","137.0.0.0","Windows","10.0","https://app.prolific.com/","en-US,en;q=0.9,pl;q=0.8","60fc39cce64c39328a7c8904","683db6dfa200031b80f2a654","6865075186541d4a5141b4e3","60fc39cce64c39328a7c8904","2025-07-02T10:30:56.379Z","","","","","","StressQ","","","","","","","","","","","","","","","","","","","","","","","","","","","","","","","","","","","","","","50"
"1613","","<div style=""width:500px;"">
  <p>What best describes how you currently feel?</p>
  </div>","100","html-slider-response","73","757465","0.0-10.0-4.6","8","1","2025-07-02 10:18:18","80fe4187154257d5fb01684ea91b68b9","87.206.229.195","Mozilla/5.0 (Windows NT 10.0; Win64; x64) AppleWebKit/537.36 (KHTML, like Gecko) Chrome/137.0.0.0 Safari/537.36","WebKit","Chrome","137.0.0.0","Windows","10.0","https://app.prolific.com/","en-US,en;q=0.9,pl;q=0.8","60fc39cce64c39328a7c8904","683db6dfa200031b80f2a654","6865075186541d4a5141b4e3","60fc39cce64c39328a7c8904","2025-07-02T10:30:57.992Z","","","","","","MotivationQ","","","","","","","","","","","","","","","","","","","","","","","","","","","","","","","","","","","","","","50"
"","","","","ctl-task-cpt","74","789078","0.0-10.0-0.7","8","1","2025-07-02 10:18:18","80fe4187154257d5fb01684ea91b68b9","87.206.229.195","Mozilla/5.0 (Windows NT 10.0; Win64; x64) AppleWebKit/537.36 (KHTML, like Gecko) Chrome/137.0.0.0 Safari/537.36","WebKit","Chrome","137.0.0.0","Windows","10.0","https://app.prolific.com/","en-US,en;q=0.9,pl;q=0.8","60fc39cce64c39328a7c8904","683db6dfa200031b80f2a654","6865075186541d4a5141b4e3","60fc39cce64c39328a7c8904","2025-07-02T10:31:29.605Z","","","","","","","","","","","","","","","","win-only","0","g1:NW,g2:SE","0.3","8","0","758581.6","952.9","5955.3","28595.6","1","4","8","6","2","-8","-8","0","0","0","838.2","3000","-3015","[""down"",""right""]","{""num_key_presses"":8,""num_perfect"":3,""num_errors"":0,""num_randdir"":5,""num_randdir_good_moves"":4,""num_whilered"":0,""num_whileblue"":0,""num_blue"":0,""num_good_moves"":6}","[408.57142857142856,405.47767857142856,0.2,408.57142857142856,405.47767857142856,103,408.57142857142856,405.47767857142856,203.3,408.57142857142856,405.47767857142856,307.7,408.57142857142856,405.47767857142856,412.3,412.57142857142856,405.47767857142856,512.6,633.5714285714286,554.4776785714286,613.4,768.5714285714286,716.4776785714286,717.5,791.5714285714286,745.4776785714286,817.8,792.5714285714286,745.4776785714286,918,822.5714285714286,676.4776785714286,1022.7,1002.5714285714286,477.47767857142856,1122.8,1018.5714285714286,439.47767857142856,1228,1017.5714285714286,439.47767857142856,1332.8,1017.5714285714286,439.47767857142856,1437.5,1017.5714285714286,439.47767857142856,1537.6,1017.5714285714286,439.47767857142856,1637.7,1017.5714285714286,439.47767857142856,1738.5,1017.5714285714286,439.47767857142856,1838.7,1017.5714285714286,439.47767857142856,1942.7,1017.5714285714286,439.47767857142856,2043.1,1017.5714285714286,439.47767857142856,2143.8,1017.5714285714286,439.47767857142856,2247.7,1017.5714285714286,439.47767857142856,2353,1017.5714285714286,439.47767857142856,2453.3,1017.5714285714286,439.47767857142856,2553.4,1017.5714285714286,439.47767857142856,2657.7,1017.5714285714286,439.47767857142856,2757.8,1017.5714285714286,439.47767857142856,2862.8,1017.5714285714286,439.47767857142856,2962.9,1017.5714285714286,439.47767857142856,3063.3,1017.5714285714286,439.47767857142856,3167.8,1017.5714285714286,439.47767857142856,3268,1017.5714285714286,439.47767857142856,3368.3,1017.5714285714286,439.47767857142856,3472.9,1017.5714285714286,439.47767857142856,3578.1,1017.5714285714286,439.47767857142856,3678.3,1017.5714285714286,439.47767857142856,3782.8,1017.5714285714286,439.47767857142856,3882.8,1017.5714285714286,439.47767857142856,3987.8,1017.5714285714286,439.47767857142856,4087.9,1017.5714285714286,439.47767857142856,4188.2,1017.5714285714286,439.47767857142856,4288.4,1017.5714285714286,439.47767857142856,4393.5,1017.5714285714286,439.47767857142856,4498.2,1017.5714285714286,439.47767857142856,4603.3,1017.5714285714286,439.47767857142856,4707.9,1017.5714285714286,439.47767857142856,4808,1017.5714285714286,439.47767857142856,4908]","[1432.1,1432.1,1000,0,432.1,""smooth"",""down"",""down"",""good_move"",4998.7,3566.4,3194.3,1432.3,372.1,""oops"",""down"",""down"",""good_move"",7552.4,2553.5,2162.3,4998.9,391.2,""smooth"",""left"",""left"",""bad_move"",10905.2,3352.6,2770.8,7552.6,581.8,""oops"",""right"",""down"",""good_move"",13132.5,2227.2,1844.5,10905.3,382.7,""smooth"",""right"",""right"",""good_move"",15652.5,2519.9,2199.1,13132.6,320.8,""oops"",""right"",""left"",""bad_move"",17538.2,1885.6,1597.1,15652.6,288.5,""oops"",""left"",""right"",""good_move"",19563.2,2024.9,1768.8,17538.3,256.1,""oops"",""left"",""right"",""good_move""]","",""
"1874","","<div style=""width:500px;"">
  <p>What determined the result of this run?</p>
  </div>","10","html-slider-response","75","790953","0.0-10.0-1.7","8","1","2025-07-02 10:18:18","80fe4187154257d5fb01684ea91b68b9","87.206.229.195","Mozilla/5.0 (Windows NT 10.0; Win64; x64) AppleWebKit/537.36 (KHTML, like Gecko) Chrome/137.0.0.0 Safari/537.36","WebKit","Chrome","137.0.0.0","Windows","10.0","https://app.prolific.com/","en-US,en;q=0.9,pl;q=0.8","60fc39cce64c39328a7c8904","683db6dfa200031b80f2a654","6865075186541d4a5141b4e3","60fc39cce64c39328a7c8904","2025-07-02T10:31:31.480Z","","","","","","AttribQ","","","","","","","","","","","","","","","","","","","","","","","","","","","","","","","","","","","","","","50"
"3962","","<div style=""width:500px;"">
  <p>How much control did you have over the ball?</p>
  </div>","72","html-slider-response","76","794915","0.0-10.0-2.7","8","1","2025-07-02 10:18:18","80fe4187154257d5fb01684ea91b68b9","87.206.229.195","Mozilla/5.0 (Windows NT 10.0; Win64; x64) AppleWebKit/537.36 (KHTML, like Gecko) Chrome/137.0.0.0 Safari/537.36","WebKit","Chrome","137.0.0.0","Windows","10.0","https://app.prolific.com/","en-US,en;q=0.9,pl;q=0.8","60fc39cce64c39328a7c8904","683db6dfa200031b80f2a654","6865075186541d4a5141b4e3","60fc39cce64c39328a7c8904","2025-07-02T10:31:35.442Z","","","","","","ControlQ","","","","","","","","","","","","","","","","","","","","","","","","","","","","","","","","","","","","","","50"
"1925","","<div style=""width:500px;"">
  <p>How would you describe your current emotional state?</p>
  </div>","0","html-slider-response","77","796841","0.0-10.0-3.7","8","1","2025-07-02 10:18:18","80fe4187154257d5fb01684ea91b68b9","87.206.229.195","Mozilla/5.0 (Windows NT 10.0; Win64; x64) AppleWebKit/537.36 (KHTML, like Gecko) Chrome/137.0.0.0 Safari/537.36","WebKit","Chrome","137.0.0.0","Windows","10.0","https://app.prolific.com/","en-US,en;q=0.9,pl;q=0.8","60fc39cce64c39328a7c8904","683db6dfa200031b80f2a654","6865075186541d4a5141b4e3","60fc39cce64c39328a7c8904","2025-07-02T10:31:37.368Z","","","","","","StressQ","","","","","","","","","","","","","","","","","","","","","","","","","","","","","","","","","","","","","","50"
"1691","","<div style=""width:500px;"">
  <p>What best describes how you currently feel?</p>
  </div>","100","html-slider-response","78","798532","0.0-10.0-4.7","8","1","2025-07-02 10:18:18","80fe4187154257d5fb01684ea91b68b9","87.206.229.195","Mozilla/5.0 (Windows NT 10.0; Win64; x64) AppleWebKit/537.36 (KHTML, like Gecko) Chrome/137.0.0.0 Safari/537.36","WebKit","Chrome","137.0.0.0","Windows","10.0","https://app.prolific.com/","en-US,en;q=0.9,pl;q=0.8","60fc39cce64c39328a7c8904","683db6dfa200031b80f2a654","6865075186541d4a5141b4e3","60fc39cce64c39328a7c8904","2025-07-02T10:31:39.059Z","","","","","","MotivationQ","","","","","","","","","","","","","","","","","","","","","","","","","","","","","","","","","","","","","","50"
"","","","","ctl-task-cpt","79","820896","0.0-10.0-0.8","8","1","2025-07-02 10:18:18","80fe4187154257d5fb01684ea91b68b9","87.206.229.195","Mozilla/5.0 (Windows NT 10.0; Win64; x64) AppleWebKit/537.36 (KHTML, like Gecko) Chrome/137.0.0.0 Safari/537.36","WebKit","Chrome","137.0.0.0","Windows","10.0","https://app.prolific.com/","en-US,en;q=0.9,pl;q=0.8","60fc39cce64c39328a7c8904","683db6dfa200031b80f2a654","6865075186541d4a5141b4e3","60fc39cce64c39328a7c8904","2025-07-02T10:32:01.423Z","","","","","","","","","","","","","","","","win-only","0","g1:NW,g2:SE","0.4","9","0","799648.6","531.3","5536.2","19345.8","1","4","4","6","2","4","4","4","0","0.030303030303030304","1015.8","3000","570","[""down"",""right""]","{""num_key_presses"":6,""num_perfect"":3,""num_errors"":0,""num_randdir"":3,""num_randdir_good_moves"":3,""num_whilered"":0,""num_whileblue"":0,""num_blue"":0,""num_good_moves"":6}","[412.57142857142856,419.47767857142856,0.1,412.57142857142856,419.47767857142856,104.2,413.57142857142856,421.47767857142856,204.4,427.57142857142856,435.47767857142856,305.1,430.57142857142856,444.47767857142856,409.8,430.57142857142856,444.47767857142856,514.5,442.57142857142856,451.47767857142856,615,588.5714285714286,532.4776785714286,719.7,744.5714285714286,695.4776785714286,820.1,770.5714285714286,752.4776785714286,924.7,774.5714285714286,756.4776785714286,1025,770.5714285714286,749.4776785714286,1125.1,789.5714285714286,711.4776785714286,1229.7,915.5714285714286,512.4776785714286,1329.9,942.5714285714286,453.47767857142856,1430.1,942.5714285714286,453.47767857142856,1534.8,942.5714285714286,453.47767857142856,1640,942.5714285714286,453.47767857142856,1745.1,942.5714285714286,453.47767857142856,1849.8,942.5714285714286,453.47767857142856,1950,942.5714285714286,453.47767857142856,2051.1,942.5714285714286,453.47767857142856,2154.7,942.5714285714286,453.47767857142856,2255.1,942.5714285714286,453.47767857142856,2359.5,942.5714285714286,453.47767857142856,2459.8,942.5714285714286,453.47767857142856,2565,942.5714285714286,453.47767857142856,2665.1,942.5714285714286,453.47767857142856,2770.3,942.5714285714286,453.47767857142856,2875,942.5714285714286,453.47767857142856,2975.2,942.5714285714286,453.47767857142856,3079.2,942.5714285714286,453.47767857142856,3180,942.5714285714286,453.47767857142856,3284,942.5714285714286,453.47767857142856,3384.3,942.5714285714286,453.47767857142856,3484.4,942.5714285714286,453.47767857142856,3584.8,942.5714285714286,453.47767857142856,3684.8,942.5714285714286,453.47767857142856,3789.6,942.5714285714286,453.47767857142856,3890.2,942.5714285714286,453.47767857142856,3994.1,942.5714285714286,453.47767857142856,4094.1,942.5714285714286,453.47767857142856,4199.8,942.5714285714286,453.47767857142856,4300,942.5714285714286,453.47767857142856,4400.2,942.5714285714286,453.47767857142856,4504.8,942.5714285714286,453.47767857142856,4605.1,942.5714285714286,453.47767857142856,4709.6,942.5714285714286,453.47767857142856,4809.9,942.5714285714286,453.47767857142856,4914.9]","[1521.6,1521.6,1000,0,521.6,""oops"",""right"",""down"",""good_move"",4491.7,2969.9,2635.8,1521.8,334.1,""smooth"",""right"",""right"",""good_move"",6685.3,2193.4,1783.6,4491.9,409.8,""oops"",""right"",""right"",""good_move"",9295.7,2610.3,2203.2,6685.4,407.1,""smooth"",""down"",""down"",""good_move"",11680.7,2384.9,1964.6,9295.8,420.3,""oops"",""down"",""right"",""good_move"",13723.3,2042.5,1679.3,11680.8,363.2,""smooth"",""down"",""down"",""good_move""]","",""
"2886","","<div style=""width:500px;"">
  <p>What determined the result of this run?</p>
  </div>","100","html-slider-response","80","823783","0.0-10.0-1.8","8","1","2025-07-02 10:18:18","80fe4187154257d5fb01684ea91b68b9","87.206.229.195","Mozilla/5.0 (Windows NT 10.0; Win64; x64) AppleWebKit/537.36 (KHTML, like Gecko) Chrome/137.0.0.0 Safari/537.36","WebKit","Chrome","137.0.0.0","Windows","10.0","https://app.prolific.com/","en-US,en;q=0.9,pl;q=0.8","60fc39cce64c39328a7c8904","683db6dfa200031b80f2a654","6865075186541d4a5141b4e3","60fc39cce64c39328a7c8904","2025-07-02T10:32:04.310Z","","","","","","AttribQ","","","","","","","","","","","","","","","","","","","","","","","","","","","","","","","","","","","","","","50"
"2296","","<div style=""width:500px;"">
  <p>How much control did you have over the ball?</p>
  </div>","65","html-slider-response","81","826079","0.0-10.0-2.8","8","1","2025-07-02 10:18:18","80fe4187154257d5fb01684ea91b68b9","87.206.229.195","Mozilla/5.0 (Windows NT 10.0; Win64; x64) AppleWebKit/537.36 (KHTML, like Gecko) Chrome/137.0.0.0 Safari/537.36","WebKit","Chrome","137.0.0.0","Windows","10.0","https://app.prolific.com/","en-US,en;q=0.9,pl;q=0.8","60fc39cce64c39328a7c8904","683db6dfa200031b80f2a654","6865075186541d4a5141b4e3","60fc39cce64c39328a7c8904","2025-07-02T10:32:06.606Z","","","","","","ControlQ","","","","","","","","","","","","","","","","","","","","","","","","","","","","","","","","","","","","","","50"
"2421","","<div style=""width:500px;"">
  <p>How would you describe your current emotional state?</p>
  </div>","0","html-slider-response","82","828500","0.0-10.0-3.8","8","1","2025-07-02 10:18:18","80fe4187154257d5fb01684ea91b68b9","87.206.229.195","Mozilla/5.0 (Windows NT 10.0; Win64; x64) AppleWebKit/537.36 (KHTML, like Gecko) Chrome/137.0.0.0 Safari/537.36","WebKit","Chrome","137.0.0.0","Windows","10.0","https://app.prolific.com/","en-US,en;q=0.9,pl;q=0.8","60fc39cce64c39328a7c8904","683db6dfa200031b80f2a654","6865075186541d4a5141b4e3","60fc39cce64c39328a7c8904","2025-07-02T10:32:09.027Z","","","","","","StressQ","","","","","","","","","","","","","","","","","","","","","","","","","","","","","","","","","","","","","","50"
"1818","","<div style=""width:500px;"">
  <p>What best describes how you currently feel?</p>
  </div>","100","html-slider-response","83","830318","0.0-10.0-4.8","8","1","2025-07-02 10:18:18","80fe4187154257d5fb01684ea91b68b9","87.206.229.195","Mozilla/5.0 (Windows NT 10.0; Win64; x64) AppleWebKit/537.36 (KHTML, like Gecko) Chrome/137.0.0.0 Safari/537.36","WebKit","Chrome","137.0.0.0","Windows","10.0","https://app.prolific.com/","en-US,en;q=0.9,pl;q=0.8","60fc39cce64c39328a7c8904","683db6dfa200031b80f2a654","6865075186541d4a5141b4e3","60fc39cce64c39328a7c8904","2025-07-02T10:32:10.845Z","","","","","","MotivationQ","","","","","","","","","","","","","","","","","","","","","","","","","","","","","","","","","","","","","","50"
