"rt","response_timestamp","stimulus","response","trial_type","trial_index","time_elapsed","internal_node_id","run_id","condition","recorded_at","source_code_version","ip","user_agent","device","browser","browser_version","platform","platform_version","referer","accept_language","PROLIFIC_PID","STUDY_ID","SESSION_ID","prolific_id","realtime","view_history","question_order","consent","success","question_id","eventType","responses","item_order","radio_event_ids","radio_event_times","key_event_times","mouse_event_times","straightlining","zigzagging","honeypot","which_type","canvas_config","goals_layout","control_level","trial_number","tutorial_trial_number","trial_start_time","phase1_start_time","phase2_start_time","phase3_start_time","goal_1_value","goal_1_distance","goal_2_value","goal_2_distance","goal_selected","outcome","outcome_total","participant_final_score","participant_initial_score","participant_final_score_prop","goal_choice_rt","allocated_time","allocated_time_remaining","goal_direction","counts","mouse_movements","key_presses","correct","slider_start","sub_question"
"14268","1751451736112","<p style='font-size:40px;line-height:1.25'><strong>Welcome to the experiment!</strong></p><p style='font-size:1.1em;line-height:1.25'>Thank you for your interest in our experiment! Before you begin, it is important that we obtain your informed consent to participate in the study.</p><p style='font-size:1.1em;line-height:1.25'>On the next screen will be an <strong>information sheet</strong> for you to read. To participate in the study we need you to read this information sheet and the following consent form carefully. If you agree with all the statements, please click the <strong>I agree</strong> button.</p><p style='font-size:1.1em;line-height:1.25'>Press <strong>Next</strong> to read the information sheet.</p>","0","custom-html-button-response","0","14277","0.0-0.0","155","1","2025-07-02 10:21:59","80fe4187154257d5fb01684ea91b68b9","196.22.249.82","Mozilla/5.0 (Windows NT 10.0; Win64; x64) AppleWebKit/537.36 (KHTML, like Gecko) Chrome/138.0.0.0 Safari/537.36 Edg/138.0.0.0","WebKit","Edge","138.0.0.0","Windows","10.0","https://app.prolific.com/","en-US,en;q=0.9,en-ZA;q=0.8","6106be7d513dcab805d524b8","683db6dfa200031b80f2a654","6865075cda245bc4c16fb62b","6106be7d513dcab805d524b8","2025-07-02T10:22:16.116Z","","","","","","","","","","","","","","","","","","","","","","","","","","","","","","","","","","","","","","","","","","","","",""
"104964","","","","instructions","1","119272","0.0-1.0","155","1","2025-07-02 10:21:59","80fe4187154257d5fb01684ea91b68b9","196.22.249.82","Mozilla/5.0 (Windows NT 10.0; Win64; x64) AppleWebKit/537.36 (KHTML, like Gecko) Chrome/138.0.0.0 Safari/537.36 Edg/138.0.0.0","WebKit","Edge","138.0.0.0","Windows","10.0","https://app.prolific.com/","en-US,en;q=0.9,en-ZA;q=0.8","6106be7d513dcab805d524b8","683db6dfa200031b80f2a654","6865075cda245bc4c16fb62b","6106be7d513dcab805d524b8","","[{""page_index"":0,""viewing_time"":60575},{""page_index"":1,""viewing_time"":44385}]","","","","","","","","","","","","","","","","","","","","","","","","","","","","","","","","","","","","","","","","","","","",""
"21044","","","{""Q0"":"""",""Q1"":"""",""Q2"":"""",""Q3"":"""",""Q4"":"""",""Q5"":"""",""Q6"":""I agree""}","survey-multi-choice","2","140326","0.0-2.0","155","1","2025-07-02 10:21:59","80fe4187154257d5fb01684ea91b68b9","196.22.249.82","Mozilla/5.0 (Windows NT 10.0; Win64; x64) AppleWebKit/537.36 (KHTML, like Gecko) Chrome/138.0.0.0 Safari/537.36 Edg/138.0.0.0","WebKit","Edge","138.0.0.0","Windows","10.0","https://app.prolific.com/","en-US,en;q=0.9,en-ZA;q=0.8","6106be7d513dcab805d524b8","683db6dfa200031b80f2a654","6865075cda245bc4c16fb62b","6106be7d513dcab805d524b8","","","[0,1,2,3,4,5,6]","true","","","","","","","","","","","","","","","","","","","","","","","","","","","","","","","","","","","","","","","","","",""
"30628","","","","fullscreen","3","171976","0.0-4.0","155","1","2025-07-02 10:21:59","80fe4187154257d5fb01684ea91b68b9","196.22.249.82","Mozilla/5.0 (Windows NT 10.0; Win64; x64) AppleWebKit/537.36 (KHTML, like Gecko) Chrome/138.0.0.0 Safari/537.36 Edg/138.0.0.0","WebKit","Edge","138.0.0.0","Windows","10.0","https://app.prolific.com/","en-US,en;q=0.9,en-ZA;q=0.8","6106be7d513dcab805d524b8","683db6dfa200031b80f2a654","6865075cda245bc4c16fb62b","6106be7d513dcab805d524b8","","","","","true","","","","","","","","","","","","","","","","","","","","","","","","","","","","","","","","","","","","","","","","",""
"31625","1751451925442"," <p style='font-size:1.1em;line-height:1.25'>Thank you for completing the consent form and closing all other tabs.</p><p style='font-size:1.1em;line-height:1.25'>We will now invite you to fill in some demographic information and questionnaires, before starting the game.<br>This will take about 5 minutes.<br></p><p style='font-size:1.1em;line-height:1.25'>Press the <strong>Next</strong> button to continue.</p>","0","custom-html-button-response","4","203605","0.0-5.0","155","1","2025-07-02 10:21:59","80fe4187154257d5fb01684ea91b68b9","196.22.249.82","Mozilla/5.0 (Windows NT 10.0; Win64; x64) AppleWebKit/537.36 (KHTML, like Gecko) Chrome/138.0.0.0 Safari/537.36 Edg/138.0.0.0","WebKit","Edge","138.0.0.0","Windows","10.0","https://app.prolific.com/","en-US,en;q=0.9,en-ZA;q=0.8","6106be7d513dcab805d524b8","683db6dfa200031b80f2a654","6865075cda245bc4c16fb62b","6106be7d513dcab805d524b8","2025-07-02T10:25:25.444Z","","","","","","","","","","","","","","","","","","","","","","","","","","","","","","","","","","","","","","","","","","","","",""
"36898","","","{""age"":""25""}","survey-text","5","240544","0.0-6.0-0.0","155","1","2025-07-02 10:21:59","80fe4187154257d5fb01684ea91b68b9","196.22.249.82","Mozilla/5.0 (Windows NT 10.0; Win64; x64) AppleWebKit/537.36 (KHTML, like Gecko) Chrome/138.0.0.0 Safari/537.36 Edg/138.0.0.0","WebKit","Edge","138.0.0.0","Windows","10.0","https://app.prolific.com/","en-US,en;q=0.9,en-ZA;q=0.8","6106be7d513dcab805d524b8","683db6dfa200031b80f2a654","6865075cda245bc4c16fb62b","6106be7d513dcab805d524b8","","","","","","0","demographics","","","","","","","","","","","","","","","","","","","","","","","","","","","","","","","","","","","","","","",""
"3449","","","{""gender_identity"":""female/woman""}","survey-multi-choice","6","243999","0.0-6.0-1.0","155","1","2025-07-02 10:21:59","80fe4187154257d5fb01684ea91b68b9","196.22.249.82","Mozilla/5.0 (Windows NT 10.0; Win64; x64) AppleWebKit/537.36 (KHTML, like Gecko) Chrome/138.0.0.0 Safari/537.36 Edg/138.0.0.0","WebKit","Edge","138.0.0.0","Windows","10.0","https://app.prolific.com/","en-US,en;q=0.9,en-ZA;q=0.8","6106be7d513dcab805d524b8","683db6dfa200031b80f2a654","6865075cda245bc4c16fb62b","6106be7d513dcab805d524b8","","","[0]","","","1","demographics","","","","","","","","","","","","","","","","","","","","","","","","","","","","","","","","","","","","","","",""
"5184","","","{""assigned_sex"":""female""}","survey-multi-choice","7","249189","0.0-6.0-2.0","155","1","2025-07-02 10:21:59","80fe4187154257d5fb01684ea91b68b9","196.22.249.82","Mozilla/5.0 (Windows NT 10.0; Win64; x64) AppleWebKit/537.36 (KHTML, like Gecko) Chrome/138.0.0.0 Safari/537.36 Edg/138.0.0.0","WebKit","Edge","138.0.0.0","Windows","10.0","https://app.prolific.com/","en-US,en;q=0.9,en-ZA;q=0.8","6106be7d513dcab805d524b8","683db6dfa200031b80f2a654","6865075cda245bc4c16fb62b","6106be7d513dcab805d524b8","","","[0]","","","2","demographics","","","","","","","","","","","","","","","","","","","","","","","","","","","","","","","","","","","","","","",""
"7993","","","{""menstrual_cycle"":""Yes""}","survey-multi-choice","8","257189","0.0-6.0-3.0","155","1","2025-07-02 10:21:59","80fe4187154257d5fb01684ea91b68b9","196.22.249.82","Mozilla/5.0 (Windows NT 10.0; Win64; x64) AppleWebKit/537.36 (KHTML, like Gecko) Chrome/138.0.0.0 Safari/537.36 Edg/138.0.0.0","WebKit","Edge","138.0.0.0","Windows","10.0","https://app.prolific.com/","en-US,en;q=0.9,en-ZA;q=0.8","6106be7d513dcab805d524b8","683db6dfa200031b80f2a654","6865075cda245bc4c16fb62b","6106be7d513dcab805d524b8","","","[0]","","","4","demographics","","","","","","","","","","","","","","","","","","","","","","","","","","","","","","","","","","","","","","",""
"37687","","","{""education"":""Others""}","survey-multi-choice","9","294885","0.0-6.0-4.0","155","1","2025-07-02 10:21:59","80fe4187154257d5fb01684ea91b68b9","196.22.249.82","Mozilla/5.0 (Windows NT 10.0; Win64; x64) AppleWebKit/537.36 (KHTML, like Gecko) Chrome/138.0.0.0 Safari/537.36 Edg/138.0.0.0","WebKit","Edge","138.0.0.0","Windows","10.0","https://app.prolific.com/","en-US,en;q=0.9,en-ZA;q=0.8","6106be7d513dcab805d524b8","683db6dfa200031b80f2a654","6865075cda245bc4c16fb62b","6106be7d513dcab805d524b8","","","[0]","","","5","demographics","","","","","","","","","","","","","","","","","","","","","","","","","","","","","","","","","","","","","","",""
"9635","","","{""education"":""Bachelor's Degree (e.g., BA)""}","survey-multi-choice","10","304526","0.0-6.0-5.0","155","1","2025-07-02 10:21:59","80fe4187154257d5fb01684ea91b68b9","196.22.249.82","Mozilla/5.0 (Windows NT 10.0; Win64; x64) AppleWebKit/537.36 (KHTML, like Gecko) Chrome/138.0.0.0 Safari/537.36 Edg/138.0.0.0","WebKit","Edge","138.0.0.0","Windows","10.0","https://app.prolific.com/","en-US,en;q=0.9,en-ZA;q=0.8","6106be7d513dcab805d524b8","683db6dfa200031b80f2a654","6865075cda245bc4c16fb62b","6106be7d513dcab805d524b8","2025-07-02T10:27:06.368Z","","[0]","","","6","demographics","","","","","","","","","","","","","","","","","","","","","","","","","","","","","","","","","","","","","","",""
"113914","","","{""mental_health_condition"":""boaderline personality disorder"",""mental_health_treatment"":""no"",""psychiatric_medication"":""none""}","survey-text","11","418505","0.0-7.0-0.0","155","1","2025-07-02 10:21:59","80fe4187154257d5fb01684ea91b68b9","196.22.249.82","Mozilla/5.0 (Windows NT 10.0; Win64; x64) AppleWebKit/537.36 (KHTML, like Gecko) Chrome/138.0.0.0 Safari/537.36 Edg/138.0.0.0","WebKit","Edge","138.0.0.0","Windows","10.0","https://app.prolific.com/","en-US,en;q=0.9,en-ZA;q=0.8","6106be7d513dcab805d524b8","683db6dfa200031b80f2a654","6865075cda245bc4c16fb62b","6106be7d513dcab805d524b8","2025-07-02T10:29:00.345Z","","","","","1","mental_health","","","","","","","","","","","","","","","","","","","","","","","","","","","","","","","","","","","","","","",""
"9234","","","{""depression_history"":[""Yes""]}","survey-multi-select","12","427754","0.0-7.0-1.0","155","1","2025-07-02 10:21:59","80fe4187154257d5fb01684ea91b68b9","196.22.249.82","Mozilla/5.0 (Windows NT 10.0; Win64; x64) AppleWebKit/537.36 (KHTML, like Gecko) Chrome/138.0.0.0 Safari/537.36 Edg/138.0.0.0","WebKit","Edge","138.0.0.0","Windows","10.0","https://app.prolific.com/","en-US,en;q=0.9,en-ZA;q=0.8","6106be7d513dcab805d524b8","683db6dfa200031b80f2a654","6865075cda245bc4c16fb62b","6106be7d513dcab805d524b8","","","[0]","","","","mental_health","","","","","","","","","","","","","","","","","","","","","","","","","","","","","","","","","","","","","","",""
"15345","","","{""depression_episodes"":""more than 5"",""depression_recent"":""Within the past year""}","survey-multi-choice","13","443104","0.0-7.0-2.0-0.0","155","1","2025-07-02 10:21:59","80fe4187154257d5fb01684ea91b68b9","196.22.249.82","Mozilla/5.0 (Windows NT 10.0; Win64; x64) AppleWebKit/537.36 (KHTML, like Gecko) Chrome/138.0.0.0 Safari/537.36 Edg/138.0.0.0","WebKit","Edge","138.0.0.0","Windows","10.0","https://app.prolific.com/","en-US,en;q=0.9,en-ZA;q=0.8","6106be7d513dcab805d524b8","683db6dfa200031b80f2a654","6865075cda245bc4c16fb62b","6106be7d513dcab805d524b8","2025-07-02T10:29:24.944Z","","[0,1]","","","3","mental_health","","","","","","","","","","","","","","","","","","","","","","","","","","","","","","","","","","","","","","",""
"88517.79999995232","","","","survey-template","14","531638","0.0-7.0-3.0","155","1","2025-07-02 10:21:59","80fe4187154257d5fb01684ea91b68b9","196.22.249.82","Mozilla/5.0 (Windows NT 10.0; Win64; x64) AppleWebKit/537.36 (KHTML, like Gecko) Chrome/138.0.0.0 Safari/537.36 Edg/138.0.0.0","WebKit","Edge","138.0.0.0","Windows","10.0","https://app.prolific.com/","en-US,en;q=0.9,en-ZA;q=0.8","6106be7d513dcab805d524b8","683db6dfa200031b80f2a654","6865075cda245bc4c16fb62b","6106be7d513dcab805d524b8","2025-07-02T10:30:53.477Z","","","","","","ius","{""Q01"":""3"",""Q02"":""4"",""Q03"":""2"",""Q04"":""4"",""Q05"":""2"",""Q06"":""1"",""Q07"":""1"",""Q08"":""0"",""Q09"":""1"",""Q10"":""3"",""Q11"":""1"",""Q12"":""4"",""Q13"":""1""}","[0,1,2,3,4,5,6,7,8,9,10,11,12]","[""Q01"",""Q02"",""Q03"",""Q04"",""Q05"",""Q06"",""Q07"",""Q08"",""Q09"",""Q10"",""Q11"",""Q12"",""Q13"",""Q13""]","[6548.199999988079,10351,16694.299999952316,22030.69999998808,31827,36335,50857,55332.59999996424,64256.799999952316,71759.09999996424,74191.39999997616,78163.79999995232,82641.5,86543.19999998808]","[]","[6548.199999988079,10351,13851.699999988079,16694.299999952316,20745.19999998808,22030.69999998808,31827,36335,47938.59999996424,50857,55332.59999996424,64256.799999952316,66965.69999998808,68785.39999997616,71759.09999996424,74191.39999997616,78163.79999995232,82641.5,86543.19999998808,88510.89999997616]","0.38461538461538464","0.3333333333333333","0","","","","","","","","","","","","","","","","","","","","","","","","","","","","","",""
"4102","1751452257582","<p style='font-size:1.1em;line-height:1.25'>In the following, we will ask you a few questions relating to your experiences over the past month.<br></p><p style='font-size:1.1em;line-height:1.25'>Press the <strong>Next</strong> button to continue.</p>","0","custom-html-button-response","15","535745","0.0-7.0-4.0","155","1","2025-07-02 10:21:59","80fe4187154257d5fb01684ea91b68b9","196.22.249.82","Mozilla/5.0 (Windows NT 10.0; Win64; x64) AppleWebKit/537.36 (KHTML, like Gecko) Chrome/138.0.0.0 Safari/537.36 Edg/138.0.0.0","WebKit","Edge","138.0.0.0","Windows","10.0","https://app.prolific.com/","en-US,en;q=0.9,en-ZA;q=0.8","6106be7d513dcab805d524b8","683db6dfa200031b80f2a654","6865075cda245bc4c16fb62b","6106be7d513dcab805d524b8","2025-07-02T10:30:57.584Z","","","","","","","","","","","","","","","","","","","","","","","","","","","","","","","","","","","","","","","","","","","","",""
"77599.59999996424","","","","survey-template","16","613353","0.0-7.0-5.0","155","1","2025-07-02 10:21:59","80fe4187154257d5fb01684ea91b68b9","196.22.249.82","Mozilla/5.0 (Windows NT 10.0; Win64; x64) AppleWebKit/537.36 (KHTML, like Gecko) Chrome/138.0.0.0 Safari/537.36 Edg/138.0.0.0","WebKit","Edge","138.0.0.0","Windows","10.0","https://app.prolific.com/","en-US,en;q=0.9,en-ZA;q=0.8","6106be7d513dcab805d524b8","683db6dfa200031b80f2a654","6865075cda245bc4c16fb62b","6106be7d513dcab805d524b8","2025-07-02T10:32:15.192Z","","","","","","pss","{""Q01"":""2"",""Q02"":""1"",""Q03"":""3"",""Q04"":""1"",""Q05"":""2"",""Q06"":""1"",""Q07"":""2"",""Q08"":""3"",""Q09"":""0"",""Q10"":""0""}","[0,1,2,3,4,5,6,7,8,9]","[""Q01"",""Q02"",""Q03"",""Q04"",""Q05"",""Q06"",""Q07"",""Q08"",""Q09"",""Q10""]","[13661.800000011921,26208.5,30119.80000001192,37167.19999998808,43285.89999997616,51069.19999998808,61873.69999998808,66194.59999996424,70709.19999998808,75402.59999996424]","[]","[0.19999998807907104,13661.800000011921,21616.399999976158,26208.5,30119.80000001192,35912.59999996424,37167.19999998808,41202.5,43285.89999997616,44610.5,51069.19999998808,61873.69999998808,66194.59999996424,70709.19999998808,75402.59999996424,77594.59999996424]","0.3","0.6666666666666666","0","","","","","","","","","","","","","","","","","","","","","","","","","","","","","",""
"2626","1751452337824","<p style='font-size:1.1em;line-height:1.25'>Thank you for your answers! Now we will ask you a few more questions relating to your feelings in the last 24 hours.<br></p><p style='font-size:1.1em;line-height:1.25'>Press the <strong>Next</strong> button to continue.</p>","0","custom-html-button-response","17","615986","0.0-7.0-6.0","155","1","2025-07-02 10:21:59","80fe4187154257d5fb01684ea91b68b9","196.22.249.82","Mozilla/5.0 (Windows NT 10.0; Win64; x64) AppleWebKit/537.36 (KHTML, like Gecko) Chrome/138.0.0.0 Safari/537.36 Edg/138.0.0.0","WebKit","Edge","138.0.0.0","Windows","10.0","https://app.prolific.com/","en-US,en;q=0.9,en-ZA;q=0.8","6106be7d513dcab805d524b8","683db6dfa200031b80f2a654","6865075cda245bc4c16fb62b","6106be7d513dcab805d524b8","2025-07-02T10:32:17.826Z","","","","","","","","","","","","","","","","","","","","","","","","","","","","","","","","","","","","","","","","","","","","",""
"134067.80000001192","","","","survey-template","18","750069","0.0-7.0-7.0","155","1","2025-07-02 10:21:59","80fe4187154257d5fb01684ea91b68b9","196.22.249.82","Mozilla/5.0 (Windows NT 10.0; Win64; x64) AppleWebKit/537.36 (KHTML, like Gecko) Chrome/138.0.0.0 Safari/537.36 Edg/138.0.0.0","WebKit","Edge","138.0.0.0","Windows","10.0","https://app.prolific.com/","en-US,en;q=0.9,en-ZA;q=0.8","6106be7d513dcab805d524b8","683db6dfa200031b80f2a654","6865075cda245bc4c16fb62b","6106be7d513dcab805d524b8","2025-07-02T10:34:31.909Z","","","","","","drsp","{""Q01"":""0"",""Q02"":""0"",""Q03"":""0"",""Q04"":""0"",""Q05"":""0"",""Q06"":""0"",""Q07"":""0"",""Q08"":""0"",""Q09"":""1"",""Q10"":""1"",""Q11"":""2"",""Q12"":""3"",""Q13"":""1"",""Q14"":""4"",""Q15"":""4"",""Q16"":""0"",""Q17"":""0"",""Q18"":""2"",""Q19"":""2"",""Q20"":""1"",""Q21"":""1""}","[0,1,2,3,4,5,6,7,8,9,10,11,12,13,14,15,16,17,18,19,20]","[""Q01"",""Q02"",""Q03"",""Q04"",""Q05"",""Q06"",""Q08"",""Q07"",""Q09"",""Q10"",""Q11"",""Q12"",""Q13"",""Q14"",""Q15"",""Q16"",""Q17"",""Q18"",""Q19"",""Q20"",""Q21"",""Q19"",""Q20"",""Q09"",""Q11""]","[11613.199999988079,18754.900000035763,21365.100000023842,23966.900000035763,26329.69999998808,31781.19999998808,36498.10000002384,37782.60000002384,39138.10000002384,41299.30000001192,43405.90000003576,53248.5,55719.69999998808,58996.30000001192,63339.40000003576,66795.40000003576,70549.19999998808,78898.5,98840.40000003576,106965.19999998808,109699.10000002384,113400.69999998808,114857,121733.90000003576,126875.60000002384]","[]","[0.19999998807907104,11613.199999988079,17624.600000023842,18754.900000035763,20056.400000035763,21365.100000023842,23966.900000035763,26329.69999998808,29883.69999998808,31781.19999998808,32757,34971.19999998808,36498.10000002384,37782.60000002384,39138.10000002384,41299.30000001192,43405.90000003576,53248.5,55719.69999998808,58996.30000001192,63339.40000003576,66795.40000003576,70549.19999998808,78898.5,98840.40000003576,106965.19999998808,109699.10000002384,113400.69999998808,114857,121733.90000003576,126875.60000002384,134055.10000002384]","0.47619047619047616","0.2","0","","","","","","","","","","","","","","","","","","","","","","","","","","","","","",""
"32118.19999998808","","","","survey-template","19","782198","0.0-7.0-8.0","155","1","2025-07-02 10:21:59","80fe4187154257d5fb01684ea91b68b9","196.22.249.82","Mozilla/5.0 (Windows NT 10.0; Win64; x64) AppleWebKit/537.36 (KHTML, like Gecko) Chrome/138.0.0.0 Safari/537.36 Edg/138.0.0.0","WebKit","Edge","138.0.0.0","Windows","10.0","https://app.prolific.com/","en-US,en;q=0.9,en-ZA;q=0.8","6106be7d513dcab805d524b8","683db6dfa200031b80f2a654","6865075cda245bc4c16fb62b","6106be7d513dcab805d524b8","2025-07-02T10:35:04.037Z","","","","","","stress","{""Q01"":""0"",""Q02"":""3"",""Q03"":""0""}","[0,1,2]","[""Q01"",""Q03"",""Q02""]","[11027.800000011921,14729.699999988079,28182.19999998808]","[]","[11027.800000011921,14729.699999988079,28182.19999998808,32116]","0.6666666666666666","0","0","","","","","","","","","","","","","","","","","","","","","","","","","","","","","",""
"75947","","","","instructions","20","858149","0.0-8.0-0.0","155","1","2025-07-02 10:21:59","80fe4187154257d5fb01684ea91b68b9","196.22.249.82","Mozilla/5.0 (Windows NT 10.0; Win64; x64) AppleWebKit/537.36 (KHTML, like Gecko) Chrome/138.0.0.0 Safari/537.36 Edg/138.0.0.0","WebKit","Edge","138.0.0.0","Windows","10.0","https://app.prolific.com/","en-US,en;q=0.9,en-ZA;q=0.8","6106be7d513dcab805d524b8","683db6dfa200031b80f2a654","6865075cda245bc4c16fb62b","6106be7d513dcab805d524b8","","[{""page_index"":0,""viewing_time"":19970},{""page_index"":1,""viewing_time"":29379},{""page_index"":2,""viewing_time"":7773},{""page_index"":3,""viewing_time"":18823}]","","","","","","","","","","","","","","","","","","","","","","","","","","","","","","","","","","","","","","","","","","","",""
"","","","","ctl-task-cpt","21","911378","0.0-8.0-1.0","155","1","2025-07-02 10:21:59","80fe4187154257d5fb01684ea91b68b9","196.22.249.82","Mozilla/5.0 (Windows NT 10.0; Win64; x64) AppleWebKit/537.36 (KHTML, like Gecko) Chrome/138.0.0.0 Safari/537.36 Edg/138.0.0.0","WebKit","Edge","138.0.0.0","Windows","10.0","https://app.prolific.com/","en-US,en;q=0.9,en-ZA;q=0.8","6106be7d513dcab805d524b8","683db6dfa200031b80f2a654","6865075cda245bc4c16fb62b","6106be7d513dcab805d524b8","","","","","","","","","","","","","","","","","win-only","1","g1:NE,g2:SW","1","0","1","865108.9","3399.8","7403.6","50212.6","2","4","4","6","2","4","2","2","0","0.015151515151515152","1908.5","4000","1170","[""down"",""left""]","{""num_key_presses"":8,""num_perfect"":6,""num_errors"":2,""num_randdir"":0,""num_randdir_good_moves"":0,""num_whilered"":0,""num_whileblue"":0,""num_blue"":6,""num_good_moves"":6}","[298.22232142857143,295.12857142857143,1.7,298.22232142857143,295.12857142857143,101.9,298.22232142857143,295.12857142857143,202,298.22232142857143,295.12857142857143,303,298.22232142857143,295.12857142857143,425,298.22232142857143,295.12857142857143,532.2,298.22232142857143,295.12857142857143,634.6,292.22232142857143,308.12857142857143,738.9,221.22232142857143,386.12857142857143,847.1,126.22232142857143,479.12857142857143,947.2,124.22232142857143,482.12857142857143,1051.5,124.22232142857143,482.12857142857143,1152.8,114.22232142857143,488.12857142857143,1259.7,74.22232142857143,519.1285714285714,1364.8,65.22232142857143,524.1285714285714,1465.9,64.22232142857143,524.1285714285714,1566.6,64.22232142857143,524.1285714285714,1669.2,64.22232142857143,524.1285714285714,1781.1,64.22232142857143,524.1285714285714,1881.3,64.22232142857143,524.1285714285714,1981.9,64.22232142857143,524.1285714285714,2085.9,64.22232142857143,524.1285714285714,2190.1,64.22232142857143,524.1285714285714,2290.9,64.22232142857143,524.1285714285714,2392.4,64.22232142857143,524.1285714285714,2500.7,64.22232142857143,524.1285714285714,2601.9,64.22232142857143,524.1285714285714,2703,64.22232142857143,524.1285714285714,2808.5,64.22232142857143,524.1285714285714,2909.2,64.22232142857143,524.1285714285714,3009.9,64.22232142857143,524.1285714285714,3113.3,64.22232142857143,524.1285714285714,3216.9,64.22232142857143,524.1285714285714,3317.7,64.22232142857143,524.1285714285714,3418.2,64.22232142857143,524.1285714285714,3528.5,64.22232142857143,524.1285714285714,3629.5,64.22232142857143,524.1285714285714,3731.9,64.22232142857143,524.1285714285714,3839.6,64.22232142857143,524.1285714285714,3944.2]","[365.3,362.8,1000,2.5,-637.2,""error"",""-"",""-"",""no_move"",4975.7,4606.6,2254.2,1369.6,1352,""smooth"",""down"",""down"",""good_move"",6278.4,1300.1,2508.5,4978.5,-1208.5,""error"",""-"",""-"",""no_move"",10364,4083.9,2457.9,7285.2,620.9,""smooth"",""down"",""down"",""good_move"",19778,9412.8,2162.1,17227.4,388.6,""smooth"",""left"",""left"",""good_move"",32813.7,13034.1,2126.4,30163.5,523.8,""smooth"",""left"",""left"",""good_move"",36330.7,3515.5,2986.2,32815.2,529.3,""smooth"",""down"",""down"",""good_move"",42681.6,6347.3,2185.9,39998.3,497.5,""smooth"",""left"",""left"",""good_move""]","","",""
"17291","","","","instructions","22","928671","0.0-8.0-2.0","155","1","2025-07-02 10:21:59","80fe4187154257d5fb01684ea91b68b9","196.22.249.82","Mozilla/5.0 (Windows NT 10.0; Win64; x64) AppleWebKit/537.36 (KHTML, like Gecko) Chrome/138.0.0.0 Safari/537.36 Edg/138.0.0.0","WebKit","Edge","138.0.0.0","Windows","10.0","https://app.prolific.com/","en-US,en;q=0.9,en-ZA;q=0.8","6106be7d513dcab805d524b8","683db6dfa200031b80f2a654","6865075cda245bc4c16fb62b","6106be7d513dcab805d524b8","","[{""page_index"":0,""viewing_time"":17290}]","","","","","","","","","","","","","","","","","","","","","","","","","","","","","","","","","","","","","","","","","","","",""
"","","","","ctl-task-cpt","23","963409","0.0-8.0-3.0","155","1","2025-07-02 10:21:59","80fe4187154257d5fb01684ea91b68b9","196.22.249.82","Mozilla/5.0 (Windows NT 10.0; Win64; x64) AppleWebKit/537.36 (KHTML, like Gecko) Chrome/138.0.0.0 Safari/537.36 Edg/138.0.0.0","WebKit","Edge","138.0.0.0","Windows","10.0","https://app.prolific.com/","en-US,en;q=0.9,en-ZA;q=0.8","6106be7d513dcab805d524b8","683db6dfa200031b80f2a654","6865075cda245bc4c16fb62b","6106be7d513dcab805d524b8","","","","","","","","","","","","","","","","","win-only","1","g1:NE,g2:SW","0.35","0","3","935624.2","2893.5","6903.3","31722.1","2","4","8","6","2","8","8","8","0","0.06060606060606061","1555.3","4000","2280","[""down"",""left""]","{""num_key_presses"":6,""num_perfect"":3,""num_errors"":0,""num_randdir"":3,""num_randdir_good_moves"":3,""num_whilered"":0,""num_whileblue"":0,""num_blue"":2,""num_good_moves"":6}","[299.22232142857143,295.12857142857143,1.1,299.22232142857143,295.12857142857143,101.7,299.22232142857143,295.12857142857143,218.4,299.22232142857143,295.12857142857143,321.4,299.22232142857143,295.12857142857143,437.3,299.22232142857143,295.12857142857143,539.6,299.22232142857143,295.12857142857143,639.9,299.22232142857143,295.12857142857143,745.6,299.22232142857143,295.12857142857143,847.1,163.22232142857143,443.12857142857143,955.6,46.222321428571426,567.1285714285714,1067.2,43.222321428571426,569.1285714285714,1169,43.222321428571426,569.1285714285714,1289,43.222321428571426,569.1285714285714,1390.7,43.222321428571426,569.1285714285714,1496.9,43.222321428571426,569.1285714285714,1611.1,43.222321428571426,569.1285714285714,1719.1,-22.777678571428574,544.1285714285714,1829.1,-195.77767857142857,482.12857142857143,1939.1,-195.77767857142857,482.12857142857143,2050.6,-195.77767857142857,482.12857142857143,2154.1,-195.77767857142857,482.12857142857143,2255.2,-195.77767857142857,482.12857142857143,2358.1,-195.77767857142857,482.12857142857143,2472.1,-195.77767857142857,482.12857142857143,2585.8,-195.77767857142857,482.12857142857143,2690.9,-195.77767857142857,482.12857142857143,2793.1,-195.77767857142857,482.12857142857143,2894.2,-195.77767857142857,482.12857142857143,2995.2,-195.77767857142857,482.12857142857143,3096.2,-195.77767857142857,482.12857142857143,3196.2,-195.77767857142857,482.12857142857143,3297.1,-195.77767857142857,482.12857142857143,3399.8,-195.77767857142857,482.12857142857143,3501.6,-195.77767857142857,482.12857142857143,3601.9,-195.77767857142857,482.12857142857143,3710.1,-195.77767857142857,482.12857142857143,3816,-195.77767857142857,482.12857142857143,3916.7]","[1510.8,1510.8,1000,0,510.8,""oops"",""down"",""left"",""good_move"",5084.3,3571.9,3144.5,1512.4,427.4,""oops"",""down"",""left"",""good_move"",7667.3,2581.2,2095.3,5086.3,485.9,""smooth"",""down"",""down"",""good_move"",10796.7,3127.3,2710,7669.5,417.2,""smooth"",""down"",""down"",""good_move"",13296,2497.7,2130.8,10798.4,366.9,""smooth"",""left"",""left"",""good_move"",24678.9,11380.8,2861,21420.9,397,""oops"",""down"",""down"",""good_move""]","","",""
"21499","","","","instructions","24","984912","0.0-8.0-4.0","155","1","2025-07-02 10:21:59","80fe4187154257d5fb01684ea91b68b9","196.22.249.82","Mozilla/5.0 (Windows NT 10.0; Win64; x64) AppleWebKit/537.36 (KHTML, like Gecko) Chrome/138.0.0.0 Safari/537.36 Edg/138.0.0.0","WebKit","Edge","138.0.0.0","Windows","10.0","https://app.prolific.com/","en-US,en;q=0.9,en-ZA;q=0.8","6106be7d513dcab805d524b8","683db6dfa200031b80f2a654","6865075cda245bc4c16fb62b","6106be7d513dcab805d524b8","","[{""page_index"":0,""viewing_time"":9233},{""page_index"":1,""viewing_time"":12265}]","","","","","","","","","","","","","","","","","","","","","","","","","","","","","","","","","","","","","","","","","","","",""
"19339","","","{""green_ball"":[""Ball always moves in the direction I press"",""Ball sometimes shakes and moves in a random direction""]}","survey-multi-select","25","1004262","0.0-8.0-5.0-0.0","155","1","2025-07-02 10:21:59","80fe4187154257d5fb01684ea91b68b9","196.22.249.82","Mozilla/5.0 (Windows NT 10.0; Win64; x64) AppleWebKit/537.36 (KHTML, like Gecko) Chrome/138.0.0.0 Safari/537.36 Edg/138.0.0.0","WebKit","Edge","138.0.0.0","Windows","10.0","https://app.prolific.com/","en-US,en;q=0.9,en-ZA;q=0.8","6106be7d513dcab805d524b8","683db6dfa200031b80f2a654","6865075cda245bc4c16fb62b","6106be7d513dcab805d524b8","","","[0]","","","","quiz","","","","","","","","","","","","","","","","","","","","","","","","","","","","","","","","","","","","","false","",""
"5633","","<p align='center'><b>INCORRECT.</b> Usually the green ball moves in the indicated direction, but sometimes it shakes and moves randomly. </p>","0","html-button-response","26","1009901","0.0-8.0-5.0-1.0","155","1","2025-07-02 10:21:59","80fe4187154257d5fb01684ea91b68b9","196.22.249.82","Mozilla/5.0 (Windows NT 10.0; Win64; x64) AppleWebKit/537.36 (KHTML, like Gecko) Chrome/138.0.0.0 Safari/537.36 Edg/138.0.0.0","WebKit","Edge","138.0.0.0","Windows","10.0","https://app.prolific.com/","en-US,en;q=0.9,en-ZA;q=0.8","6106be7d513dcab805d524b8","683db6dfa200031b80f2a654","6865075cda245bc4c16fb62b","6106be7d513dcab805d524b8","","","","","","","","","","","","","","","","","","","","","","","","","","","","","","","","","","","","","","","","","","","","","",""
"9897","","","{""green_ball"":[""Ball sometimes shakes and moves in a random direction""]}","survey-multi-select","27","1019810","0.0-8.0-5.1-0.1","155","1","2025-07-02 10:21:59","80fe4187154257d5fb01684ea91b68b9","196.22.249.82","Mozilla/5.0 (Windows NT 10.0; Win64; x64) AppleWebKit/537.36 (KHTML, like Gecko) Chrome/138.0.0.0 Safari/537.36 Edg/138.0.0.0","WebKit","Edge","138.0.0.0","Windows","10.0","https://app.prolific.com/","en-US,en;q=0.9,en-ZA;q=0.8","6106be7d513dcab805d524b8","683db6dfa200031b80f2a654","6865075cda245bc4c16fb62b","6106be7d513dcab805d524b8","","","[0]","","","","quiz","","","","","","","","","","","","","","","","","","","","","","","","","","","","","","","","","","","","","true","",""
"3391","","<p align='center'><b>CORRECT!</b> Indeed, the green ball may sometimes shake and move in a random direction.</p>","0","html-button-response","28","1023207","0.0-8.0-5.1-1.1","155","1","2025-07-02 10:21:59","80fe4187154257d5fb01684ea91b68b9","196.22.249.82","Mozilla/5.0 (Windows NT 10.0; Win64; x64) AppleWebKit/537.36 (KHTML, like Gecko) Chrome/138.0.0.0 Safari/537.36 Edg/138.0.0.0","WebKit","Edge","138.0.0.0","Windows","10.0","https://app.prolific.com/","en-US,en;q=0.9,en-ZA;q=0.8","6106be7d513dcab805d524b8","683db6dfa200031b80f2a654","6865075cda245bc4c16fb62b","6106be7d513dcab805d524b8","","","","","","","","","","","","","","","","","","","","","","","","","","","","","","","","","","","","","","","","","","","","","",""
"14939","","","{""yellow_ball"":[""Ball doesn‘t move and I get -1 penalty point""]}","survey-multi-select","29","1038152","0.0-8.0-6.0-0.0","155","1","2025-07-02 10:21:59","80fe4187154257d5fb01684ea91b68b9","196.22.249.82","Mozilla/5.0 (Windows NT 10.0; Win64; x64) AppleWebKit/537.36 (KHTML, like Gecko) Chrome/138.0.0.0 Safari/537.36 Edg/138.0.0.0","WebKit","Edge","138.0.0.0","Windows","10.0","https://app.prolific.com/","en-US,en;q=0.9,en-ZA;q=0.8","6106be7d513dcab805d524b8","683db6dfa200031b80f2a654","6865075cda245bc4c16fb62b","6106be7d513dcab805d524b8","","","[0]","","","","quiz","","","","","","","","","","","","","","","","","","","","","","","","","","","","","","","","","","","","","true","",""
"2906","","<p align='center'><b>CORRECT!</b> Indeed, the yellow ball never moves and you receive a penalty.</p>","0","html-button-response","30","1041066","0.0-8.0-6.0-1.0","155","1","2025-07-02 10:21:59","80fe4187154257d5fb01684ea91b68b9","196.22.249.82","Mozilla/5.0 (Windows NT 10.0; Win64; x64) AppleWebKit/537.36 (KHTML, like Gecko) Chrome/138.0.0.0 Safari/537.36 Edg/138.0.0.0","WebKit","Edge","138.0.0.0","Windows","10.0","https://app.prolific.com/","en-US,en;q=0.9,en-ZA;q=0.8","6106be7d513dcab805d524b8","683db6dfa200031b80f2a654","6865075cda245bc4c16fb62b","6106be7d513dcab805d524b8","","","","","","","","","","","","","","","","","","","","","","","","","","","","","","","","","","","","","","","","","","","","","",""
"11087","","","{""blue_ball"":[""Ball always shakes and moves in a random direction""]}","survey-multi-select","31","1052163","0.0-8.0-7.0-0.0","155","1","2025-07-02 10:21:59","80fe4187154257d5fb01684ea91b68b9","196.22.249.82","Mozilla/5.0 (Windows NT 10.0; Win64; x64) AppleWebKit/537.36 (KHTML, like Gecko) Chrome/138.0.0.0 Safari/537.36 Edg/138.0.0.0","WebKit","Edge","138.0.0.0","Windows","10.0","https://app.prolific.com/","en-US,en;q=0.9,en-ZA;q=0.8","6106be7d513dcab805d524b8","683db6dfa200031b80f2a654","6865075cda245bc4c16fb62b","6106be7d513dcab805d524b8","","","[0]","","","","quiz","","","","","","","","","","","","","","","","","","","","","","","","","","","","","","","","","","","","","true","",""
"3626","","<p align='center'><b>CORRECT!</b> Indeed, the blue ball always shakes and moves in a random direction. Also there is a penalty of -1 point.</p>","0","html-button-response","32","1055796","0.0-8.0-7.0-1.0","155","1","2025-07-02 10:21:59","80fe4187154257d5fb01684ea91b68b9","196.22.249.82","Mozilla/5.0 (Windows NT 10.0; Win64; x64) AppleWebKit/537.36 (KHTML, like Gecko) Chrome/138.0.0.0 Safari/537.36 Edg/138.0.0.0","WebKit","Edge","138.0.0.0","Windows","10.0","https://app.prolific.com/","en-US,en;q=0.9,en-ZA;q=0.8","6106be7d513dcab805d524b8","683db6dfa200031b80f2a654","6865075cda245bc4c16fb62b","6106be7d513dcab805d524b8","","","","","","","","","","","","","","","","","","","","","","","","","","","","","","","","","","","","","","","","","","","","","",""
"5356","","","{""bonus"":[""When I reach 50% of points""]}","survey-multi-select","33","1061165","0.0-8.0-8.0-0.0","155","1","2025-07-02 10:21:59","80fe4187154257d5fb01684ea91b68b9","196.22.249.82","Mozilla/5.0 (Windows NT 10.0; Win64; x64) AppleWebKit/537.36 (KHTML, like Gecko) Chrome/138.0.0.0 Safari/537.36 Edg/138.0.0.0","WebKit","Edge","138.0.0.0","Windows","10.0","https://app.prolific.com/","en-US,en;q=0.9,en-ZA;q=0.8","6106be7d513dcab805d524b8","683db6dfa200031b80f2a654","6865075cda245bc4c16fb62b","6106be7d513dcab805d524b8","","","[0]","","","","quiz","","","","","","","","","","","","","","","","","","","","","","","","","","","","","","","","","","","","","true","",""
"1473","","<p align='center'><b>CORRECT!</b> Indeed, you receive 2 pounds extra when you reach 50% of points.</p>","0","html-button-response","34","1062643","0.0-8.0-8.0-1.0","155","1","2025-07-02 10:21:59","80fe4187154257d5fb01684ea91b68b9","196.22.249.82","Mozilla/5.0 (Windows NT 10.0; Win64; x64) AppleWebKit/537.36 (KHTML, like Gecko) Chrome/138.0.0.0 Safari/537.36 Edg/138.0.0.0","WebKit","Edge","138.0.0.0","Windows","10.0","https://app.prolific.com/","en-US,en;q=0.9,en-ZA;q=0.8","6106be7d513dcab805d524b8","683db6dfa200031b80f2a654","6865075cda245bc4c16fb62b","6106be7d513dcab805d524b8","","","","","","","","","","","","","","","","","","","","","","","","","","","","","","","","","","","","","","","","","","","","","",""
"2565","","","","instructions","35","1065212","0.0-8.0-9.0","155","1","2025-07-02 10:21:59","80fe4187154257d5fb01684ea91b68b9","196.22.249.82","Mozilla/5.0 (Windows NT 10.0; Win64; x64) AppleWebKit/537.36 (KHTML, like Gecko) Chrome/138.0.0.0 Safari/537.36 Edg/138.0.0.0","WebKit","Edge","138.0.0.0","Windows","10.0","https://app.prolific.com/","en-US,en;q=0.9,en-ZA;q=0.8","6106be7d513dcab805d524b8","683db6dfa200031b80f2a654","6865075cda245bc4c16fb62b","6106be7d513dcab805d524b8","","[{""page_index"":0,""viewing_time"":2564}]","","","","","","","","","","","","","","","","","","","","","","","","","","","","","","","","","","","","","","","","","","","",""
"16762","","<p>Before you start with this game please answer the following three questions yourself. </p>
  <p>Through this game, we measure several aspects of your cognitive performance, such as reaction times, multi-tasking capabilities </p>
  <p>and the ability to assess the situation you are in.</p>
  <p></p>
  <p><b>How good do you usually are in such tasks?</b></p>","88","html-slider-response","36","1081980","0.0-9.0-0.0","155","1","2025-07-02 10:21:59","80fe4187154257d5fb01684ea91b68b9","196.22.249.82","Mozilla/5.0 (Windows NT 10.0; Win64; x64) AppleWebKit/537.36 (KHTML, like Gecko) Chrome/138.0.0.0 Safari/537.36 Edg/138.0.0.0","WebKit","Edge","138.0.0.0","Windows","10.0","https://app.prolific.com/","en-US,en;q=0.9,en-ZA;q=0.8","6106be7d513dcab805d524b8","683db6dfa200031b80f2a654","6865075cda245bc4c16fb62b","6106be7d513dcab805d524b8","2025-07-02T10:40:03.819Z","","","","","","PreSkillQ","","","","","","","","","","","","","","","","","","","","","","","","","","","","","","","","","","","","","","50",""
"8852","","<div style=""width:500px;"">
  <p>How well do you think you will perform in this task compared to other participants?</p>
  </div>","86","html-slider-response","37","1090837","0.0-9.0-1.0","155","1","2025-07-02 10:21:59","80fe4187154257d5fb01684ea91b68b9","196.22.249.82","Mozilla/5.0 (Windows NT 10.0; Win64; x64) AppleWebKit/537.36 (KHTML, like Gecko) Chrome/138.0.0.0 Safari/537.36 Edg/138.0.0.0","WebKit","Edge","138.0.0.0","Windows","10.0","https://app.prolific.com/","en-US,en;q=0.9,en-ZA;q=0.8","6106be7d513dcab805d524b8","683db6dfa200031b80f2a654","6865075cda245bc4c16fb62b","6106be7d513dcab805d524b8","2025-07-02T10:40:12.676Z","","","","","","PrePerfQ","","","","","","","","","","","","","","","","","","","","","","","","","","","","","","","","","","","","","","50",""
"10451","","<div style=""width:500px;"">
  <p>What best describes how you currently feel?</p>
  </div>","53","html-slider-response","38","1101296","0.0-9.0-2.0","155","1","2025-07-02 10:21:59","80fe4187154257d5fb01684ea91b68b9","196.22.249.82","Mozilla/5.0 (Windows NT 10.0; Win64; x64) AppleWebKit/537.36 (KHTML, like Gecko) Chrome/138.0.0.0 Safari/537.36 Edg/138.0.0.0","WebKit","Edge","138.0.0.0","Windows","10.0","https://app.prolific.com/","en-US,en;q=0.9,en-ZA;q=0.8","6106be7d513dcab805d524b8","683db6dfa200031b80f2a654","6865075cda245bc4c16fb62b","6106be7d513dcab805d524b8","2025-07-02T10:40:23.135Z","","","","","","PreMotivationQ","","","","","","","","","","","","","","","","","","","","","","","","","","","","","","","","","","","","","","50",""
"","","","","ctl-task-cpt","39","1130556","0.0-10.0-0.0","155","1","2025-07-02 10:21:59","80fe4187154257d5fb01684ea91b68b9","196.22.249.82","Mozilla/5.0 (Windows NT 10.0; Win64; x64) AppleWebKit/537.36 (KHTML, like Gecko) Chrome/138.0.0.0 Safari/537.36 Edg/138.0.0.0","WebKit","Edge","138.0.0.0","Windows","10.0","https://app.prolific.com/","en-US,en;q=0.9,en-ZA;q=0.8","6106be7d513dcab805d524b8","683db6dfa200031b80f2a654","6865075cda245bc4c16fb62b","6106be7d513dcab805d524b8","2025-07-02T10:40:52.395Z","","","","","","","","","","","","","","","","win-only","3","g1:SW,g2:NE","1","1","0","1108257.3","2170.5","7185.5","26239.4","1","4","8","6","2","8","8","8","0","0.06060606060606061","1850.6","3000","1235","[""up"",""right""]","{""num_key_presses"":6,""num_perfect"":6,""num_errors"":0,""num_randdir"":0,""num_randdir_good_moves"":0,""num_whilered"":0,""num_whileblue"":0,""num_blue"":1,""num_good_moves"":6}","[293.22232142857143,298.12857142857143,1,293.22232142857143,298.12857142857143,105.3,293.22232142857143,298.12857142857143,207.5,293.22232142857143,298.12857142857143,313.1,293.22232142857143,298.12857142857143,413.4,292.22232142857143,299.12857142857143,524.6,284.22232142857143,311.12857142857143,630.8,259.22232142857143,351.12857142857143,742.5,280.22232142857143,309.12857142857143,847.8,465.22232142857143,38.128571428571426,950.7,471.22232142857143,31.128571428571426,1054.3,471.22232142857143,31.128571428571426,1166.6,473.22232142857143,31.128571428571426,1274.8,515.2223214285714,46.128571428571426,1389.8,521.2223214285714,51.128571428571426,1493.1,525.2223214285714,53.128571428571426,1600.1,525.2223214285714,53.128571428571426,1704.3,525.2223214285714,53.128571428571426,1808.8,525.2223214285714,53.128571428571426,1920,525.2223214285714,53.128571428571426,2032.1,525.2223214285714,53.128571428571426,2133,525.2223214285714,53.128571428571426,2239.9,525.2223214285714,53.128571428571426,2350.8,525.2223214285714,53.128571428571426,2453.4,525.2223214285714,53.128571428571426,2554.7,525.2223214285714,53.128571428571426,2663.1,525.2223214285714,53.128571428571426,2775.8,525.2223214285714,53.128571428571426,2876.2,525.2223214285714,53.128571428571426,2976.7,525.2223214285714,53.128571428571426,3081.5,525.2223214285714,53.128571428571426,3187,525.2223214285714,53.128571428571426,3299.1,525.2223214285714,53.128571428571426,3403.9,525.2223214285714,53.128571428571426,3504,525.2223214285714,53.128571428571426,3606.2,525.2223214285714,53.128571428571426,3711.6,525.2223214285714,53.128571428571426,3813.1,525.2223214285714,53.128571428571426,3919.5,525.2223214285714,53.128571428571426,4025.4,525.2223214285714,53.128571428571426,4129.9,525.2223214285714,53.128571428571426,4231.3,525.2223214285714,53.128571428571426,4341.9,525.2223214285714,53.128571428571426,4445.9,525.2223214285714,53.128571428571426,4547.1,525.2223214285714,53.128571428571426,4655.6,525.2223214285714,53.128571428571426,4765.3,525.2223214285714,53.128571428571426,4874,525.2223214285714,53.128571428571426,4979.7]","[1448.2,1448.2,1000,0,448.2,""smooth"",""right"",""right"",""good_move"",4102.4,2652.3,2255.5,1450.3,396.6,""smooth"",""up"",""up"",""good_move"",6787.4,2681.8,2254.4,4105.6,427.4,""smooth"",""right"",""right"",""good_move"",9197.5,2408.3,1994.9,6789.2,413.4,""smooth"",""up"",""up"",""good_move"",15955.4,6754.3,2087.8,13090.7,776.9,""smooth"",""right"",""right"",""good_move"",18854.6,2897.5,2465.1,15957.2,432.4,""smooth"",""up"",""up"",""good_move""]","","",""
"18692","","<div style=""width:500px;"">
  <p>What determined the result of this run?</p>
  </div>","100","html-slider-response","40","1149261","0.0-10.0-1.0","155","1","2025-07-02 10:21:59","80fe4187154257d5fb01684ea91b68b9","196.22.249.82","Mozilla/5.0 (Windows NT 10.0; Win64; x64) AppleWebKit/537.36 (KHTML, like Gecko) Chrome/138.0.0.0 Safari/537.36 Edg/138.0.0.0","WebKit","Edge","138.0.0.0","Windows","10.0","https://app.prolific.com/","en-US,en;q=0.9,en-ZA;q=0.8","6106be7d513dcab805d524b8","683db6dfa200031b80f2a654","6865075cda245bc4c16fb62b","6106be7d513dcab805d524b8","2025-07-02T10:41:11.100Z","","","","","","AttribQ","","","","","","","","","","","","","","","","","","","","","","","","","","","","","","","","","","","","","","50",""
"3632","","<div style=""width:500px;"">
  <p>How much control did you have over the ball?</p>
  </div>","100","html-slider-response","41","1152901","0.0-10.0-2.0","155","1","2025-07-02 10:21:59","80fe4187154257d5fb01684ea91b68b9","196.22.249.82","Mozilla/5.0 (Windows NT 10.0; Win64; x64) AppleWebKit/537.36 (KHTML, like Gecko) Chrome/138.0.0.0 Safari/537.36 Edg/138.0.0.0","WebKit","Edge","138.0.0.0","Windows","10.0","https://app.prolific.com/","en-US,en;q=0.9,en-ZA;q=0.8","6106be7d513dcab805d524b8","683db6dfa200031b80f2a654","6865075cda245bc4c16fb62b","6106be7d513dcab805d524b8","2025-07-02T10:41:14.740Z","","","","","","ControlQ","","","","","","","","","","","","","","","","","","","","","","","","","","","","","","","","","","","","","","50",""
"8912","","<div style=""width:500px;"">
  <p>How would you describe your current emotional state?</p>
  </div>","9","html-slider-response","42","1161818","0.0-10.0-3.0","155","1","2025-07-02 10:21:59","80fe4187154257d5fb01684ea91b68b9","196.22.249.82","Mozilla/5.0 (Windows NT 10.0; Win64; x64) AppleWebKit/537.36 (KHTML, like Gecko) Chrome/138.0.0.0 Safari/537.36 Edg/138.0.0.0","WebKit","Edge","138.0.0.0","Windows","10.0","https://app.prolific.com/","en-US,en;q=0.9,en-ZA;q=0.8","6106be7d513dcab805d524b8","683db6dfa200031b80f2a654","6865075cda245bc4c16fb62b","6106be7d513dcab805d524b8","2025-07-02T10:41:23.657Z","","","","","","StressQ","","","","","","","","","","","","","","","","","","","","","","","","","","","","","","","","","","","","","","50",""
"17640","","<div style=""width:500px;"">
  <p>What best describes how you currently feel?</p>
  </div>","63","html-slider-response","43","1179462","0.0-10.0-4.0","155","1","2025-07-02 10:21:59","80fe4187154257d5fb01684ea91b68b9","196.22.249.82","Mozilla/5.0 (Windows NT 10.0; Win64; x64) AppleWebKit/537.36 (KHTML, like Gecko) Chrome/138.0.0.0 Safari/537.36 Edg/138.0.0.0","WebKit","Edge","138.0.0.0","Windows","10.0","https://app.prolific.com/","en-US,en;q=0.9,en-ZA;q=0.8","6106be7d513dcab805d524b8","683db6dfa200031b80f2a654","6865075cda245bc4c16fb62b","6106be7d513dcab805d524b8","2025-07-02T10:41:41.302Z","","","","","","MotivationQ","","","","","","","","","","","","","","","","","","","","","","","","","","","","","","","","","","","","","","50",""
"","","","","ctl-task-cpt","44","1215504","0.0-10.0-0.1","155","1","2025-07-02 10:21:59","80fe4187154257d5fb01684ea91b68b9","196.22.249.82","Mozilla/5.0 (Windows NT 10.0; Win64; x64) AppleWebKit/537.36 (KHTML, like Gecko) Chrome/138.0.0.0 Safari/537.36 Edg/138.0.0.0","WebKit","Edge","138.0.0.0","Windows","10.0","https://app.prolific.com/","en-US,en;q=0.9,en-ZA;q=0.8","6106be7d513dcab805d524b8","683db6dfa200031b80f2a654","6865075cda245bc4c16fb62b","6106be7d513dcab805d524b8","2025-07-02T10:42:17.344Z","","","","","","","","","","","","","","","","win-only","2","g1:SE,g2:NW","0.9","2","0","1186419.1","2651.5","7653.8","33020.4","1","4","4","6","2","4","4","12","8","0.09090909090909091","1584.6","3000","1885","[""left"",""up""]","{""num_key_presses"":6,""num_perfect"":6,""num_errors"":0,""num_randdir"":0,""num_randdir_good_moves"":0,""num_whilered"":0,""num_whileblue"":0,""num_blue"":2,""num_good_moves"":6}","[300.22232142857143,296.12857142857143,1.1,300.22232142857143,296.12857142857143,100.4,300.22232142857143,296.12857142857143,202.5,300.22232142857143,296.12857142857143,309.8,300.22232142857143,296.12857142857143,411.6,300.22232142857143,296.12857142857143,519.9,300.22232142857143,296.12857142857143,633.7,300.22232142857143,296.12857142857143,761.9,114.22232142857143,100.12857142857143,864.3,87.22232142857143,63.128571428571426,977.8,76.22232142857143,54.128571428571426,1101.5,64.22232142857143,47.128571428571426,1211.1,64.22232142857143,47.128571428571426,1317.7,64.22232142857143,47.128571428571426,1425.4,64.22232142857143,47.128571428571426,1535.2,64.22232142857143,47.128571428571426,1635.9,64.22232142857143,47.128571428571426,1750.1,64.22232142857143,47.128571428571426,1860.3,64.22232142857143,47.128571428571426,1962.5,64.22232142857143,47.128571428571426,2076.6,64.22232142857143,47.128571428571426,2192.4,64.22232142857143,47.128571428571426,2293.2,64.22232142857143,47.128571428571426,2398.8,64.22232142857143,47.128571428571426,2507.6,64.22232142857143,47.128571428571426,2608.9,64.22232142857143,47.128571428571426,2717.5,64.22232142857143,47.128571428571426,2818.1,64.22232142857143,47.128571428571426,2935.1,64.22232142857143,47.128571428571426,3039.5,64.22232142857143,47.128571428571426,3147.6,64.22232142857143,47.128571428571426,3250.4,64.22232142857143,47.128571428571426,3351.7,64.22232142857143,47.128571428571426,3463.1,64.22232142857143,47.128571428571426,3565.7,64.22232142857143,47.128571428571426,3672.5,64.22232142857143,47.128571428571426,3774.4,64.22232142857143,47.128571428571426,3877.6,64.22232142857143,47.128571428571426,3982.6,64.22232142857143,47.128571428571426,4084.8,64.22232142857143,47.128571428571426,4185,64.22232142857143,47.128571428571426,4291.6,64.22232142857143,47.128571428571426,4399.7,64.22232142857143,47.128571428571426,4510.5,64.22232142857143,47.128571428571426,4615.7,64.22232142857143,47.128571428571426,4719.8,64.22232142857143,47.128571428571426,4829.3,64.22232142857143,47.128571428571426,4932.2]","[5142.8,5142.8,2737.7,2012.4,392.8,""smooth"",""left"",""left"",""good_move"",9087.5,3942.3,3517.9,5145.2,424.4,""smooth"",""up"",""up"",""good_move"",12368.5,3278.8,2929.1,9089.7,349.7,""smooth"",""left"",""left"",""good_move"",15427.5,3053.2,2730.1,12374.3,323.1,""smooth"",""up"",""up"",""good_move"",22225.6,6796.4,2713.2,19132.2,380.2,""smooth"",""up"",""up"",""good_move"",25147,2920.2,2507.4,22226.8,412.8,""smooth"",""left"",""left"",""good_move""]","","",""
"6342","","<div style=""width:500px;"">
  <p>What determined the result of this run?</p>
  </div>","100","html-slider-response","45","1221851","0.0-10.0-1.1","155","1","2025-07-02 10:21:59","80fe4187154257d5fb01684ea91b68b9","196.22.249.82","Mozilla/5.0 (Windows NT 10.0; Win64; x64) AppleWebKit/537.36 (KHTML, like Gecko) Chrome/138.0.0.0 Safari/537.36 Edg/138.0.0.0","WebKit","Edge","138.0.0.0","Windows","10.0","https://app.prolific.com/","en-US,en;q=0.9,en-ZA;q=0.8","6106be7d513dcab805d524b8","683db6dfa200031b80f2a654","6865075cda245bc4c16fb62b","6106be7d513dcab805d524b8","2025-07-02T10:42:23.691Z","","","","","","AttribQ","","","","","","","","","","","","","","","","","","","","","","","","","","","","","","","","","","","","","","50",""
"3753","","<div style=""width:500px;"">
  <p>How much control did you have over the ball?</p>
  </div>","100","html-slider-response","46","1225613","0.0-10.0-2.1","155","1","2025-07-02 10:21:59","80fe4187154257d5fb01684ea91b68b9","196.22.249.82","Mozilla/5.0 (Windows NT 10.0; Win64; x64) AppleWebKit/537.36 (KHTML, like Gecko) Chrome/138.0.0.0 Safari/537.36 Edg/138.0.0.0","WebKit","Edge","138.0.0.0","Windows","10.0","https://app.prolific.com/","en-US,en;q=0.9,en-ZA;q=0.8","6106be7d513dcab805d524b8","683db6dfa200031b80f2a654","6865075cda245bc4c16fb62b","6106be7d513dcab805d524b8","2025-07-02T10:42:27.453Z","","","","","","ControlQ","","","","","","","","","","","","","","","","","","","","","","","","","","","","","","","","","","","","","","50",""
"10677","","<div style=""width:500px;"">
  <p>How would you describe your current emotional state?</p>
  </div>","14","html-slider-response","47","1236299","0.0-10.0-3.1","155","1","2025-07-02 10:21:59","80fe4187154257d5fb01684ea91b68b9","196.22.249.82","Mozilla/5.0 (Windows NT 10.0; Win64; x64) AppleWebKit/537.36 (KHTML, like Gecko) Chrome/138.0.0.0 Safari/537.36 Edg/138.0.0.0","WebKit","Edge","138.0.0.0","Windows","10.0","https://app.prolific.com/","en-US,en;q=0.9,en-ZA;q=0.8","6106be7d513dcab805d524b8","683db6dfa200031b80f2a654","6865075cda245bc4c16fb62b","6106be7d513dcab805d524b8","2025-07-02T10:42:38.138Z","","","","","","StressQ","","","","","","","","","","","","","","","","","","","","","","","","","","","","","","","","","","","","","","50",""
"3729","","<div style=""width:500px;"">
  <p>What best describes how you currently feel?</p>
  </div>","65","html-slider-response","48","1240032","0.0-10.0-4.1","155","1","2025-07-02 10:21:59","80fe4187154257d5fb01684ea91b68b9","196.22.249.82","Mozilla/5.0 (Windows NT 10.0; Win64; x64) AppleWebKit/537.36 (KHTML, like Gecko) Chrome/138.0.0.0 Safari/537.36 Edg/138.0.0.0","WebKit","Edge","138.0.0.0","Windows","10.0","https://app.prolific.com/","en-US,en;q=0.9,en-ZA;q=0.8","6106be7d513dcab805d524b8","683db6dfa200031b80f2a654","6865075cda245bc4c16fb62b","6106be7d513dcab805d524b8","2025-07-02T10:42:41.871Z","","","","","","MotivationQ","","","","","","","","","","","","","","","","","","","","","","","","","","","","","","","","","","","","","","50",""
"","","","","ctl-task-cpt","49","1291599","0.0-10.0-0.2","155","1","2025-07-02 10:21:59","80fe4187154257d5fb01684ea91b68b9","196.22.249.82","Mozilla/5.0 (Windows NT 10.0; Win64; x64) AppleWebKit/537.36 (KHTML, like Gecko) Chrome/138.0.0.0 Safari/537.36 Edg/138.0.0.0","WebKit","Edge","138.0.0.0","Windows","10.0","https://app.prolific.com/","en-US,en;q=0.9,en-ZA;q=0.8","6106be7d513dcab805d524b8","683db6dfa200031b80f2a654","6865075cda245bc4c16fb62b","6106be7d513dcab805d524b8","2025-07-02T10:43:33.438Z","","","","","","","","","","","","","","","","win-only","2","g1:SE,g2:NW","0.8","3","0","1246987.4","2199.1","7221.7","48531.3","1","4","4","6","2","4","4","16","12","0.12121212121212122","1884","3000","1935","[""left"",""up""]","{""num_key_presses"":10,""num_perfect"":8,""num_errors"":0,""num_randdir"":2,""num_randdir_good_moves"":0,""num_whilered"":0,""num_whileblue"":0,""num_blue"":2,""num_good_moves"":8}","[295.22232142857143,293.12857142857143,1.5,295.22232142857143,293.12857142857143,101.4,295.22232142857143,293.12857142857143,206.4,295.22232142857143,293.12857142857143,315.7,295.22232142857143,293.12857142857143,431.2,295.22232142857143,293.12857142857143,532.9,295.22232142857143,293.12857142857143,639.7,295.22232142857143,293.12857142857143,750.1,215.22232142857143,202.12857142857143,850.7,139.22232142857143,137.12857142857143,952.5,139.22232142857143,137.12857142857143,1053.2,139.22232142857143,137.12857142857143,1153.7,122.22232142857143,118.12857142857143,1255.3,77.22232142857143,72.12857142857143,1370.4,69.22232142857143,65.12857142857143,1471.6,69.22232142857143,65.12857142857143,1576.2,69.22232142857143,65.12857142857143,1679.3,69.22232142857143,65.12857142857143,1783.4,69.22232142857143,65.12857142857143,1889.5,69.22232142857143,65.12857142857143,1999.2,69.22232142857143,65.12857142857143,2102.6,69.22232142857143,65.12857142857143,2205,69.22232142857143,66.12857142857143,2315.1,1.2223214285714263,240.12857142857143,2421.9,-9.777678571428574,271.12857142857143,2531.8,-9.777678571428574,271.12857142857143,2637.9,-9.777678571428574,271.12857142857143,2751.4,-9.777678571428574,271.12857142857143,2853.5,-9.777678571428574,271.12857142857143,2961.6,-9.777678571428574,271.12857142857143,3071.9,-9.777678571428574,271.12857142857143,3179.1,-9.777678571428574,271.12857142857143,3288.7,-9.777678571428574,271.12857142857143,3389.4,-9.777678571428574,271.12857142857143,3499.1,-9.777678571428574,271.12857142857143,3604.8,-9.777678571428574,271.12857142857143,3704.9,-9.777678571428574,271.12857142857143,3817.7,-9.777678571428574,271.12857142857143,3925.6,-9.777678571428574,271.12857142857143,4028.7,-9.777678571428574,271.12857142857143,4129.2,-9.777678571428574,271.12857142857143,4238.8,-9.777678571428574,271.12857142857143,4349.7,-9.777678571428574,271.12857142857143,4456.4,-9.777678571428574,271.12857142857143,4563.1,-9.777678571428574,271.12857142857143,4673.4,-9.777678571428574,271.12857142857143,4784.9,-9.777678571428574,271.12857142857143,4899.7]","[5262.8,5262.8,2853.9,2011.6,397.3,""smooth"",""up"",""up"",""good_move"",13083.5,7818.1,3097.6,9581.6,404.3,""oops"",""left"",""down"",""bad_move"",16257.3,3169.5,2695.5,13087.8,474,""smooth"",""up"",""up"",""good_move"",19324.8,3065.1,2512.4,16259.7,552.7,""smooth"",""up"",""up"",""good_move"",22651.1,3323.8,2361.6,19327.3,962.2,""oops"",""up"",""right"",""bad_move"",25420.9,2764.7,2367.9,22656.2,396.8,""smooth"",""left"",""left"",""good_move"",28950.7,3527.4,2648.4,25423.3,879,""smooth"",""left"",""left"",""good_move"",32685.4,3730.1,1931.2,28955.3,1798.9,""smooth"",""left"",""left"",""good_move"",36671.8,3982.7,2962.2,32689.1,1020.5,""smooth"",""up"",""up"",""good_move"",40878.7,4202.9,2882.8,36675.8,1320.1,""smooth"",""left"",""left"",""good_move""]","","",""
"7724","","<div style=""width:500px;"">
  <p>What determined the result of this run?</p>
  </div>","58","html-slider-response","50","1299328","0.0-10.0-1.2","155","1","2025-07-02 10:21:59","80fe4187154257d5fb01684ea91b68b9","196.22.249.82","Mozilla/5.0 (Windows NT 10.0; Win64; x64) AppleWebKit/537.36 (KHTML, like Gecko) Chrome/138.0.0.0 Safari/537.36 Edg/138.0.0.0","WebKit","Edge","138.0.0.0","Windows","10.0","https://app.prolific.com/","en-US,en;q=0.9,en-ZA;q=0.8","6106be7d513dcab805d524b8","683db6dfa200031b80f2a654","6865075cda245bc4c16fb62b","6106be7d513dcab805d524b8","2025-07-02T10:43:41.167Z","","","","","","AttribQ","","","","","","","","","","","","","","","","","","","","","","","","","","","","","","","","","","","","","","50",""
"6356","","<div style=""width:500px;"">
  <p>How much control did you have over the ball?</p>
  </div>","63","html-slider-response","51","1305693","0.0-10.0-2.2","155","1","2025-07-02 10:21:59","80fe4187154257d5fb01684ea91b68b9","196.22.249.82","Mozilla/5.0 (Windows NT 10.0; Win64; x64) AppleWebKit/537.36 (KHTML, like Gecko) Chrome/138.0.0.0 Safari/537.36 Edg/138.0.0.0","WebKit","Edge","138.0.0.0","Windows","10.0","https://app.prolific.com/","en-US,en;q=0.9,en-ZA;q=0.8","6106be7d513dcab805d524b8","683db6dfa200031b80f2a654","6865075cda245bc4c16fb62b","6106be7d513dcab805d524b8","2025-07-02T10:43:47.533Z","","","","","","ControlQ","","","","","","","","","","","","","","","","","","","","","","","","","","","","","","","","","","","","","","50",""
"5171","","<div style=""width:500px;"">
  <p>How would you describe your current emotional state?</p>
  </div>","16","html-slider-response","52","1310875","0.0-10.0-3.2","155","1","2025-07-02 10:21:59","80fe4187154257d5fb01684ea91b68b9","196.22.249.82","Mozilla/5.0 (Windows NT 10.0; Win64; x64) AppleWebKit/537.36 (KHTML, like Gecko) Chrome/138.0.0.0 Safari/537.36 Edg/138.0.0.0","WebKit","Edge","138.0.0.0","Windows","10.0","https://app.prolific.com/","en-US,en;q=0.9,en-ZA;q=0.8","6106be7d513dcab805d524b8","683db6dfa200031b80f2a654","6865075cda245bc4c16fb62b","6106be7d513dcab805d524b8","2025-07-02T10:43:52.715Z","","","","","","StressQ","","","","","","","","","","","","","","","","","","","","","","","","","","","","","","","","","","","","","","50",""
"4074","","<div style=""width:500px;"">
  <p>What best describes how you currently feel?</p>
  </div>","60","html-slider-response","53","1314964","0.0-10.0-4.2","155","1","2025-07-02 10:21:59","80fe4187154257d5fb01684ea91b68b9","196.22.249.82","Mozilla/5.0 (Windows NT 10.0; Win64; x64) AppleWebKit/537.36 (KHTML, like Gecko) Chrome/138.0.0.0 Safari/537.36 Edg/138.0.0.0","WebKit","Edge","138.0.0.0","Windows","10.0","https://app.prolific.com/","en-US,en;q=0.9,en-ZA;q=0.8","6106be7d513dcab805d524b8","683db6dfa200031b80f2a654","6865075cda245bc4c16fb62b","6106be7d513dcab805d524b8","2025-07-02T10:43:56.806Z","","","","","","MotivationQ","","","","","","","","","","","","","","","","","","","","","","","","","","","","","","","","","","","","","","50",""
"","","","","ctl-task-cpt","54","1358235","0.0-10.0-0.3","155","1","2025-07-02 10:21:59","80fe4187154257d5fb01684ea91b68b9","196.22.249.82","Mozilla/5.0 (Windows NT 10.0; Win64; x64) AppleWebKit/537.36 (KHTML, like Gecko) Chrome/138.0.0.0 Safari/537.36 Edg/138.0.0.0","WebKit","Edge","138.0.0.0","Windows","10.0","https://app.prolific.com/","en-US,en;q=0.9,en-ZA;q=0.8","6106be7d513dcab805d524b8","683db6dfa200031b80f2a654","6865075cda245bc4c16fb62b","6106be7d513dcab805d524b8","2025-07-02T10:44:40.074Z","","","","","","","","","","","","","","","","win-only","0","g1:NW,g2:SE","0.7","4","0","1321925.3","2111.4","7139.7","40216","1","4","8","6","2","8","8","24","16","0.18181818181818182","2008.1","3000","2510","[""down"",""right""]","{""num_key_presses"":8,""num_perfect"":5,""num_errors"":0,""num_randdir"":3,""num_randdir_good_moves"":2,""num_whilered"":0,""num_whileblue"":0,""num_blue"":1,""num_good_moves"":7}","[295.22232142857143,297.12857142857143,2.2,295.22232142857143,297.12857142857143,132.6,295.22232142857143,297.12857142857143,257.6,295.22232142857143,297.12857142857143,387.2,295.22232142857143,297.12857142857143,520.9,295.22232142857143,297.12857142857143,636.4,295.22232142857143,297.12857142857143,745.5,295.22232142857143,297.12857142857143,853.1,295.22232142857143,297.12857142857143,964.1,338.22232142857143,344.12857142857143,1103.7,466.22232142857143,494.12857142857143,1208.7,466.22232142857143,495.12857142857143,1336.7,466.22232142857143,495.12857142857143,1440.9,466.22232142857143,495.12857142857143,1575.6,519.2223214285714,537.1285714285714,1682.1,522.2223214285714,539.1285714285714,1816.1,522.2223214285714,539.1285714285714,1933.9,522.2223214285714,539.1285714285714,2045,522.2223214285714,539.1285714285714,2177.6,522.2223214285714,539.1285714285714,2307.9,558.2223214285714,517.1285714285714,2415.4,711.2223214285714,414.12857142857143,2545.2,711.2223214285714,414.12857142857143,2670.7,711.2223214285714,414.12857142857143,2787.2,711.2223214285714,414.12857142857143,2917.3,711.2223214285714,414.12857142857143,3032.2,711.2223214285714,414.12857142857143,3156.6,711.2223214285714,414.12857142857143,3273,711.2223214285714,414.12857142857143,3382.1,711.2223214285714,414.12857142857143,3496.2,711.2223214285714,414.12857142857143,3612.6,711.2223214285714,414.12857142857143,3718,711.2223214285714,414.12857142857143,3833.8,711.2223214285714,414.12857142857143,3938.3,711.2223214285714,414.12857142857143,4051.1,711.2223214285714,414.12857142857143,4172.9,711.2223214285714,414.12857142857143,4287.7,711.2223214285714,414.12857142857143,4411.6,711.2223214285714,414.12857142857143,4524,711.2223214285714,414.12857142857143,4636.1,711.2223214285714,414.12857142857143,4753.5,711.2223214285714,414.12857142857143,4866.6,711.2223214285714,414.12857142857143,4982.6]","[4433.3,4433.3,1958.4,2035.4,439.5,""smooth"",""down"",""down"",""good_move"",8104.1,3669.1,3146.2,4435,522.9,""smooth"",""right"",""right"",""good_move"",10890.1,2784,2212.1,8106.3,571.8,""smooth"",""down"",""down"",""good_move"",13673.6,2781.1,2315.2,10892.5,465.9,""oops"",""right"",""right"",""good_move"",17379.8,3704.1,2805.3,13675.7,898.8,""oops"",""right"",""right"",""good_move"",20036.9,2651.2,2105,17385.7,546.2,""oops"",""down"",""left"",""bad_move"",28036.7,7997.8,2053.5,20038.9,5944.3,""smooth"",""down"",""down"",""good_move"",31670.4,3632.3,2679.7,28038.2,952.5,""smooth"",""right"",""right"",""good_move""]","","",""
"9189","","<div style=""width:500px;"">
  <p>What determined the result of this run?</p>
  </div>","52","html-slider-response","55","1367436","0.0-10.0-1.3","155","1","2025-07-02 10:21:59","80fe4187154257d5fb01684ea91b68b9","196.22.249.82","Mozilla/5.0 (Windows NT 10.0; Win64; x64) AppleWebKit/537.36 (KHTML, like Gecko) Chrome/138.0.0.0 Safari/537.36 Edg/138.0.0.0","WebKit","Edge","138.0.0.0","Windows","10.0","https://app.prolific.com/","en-US,en;q=0.9,en-ZA;q=0.8","6106be7d513dcab805d524b8","683db6dfa200031b80f2a654","6865075cda245bc4c16fb62b","6106be7d513dcab805d524b8","2025-07-02T10:44:49.275Z","","","","","","AttribQ","","","","","","","","","","","","","","","","","","","","","","","","","","","","","","","","","","","","","","50",""
"10314","","<div style=""width:500px;"">
  <p>How much control did you have over the ball?</p>
  </div>","58","html-slider-response","56","1377761","0.0-10.0-2.3","155","1","2025-07-02 10:21:59","80fe4187154257d5fb01684ea91b68b9","196.22.249.82","Mozilla/5.0 (Windows NT 10.0; Win64; x64) AppleWebKit/537.36 (KHTML, like Gecko) Chrome/138.0.0.0 Safari/537.36 Edg/138.0.0.0","WebKit","Edge","138.0.0.0","Windows","10.0","https://app.prolific.com/","en-US,en;q=0.9,en-ZA;q=0.8","6106be7d513dcab805d524b8","683db6dfa200031b80f2a654","6865075cda245bc4c16fb62b","6106be7d513dcab805d524b8","2025-07-02T10:44:59.600Z","","","","","","ControlQ","","","","","","","","","","","","","","","","","","","","","","","","","","","","","","","","","","","","","","50",""
"7887","","<div style=""width:500px;"">
  <p>How would you describe your current emotional state?</p>
  </div>","21","html-slider-response","57","1385664","0.0-10.0-3.3","155","1","2025-07-02 10:21:59","80fe4187154257d5fb01684ea91b68b9","196.22.249.82","Mozilla/5.0 (Windows NT 10.0; Win64; x64) AppleWebKit/537.36 (KHTML, like Gecko) Chrome/138.0.0.0 Safari/537.36 Edg/138.0.0.0","WebKit","Edge","138.0.0.0","Windows","10.0","https://app.prolific.com/","en-US,en;q=0.9,en-ZA;q=0.8","6106be7d513dcab805d524b8","683db6dfa200031b80f2a654","6865075cda245bc4c16fb62b","6106be7d513dcab805d524b8","2025-07-02T10:45:07.503Z","","","","","","StressQ","","","","","","","","","","","","","","","","","","","","","","","","","","","","","","","","","","","","","","50",""
"16749","","<div style=""width:500px;"">
  <p>What best describes how you currently feel?</p>
  </div>","65","html-slider-response","58","1402425","0.0-10.0-4.3","155","1","2025-07-02 10:21:59","80fe4187154257d5fb01684ea91b68b9","196.22.249.82","Mozilla/5.0 (Windows NT 10.0; Win64; x64) AppleWebKit/537.36 (KHTML, like Gecko) Chrome/138.0.0.0 Safari/537.36 Edg/138.0.0.0","WebKit","Edge","138.0.0.0","Windows","10.0","https://app.prolific.com/","en-US,en;q=0.9,en-ZA;q=0.8","6106be7d513dcab805d524b8","683db6dfa200031b80f2a654","6865075cda245bc4c16fb62b","6106be7d513dcab805d524b8","2025-07-02T10:45:24.264Z","","","","","","MotivationQ","","","","","","","","","","","","","","","","","","","","","","","","","","","","","","","","","","","","","","50",""
"","","","","ctl-task-cpt","59","1504274","0.0-10.0-0.4","155","1","2025-07-02 10:21:59","80fe4187154257d5fb01684ea91b68b9","196.22.249.82","Mozilla/5.0 (Windows NT 10.0; Win64; x64) AppleWebKit/537.36 (KHTML, like Gecko) Chrome/138.0.0.0 Safari/537.36 Edg/138.0.0.0","WebKit","Edge","138.0.0.0","Windows","10.0","https://app.prolific.com/","en-US,en;q=0.9,en-ZA;q=0.8","6106be7d513dcab805d524b8","683db6dfa200031b80f2a654","6865075cda245bc4c16fb62b","6106be7d513dcab805d524b8","2025-07-02T10:47:06.113Z","","","","","","","","","","","","","","","","win-only","2","g1:SE,g2:NW","0.6","5","0","1409387.5","5172.3","10231.9","98727.5","1","4","8","6","2","8","8","32","24","0.24242424242424243","2644.8","3000","2590","[""left"",""up""]","{""num_key_presses"":8,""num_perfect"":4,""num_errors"":0,""num_randdir"":4,""num_randdir_good_moves"":3,""num_whilered"":0,""num_whileblue"":0,""num_blue"":1,""num_good_moves"":7}","[296.22232142857143,292.12857142857143,2.3,296.22232142857143,292.12857142857143,135.2,296.22232142857143,292.12857142857143,288.5,296.22232142857143,292.12857142857143,443.1,296.22232142857143,292.12857142857143,587.3,296.22232142857143,292.12857142857143,724.7,296.22232142857143,292.12857142857143,869.6,296.22232142857143,292.12857142857143,1017.7,296.22232142857143,292.12857142857143,1144.2,296.22232142857143,292.12857142857143,1279.5,296.22232142857143,292.12857142857143,1435.2,296.22232142857143,292.12857142857143,1585.2,202.22232142857143,211.12857142857143,1802.5,75.22232142857143,40.128571428571426,1925.3,54.222321428571426,18.128571428571426,2204.5,41.222321428571426,17.128571428571426,2319.7,43.222321428571426,26.128571428571426,2504.8,43.222321428571426,26.128571428571426,2705.6,43.222321428571426,26.128571428571426,2864.8,43.222321428571426,26.128571428571426,3028.7,43.222321428571426,26.128571428571426,3186.6,43.222321428571426,26.128571428571426,3346.6,43.222321428571426,26.128571428571426,3485.3,43.222321428571426,26.128571428571426,3622.2,43.222321428571426,26.128571428571426,3767,43.222321428571426,26.128571428571426,3892.6,43.222321428571426,26.128571428571426,4049.7,43.222321428571426,26.128571428571426,4193.2,43.222321428571426,26.128571428571426,4360,43.222321428571426,26.128571428571426,4496.4,43.222321428571426,26.128571428571426,4645.9,43.222321428571426,26.128571428571426,4777.1,43.222321428571426,26.128571428571426,4922.9]","[5249.4,5249.4,2597.6,2074.2,577.6,""oops"",""up"",""left"",""good_move"",17589.6,12336.8,2421.2,5252.8,9915.6,""smooth"",""left"",""left"",""good_move"",30676.6,13085.5,2689.9,17591.1,10395.6,""smooth"",""up"",""up"",""good_move"",44124,13445.6,1809.4,30678.4,11636.2,""oops"",""up"",""down"",""bad_move"",47681.1,3555.8,2725.2,44125.5,830.5,""oops"",""left"",""up"",""good_move"",60855.5,13169.6,2589.5,47685.9,10580.1,""smooth"",""up"",""up"",""good_move"",73691.9,12835.2,2607.9,60856.8,10227.2,""smooth"",""up"",""up"",""good_move"",87022.8,13329.3,3261.5,73693.5,10067.8,""oops"",""left"",""left"",""good_move""]","","",""
"10003","","<div style=""width:500px;"">
  <p>What determined the result of this run?</p>
  </div>","70","html-slider-response","60","1514299","0.0-10.0-1.4","155","1","2025-07-02 10:21:59","80fe4187154257d5fb01684ea91b68b9","196.22.249.82","Mozilla/5.0 (Windows NT 10.0; Win64; x64) AppleWebKit/537.36 (KHTML, like Gecko) Chrome/138.0.0.0 Safari/537.36 Edg/138.0.0.0","WebKit","Edge","138.0.0.0","Windows","10.0","https://app.prolific.com/","en-US,en;q=0.9,en-ZA;q=0.8","6106be7d513dcab805d524b8","683db6dfa200031b80f2a654","6865075cda245bc4c16fb62b","6106be7d513dcab805d524b8","2025-07-02T10:47:16.138Z","","","","","","AttribQ","","","","","","","","","","","","","","","","","","","","","","","","","","","","","","","","","","","","","","50",""
"3915","","<div style=""width:500px;"">
  <p>How much control did you have over the ball?</p>
  </div>","90","html-slider-response","61","1518232","0.0-10.0-2.4","155","1","2025-07-02 10:21:59","80fe4187154257d5fb01684ea91b68b9","196.22.249.82","Mozilla/5.0 (Windows NT 10.0; Win64; x64) AppleWebKit/537.36 (KHTML, like Gecko) Chrome/138.0.0.0 Safari/537.36 Edg/138.0.0.0","WebKit","Edge","138.0.0.0","Windows","10.0","https://app.prolific.com/","en-US,en;q=0.9,en-ZA;q=0.8","6106be7d513dcab805d524b8","683db6dfa200031b80f2a654","6865075cda245bc4c16fb62b","6106be7d513dcab805d524b8","2025-07-02T10:47:20.071Z","","","","","","ControlQ","","","","","","","","","","","","","","","","","","","","","","","","","","","","","","","","","","","","","","50",""
"3692","","<div style=""width:500px;"">
  <p>How would you describe your current emotional state?</p>
  </div>","14","html-slider-response","62","1521938","0.0-10.0-3.4","155","1","2025-07-02 10:21:59","80fe4187154257d5fb01684ea91b68b9","196.22.249.82","Mozilla/5.0 (Windows NT 10.0; Win64; x64) AppleWebKit/537.36 (KHTML, like Gecko) Chrome/138.0.0.0 Safari/537.36 Edg/138.0.0.0","WebKit","Edge","138.0.0.0","Windows","10.0","https://app.prolific.com/","en-US,en;q=0.9,en-ZA;q=0.8","6106be7d513dcab805d524b8","683db6dfa200031b80f2a654","6865075cda245bc4c16fb62b","6106be7d513dcab805d524b8","2025-07-02T10:47:23.777Z","","","","","","StressQ","","","","","","","","","","","","","","","","","","","","","","","","","","","","","","","","","","","","","","50",""
"3782","","<div style=""width:500px;"">
  <p>What best describes how you currently feel?</p>
  </div>","53","html-slider-response","63","1525736","0.0-10.0-4.4","155","1","2025-07-02 10:21:59","80fe4187154257d5fb01684ea91b68b9","196.22.249.82","Mozilla/5.0 (Windows NT 10.0; Win64; x64) AppleWebKit/537.36 (KHTML, like Gecko) Chrome/138.0.0.0 Safari/537.36 Edg/138.0.0.0","WebKit","Edge","138.0.0.0","Windows","10.0","https://app.prolific.com/","en-US,en;q=0.9,en-ZA;q=0.8","6106be7d513dcab805d524b8","683db6dfa200031b80f2a654","6865075cda245bc4c16fb62b","6106be7d513dcab805d524b8","2025-07-02T10:47:27.575Z","","","","","","MotivationQ","","","","","","","","","","","","","","","","","","","","","","","","","","","","","","","","","","","","","","50",""
"","","","","ctl-task-cpt","64","1634532","0.0-10.0-0.5","155","1","2025-07-02 10:21:59","80fe4187154257d5fb01684ea91b68b9","196.22.249.82","Mozilla/5.0 (Windows NT 10.0; Win64; x64) AppleWebKit/537.36 (KHTML, like Gecko) Chrome/138.0.0.0 Safari/537.36 Edg/138.0.0.0","WebKit","Edge","138.0.0.0","Windows","10.0","https://app.prolific.com/","en-US,en;q=0.9,en-ZA;q=0.8","6106be7d513dcab805d524b8","683db6dfa200031b80f2a654","6865075cda245bc4c16fb62b","6106be7d513dcab805d524b8","2025-07-02T10:49:16.371Z","","","","","","","","","","","","","","","","win-only","2","g1:SE,g2:NW","0.5","6","0","1532701.3","2928","7939.6","105670.3","1","4","4","6","1","1","1","33","32","0.25","5011.5","3000","2185","[""down"",""right""]","{""num_key_presses"":11,""num_perfect"":5,""num_errors"":0,""num_randdir"":6,""num_randdir_good_moves"":4,""num_whilered"":0,""num_whileblue"":0,""num_blue"":2,""num_good_moves"":8}","[294.22232142857143,301.12857142857143,1.4,294.22232142857143,301.12857142857143,148,294.22232142857143,301.12857142857143,262.1,294.22232142857143,301.12857142857143,395.3,294.22232142857143,301.12857142857143,521.4,294.22232142857143,301.12857142857143,632.4,294.22232142857143,301.12857142857143,760.8,510.22232142857143,278.12857142857143,921.5,513.2223214285714,278.12857142857143,1044.8,513.2223214285714,278.12857142857143,1163.7,513.2223214285714,278.12857142857143,1293.3,513.2223214285714,278.12857142857143,1411.2,513.2223214285714,278.12857142857143,1526.5,513.2223214285714,278.12857142857143,1633.8,513.2223214285714,278.12857142857143,1750.6,513.2223214285714,278.12857142857143,1864,513.2223214285714,278.12857142857143,2001.1,880.2223214285714,119.12857142857143,2151,880.2223214285714,119.12857142857143,2293,880.2223214285714,119.12857142857143,2416.2,880.2223214285714,119.12857142857143,2526.9,880.2223214285714,119.12857142857143,2671,880.2223214285714,119.12857142857143,2786.3,880.2223214285714,119.12857142857143,2912.8,880.2223214285714,119.12857142857143,3033.4,880.2223214285714,119.12857142857143,3135.5,880.2223214285714,119.12857142857143,3248.7,880.2223214285714,119.12857142857143,3366.3,880.2223214285714,119.12857142857143,3576.9,880.2223214285714,119.12857142857143,3683.8,880.2223214285714,119.12857142857143,3882.8,880.2223214285714,119.12857142857143,4083.3,880.2223214285714,119.12857142857143,4290.2,880.2223214285714,119.12857142857143,4498.9,880.2223214285714,119.12857142857143,4602.8,880.2223214285714,119.12857142857143,4795.3]","[1719.4,1719.4,1000,0,719.4,""smooth"",""left"",""left"",""bad_move"",21994.9,20273.8,1857.6,1721.1,18416.2,""smooth"",""down"",""down"",""good_move"",27555.5,5551.4,1829.4,22004.2,3722,""oops"",""right"",""right"",""good_move"",31227,3669.1,2635.8,27558.1,1033.2,""oops"",""down"",""right"",""good_move"",34538.9,3287.4,2254.4,31251.5,1033.1,""oops"",""down"",""left"",""bad_move"",55025.6,20484.8,3206.6,34540.8,17278.2,""oops"",""down"",""up"",""bad_move"",76352.2,21324.7,2567.7,55027.5,18757,""smooth"",""right"",""right"",""good_move"",80526.6,4172.2,2625.7,76354.4,1546.5,""smooth"",""down"",""down"",""good_move"",84803.1,4273.4,2047.7,80529.7,2225.7,""oops"",""down"",""down"",""good_move"",91770.5,6965.1,2104.3,89049.3,616.9,""smooth"",""right"",""right"",""good_move"",95075.4,3303,1805.7,91772.5,1497.3,""oops"",""right"",""right"",""good_move""]","","",""
"13537","","<div style=""width:500px;"">
  <p>What determined the result of this run?</p>
  </div>","56","html-slider-response","65","1648092","0.0-10.0-1.5","155","1","2025-07-02 10:21:59","80fe4187154257d5fb01684ea91b68b9","196.22.249.82","Mozilla/5.0 (Windows NT 10.0; Win64; x64) AppleWebKit/537.36 (KHTML, like Gecko) Chrome/138.0.0.0 Safari/537.36 Edg/138.0.0.0","WebKit","Edge","138.0.0.0","Windows","10.0","https://app.prolific.com/","en-US,en;q=0.9,en-ZA;q=0.8","6106be7d513dcab805d524b8","683db6dfa200031b80f2a654","6865075cda245bc4c16fb62b","6106be7d513dcab805d524b8","2025-07-02T10:49:29.931Z","","","","","","AttribQ","","","","","","","","","","","","","","","","","","","","","","","","","","","","","","","","","","","","","","50",""
"3413","","<div style=""width:500px;"">
  <p>How much control did you have over the ball?</p>
  </div>","47","html-slider-response","66","1651530","0.0-10.0-2.5","155","1","2025-07-02 10:21:59","80fe4187154257d5fb01684ea91b68b9","196.22.249.82","Mozilla/5.0 (Windows NT 10.0; Win64; x64) AppleWebKit/537.36 (KHTML, like Gecko) Chrome/138.0.0.0 Safari/537.36 Edg/138.0.0.0","WebKit","Edge","138.0.0.0","Windows","10.0","https://app.prolific.com/","en-US,en;q=0.9,en-ZA;q=0.8","6106be7d513dcab805d524b8","683db6dfa200031b80f2a654","6865075cda245bc4c16fb62b","6106be7d513dcab805d524b8","2025-07-02T10:49:33.369Z","","","","","","ControlQ","","","","","","","","","","","","","","","","","","","","","","","","","","","","","","","","","","","","","","50",""
"5541","","<div style=""width:500px;"">
  <p>How would you describe your current emotional state?</p>
  </div>","18","html-slider-response","67","1657089","0.0-10.0-3.5","155","1","2025-07-02 10:21:59","80fe4187154257d5fb01684ea91b68b9","196.22.249.82","Mozilla/5.0 (Windows NT 10.0; Win64; x64) AppleWebKit/537.36 (KHTML, like Gecko) Chrome/138.0.0.0 Safari/537.36 Edg/138.0.0.0","WebKit","Edge","138.0.0.0","Windows","10.0","https://app.prolific.com/","en-US,en;q=0.9,en-ZA;q=0.8","6106be7d513dcab805d524b8","683db6dfa200031b80f2a654","6865075cda245bc4c16fb62b","6106be7d513dcab805d524b8","2025-07-02T10:49:38.928Z","","","","","","StressQ","","","","","","","","","","","","","","","","","","","","","","","","","","","","","","","","","","","","","","50",""
"3906","","<div style=""width:500px;"">
  <p>What best describes how you currently feel?</p>
  </div>","54","html-slider-response","68","1661014","0.0-10.0-4.5","155","1","2025-07-02 10:21:59","80fe4187154257d5fb01684ea91b68b9","196.22.249.82","Mozilla/5.0 (Windows NT 10.0; Win64; x64) AppleWebKit/537.36 (KHTML, like Gecko) Chrome/138.0.0.0 Safari/537.36 Edg/138.0.0.0","WebKit","Edge","138.0.0.0","Windows","10.0","https://app.prolific.com/","en-US,en;q=0.9,en-ZA;q=0.8","6106be7d513dcab805d524b8","683db6dfa200031b80f2a654","6865075cda245bc4c16fb62b","6106be7d513dcab805d524b8","2025-07-02T10:49:42.853Z","","","","","","MotivationQ","","","","","","","","","","","","","","","","","","","","","","","","","","","","","","","","","","","","","","50",""
"","","","","ctl-task-cpt","69","1904262","0.0-10.0-0.6","155","1","2025-07-02 10:21:59","80fe4187154257d5fb01684ea91b68b9","196.22.249.82","Mozilla/5.0 (Windows NT 10.0; Win64; x64) AppleWebKit/537.36 (KHTML, like Gecko) Chrome/138.0.0.0 Safari/537.36 Edg/138.0.0.0","WebKit","Edge","138.0.0.0","Windows","10.0","https://app.prolific.com/","en-US,en;q=0.9,en-ZA;q=0.8","6106be7d513dcab805d524b8","683db6dfa200031b80f2a654","6865075cda245bc4c16fb62b","6106be7d513dcab805d524b8","2025-07-02T10:53:46.101Z","","","","","","","","","","","","","","","","win-only","1","g1:NE,g2:SW","0.4","7","0","1667982.7","2672.9","7759.5","240047.7","1","4","8","6","2","8","8","41","33","0.3106060606060606","2901.5","3000","2290","[""down"",""left""]","{""num_key_presses"":16,""num_perfect"":7,""num_errors"":0,""num_randdir"":9,""num_randdir_good_moves"":4,""num_whilered"":0,""num_whileblue"":0,""num_blue"":10,""num_good_moves"":11}","[297.22232142857143,296.12857142857143,40.9,297.22232142857143,296.12857142857143,215,297.22232142857143,296.12857142857143,369,297.22232142857143,296.12857142857143,512.9,297.22232142857143,296.12857142857143,639.7,297.22232142857143,296.12857142857143,764.4,297.22232142857143,296.12857142857143,896.4,297.22232142857143,296.12857142857143,1034,297.22232142857143,296.12857142857143,1167.8,297.22232142857143,296.12857142857143,1322.6,297.22232142857143,296.12857142857143,1461.6,297.22232142857143,296.12857142857143,1606.5,297.22232142857143,296.12857142857143,1749,166.22232142857143,433.12857142857143,2013.4,140.22232142857143,473.12857142857143,2191.1,137.22232142857143,474.12857142857143,2368.5,88.22232142857143,516.1285714285714,2594.4,69.22232142857143,535.1285714285714,2755.7,69.22232142857143,535.1285714285714,2944,69.22232142857143,535.1285714285714,3107.8,69.22232142857143,535.1285714285714,3268.4,69.22232142857143,535.1285714285714,3431.6,69.22232142857143,535.1285714285714,3577.1,69.22232142857143,535.1285714285714,3711.4,69.22232142857143,535.1285714285714,3841,69.22232142857143,535.1285714285714,3971.2,69.22232142857143,535.1285714285714,4110.2,69.22232142857143,535.1285714285714,4243.3,69.22232142857143,535.1285714285714,4400.5,69.22232142857143,535.1285714285714,4546.9,69.22232142857143,535.1285714285714,4684.8,69.22232142857143,535.1285714285714,4823.9,69.22232142857143,535.1285714285714,4957.5]","[4855.9,4855.9,1000,0,3855.9,""oops"",""down"",""right"",""bad_move"",7974.6,3098.9,1334.2,4875.8,1764.7,""smooth"",""down"",""down"",""good_move"",13849.7,5872.7,2101.9,7977,3770.8,""oops"",""left"",""right"",""bad_move"",18283.1,4429.8,2869.2,13853.3,1560.6,""smooth"",""down"",""down"",""good_move"",22187.4,3901.2,2475.8,18286.2,1425.4,""smooth"",""left"",""left"",""good_move"",45817.9,23628.4,2663.5,22189.5,20964.9,""oops"",""left"",""up"",""bad_move"",84955.1,39131.7,2464.6,81606.4,884.2,""smooth"",""left"",""left"",""good_move"",110000.1,25043.4,2778.5,84956.7,22264.9,""oops"",""left"",""right"",""bad_move"",117289.3,7287.4,2567.9,113942,779.4,""oops"",""left"",""down"",""good_move"",120641.7,3350.1,2288.3,117291.6,1061.8,""oops"",""left"",""down"",""good_move"",127488,6844,2408.7,124374.6,704.7,""oops"",""left"",""down"",""good_move"",134469.7,6978.3,2508.6,131154.9,806.2,""smooth"",""left"",""left"",""good_move"",160427.1,25955.3,2397.4,134471.8,23557.9,""oops"",""left"",""right"",""bad_move"",168797.9,8369.1,2356.1,164238.3,2203.5,""oops"",""left"",""left"",""good_move"",198531.8,29732.5,2873.8,194931.6,726.5,""smooth"",""left"",""left"",""good_move"",228745.7,30212.3,2464.2,225508.4,773.2,""smooth"",""left"",""left"",""good_move""]","","",""
"4578","","<div style=""width:500px;"">
  <p>What determined the result of this run?</p>
  </div>","67","html-slider-response","70","1908860","0.0-10.0-1.6","155","1","2025-07-02 10:21:59","80fe4187154257d5fb01684ea91b68b9","196.22.249.82","Mozilla/5.0 (Windows NT 10.0; Win64; x64) AppleWebKit/537.36 (KHTML, like Gecko) Chrome/138.0.0.0 Safari/537.36 Edg/138.0.0.0","WebKit","Edge","138.0.0.0","Windows","10.0","https://app.prolific.com/","en-US,en;q=0.9,en-ZA;q=0.8","6106be7d513dcab805d524b8","683db6dfa200031b80f2a654","6865075cda245bc4c16fb62b","6106be7d513dcab805d524b8","2025-07-02T10:53:50.699Z","","","","","","AttribQ","","","","","","","","","","","","","","","","","","","","","","","","","","","","","","","","","","","","","","50",""
"7506","","<div style=""width:500px;"">
  <p>How much control did you have over the ball?</p>
  </div>","41","html-slider-response","71","1916390","0.0-10.0-2.6","155","1","2025-07-02 10:21:59","80fe4187154257d5fb01684ea91b68b9","196.22.249.82","Mozilla/5.0 (Windows NT 10.0; Win64; x64) AppleWebKit/537.36 (KHTML, like Gecko) Chrome/138.0.0.0 Safari/537.36 Edg/138.0.0.0","WebKit","Edge","138.0.0.0","Windows","10.0","https://app.prolific.com/","en-US,en;q=0.9,en-ZA;q=0.8","6106be7d513dcab805d524b8","683db6dfa200031b80f2a654","6865075cda245bc4c16fb62b","6106be7d513dcab805d524b8","2025-07-02T10:53:58.229Z","","","","","","ControlQ","","","","","","","","","","","","","","","","","","","","","","","","","","","","","","","","","","","","","","50",""
"8236","","<div style=""width:500px;"">
  <p>How would you describe your current emotional state?</p>
  </div>","31","html-slider-response","72","1924647","0.0-10.0-3.6","155","1","2025-07-02 10:21:59","80fe4187154257d5fb01684ea91b68b9","196.22.249.82","Mozilla/5.0 (Windows NT 10.0; Win64; x64) AppleWebKit/537.36 (KHTML, like Gecko) Chrome/138.0.0.0 Safari/537.36 Edg/138.0.0.0","WebKit","Edge","138.0.0.0","Windows","10.0","https://app.prolific.com/","en-US,en;q=0.9,en-ZA;q=0.8","6106be7d513dcab805d524b8","683db6dfa200031b80f2a654","6865075cda245bc4c16fb62b","6106be7d513dcab805d524b8","2025-07-02T10:54:06.486Z","","","","","","StressQ","","","","","","","","","","","","","","","","","","","","","","","","","","","","","","","","","","","","","","50",""
"13440","","<div style=""width:500px;"">
  <p>What best describes how you currently feel?</p>
  </div>","52","html-slider-response","73","1938110","0.0-10.0-4.6","155","1","2025-07-02 10:21:59","80fe4187154257d5fb01684ea91b68b9","196.22.249.82","Mozilla/5.0 (Windows NT 10.0; Win64; x64) AppleWebKit/537.36 (KHTML, like Gecko) Chrome/138.0.0.0 Safari/537.36 Edg/138.0.0.0","WebKit","Edge","138.0.0.0","Windows","10.0","https://app.prolific.com/","en-US,en;q=0.9,en-ZA;q=0.8","6106be7d513dcab805d524b8","683db6dfa200031b80f2a654","6865075cda245bc4c16fb62b","6106be7d513dcab805d524b8","2025-07-02T10:54:19.949Z","","","","","","MotivationQ","","","","","","","","","","","","","","","","","","","","","","","","","","","","","","","","","","","","","","50",""
"","","","","ctl-task-cpt","74","2202977","0.0-10.0-0.7","155","1","2025-07-02 10:21:59","80fe4187154257d5fb01684ea91b68b9","196.22.249.82","Mozilla/5.0 (Windows NT 10.0; Win64; x64) AppleWebKit/537.36 (KHTML, like Gecko) Chrome/138.0.0.0 Safari/537.36 Edg/138.0.0.0","WebKit","Edge","138.0.0.0","Windows","10.0","https://app.prolific.com/","en-US,en;q=0.9,en-ZA;q=0.8","6106be7d513dcab805d524b8","683db6dfa200031b80f2a654","6865075cda245bc4c16fb62b","6106be7d513dcab805d524b8","2025-07-02T10:58:44.817Z","","","","","","","","","","","","","","","","win-only","1","g1:NE,g2:SW","0.3","8","0","1945083.6","2621.4","7666.1","261801.1","1","4","4","6","2","4","3","44","41","0.3333333333333333","2112.2","3000","2375","[""down"",""left""]","{""num_key_presses"":15,""num_perfect"":6,""num_errors"":1,""num_randdir"":8,""num_randdir_good_moves"":4,""num_whilered"":0,""num_whileblue"":0,""num_blue"":7,""num_good_moves"":10}","[292.22232142857143,291.12857142857143,2.3,292.22232142857143,291.12857142857143,234.4,292.22232142857143,291.12857142857143,447.5,292.22232142857143,291.12857142857143,645.7,292.22232142857143,291.12857142857143,830.5,174.22232142857143,444.12857142857143,1109.6,97.22232142857143,521.1285714285714,1318.7,97.22232142857143,521.1285714285714,1522.6,71.22232142857143,538.1285714285714,1773.8,61.222321428571426,543.1285714285714,1984.2,61.222321428571426,543.1285714285714,2202.2,61.222321428571426,543.1285714285714,2418.4,61.222321428571426,543.1285714285714,2620.4,61.222321428571426,543.1285714285714,2805.3,61.222321428571426,543.1285714285714,2993.1,61.222321428571426,543.1285714285714,3178.8,61.222321428571426,543.1285714285714,3369.7,61.222321428571426,543.1285714285714,3558.5,61.222321428571426,543.1285714285714,3746,61.222321428571426,543.1285714285714,3926.1,61.222321428571426,543.1285714285714,4112.6,61.222321428571426,543.1285714285714,4299.8,61.222321428571426,543.1285714285714,4484.1,61.222321428571426,543.1285714285714,4674.6,61.222321428571426,543.1285714285714,4857.8]","[2335.4,2335.4,1000,0,1335.4,""smooth"",""down"",""down"",""good_move"",4085.3,1746.1,2876.8,2339.2,-1130.7,""error"",""-"",""-"",""no_move"",8867,4778.8,2478.8,5240.2,1148.1,""smooth"",""left"",""left"",""good_move"",40102,31233.7,2198.5,8868.5,29035,""oops"",""left"",""up"",""bad_move"",71195.3,31091.1,2645.5,40104.2,28445.6,""oops"",""left"",""right"",""bad_move"",74046.5,2849.6,1740.4,71196.9,1109.2,""oops"",""left"",""left"",""good_move"",109626.3,35578,2230.2,106526.5,869.7,""oops"",""up"",""left"",""good_move"",145591.2,35963.5,2192.9,142474.7,923.6,""oops"",""down"",""up"",""bad_move"",179349.5,33756.3,2542.3,145593.2,31214.1,""oops"",""down"",""right"",""bad_move"",185075.3,5723.8,2463.1,179351.5,3260.7,""oops"",""down"",""left"",""good_move"",229834.4,44726.8,2829.1,226209.8,795.5,""smooth"",""down"",""down"",""good_move"",237258.8,7422.7,2590,233711.1,957.7,""smooth"",""down"",""down"",""good_move"",240071.5,2811.3,1762.5,237260.2,1048.8,""smooth"",""down"",""down"",""good_move"",242867.8,2794.9,2367.1,240073,427.7,""oops"",""down"",""down"",""good_move"",253893.8,11020.2,3198,250155.8,540.1,""smooth"",""down"",""down"",""good_move""]","","",""
"5858","","<div style=""width:500px;"">
  <p>What determined the result of this run?</p>
  </div>","38","html-slider-response","75","2208839","0.0-10.0-1.7","155","1","2025-07-02 10:21:59","80fe4187154257d5fb01684ea91b68b9","196.22.249.82","Mozilla/5.0 (Windows NT 10.0; Win64; x64) AppleWebKit/537.36 (KHTML, like Gecko) Chrome/138.0.0.0 Safari/537.36 Edg/138.0.0.0","WebKit","Edge","138.0.0.0","Windows","10.0","https://app.prolific.com/","en-US,en;q=0.9,en-ZA;q=0.8","6106be7d513dcab805d524b8","683db6dfa200031b80f2a654","6865075cda245bc4c16fb62b","6106be7d513dcab805d524b8","2025-07-02T10:58:50.678Z","","","","","","AttribQ","","","","","","","","","","","","","","","","","","","","","","","","","","","","","","","","","","","","","","50",""
"6729","","<div style=""width:500px;"">
  <p>How much control did you have over the ball?</p>
  </div>","31","html-slider-response","76","2215574","0.0-10.0-2.7","155","1","2025-07-02 10:21:59","80fe4187154257d5fb01684ea91b68b9","196.22.249.82","Mozilla/5.0 (Windows NT 10.0; Win64; x64) AppleWebKit/537.36 (KHTML, like Gecko) Chrome/138.0.0.0 Safari/537.36 Edg/138.0.0.0","WebKit","Edge","138.0.0.0","Windows","10.0","https://app.prolific.com/","en-US,en;q=0.9,en-ZA;q=0.8","6106be7d513dcab805d524b8","683db6dfa200031b80f2a654","6865075cda245bc4c16fb62b","6106be7d513dcab805d524b8","2025-07-02T10:58:57.413Z","","","","","","ControlQ","","","","","","","","","","","","","","","","","","","","","","","","","","","","","","","","","","","","","","50",""
"6874","","<div style=""width:500px;"">
  <p>How would you describe your current emotional state?</p>
  </div>","33","html-slider-response","77","2222456","0.0-10.0-3.7","155","1","2025-07-02 10:21:59","80fe4187154257d5fb01684ea91b68b9","196.22.249.82","Mozilla/5.0 (Windows NT 10.0; Win64; x64) AppleWebKit/537.36 (KHTML, like Gecko) Chrome/138.0.0.0 Safari/537.36 Edg/138.0.0.0","WebKit","Edge","138.0.0.0","Windows","10.0","https://app.prolific.com/","en-US,en;q=0.9,en-ZA;q=0.8","6106be7d513dcab805d524b8","683db6dfa200031b80f2a654","6865075cda245bc4c16fb62b","6106be7d513dcab805d524b8","2025-07-02T10:59:04.295Z","","","","","","StressQ","","","","","","","","","","","","","","","","","","","","","","","","","","","","","","","","","","","","","","50",""
"6966","","<div style=""width:500px;"">
  <p>What best describes how you currently feel?</p>
  </div>","62","html-slider-response","78","2229429","0.0-10.0-4.7","155","1","2025-07-02 10:21:59","80fe4187154257d5fb01684ea91b68b9","196.22.249.82","Mozilla/5.0 (Windows NT 10.0; Win64; x64) AppleWebKit/537.36 (KHTML, like Gecko) Chrome/138.0.0.0 Safari/537.36 Edg/138.0.0.0","WebKit","Edge","138.0.0.0","Windows","10.0","https://app.prolific.com/","en-US,en;q=0.9,en-ZA;q=0.8","6106be7d513dcab805d524b8","683db6dfa200031b80f2a654","6865075cda245bc4c16fb62b","6106be7d513dcab805d524b8","2025-07-02T10:59:11.269Z","","","","","","MotivationQ","","","","","","","","","","","","","","","","","","","","","","","","","","","","","","","","","","","","","","50",""
"","","","","ctl-task-cpt","79","2290953","0.0-10.0-0.8","155","1","2025-07-02 10:21:59","80fe4187154257d5fb01684ea91b68b9","196.22.249.82","Mozilla/5.0 (Windows NT 10.0; Win64; x64) AppleWebKit/537.36 (KHTML, like Gecko) Chrome/138.0.0.0 Safari/537.36 Edg/138.0.0.0","WebKit","Edge","138.0.0.0","Windows","10.0","https://app.prolific.com/","en-US,en;q=0.9,en-ZA;q=0.8","6106be7d513dcab805d524b8","683db6dfa200031b80f2a654","6865075cda245bc4c16fb62b","6106be7d513dcab805d524b8","2025-07-02T11:00:12.793Z","","","","","","","","","","","","","","","","win-only","0","g1:NW,g2:SE","0.4","9","0","2236389.9","2659.4","7697.4","58480.5","1","4","8","6","2","8","8","52","44","0.3939393939393939","1894.5","3000","1860","[""down"",""right""]","{""num_key_presses"":12,""num_perfect"":6,""num_errors"":0,""num_randdir"":6,""num_randdir_good_moves"":3,""num_whilered"":0,""num_whileblue"":0,""num_blue"":0,""num_good_moves"":9}","[294.22232142857143,297.12857142857143,1.7,294.22232142857143,297.12857142857143,134.8,294.22232142857143,297.12857142857143,286.6,294.22232142857143,297.12857142857143,442,294.22232142857143,297.12857142857143,579.1,294.22232142857143,297.12857142857143,713.2,379.22232142857143,368.12857142857143,902.2,480.22232142857143,437.12857142857143,1007.2,489.22232142857143,442.12857142857143,1154.3,489.22232142857143,442.12857142857143,1286.5,491.22232142857143,443.12857142857143,1386.9,562.2223214285714,512.1285714285714,1556.3,562.2223214285714,512.1285714285714,1696.6,562.2223214285714,512.1285714285714,1851.3,562.2223214285714,512.1285714285714,1954.6,562.2223214285714,512.1285714285714,2107.7,562.2223214285714,512.1285714285714,2259,588.2223214285714,478.12857142857143,2445.3,776.2223214285714,341.12857142857143,2623.4,777.2223214285714,341.12857142857143,2769.2,777.2223214285714,341.12857142857143,2906.9,777.2223214285714,341.12857142857143,3051.8,777.2223214285714,341.12857142857143,3204.7,777.2223214285714,341.12857142857143,3334.3,777.2223214285714,341.12857142857143,3470.1,777.2223214285714,341.12857142857143,3599.3,777.2223214285714,341.12857142857143,3724.9,777.2223214285714,341.12857142857143,3853.2,777.2223214285714,341.12857142857143,3983.2,777.2223214285714,341.12857142857143,4109.1,777.2223214285714,341.12857142857143,4252.7,777.2223214285714,341.12857142857143,4376.8,777.2223214285714,341.12857142857143,4514.2,777.2223214285714,341.12857142857143,4641.5,777.2223214285714,341.12857142857143,4762.2,777.2223214285714,341.12857142857143,4893.5]","[3004.6,3004.6,1000,0,2004.6,""smooth"",""down"",""down"",""good_move"",6497.6,3477.7,2983.4,3019.9,494.3,""oops"",""right"",""left"",""bad_move"",12129.2,5629.9,2962.9,6499.5,2666.8,""smooth"",""down"",""down"",""good_move"",15053.7,2922.7,2368.2,12131.2,554.4,""oops"",""right"",""right"",""good_move"",18148.4,3088.5,2582.5,15060,505.9,""oops"",""right"",""right"",""good_move"",20969.3,2819.2,2220.4,18150.2,598.7,""smooth"",""right"",""right"",""good_move"",23824.2,2852.7,2319.4,20971.5,533.3,""oops"",""right"",""left"",""bad_move"",32366.6,8540.6,2579,23826.1,5961.5,""oops"",""right"",""down"",""good_move"",35370.1,3002.3,2398,32367.9,604.3,""smooth"",""right"",""right"",""good_move"",38177.6,2805.4,2233,35372.3,572.3,""oops"",""right"",""left"",""bad_move"",46271.8,8089.8,2318,38182,5771.8,""smooth"",""right"",""right"",""good_move"",49640.5,3367.2,2836.9,46273.4,530.2,""smooth"",""right"",""right"",""good_move""]","","",""
"7248","","<div style=""width:500px;"">
  <p>What determined the result of this run?</p>
  </div>","18","html-slider-response","80","2298207","0.0-10.0-1.8","155","1","2025-07-02 10:21:59","80fe4187154257d5fb01684ea91b68b9","196.22.249.82","Mozilla/5.0 (Windows NT 10.0; Win64; x64) AppleWebKit/537.36 (KHTML, like Gecko) Chrome/138.0.0.0 Safari/537.36 Edg/138.0.0.0","WebKit","Edge","138.0.0.0","Windows","10.0","https://app.prolific.com/","en-US,en;q=0.9,en-ZA;q=0.8","6106be7d513dcab805d524b8","683db6dfa200031b80f2a654","6865075cda245bc4c16fb62b","6106be7d513dcab805d524b8","2025-07-02T11:00:20.046Z","","","","","","AttribQ","","","","","","","","","","","","","","","","","","","","","","","","","","","","","","","","","","","","","","50",""
"5564","","<div style=""width:500px;"">
  <p>How much control did you have over the ball?</p>
  </div>","17","html-slider-response","81","2303775","0.0-10.0-2.8","155","1","2025-07-02 10:21:59","80fe4187154257d5fb01684ea91b68b9","196.22.249.82","Mozilla/5.0 (Windows NT 10.0; Win64; x64) AppleWebKit/537.36 (KHTML, like Gecko) Chrome/138.0.0.0 Safari/537.36 Edg/138.0.0.0","WebKit","Edge","138.0.0.0","Windows","10.0","https://app.prolific.com/","en-US,en;q=0.9,en-ZA;q=0.8","6106be7d513dcab805d524b8","683db6dfa200031b80f2a654","6865075cda245bc4c16fb62b","6106be7d513dcab805d524b8","2025-07-02T11:00:25.614Z","","","","","","ControlQ","","","","","","","","","","","","","","","","","","","","","","","","","","","","","","","","","","","","","","50",""
"4951","","<div style=""width:500px;"">
  <p>How would you describe your current emotional state?</p>
  </div>","28","html-slider-response","82","2308733","0.0-10.0-3.8","155","1","2025-07-02 10:21:59","80fe4187154257d5fb01684ea91b68b9","196.22.249.82","Mozilla/5.0 (Windows NT 10.0; Win64; x64) AppleWebKit/537.36 (KHTML, like Gecko) Chrome/138.0.0.0 Safari/537.36 Edg/138.0.0.0","WebKit","Edge","138.0.0.0","Windows","10.0","https://app.prolific.com/","en-US,en;q=0.9,en-ZA;q=0.8","6106be7d513dcab805d524b8","683db6dfa200031b80f2a654","6865075cda245bc4c16fb62b","6106be7d513dcab805d524b8","2025-07-02T11:00:30.572Z","","","","","","StressQ","","","","","","","","","","","","","","","","","","","","","","","","","","","","","","","","","","","","","","50",""
"7003","","<div style=""width:500px;"">
  <p>What best describes how you currently feel?</p>
  </div>","63","html-slider-response","83","2315744","0.0-10.0-4.8","155","1","2025-07-02 10:21:59","80fe4187154257d5fb01684ea91b68b9","196.22.249.82","Mozilla/5.0 (Windows NT 10.0; Win64; x64) AppleWebKit/537.36 (KHTML, like Gecko) Chrome/138.0.0.0 Safari/537.36 Edg/138.0.0.0","WebKit","Edge","138.0.0.0","Windows","10.0","https://app.prolific.com/","en-US,en;q=0.9,en-ZA;q=0.8","6106be7d513dcab805d524b8","683db6dfa200031b80f2a654","6865075cda245bc4c16fb62b","6106be7d513dcab805d524b8","2025-07-02T11:00:37.583Z","","","","","","MotivationQ","","","","","","","","","","","","","","","","","","","","","","","","","","","","","","","","","","","","","","50",""
