"rt","response_timestamp","stimulus","response","trial_type","trial_index","time_elapsed","internal_node_id","run_id","condition","recorded_at","source_code_version","ip","user_agent","device","browser","browser_version","platform","platform_version","referer","accept_language","PROLIFIC_PID","STUDY_ID","SESSION_ID","prolific_id","realtime","view_history","question_order","consent","success","question_id","eventType","responses","item_order","radio_event_ids","radio_event_times","key_event_times","mouse_event_times","straightlining","zigzagging","honeypot","which_type","canvas_config","goals_layout","control_level","trial_number","tutorial_trial_number","trial_start_time","phase1_start_time","phase2_start_time","phase3_start_time","goal_1_value","goal_1_distance","goal_2_value","goal_2_distance","goal_selected","outcome","outcome_total","participant_final_score","participant_initial_score","participant_final_score_prop","goal_choice_rt","allocated_time","allocated_time_remaining","goal_direction","counts","mouse_movements","key_presses","correct","slider_start"
"48897","1751451553280","<p style='font-size:40px;line-height:1.25'><strong>Welcome to the experiment!</strong></p><p style='font-size:1.1em;line-height:1.25'>Thank you for your interest in our experiment! Before you begin, it is important that we obtain your informed consent to participate in the study.</p><p style='font-size:1.1em;line-height:1.25'>On the next screen will be an <strong>information sheet</strong> for you to read. To participate in the study we need you to read this information sheet and the following consent form carefully. If you agree with all the statements, please click the <strong>I agree</strong> button.</p><p style='font-size:1.1em;line-height:1.25'>Press <strong>Next</strong> to read the information sheet.</p>","0","custom-html-button-response","0","48900","0.0-0.0","13","1","2025-07-02 10:18:22","80fe4187154257d5fb01684ea91b68b9","102.182.46.148","Mozilla/5.0 (Macintosh; Intel Mac OS X 10_15_7) AppleWebKit/537.36 (KHTML, like Gecko) Chrome/137.0.0.0 Safari/537.36","Macintosh","Chrome","137.0.0.0","OS X","10_15_7","https://app.prolific.com/","en-GB,en-US;q=0.9,en;q=0.8","61099a311cb3f711346d1b05","683db6dfa200031b80f2a654","68650754321820bf5ccaf70b","61099a311cb3f711346d1b05","2025-07-02T10:19:13.281Z","","","","","","","","","","","","","","","","","","","","","","","","","","","","","","","","","","","","","","","","","","","",""
"18589","","","","instructions","1","67492","0.0-1.0","13","1","2025-07-02 10:18:22","80fe4187154257d5fb01684ea91b68b9","102.182.46.148","Mozilla/5.0 (Macintosh; Intel Mac OS X 10_15_7) AppleWebKit/537.36 (KHTML, like Gecko) Chrome/137.0.0.0 Safari/537.36","Macintosh","Chrome","137.0.0.0","OS X","10_15_7","https://app.prolific.com/","en-GB,en-US;q=0.9,en;q=0.8","61099a311cb3f711346d1b05","683db6dfa200031b80f2a654","68650754321820bf5ccaf70b","61099a311cb3f711346d1b05","","[{""page_index"":0,""viewing_time"":15853},{""page_index"":1,""viewing_time"":2736}]","","","","","","","","","","","","","","","","","","","","","","","","","","","","","","","","","","","","","","","","","","",""
"3532","","","{""Q0"":"""",""Q1"":"""",""Q2"":"""",""Q3"":"""",""Q4"":"""",""Q5"":"""",""Q6"":""I agree""}","survey-multi-choice","2","71026","0.0-2.0","13","1","2025-07-02 10:18:22","80fe4187154257d5fb01684ea91b68b9","102.182.46.148","Mozilla/5.0 (Macintosh; Intel Mac OS X 10_15_7) AppleWebKit/537.36 (KHTML, like Gecko) Chrome/137.0.0.0 Safari/537.36","Macintosh","Chrome","137.0.0.0","OS X","10_15_7","https://app.prolific.com/","en-GB,en-US;q=0.9,en;q=0.8","61099a311cb3f711346d1b05","683db6dfa200031b80f2a654","68650754321820bf5ccaf70b","61099a311cb3f711346d1b05","","","[0,1,2,3,4,5,6]","true","","","","","","","","","","","","","","","","","","","","","","","","","","","","","","","","","","","","","","","","",""
"5180","","","","fullscreen","3","77212","0.0-4.0","13","1","2025-07-02 10:18:22","80fe4187154257d5fb01684ea91b68b9","102.182.46.148","Mozilla/5.0 (Macintosh; Intel Mac OS X 10_15_7) AppleWebKit/537.36 (KHTML, like Gecko) Chrome/137.0.0.0 Safari/537.36","Macintosh","Chrome","137.0.0.0","OS X","10_15_7","https://app.prolific.com/","en-GB,en-US;q=0.9,en;q=0.8","61099a311cb3f711346d1b05","683db6dfa200031b80f2a654","68650754321820bf5ccaf70b","61099a311cb3f711346d1b05","","","","","true","","","","","","","","","","","","","","","","","","","","","","","","","","","","","","","","","","","","","","","",""
"29910","1751451611504"," <p style='font-size:1.1em;line-height:1.25'>Thank you for completing the consent form and closing all other tabs.</p><p style='font-size:1.1em;line-height:1.25'>We will now invite you to fill in some demographic information and questionnaires, before starting the game.<br>This will take about 5 minutes.<br></p><p style='font-size:1.1em;line-height:1.25'>Press the <strong>Next</strong> button to continue.</p>","0","custom-html-button-response","4","107124","0.0-5.0","13","1","2025-07-02 10:18:22","80fe4187154257d5fb01684ea91b68b9","102.182.46.148","Mozilla/5.0 (Macintosh; Intel Mac OS X 10_15_7) AppleWebKit/537.36 (KHTML, like Gecko) Chrome/137.0.0.0 Safari/537.36","Macintosh","Chrome","137.0.0.0","OS X","10_15_7","https://app.prolific.com/","en-GB,en-US;q=0.9,en;q=0.8","61099a311cb3f711346d1b05","683db6dfa200031b80f2a654","68650754321820bf5ccaf70b","61099a311cb3f711346d1b05","2025-07-02T10:20:11.505Z","","","","","","","","","","","","","","","","","","","","","","","","","","","","","","","","","","","","","","","","","","","",""
"2581","","","{""age"":""29""}","survey-text","5","109708","0.0-6.0-0.0","13","1","2025-07-02 10:18:22","80fe4187154257d5fb01684ea91b68b9","102.182.46.148","Mozilla/5.0 (Macintosh; Intel Mac OS X 10_15_7) AppleWebKit/537.36 (KHTML, like Gecko) Chrome/137.0.0.0 Safari/537.36","Macintosh","Chrome","137.0.0.0","OS X","10_15_7","https://app.prolific.com/","en-GB,en-US;q=0.9,en;q=0.8","61099a311cb3f711346d1b05","683db6dfa200031b80f2a654","68650754321820bf5ccaf70b","61099a311cb3f711346d1b05","","","","","","0","demographics","","","","","","","","","","","","","","","","","","","","","","","","","","","","","","","","","","","","","",""
"4183","","","{""gender_identity"":""female/woman""}","survey-multi-choice","6","113892","0.0-6.0-1.0","13","1","2025-07-02 10:18:22","80fe4187154257d5fb01684ea91b68b9","102.182.46.148","Mozilla/5.0 (Macintosh; Intel Mac OS X 10_15_7) AppleWebKit/537.36 (KHTML, like Gecko) Chrome/137.0.0.0 Safari/537.36","Macintosh","Chrome","137.0.0.0","OS X","10_15_7","https://app.prolific.com/","en-GB,en-US;q=0.9,en;q=0.8","61099a311cb3f711346d1b05","683db6dfa200031b80f2a654","68650754321820bf5ccaf70b","61099a311cb3f711346d1b05","","","[0]","","","1","demographics","","","","","","","","","","","","","","","","","","","","","","","","","","","","","","","","","","","","","",""
"5331","","","{""assigned_sex"":""female""}","survey-multi-choice","7","119224","0.0-6.0-2.0","13","1","2025-07-02 10:18:22","80fe4187154257d5fb01684ea91b68b9","102.182.46.148","Mozilla/5.0 (Macintosh; Intel Mac OS X 10_15_7) AppleWebKit/537.36 (KHTML, like Gecko) Chrome/137.0.0.0 Safari/537.36","Macintosh","Chrome","137.0.0.0","OS X","10_15_7","https://app.prolific.com/","en-GB,en-US;q=0.9,en;q=0.8","61099a311cb3f711346d1b05","683db6dfa200031b80f2a654","68650754321820bf5ccaf70b","61099a311cb3f711346d1b05","","","[0]","","","2","demographics","","","","","","","","","","","","","","","","","","","","","","","","","","","","","","","","","","","","","",""
"3100","","","{""menstrual_cycle"":""Yes""}","survey-multi-choice","8","122325","0.0-6.0-3.0","13","1","2025-07-02 10:18:22","80fe4187154257d5fb01684ea91b68b9","102.182.46.148","Mozilla/5.0 (Macintosh; Intel Mac OS X 10_15_7) AppleWebKit/537.36 (KHTML, like Gecko) Chrome/137.0.0.0 Safari/537.36","Macintosh","Chrome","137.0.0.0","OS X","10_15_7","https://app.prolific.com/","en-GB,en-US;q=0.9,en;q=0.8","61099a311cb3f711346d1b05","683db6dfa200031b80f2a654","68650754321820bf5ccaf70b","61099a311cb3f711346d1b05","","","[0]","","","4","demographics","","","","","","","","","","","","","","","","","","","","","","","","","","","","","","","","","","","","","",""
"16800","","","{""education"":""Vocational Qualifications (e.g. City & Guilds)""}","survey-multi-choice","9","139127","0.0-6.0-4.0","13","1","2025-07-02 10:18:22","80fe4187154257d5fb01684ea91b68b9","102.182.46.148","Mozilla/5.0 (Macintosh; Intel Mac OS X 10_15_7) AppleWebKit/537.36 (KHTML, like Gecko) Chrome/137.0.0.0 Safari/537.36","Macintosh","Chrome","137.0.0.0","OS X","10_15_7","https://app.prolific.com/","en-GB,en-US;q=0.9,en;q=0.8","61099a311cb3f711346d1b05","683db6dfa200031b80f2a654","68650754321820bf5ccaf70b","61099a311cb3f711346d1b05","","","[0]","","","5","demographics","","","","","","","","","","","","","","","","","","","","","","","","","","","","","","","","","","","","","",""
"6531","","","{""education"":""Bachelor's Degree (e.g., BA)""}","survey-multi-choice","10","145659","0.0-6.0-5.0","13","1","2025-07-02 10:18:22","80fe4187154257d5fb01684ea91b68b9","102.182.46.148","Mozilla/5.0 (Macintosh; Intel Mac OS X 10_15_7) AppleWebKit/537.36 (KHTML, like Gecko) Chrome/137.0.0.0 Safari/537.36","Macintosh","Chrome","137.0.0.0","OS X","10_15_7","https://app.prolific.com/","en-GB,en-US;q=0.9,en;q=0.8","61099a311cb3f711346d1b05","683db6dfa200031b80f2a654","68650754321820bf5ccaf70b","61099a311cb3f711346d1b05","2025-07-02T10:20:50.040Z","","[0]","","","6","demographics","","","","","","","","","","","","","","","","","","","","","","","","","","","","","","","","","","","","","",""
"55733","","","{""mental_health_condition"":""None "",""mental_health_treatment"":""None "",""psychiatric_medication"":""None""}","survey-text","11","201396","0.0-7.0-0.0","13","1","2025-07-02 10:18:22","80fe4187154257d5fb01684ea91b68b9","102.182.46.148","Mozilla/5.0 (Macintosh; Intel Mac OS X 10_15_7) AppleWebKit/537.36 (KHTML, like Gecko) Chrome/137.0.0.0 Safari/537.36","Macintosh","Chrome","137.0.0.0","OS X","10_15_7","https://app.prolific.com/","en-GB,en-US;q=0.9,en;q=0.8","61099a311cb3f711346d1b05","683db6dfa200031b80f2a654","68650754321820bf5ccaf70b","61099a311cb3f711346d1b05","2025-07-02T10:21:45.777Z","","","","","1","mental_health","","","","","","","","","","","","","","","","","","","","","","","","","","","","","","","","","","","","","",""
"31731","","","{""depression_history"":[""Yes""]}","survey-multi-select","12","233130","0.0-7.0-1.0","13","1","2025-07-02 10:18:22","80fe4187154257d5fb01684ea91b68b9","102.182.46.148","Mozilla/5.0 (Macintosh; Intel Mac OS X 10_15_7) AppleWebKit/537.36 (KHTML, like Gecko) Chrome/137.0.0.0 Safari/537.36","Macintosh","Chrome","137.0.0.0","OS X","10_15_7","https://app.prolific.com/","en-GB,en-US;q=0.9,en;q=0.8","61099a311cb3f711346d1b05","683db6dfa200031b80f2a654","68650754321820bf5ccaf70b","61099a311cb3f711346d1b05","","","[0]","","","","mental_health","","","","","","","","","","","","","","","","","","","","","","","","","","","","","","","","","","","","","",""
"9965","","","{""depression_episodes"":""1-2"",""depression_recent"":""More than 1 year ago""}","survey-multi-choice","13","243097","0.0-7.0-2.0-0.0","13","1","2025-07-02 10:18:22","80fe4187154257d5fb01684ea91b68b9","102.182.46.148","Mozilla/5.0 (Macintosh; Intel Mac OS X 10_15_7) AppleWebKit/537.36 (KHTML, like Gecko) Chrome/137.0.0.0 Safari/537.36","Macintosh","Chrome","137.0.0.0","OS X","10_15_7","https://app.prolific.com/","en-GB,en-US;q=0.9,en;q=0.8","61099a311cb3f711346d1b05","683db6dfa200031b80f2a654","68650754321820bf5ccaf70b","61099a311cb3f711346d1b05","2025-07-02T10:22:27.478Z","","[0,1]","","","3","mental_health","","","","","","","","","","","","","","","","","","","","","","","","","","","","","","","","","","","","","",""
"138565.79999995232","","","","survey-template","14","381671","0.0-7.0-3.0","13","1","2025-07-02 10:18:22","80fe4187154257d5fb01684ea91b68b9","102.182.46.148","Mozilla/5.0 (Macintosh; Intel Mac OS X 10_15_7) AppleWebKit/537.36 (KHTML, like Gecko) Chrome/137.0.0.0 Safari/537.36","Macintosh","Chrome","137.0.0.0","OS X","10_15_7","https://app.prolific.com/","en-GB,en-US;q=0.9,en;q=0.8","61099a311cb3f711346d1b05","683db6dfa200031b80f2a654","68650754321820bf5ccaf70b","61099a311cb3f711346d1b05","2025-07-02T10:24:46.052Z","","","","","","ius","{""Q01"":""0"",""Q02"":""3"",""Q03"":""0"",""Q04"":""1"",""Q05"":""1"",""Q06"":""1"",""Q07"":""2"",""Q08"":""0"",""Q09"":""2"",""Q10"":""3"",""Q11"":""1"",""Q12"":""3"",""Q13"":""2""}","[0,1,2,3,4,5,6,7,8,9,10,11,12]","[""Q01"",""Q01"",""Q02"",""Q03"",""Q03"",""Q04"",""Q05"",""Q06"",""Q07"",""Q08"",""Q09"",""Q10"",""Q11"",""Q12"",""Q13""]","[26429.200000047684,30162.700000047684,38414.799999952316,60879.59999990463,63579.5,69413.70000004768,99063.90000009537,104763.09999990463,107896.5,113913.79999995232,118580.79999995232,122566.40000009537,128563.5,132014.90000009537,137413.79999995232]","[]","[26429.200000047684,30162.700000047684,38414.799999952316,60879.59999990463,63579.5,68563,69413.70000004768,99063.90000009537,104763.09999990463,107896.5,111964,112930.40000009537,113913.79999995232,118580.79999995232,122566.40000009537,128563.5,132014.90000009537,135717.20000004768,136563.40000009537,137413.79999995232,138564.5]","0.3076923076923077","0.3333333333333333","0","","","","","","","","","","","","","","","","","","","","","","","","","","","","",""
"31865","1751451918021","<p style='font-size:1.1em;line-height:1.25'>In the following, we will ask you a few questions relating to your experiences over the past month.<br></p><p style='font-size:1.1em;line-height:1.25'>Press the <strong>Next</strong> button to continue.</p>","0","custom-html-button-response","15","413641","0.0-7.0-4.0","13","1","2025-07-02 10:18:22","80fe4187154257d5fb01684ea91b68b9","102.182.46.148","Mozilla/5.0 (Macintosh; Intel Mac OS X 10_15_7) AppleWebKit/537.36 (KHTML, like Gecko) Chrome/137.0.0.0 Safari/537.36","Macintosh","Chrome","137.0.0.0","OS X","10_15_7","https://app.prolific.com/","en-GB,en-US;q=0.9,en;q=0.8","61099a311cb3f711346d1b05","683db6dfa200031b80f2a654","68650754321820bf5ccaf70b","61099a311cb3f711346d1b05","2025-07-02T10:25:18.023Z","","","","","","","","","","","","","","","","","","","","","","","","","","","","","","","","","","","","","","","","","","","",""
"49597.39999985695","","","","survey-template","16","463244","0.0-7.0-5.0","13","1","2025-07-02 10:18:22","80fe4187154257d5fb01684ea91b68b9","102.182.46.148","Mozilla/5.0 (Macintosh; Intel Mac OS X 10_15_7) AppleWebKit/537.36 (KHTML, like Gecko) Chrome/137.0.0.0 Safari/537.36","Macintosh","Chrome","137.0.0.0","OS X","10_15_7","https://app.prolific.com/","en-GB,en-US;q=0.9,en;q=0.8","61099a311cb3f711346d1b05","683db6dfa200031b80f2a654","68650754321820bf5ccaf70b","61099a311cb3f711346d1b05","2025-07-02T10:26:07.625Z","","","","","","pss","{""Q01"":""2"",""Q02"":""1"",""Q03"":""1"",""Q04"":""0"",""Q05"":""1"",""Q06"":""2"",""Q07"":""1"",""Q08"":""1"",""Q09"":""2"",""Q10"":""1""}","[0,1,2,3,4,5,6,7,8,9]","[""Q01"",""Q02"",""Q03"",""Q04"",""Q05"",""Q05"",""Q06"",""Q07"",""Q08"",""Q08"",""Q09"",""Q10""]","[5694.200000047684,9912.899999856949,13394.399999856949,20115.39999985695,23580.39999985695,24578.799999952316,30111,34248.700000047684,38480.59999990463,39645.89999985695,44629.799999952316,48778.299999952316]","[]","[0,5694.200000047684,9329.899999856949,9912.899999856949,13394.399999856949,20115.39999985695,22930.599999904633,23580.39999985695,24578.799999952316,30111,34248.700000047684,38480.59999990463,39096,39645.89999985695,44629.799999952316,48778.299999952316,49595.59999990463]","0.3","0.6666666666666666","0","","","","","","","","","","","","","","","","","","","","","","","","","","","","",""
"1829","1751451969455","<p style='font-size:1.1em;line-height:1.25'>Thank you for your answers! Now we will ask you a few more questions relating to your feelings in the last 24 hours.<br></p><p style='font-size:1.1em;line-height:1.25'>Press the <strong>Next</strong> button to continue.</p>","0","custom-html-button-response","17","465075","0.0-7.0-6.0","13","1","2025-07-02 10:18:22","80fe4187154257d5fb01684ea91b68b9","102.182.46.148","Mozilla/5.0 (Macintosh; Intel Mac OS X 10_15_7) AppleWebKit/537.36 (KHTML, like Gecko) Chrome/137.0.0.0 Safari/537.36","Macintosh","Chrome","137.0.0.0","OS X","10_15_7","https://app.prolific.com/","en-GB,en-US;q=0.9,en;q=0.8","61099a311cb3f711346d1b05","683db6dfa200031b80f2a654","68650754321820bf5ccaf70b","61099a311cb3f711346d1b05","2025-07-02T10:26:09.456Z","","","","","","","","","","","","","","","","","","","","","","","","","","","","","","","","","","","","","","","","","","","",""
"113950.20000004768","","","","survey-template","18","579033","0.0-7.0-7.0","13","1","2025-07-02 10:18:22","80fe4187154257d5fb01684ea91b68b9","102.182.46.148","Mozilla/5.0 (Macintosh; Intel Mac OS X 10_15_7) AppleWebKit/537.36 (KHTML, like Gecko) Chrome/137.0.0.0 Safari/537.36","Macintosh","Chrome","137.0.0.0","OS X","10_15_7","https://app.prolific.com/","en-GB,en-US;q=0.9,en;q=0.8","61099a311cb3f711346d1b05","683db6dfa200031b80f2a654","68650754321820bf5ccaf70b","61099a311cb3f711346d1b05","2025-07-02T10:28:03.414Z","","","","","","drsp","{""Q01"":""1"",""Q02"":""0"",""Q03"":""0"",""Q04"":""1"",""Q05"":""2"",""Q06"":""3"",""Q07"":""2"",""Q08"":""3"",""Q09"":""0"",""Q10"":""1"",""Q11"":""3"",""Q12"":""0"",""Q13"":""1"",""Q14"":""1"",""Q15"":""0"",""Q16"":""1"",""Q17"":""0"",""Q18"":""2"",""Q19"":""0"",""Q20"":""0"",""Q21"":""1""}","[0,1,2,3,4,5,6,7,8,9,10,11,12,13,14,15,16,17,18,19,20]","[""Q01"",""Q02"",""Q03"",""Q04"",""Q05"",""Q06"",""Q07"",""Q08"",""Q09"",""Q10"",""Q11"",""Q12"",""Q13"",""Q14"",""Q15"",""Q16"",""Q17"",""Q18"",""Q19"",""Q19"",""Q20"",""Q21""]","[55382.90000009537,57700.60000014305,58579.5,60313.200000047684,61680,63581.200000047684,66380.20000004768,69631.20000004768,72380.70000004768,74164.5,76946.79999995232,79214.10000014305,80813.79999995232,83700.29999995232,87347.40000009537,89632.10000014305,92001,97247.5,104381,106365.5,108797.70000004768,112981.10000014305]","[]","[0.10000014305114746,55382.90000009537,56213.90000009537,56915.40000009537,57700.60000014305,58579.5,60313.200000047684,61680,63581.200000047684,66380.20000004768,69631.20000004768,72380.70000004768,74164.5,76946.79999995232,79214.10000014305,80813.79999995232,83700.29999995232,87347.40000009537,89632.10000014305,91616.79999995232,92001,97247.5,104381,106365.5,108797.70000004768,112981.10000014305,113947.90000009537]","0.38095238095238093","0.6","0","","","","","","","","","","","","","","","","","","","","","","","","","","","","",""
"21030","","","","survey-template","19","600065","0.0-7.0-8.0","13","1","2025-07-02 10:18:22","80fe4187154257d5fb01684ea91b68b9","102.182.46.148","Mozilla/5.0 (Macintosh; Intel Mac OS X 10_15_7) AppleWebKit/537.36 (KHTML, like Gecko) Chrome/137.0.0.0 Safari/537.36","Macintosh","Chrome","137.0.0.0","OS X","10_15_7","https://app.prolific.com/","en-GB,en-US;q=0.9,en;q=0.8","61099a311cb3f711346d1b05","683db6dfa200031b80f2a654","68650754321820bf5ccaf70b","61099a311cb3f711346d1b05","2025-07-02T10:28:24.446Z","","","","","","stress","{""Q01"":""0"",""Q02"":""2"",""Q03"":""1""}","[0,1,2]","[""Q01"",""Q02"",""Q03""]","[6211.600000143051,16462.300000190735,20195.5]","[]","[6211.600000143051,16462.300000190735,20195.5,21029.400000095367]","0.3333333333333333","0","0","","","","","","","","","","","","","","","","","","","","","","","","","","","","",""
"69468","","","","instructions","20","669536","0.0-8.0-0.0","13","1","2025-07-02 10:18:22","80fe4187154257d5fb01684ea91b68b9","102.182.46.148","Mozilla/5.0 (Macintosh; Intel Mac OS X 10_15_7) AppleWebKit/537.36 (KHTML, like Gecko) Chrome/137.0.0.0 Safari/537.36","Macintosh","Chrome","137.0.0.0","OS X","10_15_7","https://app.prolific.com/","en-GB,en-US;q=0.9,en;q=0.8","61099a311cb3f711346d1b05","683db6dfa200031b80f2a654","68650754321820bf5ccaf70b","61099a311cb3f711346d1b05","","[{""page_index"":0,""viewing_time"":36293},{""page_index"":1,""viewing_time"":17302},{""page_index"":2,""viewing_time"":4523},{""page_index"":3,""viewing_time"":11350}]","","","","","","","","","","","","","","","","","","","","","","","","","","","","","","","","","","","","","","","","","","",""
"","","","","ctl-task-cpt","21","706953","0.0-8.0-1.0","13","1","2025-07-02 10:18:22","80fe4187154257d5fb01684ea91b68b9","102.182.46.148","Mozilla/5.0 (Macintosh; Intel Mac OS X 10_15_7) AppleWebKit/537.36 (KHTML, like Gecko) Chrome/137.0.0.0 Safari/537.36","Macintosh","Chrome","137.0.0.0","OS X","10_15_7","https://app.prolific.com/","en-GB,en-US;q=0.9,en;q=0.8","61099a311cb3f711346d1b05","683db6dfa200031b80f2a654","68650754321820bf5ccaf70b","61099a311cb3f711346d1b05","","","","","","","","","","","","","","","","","win-only","1","g1:NE,g2:SW","1","0","1","672282.5","3741.9","7746.8","34407","2","4","4","6","2","-4","-10","0","0","0","4004.9","4000","-3005","[""down"",""left""]","{""num_key_presses"":12,""num_perfect"":3,""num_errors"":6,""num_randdir"":0,""num_randdir_good_moves"":0,""num_whilered"":3,""num_whileblue"":1,""num_blue"":1,""num_good_moves"":3}","[360.25401785714286,358.16026785714286,0.2,360.25401785714286,358.16026785714286,104.6,360.25401785714286,358.16026785714286,209.1,360.25401785714286,358.16026785714286,309.1,360.25401785714286,358.16026785714286,409.6,360.25401785714286,358.16026785714286,513.7,360.25401785714286,358.16026785714286,613.9,360.25401785714286,358.16026785714286,713.9,360.25401785714286,358.16026785714286,813.9,360.25401785714286,358.16026785714286,919.5,360.25401785714286,358.16026785714286,1024.5,360.25401785714286,358.16026785714286,1129.4,360.25401785714286,358.16026785714286,1229.8,360.25401785714286,358.16026785714286,1334.9,360.25401785714286,358.16026785714286,1439.9,360.25401785714286,358.16026785714286,1543.9,360.25401785714286,358.16026785714286,1643.9,360.25401785714286,358.16026785714286,1744.1,360.25401785714286,358.16026785714286,1849,360.25401785714286,358.16026785714286,1953.7,360.25401785714286,358.16026785714286,2054.3,360.25401785714286,358.16026785714286,2158.8,360.25401785714286,358.16026785714286,2264.3,360.25401785714286,358.16026785714286,2364.3,360.25401785714286,358.16026785714286,2469.8,360.25401785714286,358.16026785714286,2574.1,360.25401785714286,358.16026785714286,2679.7,360.25401785714286,358.16026785714286,2784.6,360.25401785714286,358.16026785714286,2888.6,360.25401785714286,358.16026785714286,2989.2,360.25401785714286,358.16026785714286,3089.6,360.25401785714286,358.16026785714286,3194.4,360.25401785714286,358.16026785714286,3294.9,360.25401785714286,358.16026785714286,3399,360.25401785714286,358.16026785714286,3504.8,360.25401785714286,358.16026785714286,3608.7,360.25401785714286,358.16026785714286,3709.4,360.25401785714286,358.16026785714286,3813.7,360.25401785714286,358.16026785714286,3914.1]","[322.3,322.3,1000,0,-677.7,""error"",""-"",""-"",""no_move"",938.1,615.6,1000,0,-61.9,""while_red"",""-"",""-"",""no_move"",1950.5,1628,1541.2,1324,-914.7,""error"",""-"",""-"",""no_move"",6901.2,4950.6,3038,2954.4,908.8,""smooth"",""left"",""left"",""good_move"",7673.7,772,2597.7,6901.7,-1825.7,""error"",""-"",""-"",""no_move"",7770.2,96.3,2597.7,6901.7,-1729.2,""while_red"",""-"",""-"",""no_move"",8196.3,522.4,2597.7,6901.7,-1303.1,""while_red"",""-"",""-"",""no_move"",12823.1,5149.2,3411,8679.6,732.5,""smooth"",""left"",""left"",""good_move"",13275.1,451.9,3061.8,12823.2,-2609.9,""error"",""-"",""-"",""no_move"",17618.6,4343.4,2222,14279.2,1117.4,""smooth"",""left"",""left"",""good_move"",17999.6,380.9,2219.8,17618.7,-1838.9,""error"",""-"",""-"",""no_move"",22992.8,4993.1,3480.4,19004,508.4,""while_blue"",""down"",""up"",""bad_move""]","",""
"1518476","","","","instructions","22","2225131","0.0-8.0-2.0","13","1","2025-07-02 10:18:22","80fe4187154257d5fb01684ea91b68b9","102.182.46.148","Mozilla/5.0 (Macintosh; Intel Mac OS X 10_15_7) AppleWebKit/537.36 (KHTML, like Gecko) Chrome/137.0.0.0 Safari/537.36","Macintosh","Chrome","137.0.0.0","OS X","10_15_7","https://app.prolific.com/","en-GB,en-US;q=0.9,en;q=0.8","61099a311cb3f711346d1b05","683db6dfa200031b80f2a654","68650754321820bf5ccaf70b","61099a311cb3f711346d1b05","","[{""page_index"":0,""viewing_time"":1518475}]","","","","","","","","","","","","","","","","","","","","","","","","","","","","","","","","","","","","","","","","","","",""
"","","","","ctl-task-cpt","23","2267555","0.0-8.0-3.0","13","1","2025-07-02 10:18:22","80fe4187154257d5fb01684ea91b68b9","102.182.46.148","Mozilla/5.0 (Macintosh; Intel Mac OS X 10_15_7) AppleWebKit/537.36 (KHTML, like Gecko) Chrome/137.0.0.0 Safari/537.36","Macintosh","Chrome","137.0.0.0","OS X","10_15_7","https://app.prolific.com/","en-GB,en-US;q=0.9,en;q=0.8","61099a311cb3f711346d1b05","683db6dfa200031b80f2a654","68650754321820bf5ccaf70b","61099a311cb3f711346d1b05","","","","","","","","","","","","","","","","","win-only","1","g1:NE,g2:SW","0.35","0","3","2228174.5","1530","5530.6","39415.8","2","4","8","6","2","8","5","5","0","0.03787878787878788","4000.6","4000","265","[""down"",""left""]","{""num_key_presses"":12,""num_perfect"":4,""num_errors"":3,""num_randdir"":5,""num_randdir_good_moves"":4,""num_whilered"":0,""num_whileblue"":1,""num_blue"":2,""num_good_moves"":8}","[369.25401785714286,357.16026785714286,1.1,369.25401785714286,358.16026785714286,100.4,369.25401785714286,358.16026785714286,200.4,369.25401785714286,358.16026785714286,300.4,369.25401785714286,358.16026785714286,400.5,369.25401785714286,358.16026785714286,501.1,369.25401785714286,358.16026785714286,605.8,369.25401785714286,358.16026785714286,706.5,369.25401785714286,358.16026785714286,811.2,369.25401785714286,358.16026785714286,915.5,369.25401785714286,358.16026785714286,1015.7,369.25401785714286,358.16026785714286,1115.9,369.25401785714286,358.16026785714286,1215.9,369.25401785714286,358.16026785714286,1316.3,369.25401785714286,358.16026785714286,1421.2,369.25401785714286,358.16026785714286,1525.8,369.25401785714286,358.16026785714286,1630.5,369.25401785714286,358.16026785714286,1735.9,369.25401785714286,358.16026785714286,1836.3,369.25401785714286,358.16026785714286,1941.1,369.25401785714286,358.16026785714286,2046.3,369.25401785714286,358.16026785714286,2150.4,369.25401785714286,358.16026785714286,2251.5,369.25401785714286,358.16026785714286,2356.2,369.25401785714286,358.16026785714286,2460.9,369.25401785714286,358.16026785714286,2565.7,369.25401785714286,358.16026785714286,2665.9,369.25401785714286,358.16026785714286,2770.9,369.25401785714286,358.16026785714286,2871,369.25401785714286,358.16026785714286,2971.4,369.25401785714286,358.16026785714286,3075.9,369.25401785714286,358.16026785714286,3181.4,369.25401785714286,358.16026785714286,3285.6,369.25401785714286,358.16026785714286,3386.1,369.25401785714286,358.16026785714286,3490.5,369.25401785714286,358.16026785714286,3590.9,369.25401785714286,358.16026785714286,3695.5,369.25401785714286,358.16026785714286,3795.8,369.25401785714286,358.16026785714286,3900.9]","[1382.8,1382.8,1000,0,382.8,""smooth"",""left"",""left"",""good_move"",1737.1,353.9,2290.2,1383.2,-1936.3,""error"",""-"",""-"",""no_move"",5073.5,3336.4,1872.2,2740.6,460.7,""oops"",""left"",""left"",""good_move"",7985,2911.3,2563.4,5073.8,347.9,""smooth"",""down"",""down"",""good_move"",11373.8,3388.4,2959.3,7985.5,429,""oops"",""down"",""down"",""good_move"",14019.3,2645.4,2284.1,11373.9,361.3,""oops"",""down"",""right"",""bad_move"",14663.6,644,2272.1,14019.6,-1628.1,""error"",""-"",""-"",""no_move"",21855.7,7191.8,2266.7,19255.5,333.5,""oops"",""left"",""left"",""good_move"",24676.1,2820.2,2508.9,21855.9,311.3,""smooth"",""left"",""left"",""good_move"",28099.7,3423.3,2923.7,24676.4,499.6,""while_blue"",""down"",""up"",""bad_move"",31043.3,2943.4,2368.2,28099.9,575.2,""oops"",""down"",""down"",""good_move"",33795.3,2751.9,2182.3,31043.4,569.6,""smooth"",""down"",""down"",""good_move""]","",""
"5708","","","","instructions","24","2273263","0.0-8.0-4.0","13","1","2025-07-02 10:18:22","80fe4187154257d5fb01684ea91b68b9","102.182.46.148","Mozilla/5.0 (Macintosh; Intel Mac OS X 10_15_7) AppleWebKit/537.36 (KHTML, like Gecko) Chrome/137.0.0.0 Safari/537.36","Macintosh","Chrome","137.0.0.0","OS X","10_15_7","https://app.prolific.com/","en-GB,en-US;q=0.9,en;q=0.8","61099a311cb3f711346d1b05","683db6dfa200031b80f2a654","68650754321820bf5ccaf70b","61099a311cb3f711346d1b05","","[{""page_index"":0,""viewing_time"":3311},{""page_index"":1,""viewing_time"":2397}]","","","","","","","","","","","","","","","","","","","","","","","","","","","","","","","","","","","","","","","","","","",""
"8283","","","{""green_ball"":[""Ball always moves in the direction I press""]}","survey-multi-select","25","2281549","0.0-8.0-5.0-0.0","13","1","2025-07-02 10:18:22","80fe4187154257d5fb01684ea91b68b9","102.182.46.148","Mozilla/5.0 (Macintosh; Intel Mac OS X 10_15_7) AppleWebKit/537.36 (KHTML, like Gecko) Chrome/137.0.0.0 Safari/537.36","Macintosh","Chrome","137.0.0.0","OS X","10_15_7","https://app.prolific.com/","en-GB,en-US;q=0.9,en;q=0.8","61099a311cb3f711346d1b05","683db6dfa200031b80f2a654","68650754321820bf5ccaf70b","61099a311cb3f711346d1b05","","","[0]","","","","quiz","","","","","","","","","","","","","","","","","","","","","","","","","","","","","","","","","","","","","false",""
"2957","","<p align='center'><b>INCORRECT.</b> Usually the green ball moves in the indicated direction, but sometimes it shakes and moves randomly. </p>","0","html-button-response","26","2284508","0.0-8.0-5.0-1.0","13","1","2025-07-02 10:18:22","80fe4187154257d5fb01684ea91b68b9","102.182.46.148","Mozilla/5.0 (Macintosh; Intel Mac OS X 10_15_7) AppleWebKit/537.36 (KHTML, like Gecko) Chrome/137.0.0.0 Safari/537.36","Macintosh","Chrome","137.0.0.0","OS X","10_15_7","https://app.prolific.com/","en-GB,en-US;q=0.9,en;q=0.8","61099a311cb3f711346d1b05","683db6dfa200031b80f2a654","68650754321820bf5ccaf70b","61099a311cb3f711346d1b05","","","","","","","","","","","","","","","","","","","","","","","","","","","","","","","","","","","","","","","","","","","","",""
"2893","","","{""green_ball"":[""Ball sometimes shakes and moves in a random direction""]}","survey-multi-select","27","2287403","0.0-8.0-5.1-0.1","13","1","2025-07-02 10:18:22","80fe4187154257d5fb01684ea91b68b9","102.182.46.148","Mozilla/5.0 (Macintosh; Intel Mac OS X 10_15_7) AppleWebKit/537.36 (KHTML, like Gecko) Chrome/137.0.0.0 Safari/537.36","Macintosh","Chrome","137.0.0.0","OS X","10_15_7","https://app.prolific.com/","en-GB,en-US;q=0.9,en;q=0.8","61099a311cb3f711346d1b05","683db6dfa200031b80f2a654","68650754321820bf5ccaf70b","61099a311cb3f711346d1b05","","","[0]","","","","quiz","","","","","","","","","","","","","","","","","","","","","","","","","","","","","","","","","","","","","true",""
"1065","","<p align='center'><b>CORRECT!</b> Indeed, the green ball may sometimes shake and move in a random direction.</p>","0","html-button-response","28","2288469","0.0-8.0-5.1-1.1","13","1","2025-07-02 10:18:22","80fe4187154257d5fb01684ea91b68b9","102.182.46.148","Mozilla/5.0 (Macintosh; Intel Mac OS X 10_15_7) AppleWebKit/537.36 (KHTML, like Gecko) Chrome/137.0.0.0 Safari/537.36","Macintosh","Chrome","137.0.0.0","OS X","10_15_7","https://app.prolific.com/","en-GB,en-US;q=0.9,en;q=0.8","61099a311cb3f711346d1b05","683db6dfa200031b80f2a654","68650754321820bf5ccaf70b","61099a311cb3f711346d1b05","","","","","","","","","","","","","","","","","","","","","","","","","","","","","","","","","","","","","","","","","","","","",""
"4294","","","{""yellow_ball"":[""Ball doesn‘t move and I get -1 penalty point""]}","survey-multi-select","29","2292764","0.0-8.0-6.0-0.0","13","1","2025-07-02 10:18:22","80fe4187154257d5fb01684ea91b68b9","102.182.46.148","Mozilla/5.0 (Macintosh; Intel Mac OS X 10_15_7) AppleWebKit/537.36 (KHTML, like Gecko) Chrome/137.0.0.0 Safari/537.36","Macintosh","Chrome","137.0.0.0","OS X","10_15_7","https://app.prolific.com/","en-GB,en-US;q=0.9,en;q=0.8","61099a311cb3f711346d1b05","683db6dfa200031b80f2a654","68650754321820bf5ccaf70b","61099a311cb3f711346d1b05","","","[0]","","","","quiz","","","","","","","","","","","","","","","","","","","","","","","","","","","","","","","","","","","","","true",""
"879","","<p align='center'><b>CORRECT!</b> Indeed, the yellow ball never moves and you receive a penalty.</p>","0","html-button-response","30","2293644","0.0-8.0-6.0-1.0","13","1","2025-07-02 10:18:22","80fe4187154257d5fb01684ea91b68b9","102.182.46.148","Mozilla/5.0 (Macintosh; Intel Mac OS X 10_15_7) AppleWebKit/537.36 (KHTML, like Gecko) Chrome/137.0.0.0 Safari/537.36","Macintosh","Chrome","137.0.0.0","OS X","10_15_7","https://app.prolific.com/","en-GB,en-US;q=0.9,en;q=0.8","61099a311cb3f711346d1b05","683db6dfa200031b80f2a654","68650754321820bf5ccaf70b","61099a311cb3f711346d1b05","","","","","","","","","","","","","","","","","","","","","","","","","","","","","","","","","","","","","","","","","","","","",""
"2641","","","{""blue_ball"":[""Ball doesn‘t move and I get -1 penalty point""]}","survey-multi-select","31","2296286","0.0-8.0-7.0-0.0","13","1","2025-07-02 10:18:22","80fe4187154257d5fb01684ea91b68b9","102.182.46.148","Mozilla/5.0 (Macintosh; Intel Mac OS X 10_15_7) AppleWebKit/537.36 (KHTML, like Gecko) Chrome/137.0.0.0 Safari/537.36","Macintosh","Chrome","137.0.0.0","OS X","10_15_7","https://app.prolific.com/","en-GB,en-US;q=0.9,en;q=0.8","61099a311cb3f711346d1b05","683db6dfa200031b80f2a654","68650754321820bf5ccaf70b","61099a311cb3f711346d1b05","","","[0]","","","","quiz","","","","","","","","","","","","","","","","","","","","","","","","","","","","","","","","","","","","","false",""
"2053","","<p align='center'><b>INCORRECT.</b> The blue ball always shakes and moves randomly.</p>","0","html-button-response","32","2298339","0.0-8.0-7.0-1.0","13","1","2025-07-02 10:18:22","80fe4187154257d5fb01684ea91b68b9","102.182.46.148","Mozilla/5.0 (Macintosh; Intel Mac OS X 10_15_7) AppleWebKit/537.36 (KHTML, like Gecko) Chrome/137.0.0.0 Safari/537.36","Macintosh","Chrome","137.0.0.0","OS X","10_15_7","https://app.prolific.com/","en-GB,en-US;q=0.9,en;q=0.8","61099a311cb3f711346d1b05","683db6dfa200031b80f2a654","68650754321820bf5ccaf70b","61099a311cb3f711346d1b05","","","","","","","","","","","","","","","","","","","","","","","","","","","","","","","","","","","","","","","","","","","","",""
"4456","","","{""blue_ball"":[""Ball always shakes and moves in a random direction""]}","survey-multi-select","33","2302796","0.0-8.0-7.1-0.1","13","1","2025-07-02 10:18:22","80fe4187154257d5fb01684ea91b68b9","102.182.46.148","Mozilla/5.0 (Macintosh; Intel Mac OS X 10_15_7) AppleWebKit/537.36 (KHTML, like Gecko) Chrome/137.0.0.0 Safari/537.36","Macintosh","Chrome","137.0.0.0","OS X","10_15_7","https://app.prolific.com/","en-GB,en-US;q=0.9,en;q=0.8","61099a311cb3f711346d1b05","683db6dfa200031b80f2a654","68650754321820bf5ccaf70b","61099a311cb3f711346d1b05","","","[0]","","","","quiz","","","","","","","","","","","","","","","","","","","","","","","","","","","","","","","","","","","","","true",""
"877","","<p align='center'><b>CORRECT!</b> Indeed, the blue ball always shakes and moves in a random direction. Also there is a penalty of -1 point.</p>","0","html-button-response","34","2303674","0.0-8.0-7.1-1.1","13","1","2025-07-02 10:18:22","80fe4187154257d5fb01684ea91b68b9","102.182.46.148","Mozilla/5.0 (Macintosh; Intel Mac OS X 10_15_7) AppleWebKit/537.36 (KHTML, like Gecko) Chrome/137.0.0.0 Safari/537.36","Macintosh","Chrome","137.0.0.0","OS X","10_15_7","https://app.prolific.com/","en-GB,en-US;q=0.9,en;q=0.8","61099a311cb3f711346d1b05","683db6dfa200031b80f2a654","68650754321820bf5ccaf70b","61099a311cb3f711346d1b05","","","","","","","","","","","","","","","","","","","","","","","","","","","","","","","","","","","","","","","","","","","","",""
"5122","","","{""bonus"":[""When I reach 80% of points""]}","survey-multi-select","35","2308796","0.0-8.0-8.0-0.0","13","1","2025-07-02 10:18:22","80fe4187154257d5fb01684ea91b68b9","102.182.46.148","Mozilla/5.0 (Macintosh; Intel Mac OS X 10_15_7) AppleWebKit/537.36 (KHTML, like Gecko) Chrome/137.0.0.0 Safari/537.36","Macintosh","Chrome","137.0.0.0","OS X","10_15_7","https://app.prolific.com/","en-GB,en-US;q=0.9,en;q=0.8","61099a311cb3f711346d1b05","683db6dfa200031b80f2a654","68650754321820bf5ccaf70b","61099a311cb3f711346d1b05","","","[0]","","","","quiz","","","","","","","","","","","","","","","","","","","","","","","","","","","","","","","","","","","","","false",""
"1586","","<p align='center'><b>INCORRECT.</b> You receive 2 pounds extra when you reach 50% of points </p>","0","html-button-response","36","2310383","0.0-8.0-8.0-1.0","13","1","2025-07-02 10:18:22","80fe4187154257d5fb01684ea91b68b9","102.182.46.148","Mozilla/5.0 (Macintosh; Intel Mac OS X 10_15_7) AppleWebKit/537.36 (KHTML, like Gecko) Chrome/137.0.0.0 Safari/537.36","Macintosh","Chrome","137.0.0.0","OS X","10_15_7","https://app.prolific.com/","en-GB,en-US;q=0.9,en;q=0.8","61099a311cb3f711346d1b05","683db6dfa200031b80f2a654","68650754321820bf5ccaf70b","61099a311cb3f711346d1b05","","","","","","","","","","","","","","","","","","","","","","","","","","","","","","","","","","","","","","","","","","","","",""
"1760","","","{""bonus"":[""When I reach 50% of points""]}","survey-multi-select","37","2312145","0.0-8.0-8.1-0.1","13","1","2025-07-02 10:18:22","80fe4187154257d5fb01684ea91b68b9","102.182.46.148","Mozilla/5.0 (Macintosh; Intel Mac OS X 10_15_7) AppleWebKit/537.36 (KHTML, like Gecko) Chrome/137.0.0.0 Safari/537.36","Macintosh","Chrome","137.0.0.0","OS X","10_15_7","https://app.prolific.com/","en-GB,en-US;q=0.9,en;q=0.8","61099a311cb3f711346d1b05","683db6dfa200031b80f2a654","68650754321820bf5ccaf70b","61099a311cb3f711346d1b05","","","[0]","","","","quiz","","","","","","","","","","","","","","","","","","","","","","","","","","","","","","","","","","","","","true",""
"826","","<p align='center'><b>CORRECT!</b> Indeed, you receive 2 pounds extra when you reach 50% of points.</p>","0","html-button-response","38","2312971","0.0-8.0-8.1-1.1","13","1","2025-07-02 10:18:22","80fe4187154257d5fb01684ea91b68b9","102.182.46.148","Mozilla/5.0 (Macintosh; Intel Mac OS X 10_15_7) AppleWebKit/537.36 (KHTML, like Gecko) Chrome/137.0.0.0 Safari/537.36","Macintosh","Chrome","137.0.0.0","OS X","10_15_7","https://app.prolific.com/","en-GB,en-US;q=0.9,en;q=0.8","61099a311cb3f711346d1b05","683db6dfa200031b80f2a654","68650754321820bf5ccaf70b","61099a311cb3f711346d1b05","","","","","","","","","","","","","","","","","","","","","","","","","","","","","","","","","","","","","","","","","","","","",""
"1440","","","","instructions","39","2314411","0.0-8.0-9.0","13","1","2025-07-02 10:18:22","80fe4187154257d5fb01684ea91b68b9","102.182.46.148","Mozilla/5.0 (Macintosh; Intel Mac OS X 10_15_7) AppleWebKit/537.36 (KHTML, like Gecko) Chrome/137.0.0.0 Safari/537.36","Macintosh","Chrome","137.0.0.0","OS X","10_15_7","https://app.prolific.com/","en-GB,en-US;q=0.9,en;q=0.8","61099a311cb3f711346d1b05","683db6dfa200031b80f2a654","68650754321820bf5ccaf70b","61099a311cb3f711346d1b05","","[{""page_index"":0,""viewing_time"":1440}]","","","","","","","","","","","","","","","","","","","","","","","","","","","","","","","","","","","","","","","","","","",""
"7854","","<p>Before you start with this game please answer the following three questions yourself. </p>
  <p>Through this game, we measure several aspects of your cognitive performance, such as reaction times, multi-tasking capabilities </p>
  <p>and the ability to assess the situation you are in.</p>
  <p></p>
  <p><b>How good do you usually are in such tasks?</b></p>","64","html-slider-response","40","2322268","0.0-9.0-0.0","13","1","2025-07-02 10:18:22","80fe4187154257d5fb01684ea91b68b9","102.182.46.148","Mozilla/5.0 (Macintosh; Intel Mac OS X 10_15_7) AppleWebKit/537.36 (KHTML, like Gecko) Chrome/137.0.0.0 Safari/537.36","Macintosh","Chrome","137.0.0.0","OS X","10_15_7","https://app.prolific.com/","en-GB,en-US;q=0.9,en;q=0.8","61099a311cb3f711346d1b05","683db6dfa200031b80f2a654","68650754321820bf5ccaf70b","61099a311cb3f711346d1b05","2025-07-02T10:57:06.649Z","","","","","","PreSkillQ","","","","","","","","","","","","","","","","","","","","","","","","","","","","","","","","","","","","","","50"
"3839","","<div style=""width:500px;"">
  <p>How well do you think you will perform in this task compared to other participants?</p>
  </div>","28","html-slider-response","41","2326108","0.0-9.0-1.0","13","1","2025-07-02 10:18:22","80fe4187154257d5fb01684ea91b68b9","102.182.46.148","Mozilla/5.0 (Macintosh; Intel Mac OS X 10_15_7) AppleWebKit/537.36 (KHTML, like Gecko) Chrome/137.0.0.0 Safari/537.36","Macintosh","Chrome","137.0.0.0","OS X","10_15_7","https://app.prolific.com/","en-GB,en-US;q=0.9,en;q=0.8","61099a311cb3f711346d1b05","683db6dfa200031b80f2a654","68650754321820bf5ccaf70b","61099a311cb3f711346d1b05","2025-07-02T10:57:10.489Z","","","","","","PrePerfQ","","","","","","","","","","","","","","","","","","","","","","","","","","","","","","","","","","","","","","50"
"3803","","<div style=""width:500px;"">
  <p>What best describes how you currently feel?</p>
  </div>","36","html-slider-response","42","2329911","0.0-9.0-2.0","13","1","2025-07-02 10:18:22","80fe4187154257d5fb01684ea91b68b9","102.182.46.148","Mozilla/5.0 (Macintosh; Intel Mac OS X 10_15_7) AppleWebKit/537.36 (KHTML, like Gecko) Chrome/137.0.0.0 Safari/537.36","Macintosh","Chrome","137.0.0.0","OS X","10_15_7","https://app.prolific.com/","en-GB,en-US;q=0.9,en;q=0.8","61099a311cb3f711346d1b05","683db6dfa200031b80f2a654","68650754321820bf5ccaf70b","61099a311cb3f711346d1b05","2025-07-02T10:57:14.292Z","","","","","","PreMotivationQ","","","","","","","","","","","","","","","","","","","","","","","","","","","","","","","","","","","","","","50"
"","","","","ctl-task-cpt","43","2364726","0.0-10.0-0.0","13","1","2025-07-02 10:18:22","80fe4187154257d5fb01684ea91b68b9","102.182.46.148","Mozilla/5.0 (Macintosh; Intel Mac OS X 10_15_7) AppleWebKit/537.36 (KHTML, like Gecko) Chrome/137.0.0.0 Safari/537.36","Macintosh","Chrome","137.0.0.0","OS X","10_15_7","https://app.prolific.com/","en-GB,en-US;q=0.9,en;q=0.8","61099a311cb3f711346d1b05","683db6dfa200031b80f2a654","68650754321820bf5ccaf70b","61099a311cb3f711346d1b05","2025-07-02T10:57:49.107Z","","","","","","","","","","","","","","","","win-only","2","g1:SE,g2:NW","1","1","0","2332959.5","1036.8","6041.3","31806.3","1","4","4","6","1","-1","-1","0","0","0","5004.5","3000","-3005","[""down"",""right""]","{""num_key_presses"":6,""num_perfect"":6,""num_errors"":0,""num_randdir"":0,""num_randdir_good_moves"":0,""num_whilered"":0,""num_whileblue"":0,""num_blue"":2,""num_good_moves"":0}","[363.25401785714286,360.16026785714286,0.1,362.25401785714286,360.16026785714286,105.7,362.25401785714286,360.16026785714286,209.2,362.25401785714286,360.16026785714286,314.7,362.25401785714286,360.16026785714286,414.7,362.25401785714286,360.16026785714286,519.3,362.25401785714286,360.16026785714286,619.5,362.25401785714286,360.16026785714286,719.7,362.25401785714286,360.16026785714286,823.5,362.25401785714286,360.16026785714286,924.7,362.25401785714286,360.16026785714286,1025.2,362.25401785714286,360.16026785714286,1129.1,362.25401785714286,360.16026785714286,1230.6,362.25401785714286,360.16026785714286,1335.1,362.25401785714286,360.16026785714286,1435.5,362.25401785714286,360.16026785714286,1538.6,362.25401785714286,360.16026785714286,1639.4,362.25401785714286,360.16026785714286,1739.7,362.25401785714286,360.16026785714286,1840.3,362.25401785714286,360.16026785714286,1944.4,362.25401785714286,360.16026785714286,2044.9,362.25401785714286,360.16026785714286,2149.7,362.25401785714286,360.16026785714286,2254.5,362.25401785714286,360.16026785714286,2354.6,362.25401785714286,360.16026785714286,2455.4,362.25401785714286,360.16026785714286,2559.1,362.25401785714286,360.16026785714286,2659.1,362.25401785714286,360.16026785714286,2759.6,362.25401785714286,360.16026785714286,2864,362.25401785714286,360.16026785714286,2964.2,362.25401785714286,360.16026785714286,3065.1,362.25401785714286,360.16026785714286,3169,362.25401785714286,360.16026785714286,3270.9,362.25401785714286,360.16026785714286,3374.3,362.25401785714286,360.16026785714286,3474.3,362.25401785714286,360.16026785714286,3574.3,362.25401785714286,360.16026785714286,3675.7,362.25401785714286,360.16026785714286,3778.9,362.25401785714286,360.16026785714286,3879.8,362.25401785714286,360.16026785714286,3983.6,362.25401785714286,360.16026785714286,4084.1,362.25401785714286,360.16026785714286,4184.2,362.25401785714286,360.16026785714286,4285,362.25401785714286,360.16026785714286,4389.5,362.25401785714286,360.16026785714286,4494.2,362.25401785714286,360.16026785714286,4598.5,362.25401785714286,360.16026785714286,4699.5,362.25401785714286,360.16026785714286,4803.9,362.25401785714286,360.16026785714286,4909.4]","[1513.5,1513.5,1000,0,513.5,""smooth"",""up"",""up"",""bad_move"",8617.8,7103.9,3489.9,4754.8,373.2,""smooth"",""left"",""left"",""bad_move"",11486.2,2868,1849,8618.2,1019,""smooth"",""up"",""up"",""bad_move"",14767.7,3281.4,2896.7,11486.3,384.7,""smooth"",""left"",""left"",""bad_move"",20152.9,5384.9,1806.4,18045.6,301,""smooth"",""up"",""up"",""bad_move"",23037.5,2884.4,2492.2,20153.1,392.2,""smooth"",""left"",""left"",""bad_move""]","",""
"4290","","<div style=""width:500px;"">
  <p>What determined the result of this run?</p>
  </div>","64","html-slider-response","44","2369017","0.0-10.0-1.0","13","1","2025-07-02 10:18:22","80fe4187154257d5fb01684ea91b68b9","102.182.46.148","Mozilla/5.0 (Macintosh; Intel Mac OS X 10_15_7) AppleWebKit/537.36 (KHTML, like Gecko) Chrome/137.0.0.0 Safari/537.36","Macintosh","Chrome","137.0.0.0","OS X","10_15_7","https://app.prolific.com/","en-GB,en-US;q=0.9,en;q=0.8","61099a311cb3f711346d1b05","683db6dfa200031b80f2a654","68650754321820bf5ccaf70b","61099a311cb3f711346d1b05","2025-07-02T10:57:53.398Z","","","","","","AttribQ","","","","","","","","","","","","","","","","","","","","","","","","","","","","","","","","","","","","","","50"
"2679","","<div style=""width:500px;"">
  <p>How much control did you have over the ball?</p>
  </div>","80","html-slider-response","45","2371697","0.0-10.0-2.0","13","1","2025-07-02 10:18:22","80fe4187154257d5fb01684ea91b68b9","102.182.46.148","Mozilla/5.0 (Macintosh; Intel Mac OS X 10_15_7) AppleWebKit/537.36 (KHTML, like Gecko) Chrome/137.0.0.0 Safari/537.36","Macintosh","Chrome","137.0.0.0","OS X","10_15_7","https://app.prolific.com/","en-GB,en-US;q=0.9,en;q=0.8","61099a311cb3f711346d1b05","683db6dfa200031b80f2a654","68650754321820bf5ccaf70b","61099a311cb3f711346d1b05","2025-07-02T10:57:56.078Z","","","","","","ControlQ","","","","","","","","","","","","","","","","","","","","","","","","","","","","","","","","","","","","","","50"
"3027","","<div style=""width:500px;"">
  <p>How would you describe your current emotional state?</p>
  </div>","39","html-slider-response","46","2374725","0.0-10.0-3.0","13","1","2025-07-02 10:18:22","80fe4187154257d5fb01684ea91b68b9","102.182.46.148","Mozilla/5.0 (Macintosh; Intel Mac OS X 10_15_7) AppleWebKit/537.36 (KHTML, like Gecko) Chrome/137.0.0.0 Safari/537.36","Macintosh","Chrome","137.0.0.0","OS X","10_15_7","https://app.prolific.com/","en-GB,en-US;q=0.9,en;q=0.8","61099a311cb3f711346d1b05","683db6dfa200031b80f2a654","68650754321820bf5ccaf70b","61099a311cb3f711346d1b05","2025-07-02T10:57:59.106Z","","","","","","StressQ","","","","","","","","","","","","","","","","","","","","","","","","","","","","","","","","","","","","","","50"
"2468","","<div style=""width:500px;"">
  <p>What best describes how you currently feel?</p>
  </div>","42","html-slider-response","47","2377193","0.0-10.0-4.0","13","1","2025-07-02 10:18:22","80fe4187154257d5fb01684ea91b68b9","102.182.46.148","Mozilla/5.0 (Macintosh; Intel Mac OS X 10_15_7) AppleWebKit/537.36 (KHTML, like Gecko) Chrome/137.0.0.0 Safari/537.36","Macintosh","Chrome","137.0.0.0","OS X","10_15_7","https://app.prolific.com/","en-GB,en-US;q=0.9,en;q=0.8","61099a311cb3f711346d1b05","683db6dfa200031b80f2a654","68650754321820bf5ccaf70b","61099a311cb3f711346d1b05","2025-07-02T10:58:01.574Z","","","","","","MotivationQ","","","","","","","","","","","","","","","","","","","","","","","","","","","","","","","","","","","","","","50"
"","","","","ctl-task-cpt","48","2418141","0.0-10.0-0.1","13","1","2025-07-02 10:18:22","80fe4187154257d5fb01684ea91b68b9","102.182.46.148","Mozilla/5.0 (Macintosh; Intel Mac OS X 10_15_7) AppleWebKit/537.36 (KHTML, like Gecko) Chrome/137.0.0.0 Safari/537.36","Macintosh","Chrome","137.0.0.0","OS X","10_15_7","https://app.prolific.com/","en-GB,en-US;q=0.9,en;q=0.8","61099a311cb3f711346d1b05","683db6dfa200031b80f2a654","68650754321820bf5ccaf70b","61099a311cb3f711346d1b05","2025-07-02T10:58:42.522Z","","","","","","","","","","","","","","","","win-only","3","g1:SW,g2:NE","0.9","2","0","2380243.2","1585.2","6585.5","37940.4","1","4","8","6","2","-8","-8","0","0","0","3014.8","3000","-3005","[""up"",""right""]","{""num_key_presses"":6,""num_perfect"":5,""num_errors"":0,""num_randdir"":1,""num_randdir_good_moves"":0,""num_whilered"":0,""num_whileblue"":0,""num_blue"":4,""num_good_moves"":5}","[359.25401785714286,368.16026785714286,0.2,359.25401785714286,368.16026785714286,100.1,359.25401785714286,368.16026785714286,201.1,359.25401785714286,368.16026785714286,306,359.25401785714286,368.16026785714286,410.6,359.25401785714286,368.16026785714286,510.8,359.25401785714286,368.16026785714286,611.9,359.25401785714286,368.16026785714286,715.1,359.25401785714286,368.16026785714286,816.5,359.25401785714286,368.16026785714286,921.6,359.25401785714286,368.16026785714286,1025.3,359.25401785714286,368.16026785714286,1130.6,359.25401785714286,368.16026785714286,1235.6,359.25401785714286,368.16026785714286,1335.7,359.25401785714286,368.16026785714286,1440.9,359.25401785714286,368.16026785714286,1540.9,359.25401785714286,368.16026785714286,1640.9,359.25401785714286,368.16026785714286,1746.6,359.25401785714286,368.16026785714286,1850.2,359.25401785714286,368.16026785714286,1955.6,359.25401785714286,368.16026785714286,2060.5,359.25401785714286,368.16026785714286,2161.6,359.25401785714286,368.16026785714286,2265.6,355.25401785714286,368.16026785714286,2370.7,444.25401785714286,315.16026785714286,2476,568.2540178571428,285.16026785714286,2580.3,568.2540178571428,280.16026785714286,2685.5,616.2540178571428,126.16026785714286,2790.5,619.2540178571428,99.16026785714286,2891.2,638.2540178571428,96.16026785714286,2996,639.2540178571428,96.16026785714286,3100.6,639.2540178571428,96.16026785714286,3201.2,639.2540178571428,96.16026785714286,3305.7,639.2540178571428,96.16026785714286,3406.1,639.2540178571428,96.16026785714286,3510.3,639.2540178571428,96.16026785714286,3610.7,639.2540178571428,96.16026785714286,3715.9,639.2540178571428,96.16026785714286,3820.6,639.2540178571428,96.16026785714286,3920.7,639.2540178571428,96.16026785714286,4025.6,639.2540178571428,96.16026785714286,4126.3,639.2540178571428,96.16026785714286,4230.2,639.2540178571428,96.16026785714286,4330.2,639.2540178571428,96.16026785714286,4430.6,639.2540178571428,96.16026785714286,4536.4,639.2540178571428,96.16026785714286,4641,639.2540178571428,96.16026785714286,4746,639.2540178571428,96.16026785714286,4850.3,639.2540178571428,96.16026785714286,4956.4]","[1938.8,1938.8,1000,0,938.8,""smooth"",""up"",""up"",""good_move"",4624.5,2685.5,2321.5,1939,364,""smooth"",""right"",""right"",""good_move"",7102.4,2477.8,2145.2,4624.7,332.6,""smooth"",""up"",""up"",""good_move"",9507,2404.4,2122,7102.6,282.4,""oops"",""right"",""left"",""bad_move"",22240.3,12733,1897.6,19875.7,467,""smooth"",""right"",""right"",""good_move"",29020.1,6779.5,2433.8,26175.2,411.1,""smooth"",""up"",""up"",""good_move""]","",""
"3747","","<div style=""width:500px;"">
  <p>What determined the result of this run?</p>
  </div>","72","html-slider-response","49","2421889","0.0-10.0-1.1","13","1","2025-07-02 10:18:22","80fe4187154257d5fb01684ea91b68b9","102.182.46.148","Mozilla/5.0 (Macintosh; Intel Mac OS X 10_15_7) AppleWebKit/537.36 (KHTML, like Gecko) Chrome/137.0.0.0 Safari/537.36","Macintosh","Chrome","137.0.0.0","OS X","10_15_7","https://app.prolific.com/","en-GB,en-US;q=0.9,en;q=0.8","61099a311cb3f711346d1b05","683db6dfa200031b80f2a654","68650754321820bf5ccaf70b","61099a311cb3f711346d1b05","2025-07-02T10:58:46.270Z","","","","","","AttribQ","","","","","","","","","","","","","","","","","","","","","","","","","","","","","","","","","","","","","","50"
"2694","","<div style=""width:500px;"">
  <p>How much control did you have over the ball?</p>
  </div>","56","html-slider-response","50","2424584","0.0-10.0-2.1","13","1","2025-07-02 10:18:22","80fe4187154257d5fb01684ea91b68b9","102.182.46.148","Mozilla/5.0 (Macintosh; Intel Mac OS X 10_15_7) AppleWebKit/537.36 (KHTML, like Gecko) Chrome/137.0.0.0 Safari/537.36","Macintosh","Chrome","137.0.0.0","OS X","10_15_7","https://app.prolific.com/","en-GB,en-US;q=0.9,en;q=0.8","61099a311cb3f711346d1b05","683db6dfa200031b80f2a654","68650754321820bf5ccaf70b","61099a311cb3f711346d1b05","2025-07-02T10:58:48.965Z","","","","","","ControlQ","","","","","","","","","","","","","","","","","","","","","","","","","","","","","","","","","","","","","","50"
"2078","","<div style=""width:500px;"">
  <p>How would you describe your current emotional state?</p>
  </div>","43","html-slider-response","51","2426663","0.0-10.0-3.1","13","1","2025-07-02 10:18:22","80fe4187154257d5fb01684ea91b68b9","102.182.46.148","Mozilla/5.0 (Macintosh; Intel Mac OS X 10_15_7) AppleWebKit/537.36 (KHTML, like Gecko) Chrome/137.0.0.0 Safari/537.36","Macintosh","Chrome","137.0.0.0","OS X","10_15_7","https://app.prolific.com/","en-GB,en-US;q=0.9,en;q=0.8","61099a311cb3f711346d1b05","683db6dfa200031b80f2a654","68650754321820bf5ccaf70b","61099a311cb3f711346d1b05","2025-07-02T10:58:51.044Z","","","","","","StressQ","","","","","","","","","","","","","","","","","","","","","","","","","","","","","","","","","","","","","","50"
"1960","","<div style=""width:500px;"">
  <p>What best describes how you currently feel?</p>
  </div>","40","html-slider-response","52","2428623","0.0-10.0-4.1","13","1","2025-07-02 10:18:22","80fe4187154257d5fb01684ea91b68b9","102.182.46.148","Mozilla/5.0 (Macintosh; Intel Mac OS X 10_15_7) AppleWebKit/537.36 (KHTML, like Gecko) Chrome/137.0.0.0 Safari/537.36","Macintosh","Chrome","137.0.0.0","OS X","10_15_7","https://app.prolific.com/","en-GB,en-US;q=0.9,en;q=0.8","61099a311cb3f711346d1b05","683db6dfa200031b80f2a654","68650754321820bf5ccaf70b","61099a311cb3f711346d1b05","2025-07-02T10:58:53.004Z","","","","","","MotivationQ","","","","","","","","","","","","","","","","","","","","","","","","","","","","","","","","","","","","","","50"
"","","","","ctl-task-cpt","53","2455613","0.0-10.0-0.2","13","1","2025-07-02 10:18:22","80fe4187154257d5fb01684ea91b68b9","102.182.46.148","Mozilla/5.0 (Macintosh; Intel Mac OS X 10_15_7) AppleWebKit/537.36 (KHTML, like Gecko) Chrome/137.0.0.0 Safari/537.36","Macintosh","Chrome","137.0.0.0","OS X","10_15_7","https://app.prolific.com/","en-GB,en-US;q=0.9,en;q=0.8","61099a311cb3f711346d1b05","683db6dfa200031b80f2a654","68650754321820bf5ccaf70b","61099a311cb3f711346d1b05","2025-07-02T10:59:19.994Z","","","","","","","","","","","","","","","","win-only","0","g1:NW,g2:SE","0.8","3","0","2431674.9","998.8","6000.7","23980.4","1","4","4","6","2","4","4","4","0","0.030303030303030304","1721","3000","545","[""down"",""right""]","{""num_key_presses"":6,""num_perfect"":6,""num_errors"":0,""num_randdir"":0,""num_randdir_good_moves"":0,""num_whilered"":0,""num_whileblue"":0,""num_blue"":0,""num_good_moves"":6}","[351.25401785714286,366.16026785714286,0.2,351.25401785714286,366.16026785714286,101.6,351.25401785714286,366.16026785714286,202,351.25401785714286,366.16026785714286,302.5,351.25401785714286,366.16026785714286,406.5,351.25401785714286,366.16026785714286,511.8,351.25401785714286,366.16026785714286,611.9,351.25401785714286,366.16026785714286,716.9,351.25401785714286,366.16026785714286,817.2,351.25401785714286,366.16026785714286,922.3,351.25401785714286,366.16026785714286,1022.6,351.25401785714286,366.16026785714286,1126.9,492.25401785714286,552.1602678571428,1228.2,526.2540178571428,707.1602678571428,1332.4,533.2540178571428,698.1602678571428,1436.7,607.2540178571428,636.1602678571428,1541.8,639.2540178571428,651.1602678571428,1642,648.2540178571428,666.1602678571428,1742.5,648.2540178571428,666.1602678571428,1846.9,648.2540178571428,666.1602678571428,1947,648.2540178571428,666.1602678571428,2047.5,648.2540178571428,666.1602678571428,2151.4,648.2540178571428,666.1602678571428,2252.3,648.2540178571428,666.1602678571428,2358.2,648.2540178571428,666.1602678571428,2462.1,648.2540178571428,666.1602678571428,2567.4,648.2540178571428,666.1602678571428,2667.6,648.2540178571428,666.1602678571428,2771.9,648.2540178571428,666.1602678571428,2877.2,648.2540178571428,666.1602678571428,2977.7,648.2540178571428,666.1602678571428,3082.4,648.2540178571428,666.1602678571428,3187.4,648.2540178571428,666.1602678571428,3291.7,648.2540178571428,666.1602678571428,3392,648.2540178571428,666.1602678571428,3497,648.2540178571428,666.1602678571428,3602.8,648.2540178571428,666.1602678571428,3707.2,648.2540178571428,666.1602678571428,3812.3,648.2540178571428,666.1602678571428,3913.3,648.2540178571428,666.1602678571428,4017.3,648.2540178571428,666.1602678571428,4121.5,648.2540178571428,666.1602678571428,4222.2,648.2540178571428,666.1602678571428,4326.8,648.2540178571428,666.1602678571428,4427.1,648.2540178571428,666.1602678571428,4527.1,648.2540178571428,666.1602678571428,4627.6,648.2540178571428,666.1602678571428,4731.7,648.2540178571428,666.1602678571428,4832.1,648.2540178571428,666.1602678571428,4936.9]","[1406.7,1406.7,1000,0,406.7,""smooth"",""down"",""down"",""good_move"",3482.8,2075.8,1672.6,1407,403.2,""smooth"",""right"",""right"",""good_move"",7047.8,3564.6,3228.7,3483.2,335.9,""smooth"",""down"",""down"",""good_move"",10447.2,3399.3,3036.5,7047.9,362.8,""smooth"",""right"",""right"",""good_move"",13892.3,3444.9,3010.6,10447.4,434.3,""smooth"",""down"",""down"",""good_move"",17891.8,3999.3,3457.2,13892.5,542.1,""smooth"",""right"",""right"",""good_move""]","",""
"2180","","<div style=""width:500px;"">
  <p>What determined the result of this run?</p>
  </div>","95","html-slider-response","54","2457794","0.0-10.0-1.2","13","1","2025-07-02 10:18:22","80fe4187154257d5fb01684ea91b68b9","102.182.46.148","Mozilla/5.0 (Macintosh; Intel Mac OS X 10_15_7) AppleWebKit/537.36 (KHTML, like Gecko) Chrome/137.0.0.0 Safari/537.36","Macintosh","Chrome","137.0.0.0","OS X","10_15_7","https://app.prolific.com/","en-GB,en-US;q=0.9,en;q=0.8","61099a311cb3f711346d1b05","683db6dfa200031b80f2a654","68650754321820bf5ccaf70b","61099a311cb3f711346d1b05","2025-07-02T10:59:22.175Z","","","","","","AttribQ","","","","","","","","","","","","","","","","","","","","","","","","","","","","","","","","","","","","","","50"
"1506","","<div style=""width:500px;"">
  <p>How much control did you have over the ball?</p>
  </div>","92","html-slider-response","55","2459300","0.0-10.0-2.2","13","1","2025-07-02 10:18:22","80fe4187154257d5fb01684ea91b68b9","102.182.46.148","Mozilla/5.0 (Macintosh; Intel Mac OS X 10_15_7) AppleWebKit/537.36 (KHTML, like Gecko) Chrome/137.0.0.0 Safari/537.36","Macintosh","Chrome","137.0.0.0","OS X","10_15_7","https://app.prolific.com/","en-GB,en-US;q=0.9,en;q=0.8","61099a311cb3f711346d1b05","683db6dfa200031b80f2a654","68650754321820bf5ccaf70b","61099a311cb3f711346d1b05","2025-07-02T10:59:23.681Z","","","","","","ControlQ","","","","","","","","","","","","","","","","","","","","","","","","","","","","","","","","","","","","","","50"
"2508","","<div style=""width:500px;"">
  <p>How would you describe your current emotional state?</p>
  </div>","42","html-slider-response","56","2461808","0.0-10.0-3.2","13","1","2025-07-02 10:18:22","80fe4187154257d5fb01684ea91b68b9","102.182.46.148","Mozilla/5.0 (Macintosh; Intel Mac OS X 10_15_7) AppleWebKit/537.36 (KHTML, like Gecko) Chrome/137.0.0.0 Safari/537.36","Macintosh","Chrome","137.0.0.0","OS X","10_15_7","https://app.prolific.com/","en-GB,en-US;q=0.9,en;q=0.8","61099a311cb3f711346d1b05","683db6dfa200031b80f2a654","68650754321820bf5ccaf70b","61099a311cb3f711346d1b05","2025-07-02T10:59:26.189Z","","","","","","StressQ","","","","","","","","","","","","","","","","","","","","","","","","","","","","","","","","","","","","","","50"
"1426","","<div style=""width:500px;"">
  <p>What best describes how you currently feel?</p>
  </div>","30","html-slider-response","57","2463235","0.0-10.0-4.2","13","1","2025-07-02 10:18:22","80fe4187154257d5fb01684ea91b68b9","102.182.46.148","Mozilla/5.0 (Macintosh; Intel Mac OS X 10_15_7) AppleWebKit/537.36 (KHTML, like Gecko) Chrome/137.0.0.0 Safari/537.36","Macintosh","Chrome","137.0.0.0","OS X","10_15_7","https://app.prolific.com/","en-GB,en-US;q=0.9,en;q=0.8","61099a311cb3f711346d1b05","683db6dfa200031b80f2a654","68650754321820bf5ccaf70b","61099a311cb3f711346d1b05","2025-07-02T10:59:27.616Z","","","","","","MotivationQ","","","","","","","","","","","","","","","","","","","","","","","","","","","","","","","","","","","","","","50"
"","","","","ctl-task-cpt","58","2507723","0.0-10.0-0.3","13","1","2025-07-02 10:18:22","80fe4187154257d5fb01684ea91b68b9","102.182.46.148","Mozilla/5.0 (Macintosh; Intel Mac OS X 10_15_7) AppleWebKit/537.36 (KHTML, like Gecko) Chrome/137.0.0.0 Safari/537.36","Macintosh","Chrome","137.0.0.0","OS X","10_15_7","https://app.prolific.com/","en-GB,en-US;q=0.9,en;q=0.8","61099a311cb3f711346d1b05","683db6dfa200031b80f2a654","68650754321820bf5ccaf70b","61099a311cb3f711346d1b05","2025-07-02T11:00:12.104Z","","","","","","","","","","","","","","","","win-only","1","g1:NE,g2:SW","0.7","4","0","2466288.3","14124","19126.1","41480.8","1","4","8","6","2","-8","-8","0","4","0","1013.2","3000","-3005","[""down"",""left""]","{""num_key_presses"":5,""num_perfect"":3,""num_errors"":0,""num_randdir"":2,""num_randdir_good_moves"":0,""num_whilered"":0,""num_whileblue"":0,""num_blue"":2,""num_good_moves"":3}","[350.25401785714286,361.16026785714286,0.2,350.25401785714286,361.16026785714286,102.3,350.25401785714286,361.16026785714286,206.3,350.25401785714286,361.16026785714286,307.1,350.25401785714286,361.16026785714286,411.6,350.25401785714286,361.16026785714286,512.5,229.25401785714286,506.16026785714286,617,86.25401785714286,715.1602678571428,722,78.25401785714286,725.1602678571428,822,76.25401785714286,720.1602678571428,927.7,69.25401785714286,711.1602678571428,1031.5,69.25401785714286,711.1602678571428,1132.3,69.25401785714286,711.1602678571428,1232.6,69.25401785714286,711.1602678571428,1337.1,69.25401785714286,711.1602678571428,1442.5,69.25401785714286,711.1602678571428,1546.8,69.25401785714286,711.1602678571428,1646.9,69.25401785714286,711.1602678571428,1752.4,69.25401785714286,711.1602678571428,1856.6,69.25401785714286,711.1602678571428,1957,69.25401785714286,711.1602678571428,2062.3,69.25401785714286,711.1602678571428,2166.9,69.25401785714286,711.1602678571428,2272.2,69.25401785714286,711.1602678571428,2376.7,69.25401785714286,711.1602678571428,2476.9,69.25401785714286,711.1602678571428,2582.3,69.25401785714286,711.1602678571428,2686.7,69.25401785714286,711.1602678571428,2787.1,69.25401785714286,711.1602678571428,2887.2,69.25401785714286,711.1602678571428,2991.4,69.25401785714286,711.1602678571428,3096.7,69.25401785714286,711.1602678571428,3197.7,69.25401785714286,711.1602678571428,3302.3,69.25401785714286,711.1602678571428,3402.4,69.25401785714286,711.1602678571428,3506.6,69.25401785714286,711.1602678571428,3611.9,69.25401785714286,711.1602678571428,3712.2,69.25401785714286,711.1602678571428,3817.4,69.25401785714286,711.1602678571428,3921.1,69.25401785714286,711.1602678571428,4022.3,69.25401785714286,711.1602678571428,4122.5,69.25401785714286,711.1602678571428,4226.9,69.25401785714286,711.1602678571428,4332,69.25401785714286,711.1602678571428,4437.7,69.25401785714286,711.1602678571428,4542,69.25401785714286,711.1602678571428,4642.4,69.25401785714286,711.1602678571428,4746.5,69.25401785714286,711.1602678571428,4846.7,69.25401785714286,711.1602678571428,4946.7]","[1707.4,1707.4,1000,0,707.4,""oops"",""down"",""right"",""bad_move"",4194.5,2486.6,1885.9,1707.9,600.7,""oops"",""down"",""up"",""bad_move"",6929.3,2734.6,2224,4194.7,510.6,""smooth"",""down"",""down"",""good_move"",9676.8,2747.3,2335.4,6929.5,411.9,""smooth"",""down"",""down"",""good_move"",16504.1,6827.1,2348.2,13729,426.9,""smooth"",""left"",""left"",""good_move""]","",""
"4662","","<div style=""width:500px;"">
  <p>What determined the result of this run?</p>
  </div>","18","html-slider-response","59","2512386","0.0-10.0-1.3","13","1","2025-07-02 10:18:22","80fe4187154257d5fb01684ea91b68b9","102.182.46.148","Mozilla/5.0 (Macintosh; Intel Mac OS X 10_15_7) AppleWebKit/537.36 (KHTML, like Gecko) Chrome/137.0.0.0 Safari/537.36","Macintosh","Chrome","137.0.0.0","OS X","10_15_7","https://app.prolific.com/","en-GB,en-US;q=0.9,en;q=0.8","61099a311cb3f711346d1b05","683db6dfa200031b80f2a654","68650754321820bf5ccaf70b","61099a311cb3f711346d1b05","2025-07-02T11:00:16.767Z","","","","","","AttribQ","","","","","","","","","","","","","","","","","","","","","","","","","","","","","","","","","","","","","","50"
"2399","","<div style=""width:500px;"">
  <p>How much control did you have over the ball?</p>
  </div>","13","html-slider-response","60","2514786","0.0-10.0-2.3","13","1","2025-07-02 10:18:22","80fe4187154257d5fb01684ea91b68b9","102.182.46.148","Mozilla/5.0 (Macintosh; Intel Mac OS X 10_15_7) AppleWebKit/537.36 (KHTML, like Gecko) Chrome/137.0.0.0 Safari/537.36","Macintosh","Chrome","137.0.0.0","OS X","10_15_7","https://app.prolific.com/","en-GB,en-US;q=0.9,en;q=0.8","61099a311cb3f711346d1b05","683db6dfa200031b80f2a654","68650754321820bf5ccaf70b","61099a311cb3f711346d1b05","2025-07-02T11:00:19.167Z","","","","","","ControlQ","","","","","","","","","","","","","","","","","","","","","","","","","","","","","","","","","","","","","","50"
"2321","","<div style=""width:500px;"">
  <p>How would you describe your current emotional state?</p>
  </div>","57","html-slider-response","61","2517107","0.0-10.0-3.3","13","1","2025-07-02 10:18:22","80fe4187154257d5fb01684ea91b68b9","102.182.46.148","Mozilla/5.0 (Macintosh; Intel Mac OS X 10_15_7) AppleWebKit/537.36 (KHTML, like Gecko) Chrome/137.0.0.0 Safari/537.36","Macintosh","Chrome","137.0.0.0","OS X","10_15_7","https://app.prolific.com/","en-GB,en-US;q=0.9,en;q=0.8","61099a311cb3f711346d1b05","683db6dfa200031b80f2a654","68650754321820bf5ccaf70b","61099a311cb3f711346d1b05","2025-07-02T11:00:21.489Z","","","","","","StressQ","","","","","","","","","","","","","","","","","","","","","","","","","","","","","","","","","","","","","","50"
"2199","","<div style=""width:500px;"">
  <p>What best describes how you currently feel?</p>
  </div>","38","html-slider-response","62","2519307","0.0-10.0-4.3","13","1","2025-07-02 10:18:22","80fe4187154257d5fb01684ea91b68b9","102.182.46.148","Mozilla/5.0 (Macintosh; Intel Mac OS X 10_15_7) AppleWebKit/537.36 (KHTML, like Gecko) Chrome/137.0.0.0 Safari/537.36","Macintosh","Chrome","137.0.0.0","OS X","10_15_7","https://app.prolific.com/","en-GB,en-US;q=0.9,en;q=0.8","61099a311cb3f711346d1b05","683db6dfa200031b80f2a654","68650754321820bf5ccaf70b","61099a311cb3f711346d1b05","2025-07-02T11:00:23.689Z","","","","","","MotivationQ","","","","","","","","","","","","","","","","","","","","","","","","","","","","","","","","","","","","","","50"
"","","","","ctl-task-cpt","63","2543845","0.0-10.0-0.4","13","1","2025-07-02 10:18:22","80fe4187154257d5fb01684ea91b68b9","102.182.46.148","Mozilla/5.0 (Macintosh; Intel Mac OS X 10_15_7) AppleWebKit/537.36 (KHTML, like Gecko) Chrome/137.0.0.0 Safari/537.36","Macintosh","Chrome","137.0.0.0","OS X","10_15_7","https://app.prolific.com/","en-GB,en-US;q=0.9,en;q=0.8","61099a311cb3f711346d1b05","683db6dfa200031b80f2a654","68650754321820bf5ccaf70b","61099a311cb3f711346d1b05","2025-07-02T11:00:48.226Z","","","","","","","","","","","","","","","","win-only","0","g1:NW,g2:SE","0.6","5","0","2522362.8","904.9","5906.1","21526.2","1","4","8","6","2","8","8","8","0","0.06060606060606061","1507.4","3000","850","[""down"",""right""]","{""num_key_presses"":6,""num_perfect"":4,""num_errors"":0,""num_randdir"":2,""num_randdir_good_moves"":2,""num_whilered"":0,""num_whileblue"":0,""num_blue"":0,""num_good_moves"":6}","[364.25401785714286,363.16026785714286,0.2,364.25401785714286,363.16026785714286,100.8,364.25401785714286,363.16026785714286,201,364.25401785714286,363.16026785714286,301,364.25401785714286,363.16026785714286,405.4,364.25401785714286,363.16026785714286,505.8,364.25401785714286,363.16026785714286,606.2,364.25401785714286,363.16026785714286,706.5,364.25401785714286,363.16026785714286,806.5,364.25401785714286,363.16026785714286,906.5,391.25401785714286,365.16026785714286,1010.4,549.2540178571428,632.1602678571428,1111.3,569.2540178571428,670.1602678571428,1211.4,604.2540178571428,685.1602678571428,1315.8,655.2540178571428,676.1602678571428,1416.3,677.2540178571428,676.1602678571428,1520.6,677.2540178571428,676.1602678571428,1620.8,677.2540178571428,676.1602678571428,1726.6,677.2540178571428,676.1602678571428,1830.8,677.2540178571428,676.1602678571428,1935.8,677.2540178571428,676.1602678571428,2036.3,677.2540178571428,676.1602678571428,2136.5,677.2540178571428,676.1602678571428,2241.2,677.2540178571428,676.1602678571428,2341.3,677.2540178571428,676.1602678571428,2446,677.2540178571428,676.1602678571428,2546.2,677.2540178571428,676.1602678571428,2646.3,677.2540178571428,676.1602678571428,2750.6,677.2540178571428,676.1602678571428,2851.4,677.2540178571428,676.1602678571428,2955.8,677.2540178571428,676.1602678571428,3056,677.2540178571428,676.1602678571428,3156.4,677.2540178571428,676.1602678571428,3260.9,677.2540178571428,676.1602678571428,3365.4,677.2540178571428,676.1602678571428,3466.2,677.2540178571428,676.1602678571428,3566.3,677.2540178571428,676.1602678571428,3671.1,677.2540178571428,676.1602678571428,3776.2,677.2540178571428,676.1602678571428,3881.3,677.2540178571428,676.1602678571428,3986.5,677.2540178571428,676.1602678571428,4090.5,677.2540178571428,676.1602678571428,4191.1,677.2540178571428,676.1602678571428,4291.2,677.2540178571428,676.1602678571428,4396.4,677.2540178571428,676.1602678571428,4501.2,677.2540178571428,676.1602678571428,4601.7,677.2540178571428,676.1602678571428,4706.1,677.2540178571428,676.1602678571428,4806.3,677.2540178571428,676.1602678571428,4911.1]","[1406.5,1406.5,1000,0,406.5,""oops"",""down"",""down"",""good_move"",3906.7,2500,2045.3,1406.7,454.7,""oops"",""right"",""right"",""good_move"",7111.4,3204.6,2843.3,3906.8,361.3,""smooth"",""down"",""down"",""good_move"",10279.3,3167.7,2850,7111.6,317.7,""smooth"",""right"",""right"",""good_move"",12849.8,2570.5,2227.7,10279.4,342.8,""smooth"",""down"",""down"",""good_move"",15532.1,2682.1,2383.9,12850,298.2,""smooth"",""right"",""right"",""good_move""]","",""
"5138","","<div style=""width:500px;"">
  <p>What determined the result of this run?</p>
  </div>","94","html-slider-response","64","2548984","0.0-10.0-1.4","13","1","2025-07-02 10:18:22","80fe4187154257d5fb01684ea91b68b9","102.182.46.148","Mozilla/5.0 (Macintosh; Intel Mac OS X 10_15_7) AppleWebKit/537.36 (KHTML, like Gecko) Chrome/137.0.0.0 Safari/537.36","Macintosh","Chrome","137.0.0.0","OS X","10_15_7","https://app.prolific.com/","en-GB,en-US;q=0.9,en;q=0.8","61099a311cb3f711346d1b05","683db6dfa200031b80f2a654","68650754321820bf5ccaf70b","61099a311cb3f711346d1b05","2025-07-02T11:00:53.365Z","","","","","","AttribQ","","","","","","","","","","","","","","","","","","","","","","","","","","","","","","","","","","","","","","50"
"2214","","<div style=""width:500px;"">
  <p>How much control did you have over the ball?</p>
  </div>","93","html-slider-response","65","2551199","0.0-10.0-2.4","13","1","2025-07-02 10:18:22","80fe4187154257d5fb01684ea91b68b9","102.182.46.148","Mozilla/5.0 (Macintosh; Intel Mac OS X 10_15_7) AppleWebKit/537.36 (KHTML, like Gecko) Chrome/137.0.0.0 Safari/537.36","Macintosh","Chrome","137.0.0.0","OS X","10_15_7","https://app.prolific.com/","en-GB,en-US;q=0.9,en;q=0.8","61099a311cb3f711346d1b05","683db6dfa200031b80f2a654","68650754321820bf5ccaf70b","61099a311cb3f711346d1b05","2025-07-02T11:00:55.580Z","","","","","","ControlQ","","","","","","","","","","","","","","","","","","","","","","","","","","","","","","","","","","","","","","50"
"1666","","<div style=""width:500px;"">
  <p>How would you describe your current emotional state?</p>
  </div>","41","html-slider-response","66","2552866","0.0-10.0-3.4","13","1","2025-07-02 10:18:22","80fe4187154257d5fb01684ea91b68b9","102.182.46.148","Mozilla/5.0 (Macintosh; Intel Mac OS X 10_15_7) AppleWebKit/537.36 (KHTML, like Gecko) Chrome/137.0.0.0 Safari/537.36","Macintosh","Chrome","137.0.0.0","OS X","10_15_7","https://app.prolific.com/","en-GB,en-US;q=0.9,en;q=0.8","61099a311cb3f711346d1b05","683db6dfa200031b80f2a654","68650754321820bf5ccaf70b","61099a311cb3f711346d1b05","2025-07-02T11:00:57.247Z","","","","","","StressQ","","","","","","","","","","","","","","","","","","","","","","","","","","","","","","","","","","","","","","50"
"1693","","<div style=""width:500px;"">
  <p>What best describes how you currently feel?</p>
  </div>","42","html-slider-response","67","2554559","0.0-10.0-4.4","13","1","2025-07-02 10:18:22","80fe4187154257d5fb01684ea91b68b9","102.182.46.148","Mozilla/5.0 (Macintosh; Intel Mac OS X 10_15_7) AppleWebKit/537.36 (KHTML, like Gecko) Chrome/137.0.0.0 Safari/537.36","Macintosh","Chrome","137.0.0.0","OS X","10_15_7","https://app.prolific.com/","en-GB,en-US;q=0.9,en;q=0.8","61099a311cb3f711346d1b05","683db6dfa200031b80f2a654","68650754321820bf5ccaf70b","61099a311cb3f711346d1b05","2025-07-02T11:00:58.941Z","","","","","","MotivationQ","","","","","","","","","","","","","","","","","","","","","","","","","","","","","","","","","","","","","","50"
"","","","","ctl-task-cpt","68","2588107","0.0-10.0-0.5","13","1","2025-07-02 10:18:22","80fe4187154257d5fb01684ea91b68b9","102.182.46.148","Mozilla/5.0 (Macintosh; Intel Mac OS X 10_15_7) AppleWebKit/537.36 (KHTML, like Gecko) Chrome/137.0.0.0 Safari/537.36","Macintosh","Chrome","137.0.0.0","OS X","10_15_7","https://app.prolific.com/","en-GB,en-US;q=0.9,en;q=0.8","61099a311cb3f711346d1b05","683db6dfa200031b80f2a654","68650754321820bf5ccaf70b","61099a311cb3f711346d1b05","2025-07-02T11:01:32.488Z","","","","","","","","","","","","","","","","win-only","3","g1:SW,g2:NE","0.5","6","0","2557615.7","852.7","5856","30540.6","1","4","4","6","2","4","4","12","8","0.09090909090909091","1574.2","3000","125","[""up"",""right""]","{""num_key_presses"":8,""num_perfect"":5,""num_errors"":0,""num_randdir"":3,""num_randdir_good_moves"":2,""num_whilered"":0,""num_whileblue"":0,""num_blue"":1,""num_good_moves"":7}","[366.25401785714286,356.16026785714286,0.2,366.25401785714286,356.16026785714286,102.7,366.25401785714286,356.16026785714286,203.1,366.25401785714286,356.16026785714286,303.2,366.25401785714286,356.16026785714286,408.3,377.25401785714286,354.16026785714286,512.6,443.25401785714286,366.16026785714286,612.7,408.25401785714286,388.16026785714286,713,406.25401785714286,371.16026785714286,817.5,424.25401785714286,341.16026785714286,918.1,747.2540178571428,117.16026785714286,1023.1,740.2540178571428,102.16026785714286,1128.6,700.2540178571428,101.16026785714286,1233.5,684.2540178571428,101.16026785714286,1338.1,684.2540178571428,101.16026785714286,1438.2,681.2540178571428,88.16026785714286,1543.3,680.2540178571428,86.16026785714286,1647.7,680.2540178571428,86.16026785714286,1748,680.2540178571428,86.16026785714286,1853.5,680.2540178571428,86.16026785714286,1953.5,680.2540178571428,86.16026785714286,2057.5,680.2540178571428,86.16026785714286,2157.7,680.2540178571428,86.16026785714286,2258.5,680.2540178571428,86.16026785714286,2363.3,680.2540178571428,86.16026785714286,2467.8,680.2540178571428,86.16026785714286,2567.8,680.2540178571428,86.16026785714286,2672.5,680.2540178571428,86.16026785714286,2773.3,680.2540178571428,86.16026785714286,2878.2,680.2540178571428,86.16026785714286,2982.4,680.2540178571428,86.16026785714286,3083,680.2540178571428,86.16026785714286,3183.1,680.2540178571428,86.16026785714286,3283.4,680.2540178571428,86.16026785714286,3387.6,680.2540178571428,86.16026785714286,3487.9,680.2540178571428,86.16026785714286,3587.9,680.2540178571428,86.16026785714286,3688.1,680.2540178571428,86.16026785714286,3792.9,680.2540178571428,86.16026785714286,3893.2,680.2540178571428,86.16026785714286,3993.2,680.2540178571428,86.16026785714286,4097.6,680.2540178571428,86.16026785714286,4198.1,680.2540178571428,86.16026785714286,4303.1,680.2540178571428,86.16026785714286,4403.1,680.2540178571428,86.16026785714286,4507.6,680.2540178571428,86.16026785714286,4608.3,680.2540178571428,86.16026785714286,4708.5,680.2540178571428,86.16026785714286,4813.5,680.2540178571428,86.16026785714286,4914.8]","[5401.8,5401.8,3034,2005.1,362.7,""smooth"",""up"",""up"",""good_move"",8416.9,3014.9,2629.5,5402,385.4,""smooth"",""right"",""right"",""good_move"",10727.9,2310.8,1907.5,8417.1,403.3,""smooth"",""up"",""up"",""good_move"",13796.6,3068.5,2692.9,10728.1,375.6,""oops"",""right"",""left"",""bad_move"",16931.8,3134.9,2701,13796.9,433.9,""oops"",""up"",""up"",""good_move"",20266.6,3334.7,3048.3,16931.9,286.4,""oops"",""right"",""right"",""good_move"",22270,2003.1,1623.3,20266.9,379.8,""smooth"",""right"",""right"",""good_move"",24596.4,2326.2,2035.8,22270.2,290.4,""smooth"",""right"",""right"",""good_move""]","",""
"2971","","<div style=""width:500px;"">
  <p>What determined the result of this run?</p>
  </div>","89","html-slider-response","69","2591079","0.0-10.0-1.5","13","1","2025-07-02 10:18:22","80fe4187154257d5fb01684ea91b68b9","102.182.46.148","Mozilla/5.0 (Macintosh; Intel Mac OS X 10_15_7) AppleWebKit/537.36 (KHTML, like Gecko) Chrome/137.0.0.0 Safari/537.36","Macintosh","Chrome","137.0.0.0","OS X","10_15_7","https://app.prolific.com/","en-GB,en-US;q=0.9,en;q=0.8","61099a311cb3f711346d1b05","683db6dfa200031b80f2a654","68650754321820bf5ccaf70b","61099a311cb3f711346d1b05","2025-07-02T11:01:35.460Z","","","","","","AttribQ","","","","","","","","","","","","","","","","","","","","","","","","","","","","","","","","","","","","","","50"
"2468","","<div style=""width:500px;"">
  <p>How much control did you have over the ball?</p>
  </div>","42","html-slider-response","70","2593547","0.0-10.0-2.5","13","1","2025-07-02 10:18:22","80fe4187154257d5fb01684ea91b68b9","102.182.46.148","Mozilla/5.0 (Macintosh; Intel Mac OS X 10_15_7) AppleWebKit/537.36 (KHTML, like Gecko) Chrome/137.0.0.0 Safari/537.36","Macintosh","Chrome","137.0.0.0","OS X","10_15_7","https://app.prolific.com/","en-GB,en-US;q=0.9,en;q=0.8","61099a311cb3f711346d1b05","683db6dfa200031b80f2a654","68650754321820bf5ccaf70b","61099a311cb3f711346d1b05","2025-07-02T11:01:37.928Z","","","","","","ControlQ","","","","","","","","","","","","","","","","","","","","","","","","","","","","","","","","","","","","","","50"
"3107","","<div style=""width:500px;"">
  <p>How would you describe your current emotional state?</p>
  </div>","62","html-slider-response","71","2596654","0.0-10.0-3.5","13","1","2025-07-02 10:18:22","80fe4187154257d5fb01684ea91b68b9","102.182.46.148","Mozilla/5.0 (Macintosh; Intel Mac OS X 10_15_7) AppleWebKit/537.36 (KHTML, like Gecko) Chrome/137.0.0.0 Safari/537.36","Macintosh","Chrome","137.0.0.0","OS X","10_15_7","https://app.prolific.com/","en-GB,en-US;q=0.9,en;q=0.8","61099a311cb3f711346d1b05","683db6dfa200031b80f2a654","68650754321820bf5ccaf70b","61099a311cb3f711346d1b05","2025-07-02T11:01:41.035Z","","","","","","StressQ","","","","","","","","","","","","","","","","","","","","","","","","","","","","","","","","","","","","","","50"
"2333","","<div style=""width:500px;"">
  <p>What best describes how you currently feel?</p>
  </div>","33","html-slider-response","72","2598988","0.0-10.0-4.5","13","1","2025-07-02 10:18:22","80fe4187154257d5fb01684ea91b68b9","102.182.46.148","Mozilla/5.0 (Macintosh; Intel Mac OS X 10_15_7) AppleWebKit/537.36 (KHTML, like Gecko) Chrome/137.0.0.0 Safari/537.36","Macintosh","Chrome","137.0.0.0","OS X","10_15_7","https://app.prolific.com/","en-GB,en-US;q=0.9,en;q=0.8","61099a311cb3f711346d1b05","683db6dfa200031b80f2a654","68650754321820bf5ccaf70b","61099a311cb3f711346d1b05","2025-07-02T11:01:43.369Z","","","","","","MotivationQ","","","","","","","","","","","","","","","","","","","","","","","","","","","","","","","","","","","","","","50"
"","","","","ctl-task-cpt","73","2641507","0.0-10.0-0.6","13","1","2025-07-02 10:18:22","80fe4187154257d5fb01684ea91b68b9","102.182.46.148","Mozilla/5.0 (Macintosh; Intel Mac OS X 10_15_7) AppleWebKit/537.36 (KHTML, like Gecko) Chrome/137.0.0.0 Safari/537.36","Macintosh","Chrome","137.0.0.0","OS X","10_15_7","https://app.prolific.com/","en-GB,en-US;q=0.9,en;q=0.8","61099a311cb3f711346d1b05","683db6dfa200031b80f2a654","68650754321820bf5ccaf70b","61099a311cb3f711346d1b05","2025-07-02T11:02:25.888Z","","","","","","","","","","","","","","","","win-only","1","g1:NE,g2:SW","0.4","7","0","2602045.7","879","5881.3","39510.9","1","4","4","6","2","-4","-6","6","12","0.045454545454545456","1495.8","3000","-2990","[""down"",""left""]","{""num_key_presses"":8,""num_perfect"":3,""num_errors"":2,""num_randdir"":3,""num_randdir_good_moves"":0,""num_whilered"":0,""num_whileblue"":0,""num_blue"":2,""num_good_moves"":3}","[364.25401785714286,361.16026785714286,0.2,364.25401785714286,361.16026785714286,101.2,364.25401785714286,361.16026785714286,202.2,364.25401785714286,361.16026785714286,306.7,364.25401785714286,361.16026785714286,411.3,364.25401785714286,361.16026785714286,511.3,364.25401785714286,361.16026785714286,611.4,364.25401785714286,361.16026785714286,711.6,364.25401785714286,361.16026785714286,811.7,364.25401785714286,362.16026785714286,916.2,129.25401785714286,489.16026785714286,1017.1,55.254017857142856,518.1602678571428,1122.2,51.254017857142856,538.1602678571428,1227.2,43.254017857142856,629.1602678571428,1331.9,48.254017857142856,642.1602678571428,1432.6,48.254017857142856,643.1602678571428,1536.1,48.254017857142856,643.1602678571428,1636.7,48.254017857142856,643.1602678571428,1742.2,48.254017857142856,643.1602678571428,1846.5,207.25401785714286,598.1602678571428,1951.6,451.25401785714286,575.1602678571428,2051.7,464.25401785714286,569.1602678571428,2156.4,464.25401785714286,569.1602678571428,2256.8,464.25401785714286,569.1602678571428,2356.8,464.25401785714286,569.1602678571428,2457.3,464.25401785714286,569.1602678571428,2561.7,464.25401785714286,569.1602678571428,2662.1,464.25401785714286,569.1602678571428,2766.8,464.25401785714286,569.1602678571428,2871.5,464.25401785714286,569.1602678571428,2976.4,464.25401785714286,569.1602678571428,3076.4,464.25401785714286,569.1602678571428,3181.4,464.25401785714286,569.1602678571428,3282.2,464.25401785714286,569.1602678571428,3386.6,464.25401785714286,569.1602678571428,3491.7,464.25401785714286,569.1602678571428,3596.7,464.25401785714286,569.1602678571428,3696.8,464.25401785714286,569.1602678571428,3801.7,464.25401785714286,569.1602678571428,3906.6,464.25401785714286,569.1602678571428,4007,464.25401785714286,569.1602678571428,4111.4,464.25401785714286,569.1602678571428,4211.8,464.25401785714286,569.1602678571428,4316.9,464.25401785714286,569.1602678571428,4422,464.25401785714286,569.1602678571428,4526.2,464.25401785714286,569.1602678571428,4627.3,464.25401785714286,569.1602678571428,4731.6,464.25401785714286,569.1602678571428,4837,464.25401785714286,569.1602678571428,4941.9]","[381.8,381.8,1000,0,-618.2,""error"",""-"",""-"",""no_move"",3982.4,3600.4,2214.4,1383.9,384.1,""smooth"",""down"",""down"",""good_move"",7011.7,3029,2644.8,3982.7,384.2,""smooth"",""left"",""left"",""good_move"",13115.9,6104,2827.3,9949.8,338.8,""oops"",""down"",""right"",""bad_move"",16474.6,3358.4,2999.9,13116.2,358.5,""oops"",""down"",""right"",""bad_move"",23120,6645.3,2560.9,20219,340.1,""oops"",""down"",""right"",""bad_move"",26642,3521.7,2602.1,23120.3,919.6,""smooth"",""down"",""down"",""good_move"",29271,2628.7,2840.6,26642.3,-211.9,""error"",""-"",""-"",""no_move""]","",""
"3202","","<div style=""width:500px;"">
  <p>What determined the result of this run?</p>
  </div>","5","html-slider-response","74","2644710","0.0-10.0-1.6","13","1","2025-07-02 10:18:22","80fe4187154257d5fb01684ea91b68b9","102.182.46.148","Mozilla/5.0 (Macintosh; Intel Mac OS X 10_15_7) AppleWebKit/537.36 (KHTML, like Gecko) Chrome/137.0.0.0 Safari/537.36","Macintosh","Chrome","137.0.0.0","OS X","10_15_7","https://app.prolific.com/","en-GB,en-US;q=0.9,en;q=0.8","61099a311cb3f711346d1b05","683db6dfa200031b80f2a654","68650754321820bf5ccaf70b","61099a311cb3f711346d1b05","2025-07-02T11:02:29.091Z","","","","","","AttribQ","","","","","","","","","","","","","","","","","","","","","","","","","","","","","","","","","","","","","","50"
"2294","","<div style=""width:500px;"">
  <p>How much control did you have over the ball?</p>
  </div>","2","html-slider-response","75","2647004","0.0-10.0-2.6","13","1","2025-07-02 10:18:22","80fe4187154257d5fb01684ea91b68b9","102.182.46.148","Mozilla/5.0 (Macintosh; Intel Mac OS X 10_15_7) AppleWebKit/537.36 (KHTML, like Gecko) Chrome/137.0.0.0 Safari/537.36","Macintosh","Chrome","137.0.0.0","OS X","10_15_7","https://app.prolific.com/","en-GB,en-US;q=0.9,en;q=0.8","61099a311cb3f711346d1b05","683db6dfa200031b80f2a654","68650754321820bf5ccaf70b","61099a311cb3f711346d1b05","2025-07-02T11:02:31.385Z","","","","","","ControlQ","","","","","","","","","","","","","","","","","","","","","","","","","","","","","","","","","","","","","","50"
"1840","","<div style=""width:500px;"">
  <p>How would you describe your current emotional state?</p>
  </div>","94","html-slider-response","76","2648845","0.0-10.0-3.6","13","1","2025-07-02 10:18:22","80fe4187154257d5fb01684ea91b68b9","102.182.46.148","Mozilla/5.0 (Macintosh; Intel Mac OS X 10_15_7) AppleWebKit/537.36 (KHTML, like Gecko) Chrome/137.0.0.0 Safari/537.36","Macintosh","Chrome","137.0.0.0","OS X","10_15_7","https://app.prolific.com/","en-GB,en-US;q=0.9,en;q=0.8","61099a311cb3f711346d1b05","683db6dfa200031b80f2a654","68650754321820bf5ccaf70b","61099a311cb3f711346d1b05","2025-07-02T11:02:33.226Z","","","","","","StressQ","","","","","","","","","","","","","","","","","","","","","","","","","","","","","","","","","","","","","","50"
"1814","","<div style=""width:500px;"">
  <p>What best describes how you currently feel?</p>
  </div>","26","html-slider-response","77","2650659","0.0-10.0-4.6","13","1","2025-07-02 10:18:22","80fe4187154257d5fb01684ea91b68b9","102.182.46.148","Mozilla/5.0 (Macintosh; Intel Mac OS X 10_15_7) AppleWebKit/537.36 (KHTML, like Gecko) Chrome/137.0.0.0 Safari/537.36","Macintosh","Chrome","137.0.0.0","OS X","10_15_7","https://app.prolific.com/","en-GB,en-US;q=0.9,en;q=0.8","61099a311cb3f711346d1b05","683db6dfa200031b80f2a654","68650754321820bf5ccaf70b","61099a311cb3f711346d1b05","2025-07-02T11:02:35.040Z","","","","","","MotivationQ","","","","","","","","","","","","","","","","","","","","","","","","","","","","","","","","","","","","","","50"
"","","","","ctl-task-cpt","78","2684147","0.0-10.0-0.7","13","1","2025-07-02 10:18:22","80fe4187154257d5fb01684ea91b68b9","102.182.46.148","Mozilla/5.0 (Macintosh; Intel Mac OS X 10_15_7) AppleWebKit/537.36 (KHTML, like Gecko) Chrome/137.0.0.0 Safari/537.36","Macintosh","Chrome","137.0.0.0","OS X","10_15_7","https://app.prolific.com/","en-GB,en-US;q=0.9,en;q=0.8","61099a311cb3f711346d1b05","683db6dfa200031b80f2a654","68650754321820bf5ccaf70b","61099a311cb3f711346d1b05","2025-07-02T11:03:08.528Z","","","","","","","","","","","","","","","","win-only","2","g1:SE,g2:NW","0.3","8","0","2653718.8","865.8","5871.1","30480.4","1","4","8","6","2","-8","-9","0","6","0","1293.7","3000","-3000","[""left"",""up""]","{""num_key_presses"":8,""num_perfect"":3,""num_errors"":1,""num_randdir"":4,""num_randdir_good_moves"":2,""num_whilered"":0,""num_whileblue"":1,""num_blue"":1,""num_good_moves"":5}","[365.25401785714286,359.16026785714286,0.1,365.25401785714286,359.16026785714286,105.1,365.25401785714286,358.16026785714286,210.3,365.25401785714286,358.16026785714286,315.1,365.25401785714286,358.16026785714286,419.6,365.25401785714286,358.16026785714286,519.8,365.25401785714286,358.16026785714286,620.3,365.25401785714286,358.16026785714286,720.3,365.25401785714286,358.16026785714286,824.9,200.25401785714286,134.16026785714286,930.2,115.25401785714286,60.160267857142856,1030.6,92.25401785714286,49.160267857142856,1134.9,73.25401785714286,64.16026785714286,1235.1,65.25401785714286,70.16026785714286,1340.3,65.25401785714286,70.16026785714286,1444.4,65.25401785714286,70.16026785714286,1545.3,65.25401785714286,70.16026785714286,1649.8,65.25401785714286,70.16026785714286,1749.8,65.25401785714286,70.16026785714286,1855.5,65.25401785714286,70.16026785714286,1959.6,65.25401785714286,70.16026785714286,2065.3,65.25401785714286,70.16026785714286,2170.2,65.25401785714286,70.16026785714286,2275.3,65.25401785714286,70.16026785714286,2379.8,65.25401785714286,70.16026785714286,2484.6,65.25401785714286,70.16026785714286,2584.6,65.25401785714286,70.16026785714286,2684.8,65.25401785714286,70.16026785714286,2785.1,65.25401785714286,70.16026785714286,2890.3,65.25401785714286,70.16026785714286,2995.2,65.25401785714286,70.16026785714286,3101.2,65.25401785714286,70.16026785714286,3204.5,65.25401785714286,70.16026785714286,3305.1,65.25401785714286,70.16026785714286,3409.5,65.25401785714286,70.16026785714286,3514.4,65.25401785714286,70.16026785714286,3614.8,65.25401785714286,70.16026785714286,3719.9,65.25401785714286,70.16026785714286,3825.4,65.25401785714286,70.16026785714286,3930.3,65.25401785714286,70.16026785714286,4034.3,65.25401785714286,70.16026785714286,4135.4,65.25401785714286,70.16026785714286,4240.3,65.25401785714286,70.16026785714286,4344.9,65.25401785714286,70.16026785714286,4450.3,65.25401785714286,70.16026785714286,4555.2,65.25401785714286,70.16026785714286,4660.3,65.25401785714286,70.16026785714286,4764.9,65.25401785714286,70.16026785714286,4864.9,65.25401785714286,70.16026785714286,4964.9]","[1674.1,1674.1,1000,0,674.1,""oops"",""up"",""down"",""bad_move"",5358.2,3683.9,3224.8,1674.3,459.1,""oops"",""left"",""down"",""bad_move"",8298.6,2940.4,2588.3,5358.3,352.1,""oops"",""left"",""up"",""good_move"",11041.2,2742.4,2403.9,8298.8,338.5,""smooth"",""left"",""left"",""good_move"",13700.8,2659.5,2353.5,11041.3,306,""smooth"",""left"",""left"",""good_move"",16196.2,2495.2,2200.6,13701,294.6,""oops"",""left"",""left"",""good_move"",18527.5,2331.1,2013.3,16196.4,317.8,""while_blue"",""up"",""down"",""bad_move"",21960.9,3433,3084.5,18527.9,348.5,""smooth"",""up"",""up"",""good_move""]","",""
"1766","","<div style=""width:500px;"">
  <p>What determined the result of this run?</p>
  </div>","5","html-slider-response","79","2685913","0.0-10.0-1.7","13","1","2025-07-02 10:18:22","80fe4187154257d5fb01684ea91b68b9","102.182.46.148","Mozilla/5.0 (Macintosh; Intel Mac OS X 10_15_7) AppleWebKit/537.36 (KHTML, like Gecko) Chrome/137.0.0.0 Safari/537.36","Macintosh","Chrome","137.0.0.0","OS X","10_15_7","https://app.prolific.com/","en-GB,en-US;q=0.9,en;q=0.8","61099a311cb3f711346d1b05","683db6dfa200031b80f2a654","68650754321820bf5ccaf70b","61099a311cb3f711346d1b05","2025-07-02T11:03:10.295Z","","","","","","AttribQ","","","","","","","","","","","","","","","","","","","","","","","","","","","","","","","","","","","","","","50"
"2598","","<div style=""width:500px;"">
  <p>How much control did you have over the ball?</p>
  </div>","3","html-slider-response","80","2688512","0.0-10.0-2.7","13","1","2025-07-02 10:18:22","80fe4187154257d5fb01684ea91b68b9","102.182.46.148","Mozilla/5.0 (Macintosh; Intel Mac OS X 10_15_7) AppleWebKit/537.36 (KHTML, like Gecko) Chrome/137.0.0.0 Safari/537.36","Macintosh","Chrome","137.0.0.0","OS X","10_15_7","https://app.prolific.com/","en-GB,en-US;q=0.9,en;q=0.8","61099a311cb3f711346d1b05","683db6dfa200031b80f2a654","68650754321820bf5ccaf70b","61099a311cb3f711346d1b05","2025-07-02T11:03:12.894Z","","","","","","ControlQ","","","","","","","","","","","","","","","","","","","","","","","","","","","","","","","","","","","","","","50"
"1906","","<div style=""width:500px;"">
  <p>How would you describe your current emotional state?</p>
  </div>","91","html-slider-response","81","2690419","0.0-10.0-3.7","13","1","2025-07-02 10:18:22","80fe4187154257d5fb01684ea91b68b9","102.182.46.148","Mozilla/5.0 (Macintosh; Intel Mac OS X 10_15_7) AppleWebKit/537.36 (KHTML, like Gecko) Chrome/137.0.0.0 Safari/537.36","Macintosh","Chrome","137.0.0.0","OS X","10_15_7","https://app.prolific.com/","en-GB,en-US;q=0.9,en;q=0.8","61099a311cb3f711346d1b05","683db6dfa200031b80f2a654","68650754321820bf5ccaf70b","61099a311cb3f711346d1b05","2025-07-02T11:03:14.800Z","","","","","","StressQ","","","","","","","","","","","","","","","","","","","","","","","","","","","","","","","","","","","","","","50"
"2148","","<div style=""width:500px;"">
  <p>What best describes how you currently feel?</p>
  </div>","13","html-slider-response","82","2692568","0.0-10.0-4.7","13","1","2025-07-02 10:18:22","80fe4187154257d5fb01684ea91b68b9","102.182.46.148","Mozilla/5.0 (Macintosh; Intel Mac OS X 10_15_7) AppleWebKit/537.36 (KHTML, like Gecko) Chrome/137.0.0.0 Safari/537.36","Macintosh","Chrome","137.0.0.0","OS X","10_15_7","https://app.prolific.com/","en-GB,en-US;q=0.9,en;q=0.8","61099a311cb3f711346d1b05","683db6dfa200031b80f2a654","68650754321820bf5ccaf70b","61099a311cb3f711346d1b05","2025-07-02T11:03:16.949Z","","","","","","MotivationQ","","","","","","","","","","","","","","","","","","","","","","","","","","","","","","","","","","","","","","50"
"","","","","ctl-task-cpt","83","2730647","0.0-10.0-0.8","13","1","2025-07-02 10:18:22","80fe4187154257d5fb01684ea91b68b9","102.182.46.148","Mozilla/5.0 (Macintosh; Intel Mac OS X 10_15_7) AppleWebKit/537.36 (KHTML, like Gecko) Chrome/137.0.0.0 Safari/537.36","Macintosh","Chrome","137.0.0.0","OS X","10_15_7","https://app.prolific.com/","en-GB,en-US;q=0.9,en;q=0.8","61099a311cb3f711346d1b05","683db6dfa200031b80f2a654","68650754321820bf5ccaf70b","61099a311cb3f711346d1b05","2025-07-02T11:03:55.028Z","","","","","","","","","","","","","","","","win-only","2","g1:SE,g2:NW","0.4","9","0","2695629.2","771","5776","35071.1","1","4","4","6","2","-4","-4","0","0","0","1388","3000","-3000","[""left"",""up""]","{""num_key_presses"":7,""num_perfect"":3,""num_errors"":0,""num_randdir"":4,""num_randdir_good_moves"":2,""num_whilered"":0,""num_whileblue"":0,""num_blue"":2,""num_good_moves"":5}","[365.25401785714286,358.16026785714286,0.1,365.25401785714286,358.16026785714286,105,365.25401785714286,358.16026785714286,210,365.25401785714286,358.16026785714286,315.1,365.25401785714286,358.16026785714286,419.4,365.25401785714286,358.16026785714286,524.2,365.25401785714286,358.16026785714286,624.5,365.25401785714286,358.16026785714286,725.1,365.25401785714286,358.16026785714286,830,365.25401785714286,358.16026785714286,934.4,281.25401785714286,305.16026785714286,1039.4,86.25401785714286,125.16026785714286,1139.5,74.25401785714286,74.16026785714286,1244.5,101.25401785714286,68.16026785714286,1349.3,101.25401785714286,68.16026785714286,1449.9,101.25401785714286,68.16026785714286,1550.1,101.25401785714286,68.16026785714286,1654.7,101.25401785714286,68.16026785714286,1754.9,101.25401785714286,68.16026785714286,1854.9,101.25401785714286,68.16026785714286,1954.9,101.25401785714286,68.16026785714286,2060.1,101.25401785714286,68.16026785714286,2164.1,101.25401785714286,68.16026785714286,2265.1,101.25401785714286,68.16026785714286,2370,101.25401785714286,68.16026785714286,2474.9,101.25401785714286,68.16026785714286,2575.1,101.25401785714286,68.16026785714286,2675.8,101.25401785714286,68.16026785714286,2779.6,101.25401785714286,68.16026785714286,2884.1,101.25401785714286,68.16026785714286,2984.8,101.25401785714286,68.16026785714286,3085.2,101.25401785714286,68.16026785714286,3189.4,101.25401785714286,68.16026785714286,3290.1,101.25401785714286,68.16026785714286,3390.1,101.25401785714286,68.16026785714286,3494.5,101.25401785714286,68.16026785714286,3595,101.25401785714286,68.16026785714286,3695.1,101.25401785714286,68.16026785714286,3800,101.25401785714286,68.16026785714286,3904.9,101.25401785714286,68.16026785714286,4005.1,101.25401785714286,68.16026785714286,4110,101.25401785714286,68.16026785714286,4210,101.25401785714286,68.16026785714286,4314.8,101.25401785714286,68.16026785714286,4419.6,101.25401785714286,68.16026785714286,4524.6,101.25401785714286,68.16026785714286,4624.8,101.25401785714286,68.16026785714286,4730.1,101.25401785714286,68.16026785714286,4834.8,101.25401785714286,68.16026785714286,4936.5]","[1779.1,1779.1,1000,0,779.1,""smooth"",""up"",""up"",""good_move"",4803.2,3023.8,2594.3,1779.4,429.5,""smooth"",""left"",""left"",""good_move"",7113.8,2310.3,1984,4803.5,326.3,""smooth"",""left"",""left"",""good_move"",9896,2782.1,2472,7113.9,310.1,""oops"",""left"",""down"",""bad_move"",13452.4,3556.2,3229.9,9896.2,326.3,""oops"",""left"",""down"",""bad_move"",20118.1,6665.5,2761.4,16984.9,371.8,""oops"",""left"",""left"",""good_move"",23223.8,3105.5,2686.6,20118.3,418.9,""oops"",""up"",""up"",""good_move""]","",""
"1906","","<div style=""width:500px;"">
  <p>What determined the result of this run?</p>
  </div>","3","html-slider-response","84","2732553","0.0-10.0-1.8","13","1","2025-07-02 10:18:22","80fe4187154257d5fb01684ea91b68b9","102.182.46.148","Mozilla/5.0 (Macintosh; Intel Mac OS X 10_15_7) AppleWebKit/537.36 (KHTML, like Gecko) Chrome/137.0.0.0 Safari/537.36","Macintosh","Chrome","137.0.0.0","OS X","10_15_7","https://app.prolific.com/","en-GB,en-US;q=0.9,en;q=0.8","61099a311cb3f711346d1b05","683db6dfa200031b80f2a654","68650754321820bf5ccaf70b","61099a311cb3f711346d1b05","2025-07-02T11:03:56.934Z","","","","","","AttribQ","","","","","","","","","","","","","","","","","","","","","","","","","","","","","","","","","","","","","","50"
"1627","","<div style=""width:500px;"">
  <p>How much control did you have over the ball?</p>
  </div>","0","html-slider-response","85","2734181","0.0-10.0-2.8","13","1","2025-07-02 10:18:22","80fe4187154257d5fb01684ea91b68b9","102.182.46.148","Mozilla/5.0 (Macintosh; Intel Mac OS X 10_15_7) AppleWebKit/537.36 (KHTML, like Gecko) Chrome/137.0.0.0 Safari/537.36","Macintosh","Chrome","137.0.0.0","OS X","10_15_7","https://app.prolific.com/","en-GB,en-US;q=0.9,en;q=0.8","61099a311cb3f711346d1b05","683db6dfa200031b80f2a654","68650754321820bf5ccaf70b","61099a311cb3f711346d1b05","2025-07-02T11:03:58.562Z","","","","","","ControlQ","","","","","","","","","","","","","","","","","","","","","","","","","","","","","","","","","","","","","","50"
"2788","","<div style=""width:500px;"">
  <p>How would you describe your current emotional state?</p>
