"rt","response_timestamp","stimulus","response","trial_type","trial_index","time_elapsed","internal_node_id","run_id","condition","recorded_at","source_code_version","ip","user_agent","device","browser","browser_version","platform","platform_version","referer","accept_language","PROLIFIC_PID","STUDY_ID","SESSION_ID","prolific_id","realtime","view_history","question_order","consent","success","question_id","eventType","responses","item_order","radio_event_ids","radio_event_times","key_event_times","mouse_event_times","straightlining","zigzagging","honeypot","which_type","canvas_config","goals_layout","control_level","trial_number","tutorial_trial_number","trial_start_time","phase1_start_time","phase2_start_time","phase3_start_time","goal_1_value","goal_1_distance","goal_2_value","goal_2_distance","goal_selected","outcome","outcome_total","participant_final_score","participant_initial_score","participant_final_score_prop","goal_choice_rt","allocated_time","allocated_time_remaining","goal_direction","counts","mouse_movements","key_presses","correct","slider_start"
"11531","1751451616973","<p style='font-size:40px;line-height:1.25'><strong>Welcome to the experiment!</strong></p><p style='font-size:1.1em;line-height:1.25'>Thank you for your interest in our experiment! Before you begin, it is important that we obtain your informed consent to participate in the study.</p><p style='font-size:1.1em;line-height:1.25'>On the next screen will be an <strong>information sheet</strong> for you to read. To participate in the study we need you to read this information sheet and the following consent form carefully. If you agree with all the statements, please click the <strong>I agree</strong> button.</p><p style='font-size:1.1em;line-height:1.25'>Press <strong>Next</strong> to read the information sheet.</p>","0","custom-html-button-response","0","11533","0.0-0.0","122","1","2025-07-02 10:20:03","80fe4187154257d5fb01684ea91b68b9","41.122.202.126","Mozilla/5.0 (Windows NT 10.0; Win64; x64) AppleWebKit/537.36 (KHTML, like Gecko) Chrome/137.0.0.0 Safari/537.36","WebKit","Chrome","137.0.0.0","Windows","10.0","https://app.prolific.com/","en-US,en;q=0.9","611cd5bfd7197f8a2a3682d1","683db6dfa200031b80f2a654","6865078594cd57e558f85eb5","611cd5bfd7197f8a2a3682d1","2025-07-02T10:20:16.974Z","","","","","","","","","","","","","","","","","","","","","","","","","","","","","","","","","","","","","","","","","","","",""
"139714","","","","instructions","1","151248","0.0-1.0","122","1","2025-07-02 10:20:03","80fe4187154257d5fb01684ea91b68b9","41.122.202.126","Mozilla/5.0 (Windows NT 10.0; Win64; x64) AppleWebKit/537.36 (KHTML, like Gecko) Chrome/137.0.0.0 Safari/537.36","WebKit","Chrome","137.0.0.0","Windows","10.0","https://app.prolific.com/","en-US,en;q=0.9","611cd5bfd7197f8a2a3682d1","683db6dfa200031b80f2a654","6865078594cd57e558f85eb5","611cd5bfd7197f8a2a3682d1","","[{""page_index"":0,""viewing_time"":92272},{""page_index"":1,""viewing_time"":47442}]","","","","","","","","","","","","","","","","","","","","","","","","","","","","","","","","","","","","","","","","","","",""
"21601","","","{""Q0"":"""",""Q1"":"""",""Q2"":"""",""Q3"":"""",""Q4"":"""",""Q5"":"""",""Q6"":""I agree""}","survey-multi-choice","2","172851","0.0-2.0","122","1","2025-07-02 10:20:03","80fe4187154257d5fb01684ea91b68b9","41.122.202.126","Mozilla/5.0 (Windows NT 10.0; Win64; x64) AppleWebKit/537.36 (KHTML, like Gecko) Chrome/137.0.0.0 Safari/537.36","WebKit","Chrome","137.0.0.0","Windows","10.0","https://app.prolific.com/","en-US,en;q=0.9","611cd5bfd7197f8a2a3682d1","683db6dfa200031b80f2a654","6865078594cd57e558f85eb5","611cd5bfd7197f8a2a3682d1","","","[0,1,2,3,4,5,6]","true","","","","","","","","","","","","","","","","","","","","","","","","","","","","","","","","","","","","","","","","",""
"25375","","","","fullscreen","3","199243","0.0-4.0","122","1","2025-07-02 10:20:03","80fe4187154257d5fb01684ea91b68b9","41.122.202.126","Mozilla/5.0 (Windows NT 10.0; Win64; x64) AppleWebKit/537.36 (KHTML, like Gecko) Chrome/137.0.0.0 Safari/537.36","WebKit","Chrome","137.0.0.0","Windows","10.0","https://app.prolific.com/","en-US,en;q=0.9","611cd5bfd7197f8a2a3682d1","683db6dfa200031b80f2a654","6865078594cd57e558f85eb5","611cd5bfd7197f8a2a3682d1","","","","","true","","","","","","","","","","","","","","","","","","","","","","","","","","","","","","","","","","","","","","","",""
"8959","1751451813643"," <p style='font-size:1.1em;line-height:1.25'>Thank you for completing the consent form and closing all other tabs.</p><p style='font-size:1.1em;line-height:1.25'>We will now invite you to fill in some demographic information and questionnaires, before starting the game.<br>This will take about 5 minutes.<br></p><p style='font-size:1.1em;line-height:1.25'>Press the <strong>Next</strong> button to continue.</p>","0","custom-html-button-response","4","208203","0.0-5.0","122","1","2025-07-02 10:20:03","80fe4187154257d5fb01684ea91b68b9","41.122.202.126","Mozilla/5.0 (Windows NT 10.0; Win64; x64) AppleWebKit/537.36 (KHTML, like Gecko) Chrome/137.0.0.0 Safari/537.36","WebKit","Chrome","137.0.0.0","Windows","10.0","https://app.prolific.com/","en-US,en;q=0.9","611cd5bfd7197f8a2a3682d1","683db6dfa200031b80f2a654","6865078594cd57e558f85eb5","611cd5bfd7197f8a2a3682d1","2025-07-02T10:23:33.644Z","","","","","","","","","","","","","","","","","","","","","","","","","","","","","","","","","","","","","","","","","","","",""
"4361","","","{""age"":""33""}","survey-text","5","212566","0.0-6.0-0.0","122","1","2025-07-02 10:20:03","80fe4187154257d5fb01684ea91b68b9","41.122.202.126","Mozilla/5.0 (Windows NT 10.0; Win64; x64) AppleWebKit/537.36 (KHTML, like Gecko) Chrome/137.0.0.0 Safari/537.36","WebKit","Chrome","137.0.0.0","Windows","10.0","https://app.prolific.com/","en-US,en;q=0.9","611cd5bfd7197f8a2a3682d1","683db6dfa200031b80f2a654","6865078594cd57e558f85eb5","611cd5bfd7197f8a2a3682d1","","","","","","0","demographics","","","","","","","","","","","","","","","","","","","","","","","","","","","","","","","","","","","","","",""
"7325","","","{""gender_identity"":""male/man""}","survey-multi-choice","6","219893","0.0-6.0-1.0","122","1","2025-07-02 10:20:03","80fe4187154257d5fb01684ea91b68b9","41.122.202.126","Mozilla/5.0 (Windows NT 10.0; Win64; x64) AppleWebKit/537.36 (KHTML, like Gecko) Chrome/137.0.0.0 Safari/537.36","WebKit","Chrome","137.0.0.0","Windows","10.0","https://app.prolific.com/","en-US,en;q=0.9","611cd5bfd7197f8a2a3682d1","683db6dfa200031b80f2a654","6865078594cd57e558f85eb5","611cd5bfd7197f8a2a3682d1","","","[0]","","","1","demographics","","","","","","","","","","","","","","","","","","","","","","","","","","","","","","","","","","","","","",""
"4647","","","{""assigned_sex"":""male""}","survey-multi-choice","7","224542","0.0-6.0-2.0","122","1","2025-07-02 10:20:03","80fe4187154257d5fb01684ea91b68b9","41.122.202.126","Mozilla/5.0 (Windows NT 10.0; Win64; x64) AppleWebKit/537.36 (KHTML, like Gecko) Chrome/137.0.0.0 Safari/537.36","WebKit","Chrome","137.0.0.0","Windows","10.0","https://app.prolific.com/","en-US,en;q=0.9","611cd5bfd7197f8a2a3682d1","683db6dfa200031b80f2a654","6865078594cd57e558f85eb5","611cd5bfd7197f8a2a3682d1","","","[0]","","","2","demographics","","","","","","","","","","","","","","","","","","","","","","","","","","","","","","","","","","","","","",""
"6722","","","{""menstrual_cycle"":""No""}","survey-multi-choice","8","231265","0.0-6.0-3.0","122","1","2025-07-02 10:20:03","80fe4187154257d5fb01684ea91b68b9","41.122.202.126","Mozilla/5.0 (Windows NT 10.0; Win64; x64) AppleWebKit/537.36 (KHTML, like Gecko) Chrome/137.0.0.0 Safari/537.36","WebKit","Chrome","137.0.0.0","Windows","10.0","https://app.prolific.com/","en-US,en;q=0.9","611cd5bfd7197f8a2a3682d1","683db6dfa200031b80f2a654","6865078594cd57e558f85eb5","611cd5bfd7197f8a2a3682d1","","","[0]","","","4","demographics","","","","","","","","","","","","","","","","","","","","","","","","","","","","","","","","","","","","","",""
"12132","","","{""education"":""Bachelor's Degree (e.g., BA)""}","survey-multi-choice","9","243398","0.0-6.0-4.0","122","1","2025-07-02 10:20:03","80fe4187154257d5fb01684ea91b68b9","41.122.202.126","Mozilla/5.0 (Windows NT 10.0; Win64; x64) AppleWebKit/537.36 (KHTML, like Gecko) Chrome/137.0.0.0 Safari/537.36","WebKit","Chrome","137.0.0.0","Windows","10.0","https://app.prolific.com/","en-US,en;q=0.9","611cd5bfd7197f8a2a3682d1","683db6dfa200031b80f2a654","6865078594cd57e558f85eb5","611cd5bfd7197f8a2a3682d1","","","[0]","","","5","demographics","","","","","","","","","","","","","","","","","","","","","","","","","","","","","","","","","","","","","",""
"15080","","","{""education"":""A-level/National Diploma/Highers""}","survey-multi-choice","10","258479","0.0-6.0-5.0","122","1","2025-07-02 10:20:03","80fe4187154257d5fb01684ea91b68b9","41.122.202.126","Mozilla/5.0 (Windows NT 10.0; Win64; x64) AppleWebKit/537.36 (KHTML, like Gecko) Chrome/137.0.0.0 Safari/537.36","WebKit","Chrome","137.0.0.0","Windows","10.0","https://app.prolific.com/","en-US,en;q=0.9","611cd5bfd7197f8a2a3682d1","683db6dfa200031b80f2a654","6865078594cd57e558f85eb5","611cd5bfd7197f8a2a3682d1","2025-07-02T10:24:23.920Z","","[0]","","","6","demographics","","","","","","","","","","","","","","","","","","","","","","","","","","","","","","","","","","","","","",""
"62936","","","{""mental_health_condition"":""No"",""mental_health_treatment"":""No"",""psychiatric_medication"":""Not taking anything""}","survey-text","11","321417","0.0-7.0-0.0","122","1","2025-07-02 10:20:03","80fe4187154257d5fb01684ea91b68b9","41.122.202.126","Mozilla/5.0 (Windows NT 10.0; Win64; x64) AppleWebKit/537.36 (KHTML, like Gecko) Chrome/137.0.0.0 Safari/537.36","WebKit","Chrome","137.0.0.0","Windows","10.0","https://app.prolific.com/","en-US,en;q=0.9","611cd5bfd7197f8a2a3682d1","683db6dfa200031b80f2a654","6865078594cd57e558f85eb5","611cd5bfd7197f8a2a3682d1","2025-07-02T10:25:26.858Z","","","","","1","mental_health","","","","","","","","","","","","","","","","","","","","","","","","","","","","","","","","","","","","","",""
"13401","","","{""depression_history"":[""Yes""]}","survey-multi-select","12","334820","0.0-7.0-1.0","122","1","2025-07-02 10:20:03","80fe4187154257d5fb01684ea91b68b9","41.122.202.126","Mozilla/5.0 (Windows NT 10.0; Win64; x64) AppleWebKit/537.36 (KHTML, like Gecko) Chrome/137.0.0.0 Safari/537.36","WebKit","Chrome","137.0.0.0","Windows","10.0","https://app.prolific.com/","en-US,en;q=0.9","611cd5bfd7197f8a2a3682d1","683db6dfa200031b80f2a654","6865078594cd57e558f85eb5","611cd5bfd7197f8a2a3682d1","","","[0]","","","","mental_health","","","","","","","","","","","","","","","","","","","","","","","","","","","","","","","","","","","","","",""
"20381","","","{""depression_episodes"":""more than 5"",""depression_recent"":""Within the past year""}","survey-multi-choice","13","355202","0.0-7.0-2.0-0.0","122","1","2025-07-02 10:20:03","80fe4187154257d5fb01684ea91b68b9","41.122.202.126","Mozilla/5.0 (Windows NT 10.0; Win64; x64) AppleWebKit/537.36 (KHTML, like Gecko) Chrome/137.0.0.0 Safari/537.36","WebKit","Chrome","137.0.0.0","Windows","10.0","https://app.prolific.com/","en-US,en;q=0.9","611cd5bfd7197f8a2a3682d1","683db6dfa200031b80f2a654","6865078594cd57e558f85eb5","611cd5bfd7197f8a2a3682d1","2025-07-02T10:26:00.643Z","","[0,1]","","","3","mental_health","","","","","","","","","","","","","","","","","","","","","","","","","","","","","","","","","","","","","",""
"145547.79999998212","","","","survey-template","14","500753","0.0-7.0-3.0","122","1","2025-07-02 10:20:03","80fe4187154257d5fb01684ea91b68b9","41.122.202.126","Mozilla/5.0 (Windows NT 10.0; Win64; x64) AppleWebKit/537.36 (KHTML, like Gecko) Chrome/137.0.0.0 Safari/537.36","WebKit","Chrome","137.0.0.0","Windows","10.0","https://app.prolific.com/","en-US,en;q=0.9","611cd5bfd7197f8a2a3682d1","683db6dfa200031b80f2a654","6865078594cd57e558f85eb5","611cd5bfd7197f8a2a3682d1","2025-07-02T10:28:26.194Z","","","","","","ius","{""Q01"":""4"",""Q02"":""4"",""Q03"":""4"",""Q04"":""2"",""Q05"":""4"",""Q06"":""3"",""Q07"":""3"",""Q08"":""0"",""Q09"":""4"",""Q10"":""4"",""Q11"":""4"",""Q12"":""2"",""Q13"":""3""}","[0,1,2,3,4,5,6,7,8,9,10,11,12]","[""Q01"",""Q02"",""Q03"",""Q04"",""Q05"",""Q06"",""Q07"",""Q08"",""Q09"",""Q10"",""Q11"",""Q12"",""Q13""]","[64853.90000000596,70112.29999998212,81106.90000000596,84912.59999999404,89989.59999999404,95430,104654.5,109962.5,119360.09999999404,120638.40000000596,124249.19999998808,132057.90000000596,137857.29999998212]","[]","[64853.90000000596,70112.29999998212,75090.29999998212,81106.90000000596,84912.59999999404,89989.59999999404,95430,104654.5,108805.59999999404,109962.5,115000.19999998808,117467.69999998808,117660.5,118485.90000000596,119360.09999999404,120638.40000000596,122981,124249.19999998808,129095.19999998808,131104.19999998808,132057.90000000596,137857.29999998212,145546.09999999404]","0.5384615384615384","0.25","0","","","","","","","","","","","","","","","","","","","","","","","","","","","","",""
"32967","1751452139162","<p style='font-size:1.1em;line-height:1.25'>In the following, we will ask you a few questions relating to your experiences over the past month.<br></p><p style='font-size:1.1em;line-height:1.25'>Press the <strong>Next</strong> button to continue.</p>","0","custom-html-button-response","15","533721","0.0-7.0-4.0","122","1","2025-07-02 10:20:03","80fe4187154257d5fb01684ea91b68b9","41.122.202.126","Mozilla/5.0 (Windows NT 10.0; Win64; x64) AppleWebKit/537.36 (KHTML, like Gecko) Chrome/137.0.0.0 Safari/537.36","WebKit","Chrome","137.0.0.0","Windows","10.0","https://app.prolific.com/","en-US,en;q=0.9","611cd5bfd7197f8a2a3682d1","683db6dfa200031b80f2a654","6865078594cd57e558f85eb5","611cd5bfd7197f8a2a3682d1","2025-07-02T10:28:59.162Z","","","","","","","","","","","","","","","","","","","","","","","","","","","","","","","","","","","","","","","","","","","",""
"137106.5","","","","survey-template","16","670830","0.0-7.0-5.0","122","1","2025-07-02 10:20:03","80fe4187154257d5fb01684ea91b68b9","41.122.202.126","Mozilla/5.0 (Windows NT 10.0; Win64; x64) AppleWebKit/537.36 (KHTML, like Gecko) Chrome/137.0.0.0 Safari/537.36","WebKit","Chrome","137.0.0.0","Windows","10.0","https://app.prolific.com/","en-US,en;q=0.9","611cd5bfd7197f8a2a3682d1","683db6dfa200031b80f2a654","6865078594cd57e558f85eb5","611cd5bfd7197f8a2a3682d1","2025-07-02T10:31:16.271Z","","","","","","pss","{""Q01"":""2"",""Q02"":""2"",""Q03"":""2"",""Q04"":""2"",""Q05"":""1"",""Q06"":""2"",""Q07"":""2"",""Q08"":""2"",""Q09"":""2"",""Q10"":""2""}","[0,1,2,3,4,5,6,7,8,9]","[""Q01"",""Q02"",""Q03"",""Q04"",""Q05"",""Q06"",""Q07"",""Q08"",""Q09"",""Q10""]","[12531.699999988079,19802.40000000596,23912,27453.09999999404,35571,44822.90000000596,51884.19999998808,123815.59999999404,130272.19999998808,135248.40000000596]","[]","[8.599999994039536,12531.699999988079,19802.40000000596,23912,25850.09999999404,27453.09999999404,35571,43250.29999998212,44822.90000000596,50697.09999999404,51884.19999998808,115276.5,122405.40000000596,123815.59999999404,130272.19999998808,134315.19999998808,135248.40000000596,137105.09999999404]","0.9","0.2222222222222222","0","","","","","","","","","","","","","","","","","","","","","","","","","","","","",""
"4704","1751452280975","<p style='font-size:1.1em;line-height:1.25'>Thank you for your answers! Now we will ask you a few more questions relating to your feelings in the last 24 hours.<br></p><p style='font-size:1.1em;line-height:1.25'>Press the <strong>Next</strong> button to continue.</p>","0","custom-html-button-response","17","675535","0.0-7.0-6.0","122","1","2025-07-02 10:20:03","80fe4187154257d5fb01684ea91b68b9","41.122.202.126","Mozilla/5.0 (Windows NT 10.0; Win64; x64) AppleWebKit/537.36 (KHTML, like Gecko) Chrome/137.0.0.0 Safari/537.36","WebKit","Chrome","137.0.0.0","Windows","10.0","https://app.prolific.com/","en-US,en;q=0.9","611cd5bfd7197f8a2a3682d1","683db6dfa200031b80f2a654","6865078594cd57e558f85eb5","611cd5bfd7197f8a2a3682d1","2025-07-02T10:31:20.976Z","","","","","","","","","","","","","","","","","","","","","","","","","","","","","","","","","","","","","","","","","","","",""
"92928.19999998808","","","","survey-template","18","768466","0.0-7.0-7.0","122","1","2025-07-02 10:20:03","80fe4187154257d5fb01684ea91b68b9","41.122.202.126","Mozilla/5.0 (Windows NT 10.0; Win64; x64) AppleWebKit/537.36 (KHTML, like Gecko) Chrome/137.0.0.0 Safari/537.36","WebKit","Chrome","137.0.0.0","Windows","10.0","https://app.prolific.com/","en-US,en;q=0.9","611cd5bfd7197f8a2a3682d1","683db6dfa200031b80f2a654","6865078594cd57e558f85eb5","611cd5bfd7197f8a2a3682d1","2025-07-02T10:32:53.907Z","","","","","","drsp","{""Q01"":""2"",""Q02"":""1"",""Q03"":""3"",""Q04"":""1"",""Q05"":""0"",""Q06"":""0"",""Q07"":""0"",""Q08"":""1"",""Q09"":""0"",""Q10"":""1"",""Q11"":""2"",""Q12"":""3"",""Q13"":""3"",""Q14"":""3"",""Q15"":""3"",""Q16"":""3"",""Q17"":""1"",""Q18"":""0"",""Q19"":""0"",""Q20"":""0"",""Q21"":""0""}","[0,1,2,3,4,5,6,7,8,9,10,11,12,13,14,15,16,17,18,19,20]","[""Q01"",""Q02"",""Q03"",""Q04"",""Q05"",""Q06"",""Q07"",""Q08"",""Q09"",""Q10"",""Q11"",""Q12"",""Q13"",""Q14"",""Q15"",""Q16"",""Q17"",""Q18"",""Q19"",""Q20"",""Q21""]","[7269.4000000059605,10627.09999999404,15131.40000000596,17860.09999999404,20385.90000000596,26273.90000000596,28972.19999998808,31102.30000001192,35563.69999998808,40716.80000001192,43485.5,48668.5,49987.09999999404,52917.90000000596,57796.80000001192,59155.90000000596,62056.69999998808,73665.40000000596,81221.69999998808,82722.80000001192,91079]","[]","[12.5,7269.4000000059605,10627.09999999404,13477.90000000596,15131.40000000596,16957.19999998808,17860.09999999404,20385.90000000596,25077.30000001192,26273.90000000596,27805.69999998808,28972.19999998808,31102.30000001192,35563.69999998808,40716.80000001192,43485.5,48668.5,49987.09999999404,52917.90000000596,56296,57796.80000001192,59155.90000000596,62056.69999998808,73665.40000000596,79964.19999998808,81221.69999998808,82722.80000001192,90146,91079,92925.40000000596]","0.38095238095238093","0.4","0","","","","","","","","","","","","","","","","","","","","","","","","","","","","",""
"16654.79999998212","","","","survey-template","19","785122","0.0-7.0-8.0","122","1","2025-07-02 10:20:03","80fe4187154257d5fb01684ea91b68b9","41.122.202.126","Mozilla/5.0 (Windows NT 10.0; Win64; x64) AppleWebKit/537.36 (KHTML, like Gecko) Chrome/137.0.0.0 Safari/537.36","WebKit","Chrome","137.0.0.0","Windows","10.0","https://app.prolific.com/","en-US,en;q=0.9","611cd5bfd7197f8a2a3682d1","683db6dfa200031b80f2a654","6865078594cd57e558f85eb5","611cd5bfd7197f8a2a3682d1","2025-07-02T10:33:10.563Z","","","","","","stress","{""Q01"":""2"",""Q02"":""4"",""Q03"":""2""}","[0,1,2]","[""Q01"",""Q02"",""Q03"",""Q03""]","[4573.799999982119,9188.59999999404,14971.09999999404,15163.299999982119]","[]","[4573.799999982119,8052.699999988079,9188.59999999404,14321.59999999404,14971.09999999404,15163.299999982119,16654.19999998808]","0.6666666666666666","1","0","","","","","","","","","","","","","","","","","","","","","","","","","","","","",""
"164464","","","","instructions","20","949587","0.0-8.0-0.0","122","1","2025-07-02 10:20:03","80fe4187154257d5fb01684ea91b68b9","41.122.202.126","Mozilla/5.0 (Windows NT 10.0; Win64; x64) AppleWebKit/537.36 (KHTML, like Gecko) Chrome/137.0.0.0 Safari/537.36","WebKit","Chrome","137.0.0.0","Windows","10.0","https://app.prolific.com/","en-US,en;q=0.9","611cd5bfd7197f8a2a3682d1","683db6dfa200031b80f2a654","6865078594cd57e558f85eb5","611cd5bfd7197f8a2a3682d1","","[{""page_index"":0,""viewing_time"":104336},{""page_index"":1,""viewing_time"":25064},{""page_index"":2,""viewing_time"":9920},{""page_index"":3,""viewing_time"":25144}]","","","","","","","","","","","","","","","","","","","","","","","","","","","","","","","","","","","","","","","","","","",""
"","","","","ctl-task-cpt","21","973966","0.0-8.0-1.0","122","1","2025-07-02 10:20:03","80fe4187154257d5fb01684ea91b68b9","41.122.202.126","Mozilla/5.0 (Windows NT 10.0; Win64; x64) AppleWebKit/537.36 (KHTML, like Gecko) Chrome/137.0.0.0 Safari/537.36","WebKit","Chrome","137.0.0.0","Windows","10.0","https://app.prolific.com/","en-US,en;q=0.9","611cd5bfd7197f8a2a3682d1","683db6dfa200031b80f2a654","6865078594cd57e558f85eb5","611cd5bfd7197f8a2a3682d1","","","","","","","","","","","","","","","","","win-only","2","g1:SE,g2:NW","1","0","1","951870.8","7768.1","11771.3","21373.3","2","4","4","6","1","-2","-3","0","0","0","4003.2","4000","-3005","[""down"",""right""]","{""num_key_presses"":3,""num_perfect"":1,""num_errors"":1,""num_randdir"":0,""num_randdir_good_moves"":0,""num_whilered"":1,""num_whileblue"":0,""num_blue"":0,""num_good_moves"":1}","[418.57142857142856,414.47767857142856,0.4,418.57142857142856,415.47767857142856,102.7,418.57142857142856,415.47767857142856,203,418.57142857142856,415.47767857142856,308.3,418.57142857142856,415.47767857142856,412.4,418.57142857142856,415.47767857142856,512.6,418.57142857142856,419.47767857142856,613.2,424.57142857142856,427.47767857142856,713.2,435.57142857142856,429.47767857142856,818.1,451.57142857142856,438.47767857142856,924,475.57142857142856,472.47767857142856,1027.6,480.57142857142856,478.47767857142856,1128.1,480.57142857142856,478.47767857142856,1232.9,480.57142857142856,478.47767857142856,1333.3,480.57142857142856,478.47767857142856,1433.3,480.57142857142856,478.47767857142856,1537.6,480.57142857142856,478.47767857142856,1642.8,480.57142857142856,478.47767857142856,1742.9,480.57142857142856,478.47767857142856,1847.8,480.57142857142856,478.47767857142856,1948,480.57142857142856,478.47767857142856,2049.3,480.57142857142856,478.47767857142856,2154.4,480.57142857142856,478.47767857142856,2257.8,421.57142857142856,453.47767857142856,2362.4,413.57142857142856,451.47767857142856,2462.5,441.57142857142856,490.47767857142856,2562.5,446.57142857142856,493.47767857142856,2667.7,453.57142857142856,493.47767857142856,2768,464.57142857142856,491.47767857142856,2868.2,467.57142857142856,491.47767857142856,2973.1,467.57142857142856,491.47767857142856,3078,458.57142857142856,481.47767857142856,3183.1,400.57142857142856,405.47767857142856,3288,365.57142857142856,332.47767857142856,3392.9,295.57142857142856,244.47767857142856,3498.2,206.57142857142856,133.47767857142856,3603.4,157.57142857142856,76.47767857142857,3703.7,147.57142857142856,68.47767857142857,3808.5,148.57142857142856,71.47767857142857,3908.8]","[3044.8,3044.8,1000,0,2044.8,""smooth"",""right"",""right"",""good_move"",3582,536.8,3286.7,3045.2,-2749.9,""error"",""-"",""-"",""no_move"",3924.7,342.4,3286.7,3045.2,-2407.2,""while_red"",""-"",""-"",""no_move""]","",""
"10765","","","","instructions","22","984731","0.0-8.0-2.0","122","1","2025-07-02 10:20:03","80fe4187154257d5fb01684ea91b68b9","41.122.202.126","Mozilla/5.0 (Windows NT 10.0; Win64; x64) AppleWebKit/537.36 (KHTML, like Gecko) Chrome/137.0.0.0 Safari/537.36","WebKit","Chrome","137.0.0.0","Windows","10.0","https://app.prolific.com/","en-US,en;q=0.9","611cd5bfd7197f8a2a3682d1","683db6dfa200031b80f2a654","6865078594cd57e558f85eb5","611cd5bfd7197f8a2a3682d1","","[{""page_index"":0,""viewing_time"":10765}]","","","","","","","","","","","","","","","","","","","","","","","","","","","","","","","","","","","","","","","","","","",""
"","","","","ctl-task-cpt","23","1013089","0.0-8.0-3.0","122","1","2025-07-02 10:20:03","80fe4187154257d5fb01684ea91b68b9","41.122.202.126","Mozilla/5.0 (Windows NT 10.0; Win64; x64) AppleWebKit/537.36 (KHTML, like Gecko) Chrome/137.0.0.0 Safari/537.36","WebKit","Chrome","137.0.0.0","Windows","10.0","https://app.prolific.com/","en-US,en;q=0.9","611cd5bfd7197f8a2a3682d1","683db6dfa200031b80f2a654","6865078594cd57e558f85eb5","611cd5bfd7197f8a2a3682d1","","","","","","","","","","","","","","","","","win-only","2","g1:SE,g2:NW","0.35","0","3","987013.5","3818.9","7821.8","25341.3","2","4","8","6","2","-8","-10","0","0","0","4002.9","4000","-3015","[""left"",""up""]","{""num_key_presses"":5,""num_perfect"":1,""num_errors"":2,""num_randdir"":2,""num_randdir_good_moves"":2,""num_whilered"":0,""num_whileblue"":0,""num_blue"":0,""num_good_moves"":2}","[421.57142857142856,416.47767857142856,0.2,421.57142857142856,415.47767857142856,103.1,421.57142857142856,415.47767857142856,206.5,421.57142857142856,415.47767857142856,307.3,421.57142857142856,415.47767857142856,416.3,424.57142857142856,421.47767857142856,522.1,466.57142857142856,475.47767857142856,622.1,481.57142857142856,502.47767857142856,731.5,484.57142857142856,508.47767857142856,832,484.57142857142856,508.47767857142856,936.4,484.57142857142856,508.47767857142856,1036.5,484.57142857142856,508.47767857142856,1136.8,484.57142857142856,508.47767857142856,1247,484.57142857142856,508.47767857142856,1347.3,484.57142857142856,508.47767857142856,1451.8,484.57142857142856,508.47767857142856,1552.3,484.57142857142856,508.47767857142856,1656.8,484.57142857142856,508.47767857142856,1757.1,484.57142857142856,508.47767857142856,1857.2,484.57142857142856,508.47767857142856,1963.5,484.57142857142856,508.47767857142856,2067.2,484.57142857142856,508.47767857142856,2167.7,484.57142857142856,508.47767857142856,2272.1,484.57142857142856,508.47767857142856,2382.2,484.57142857142856,508.47767857142856,2483.4,484.57142857142856,508.47767857142856,2587.2,484.57142857142856,508.47767857142856,2687.3,484.57142857142856,508.47767857142856,2796.3,484.57142857142856,508.47767857142856,2897.2,484.57142857142856,508.47767857142856,3002,484.57142857142856,508.47767857142856,3102.4,484.57142857142856,508.47767857142856,3212.4,484.57142857142856,508.47767857142856,3318.3,484.57142857142856,508.47767857142856,3422,484.57142857142856,508.47767857142856,3529.1,484.57142857142856,508.47767857142856,3630,484.57142857142856,508.47767857142856,3730.7,484.57142857142856,508.47767857142856,3831.5,484.57142857142856,508.47767857142856,3932.7]","[1492.1,1492.1,1000,0,492.2,""oops"",""down"",""left"",""good_move"",2327.9,835.3,2722.3,1492.6,-1886.9,""error"",""-"",""-"",""no_move"",4604.2,2276.1,2327.2,3329.2,-1052.2,""error"",""-"",""-"",""no_move"",10329,5724.6,3062.9,5608.8,1657.3,""smooth"",""right"",""right"",""bad_move"",13516.3,3186.9,2320.9,10329.4,866,""oops"",""down"",""left"",""good_move""]","",""
"30196","","","","instructions","24","1043286","0.0-8.0-4.0","122","1","2025-07-02 10:20:03","80fe4187154257d5fb01684ea91b68b9","41.122.202.126","Mozilla/5.0 (Windows NT 10.0; Win64; x64) AppleWebKit/537.36 (KHTML, like Gecko) Chrome/137.0.0.0 Safari/537.36","WebKit","Chrome","137.0.0.0","Windows","10.0","https://app.prolific.com/","en-US,en;q=0.9","611cd5bfd7197f8a2a3682d1","683db6dfa200031b80f2a654","6865078594cd57e558f85eb5","611cd5bfd7197f8a2a3682d1","","[{""page_index"":0,""viewing_time"":13076},{""page_index"":1,""viewing_time"":17120}]","","","","","","","","","","","","","","","","","","","","","","","","","","","","","","","","","","","","","","","","","","",""
"12610","","","{""green_ball"":[""Ball always moves in the direction I press""]}","survey-multi-select","25","1055898","0.0-8.0-5.0-0.0","122","1","2025-07-02 10:20:03","80fe4187154257d5fb01684ea91b68b9","41.122.202.126","Mozilla/5.0 (Windows NT 10.0; Win64; x64) AppleWebKit/537.36 (KHTML, like Gecko) Chrome/137.0.0.0 Safari/537.36","WebKit","Chrome","137.0.0.0","Windows","10.0","https://app.prolific.com/","en-US,en;q=0.9","611cd5bfd7197f8a2a3682d1","683db6dfa200031b80f2a654","6865078594cd57e558f85eb5","611cd5bfd7197f8a2a3682d1","","","[0]","","","","quiz","","","","","","","","","","","","","","","","","","","","","","","","","","","","","","","","","","","","","false",""
"8414","","<p align='center'><b>INCORRECT.</b> Usually the green ball moves in the indicated direction, but sometimes it shakes and moves randomly. </p>","0","html-button-response","26","1064313","0.0-8.0-5.0-1.0","122","1","2025-07-02 10:20:03","80fe4187154257d5fb01684ea91b68b9","41.122.202.126","Mozilla/5.0 (Windows NT 10.0; Win64; x64) AppleWebKit/537.36 (KHTML, like Gecko) Chrome/137.0.0.0 Safari/537.36","WebKit","Chrome","137.0.0.0","Windows","10.0","https://app.prolific.com/","en-US,en;q=0.9","611cd5bfd7197f8a2a3682d1","683db6dfa200031b80f2a654","6865078594cd57e558f85eb5","611cd5bfd7197f8a2a3682d1","","","","","","","","","","","","","","","","","","","","","","","","","","","","","","","","","","","","","","","","","","","","",""
"7461","","","{""green_ball"":[""Ball sometimes shakes and moves in a random direction""]}","survey-multi-select","27","1071777","0.0-8.0-5.1-0.1","122","1","2025-07-02 10:20:03","80fe4187154257d5fb01684ea91b68b9","41.122.202.126","Mozilla/5.0 (Windows NT 10.0; Win64; x64) AppleWebKit/537.36 (KHTML, like Gecko) Chrome/137.0.0.0 Safari/537.36","WebKit","Chrome","137.0.0.0","Windows","10.0","https://app.prolific.com/","en-US,en;q=0.9","611cd5bfd7197f8a2a3682d1","683db6dfa200031b80f2a654","6865078594cd57e558f85eb5","611cd5bfd7197f8a2a3682d1","","","[0]","","","","quiz","","","","","","","","","","","","","","","","","","","","","","","","","","","","","","","","","","","","","true",""
"4805","","<p align='center'><b>CORRECT!</b> Indeed, the green ball may sometimes shake and move in a random direction.</p>","0","html-button-response","28","1076583","0.0-8.0-5.1-1.1","122","1","2025-07-02 10:20:03","80fe4187154257d5fb01684ea91b68b9","41.122.202.126","Mozilla/5.0 (Windows NT 10.0; Win64; x64) AppleWebKit/537.36 (KHTML, like Gecko) Chrome/137.0.0.0 Safari/537.36","WebKit","Chrome","137.0.0.0","Windows","10.0","https://app.prolific.com/","en-US,en;q=0.9","611cd5bfd7197f8a2a3682d1","683db6dfa200031b80f2a654","6865078594cd57e558f85eb5","611cd5bfd7197f8a2a3682d1","","","","","","","","","","","","","","","","","","","","","","","","","","","","","","","","","","","","","","","","","","","","",""
"8251","","","{""yellow_ball"":[""Ball doesn‘t move and I get -1 penalty point""]}","survey-multi-select","29","1084835","0.0-8.0-6.0-0.0","122","1","2025-07-02 10:20:03","80fe4187154257d5fb01684ea91b68b9","41.122.202.126","Mozilla/5.0 (Windows NT 10.0; Win64; x64) AppleWebKit/537.36 (KHTML, like Gecko) Chrome/137.0.0.0 Safari/537.36","WebKit","Chrome","137.0.0.0","Windows","10.0","https://app.prolific.com/","en-US,en;q=0.9","611cd5bfd7197f8a2a3682d1","683db6dfa200031b80f2a654","6865078594cd57e558f85eb5","611cd5bfd7197f8a2a3682d1","","","[0]","","","","quiz","","","","","","","","","","","","","","","","","","","","","","","","","","","","","","","","","","","","","true",""
"5960","","<p align='center'><b>CORRECT!</b> Indeed, the yellow ball never moves and you receive a penalty.</p>","0","html-button-response","30","1090796","0.0-8.0-6.0-1.0","122","1","2025-07-02 10:20:03","80fe4187154257d5fb01684ea91b68b9","41.122.202.126","Mozilla/5.0 (Windows NT 10.0; Win64; x64) AppleWebKit/537.36 (KHTML, like Gecko) Chrome/137.0.0.0 Safari/537.36","WebKit","Chrome","137.0.0.0","Windows","10.0","https://app.prolific.com/","en-US,en;q=0.9","611cd5bfd7197f8a2a3682d1","683db6dfa200031b80f2a654","6865078594cd57e558f85eb5","611cd5bfd7197f8a2a3682d1","","","","","","","","","","","","","","","","","","","","","","","","","","","","","","","","","","","","","","","","","","","","",""
"11622","","","{""blue_ball"":[""Ball always shakes and moves in a random direction""]}","survey-multi-select","31","1102419","0.0-8.0-7.0-0.0","122","1","2025-07-02 10:20:03","80fe4187154257d5fb01684ea91b68b9","41.122.202.126","Mozilla/5.0 (Windows NT 10.0; Win64; x64) AppleWebKit/537.36 (KHTML, like Gecko) Chrome/137.0.0.0 Safari/537.36","WebKit","Chrome","137.0.0.0","Windows","10.0","https://app.prolific.com/","en-US,en;q=0.9","611cd5bfd7197f8a2a3682d1","683db6dfa200031b80f2a654","6865078594cd57e558f85eb5","611cd5bfd7197f8a2a3682d1","","","[0]","","","","quiz","","","","","","","","","","","","","","","","","","","","","","","","","","","","","","","","","","","","","true",""
"2949","","<p align='center'><b>CORRECT!</b> Indeed, the blue ball always shakes and moves in a random direction. Also there is a penalty of -1 point.</p>","0","html-button-response","32","1105370","0.0-8.0-7.0-1.0","122","1","2025-07-02 10:20:03","80fe4187154257d5fb01684ea91b68b9","41.122.202.126","Mozilla/5.0 (Windows NT 10.0; Win64; x64) AppleWebKit/537.36 (KHTML, like Gecko) Chrome/137.0.0.0 Safari/537.36","WebKit","Chrome","137.0.0.0","Windows","10.0","https://app.prolific.com/","en-US,en;q=0.9","611cd5bfd7197f8a2a3682d1","683db6dfa200031b80f2a654","6865078594cd57e558f85eb5","611cd5bfd7197f8a2a3682d1","","","","","","","","","","","","","","","","","","","","","","","","","","","","","","","","","","","","","","","","","","","","",""
"11623","","","{""bonus"":[""When I don‘t get penalty points""]}","survey-multi-select","33","1116995","0.0-8.0-8.0-0.0","122","1","2025-07-02 10:20:03","80fe4187154257d5fb01684ea91b68b9","41.122.202.126","Mozilla/5.0 (Windows NT 10.0; Win64; x64) AppleWebKit/537.36 (KHTML, like Gecko) Chrome/137.0.0.0 Safari/537.36","WebKit","Chrome","137.0.0.0","Windows","10.0","https://app.prolific.com/","en-US,en;q=0.9","611cd5bfd7197f8a2a3682d1","683db6dfa200031b80f2a654","6865078594cd57e558f85eb5","611cd5bfd7197f8a2a3682d1","","","[0]","","","","quiz","","","","","","","","","","","","","","","","","","","","","","","","","","","","","","","","","","","","","false",""
"2412","","<p align='center'><b>INCORRECT.</b> You receive 2 pounds extra when you reach 50% of points </p>","0","html-button-response","34","1119408","0.0-8.0-8.0-1.0","122","1","2025-07-02 10:20:03","80fe4187154257d5fb01684ea91b68b9","41.122.202.126","Mozilla/5.0 (Windows NT 10.0; Win64; x64) AppleWebKit/537.36 (KHTML, like Gecko) Chrome/137.0.0.0 Safari/537.36","WebKit","Chrome","137.0.0.0","Windows","10.0","https://app.prolific.com/","en-US,en;q=0.9","611cd5bfd7197f8a2a3682d1","683db6dfa200031b80f2a654","6865078594cd57e558f85eb5","611cd5bfd7197f8a2a3682d1","","","","","","","","","","","","","","","","","","","","","","","","","","","","","","","","","","","","","","","","","","","","",""
"2818","","","{""bonus"":[""When I reach 50% of points""]}","survey-multi-select","35","1122228","0.0-8.0-8.1-0.1","122","1","2025-07-02 10:20:03","80fe4187154257d5fb01684ea91b68b9","41.122.202.126","Mozilla/5.0 (Windows NT 10.0; Win64; x64) AppleWebKit/537.36 (KHTML, like Gecko) Chrome/137.0.0.0 Safari/537.36","WebKit","Chrome","137.0.0.0","Windows","10.0","https://app.prolific.com/","en-US,en;q=0.9","611cd5bfd7197f8a2a3682d1","683db6dfa200031b80f2a654","6865078594cd57e558f85eb5","611cd5bfd7197f8a2a3682d1","","","[0]","","","","quiz","","","","","","","","","","","","","","","","","","","","","","","","","","","","","","","","","","","","","true",""
"6637","","<p align='center'><b>CORRECT!</b> Indeed, you receive 2 pounds extra when you reach 50% of points.</p>","0","html-button-response","36","1128866","0.0-8.0-8.1-1.1","122","1","2025-07-02 10:20:03","80fe4187154257d5fb01684ea91b68b9","41.122.202.126","Mozilla/5.0 (Windows NT 10.0; Win64; x64) AppleWebKit/537.36 (KHTML, like Gecko) Chrome/137.0.0.0 Safari/537.36","WebKit","Chrome","137.0.0.0","Windows","10.0","https://app.prolific.com/","en-US,en;q=0.9","611cd5bfd7197f8a2a3682d1","683db6dfa200031b80f2a654","6865078594cd57e558f85eb5","611cd5bfd7197f8a2a3682d1","","","","","","","","","","","","","","","","","","","","","","","","","","","","","","","","","","","","","","","","","","","","",""
"3765","","","","instructions","37","1132631","0.0-8.0-9.0","122","1","2025-07-02 10:20:03","80fe4187154257d5fb01684ea91b68b9","41.122.202.126","Mozilla/5.0 (Windows NT 10.0; Win64; x64) AppleWebKit/537.36 (KHTML, like Gecko) Chrome/137.0.0.0 Safari/537.36","WebKit","Chrome","137.0.0.0","Windows","10.0","https://app.prolific.com/","en-US,en;q=0.9","611cd5bfd7197f8a2a3682d1","683db6dfa200031b80f2a654","6865078594cd57e558f85eb5","611cd5bfd7197f8a2a3682d1","","[{""page_index"":0,""viewing_time"":3765}]","","","","","","","","","","","","","","","","","","","","","","","","","","","","","","","","","","","","","","","","","","",""
"19956","","<p>Before you start with this game please answer the following three questions yourself. </p>
  <p>Through this game, we measure several aspects of your cognitive performance, such as reaction times, multi-tasking capabilities </p>
  <p>and the ability to assess the situation you are in.</p>
  <p></p>
  <p><b>How good do you usually are in such tasks?</b></p>","50","html-slider-response","38","1152589","0.0-9.0-0.0","122","1","2025-07-02 10:20:03","80fe4187154257d5fb01684ea91b68b9","41.122.202.126","Mozilla/5.0 (Windows NT 10.0; Win64; x64) AppleWebKit/537.36 (KHTML, like Gecko) Chrome/137.0.0.0 Safari/537.36","WebKit","Chrome","137.0.0.0","Windows","10.0","https://app.prolific.com/","en-US,en;q=0.9","611cd5bfd7197f8a2a3682d1","683db6dfa200031b80f2a654","6865078594cd57e558f85eb5","611cd5bfd7197f8a2a3682d1","2025-07-02T10:39:18.030Z","","","","","","PreSkillQ","","","","","","","","","","","","","","","","","","","","","","","","","","","","","","","","","","","","","","50"
"10023","","<div style=""width:500px;"">
  <p>How well do you think you will perform in this task compared to other participants?</p>
  </div>","42","html-slider-response","39","1162613","0.0-9.0-1.0","122","1","2025-07-02 10:20:03","80fe4187154257d5fb01684ea91b68b9","41.122.202.126","Mozilla/5.0 (Windows NT 10.0; Win64; x64) AppleWebKit/537.36 (KHTML, like Gecko) Chrome/137.0.0.0 Safari/537.36","WebKit","Chrome","137.0.0.0","Windows","10.0","https://app.prolific.com/","en-US,en;q=0.9","611cd5bfd7197f8a2a3682d1","683db6dfa200031b80f2a654","6865078594cd57e558f85eb5","611cd5bfd7197f8a2a3682d1","2025-07-02T10:39:28.054Z","","","","","","PrePerfQ","","","","","","","","","","","","","","","","","","","","","","","","","","","","","","","","","","","","","","50"
"7854","","<div style=""width:500px;"">
  <p>What best describes how you currently feel?</p>
  </div>","40","html-slider-response","40","1170468","0.0-9.0-2.0","122","1","2025-07-02 10:20:03","80fe4187154257d5fb01684ea91b68b9","41.122.202.126","Mozilla/5.0 (Windows NT 10.0; Win64; x64) AppleWebKit/537.36 (KHTML, like Gecko) Chrome/137.0.0.0 Safari/537.36","WebKit","Chrome","137.0.0.0","Windows","10.0","https://app.prolific.com/","en-US,en;q=0.9","611cd5bfd7197f8a2a3682d1","683db6dfa200031b80f2a654","6865078594cd57e558f85eb5","611cd5bfd7197f8a2a3682d1","2025-07-02T10:39:35.909Z","","","","","","PreMotivationQ","","","","","","","","","","","","","","","","","","","","","","","","","","","","","","","","","","","","","","50"
"","","","","ctl-task-cpt","41","1195226","0.0-10.0-0.0","122","1","2025-07-02 10:20:03","80fe4187154257d5fb01684ea91b68b9","41.122.202.126","Mozilla/5.0 (Windows NT 10.0; Win64; x64) AppleWebKit/537.36 (KHTML, like Gecko) Chrome/137.0.0.0 Safari/537.36","WebKit","Chrome","137.0.0.0","Windows","10.0","https://app.prolific.com/","en-US,en;q=0.9","611cd5bfd7197f8a2a3682d1","683db6dfa200031b80f2a654","6865078594cd57e558f85eb5","611cd5bfd7197f8a2a3682d1","2025-07-02T10:40:00.668Z","","","","","","","","","","","","","","","","win-only","3","g1:SW,g2:NE","1","1","0","1172752.1","4919.8","9921.3","21745.3","1","4","8","6","1","1","0","0","0","0","5001.5","3000","200","[""down"",""left""]","{""num_key_presses"":5,""num_perfect"":4,""num_errors"":1,""num_randdir"":0,""num_randdir_good_moves"":0,""num_whilered"":0,""num_whileblue"":0,""num_blue"":0,""num_good_moves"":4}","[423.57142857142856,418.47767857142856,0.2,423.57142857142856,418.47767857142856,100.7,423.57142857142856,418.47767857142856,201.5,423.57142857142856,418.47767857142856,301.6,423.57142857142856,418.47767857142856,401.9,423.57142857142856,418.47767857142856,505.4,423.57142857142856,418.47767857142856,606.3,423.57142857142856,418.47767857142856,719,423.57142857142856,418.47767857142856,821.3,423.57142857142856,418.47767857142856,935.3,423.57142857142856,418.47767857142856,1038.6,423.57142857142856,418.47767857142856,1141.1,423.57142857142856,418.47767857142856,1249.3,423.57142857142856,418.47767857142856,1351.1,423.57142857142856,418.47767857142856,1455.8,423.57142857142856,418.47767857142856,1565.6,423.57142857142856,418.47767857142856,1670.5,423.57142857142856,418.47767857142856,1770.7,423.57142857142856,418.47767857142856,1870.9,423.57142857142856,418.47767857142856,1970.9,423.57142857142856,418.47767857142856,2081.5,423.57142857142856,418.47767857142856,2185.4,423.57142857142856,418.47767857142856,2285.4,423.57142857142856,418.47767857142856,2397.9,423.57142857142856,418.47767857142856,2500.8,423.57142857142856,418.47767857142856,2601.4,423.57142857142856,418.47767857142856,2706.4,423.57142857142856,418.47767857142856,2815.4,423.57142857142856,418.47767857142856,2915.9,423.57142857142856,418.47767857142856,3021.1,423.57142857142856,418.47767857142856,3130.8,423.57142857142856,418.47767857142856,3232.3,390.57142857142856,465.47767857142856,3335.6,347.57142857142856,498.47767857142856,3435.8,330.57142857142856,511.47767857142856,3548.6,330.57142857142856,511.47767857142856,3649.9,330.57142857142856,511.47767857142856,3750.6,330.57142857142856,511.47767857142856,3850.8,330.57142857142856,511.47767857142856,3950.9,330.57142857142856,511.47767857142856,4065.4,330.57142857142856,511.47767857142856,4166.1,330.57142857142856,511.47767857142856,4271.3,330.57142857142856,511.47767857142856,4371.3,330.57142857142856,511.47767857142856,4472.4,330.57142857142856,511.47767857142856,4582.7,330.57142857142856,511.47767857142856,4686.2,330.57142857142856,511.47767857142856,4786.2,330.57142857142856,511.47767857142856,4887,330.57142857142856,511.47767857142856,4994.5]","[1881.9,1881.9,1000,0,881.9,""smooth"",""down"",""down"",""good_move"",2192.2,310,2499.9,1882.3,-2190,""error"",""-"",""-"",""no_move"",6022.8,3830.5,1797.8,3194.4,1030.6,""smooth"",""left"",""left"",""good_move"",8904.1,2881,2057.8,6023.1,823.2,""smooth"",""down"",""down"",""good_move"",11700.3,2796,2016.2,8904.3,779.8,""smooth"",""left"",""left"",""good_move""]","",""
"8947","","<div style=""width:500px;"">
  <p>What determined the result of this run?</p>
  </div>","94","html-slider-response","42","1204175","0.0-10.0-1.0","122","1","2025-07-02 10:20:03","80fe4187154257d5fb01684ea91b68b9","41.122.202.126","Mozilla/5.0 (Windows NT 10.0; Win64; x64) AppleWebKit/537.36 (KHTML, like Gecko) Chrome/137.0.0.0 Safari/537.36","WebKit","Chrome","137.0.0.0","Windows","10.0","https://app.prolific.com/","en-US,en;q=0.9","611cd5bfd7197f8a2a3682d1","683db6dfa200031b80f2a654","6865078594cd57e558f85eb5","611cd5bfd7197f8a2a3682d1","2025-07-02T10:40:09.616Z","","","","","","AttribQ","","","","","","","","","","","","","","","","","","","","","","","","","","","","","","","","","","","","","","50"
"5814","","<div style=""width:500px;"">
  <p>How much control did you have over the ball?</p>
  </div>","99","html-slider-response","43","1209990","0.0-10.0-2.0","122","1","2025-07-02 10:20:03","80fe4187154257d5fb01684ea91b68b9","41.122.202.126","Mozilla/5.0 (Windows NT 10.0; Win64; x64) AppleWebKit/537.36 (KHTML, like Gecko) Chrome/137.0.0.0 Safari/537.36","WebKit","Chrome","137.0.0.0","Windows","10.0","https://app.prolific.com/","en-US,en;q=0.9","611cd5bfd7197f8a2a3682d1","683db6dfa200031b80f2a654","6865078594cd57e558f85eb5","611cd5bfd7197f8a2a3682d1","2025-07-02T10:40:15.431Z","","","","","","ControlQ","","","","","","","","","","","","","","","","","","","","","","","","","","","","","","","","","","","","","","50"
"8594","","<div style=""width:500px;"">
  <p>How would you describe your current emotional state?</p>
  </div>","51","html-slider-response","44","1218585","0.0-10.0-3.0","122","1","2025-07-02 10:20:03","80fe4187154257d5fb01684ea91b68b9","41.122.202.126","Mozilla/5.0 (Windows NT 10.0; Win64; x64) AppleWebKit/537.36 (KHTML, like Gecko) Chrome/137.0.0.0 Safari/537.36","WebKit","Chrome","137.0.0.0","Windows","10.0","https://app.prolific.com/","en-US,en;q=0.9","611cd5bfd7197f8a2a3682d1","683db6dfa200031b80f2a654","6865078594cd57e558f85eb5","611cd5bfd7197f8a2a3682d1","2025-07-02T10:40:24.026Z","","","","","","StressQ","","","","","","","","","","","","","","","","","","","","","","","","","","","","","","","","","","","","","","50"
"3269","","<div style=""width:500px;"">
  <p>What best describes how you currently feel?</p>
  </div>","50","html-slider-response","45","1221855","0.0-10.0-4.0","122","1","2025-07-02 10:20:03","80fe4187154257d5fb01684ea91b68b9","41.122.202.126","Mozilla/5.0 (Windows NT 10.0; Win64; x64) AppleWebKit/537.36 (KHTML, like Gecko) Chrome/137.0.0.0 Safari/537.36","WebKit","Chrome","137.0.0.0","Windows","10.0","https://app.prolific.com/","en-US,en;q=0.9","611cd5bfd7197f8a2a3682d1","683db6dfa200031b80f2a654","6865078594cd57e558f85eb5","611cd5bfd7197f8a2a3682d1","2025-07-02T10:40:27.296Z","","","","","","MotivationQ","","","","","","","","","","","","","","","","","","","","","","","","","","","","","","","","","","","","","","50"
"","","","","ctl-task-cpt","46","1292443","0.0-10.0-0.1","122","1","2025-07-02 10:20:03","80fe4187154257d5fb01684ea91b68b9","41.122.202.126","Mozilla/5.0 (Windows NT 10.0; Win64; x64) AppleWebKit/537.36 (KHTML, like Gecko) Chrome/137.0.0.0 Safari/537.36","WebKit","Chrome","137.0.0.0","Windows","10.0","https://app.prolific.com/","en-US,en;q=0.9","611cd5bfd7197f8a2a3682d1","683db6dfa200031b80f2a654","6865078594cd57e558f85eb5","611cd5bfd7197f8a2a3682d1","2025-07-02T10:41:37.884Z","","","","","","","","","","","","","","","","win-only","1","g1:NE,g2:SW","0.9","2","0","1224138.3","47335.5","52335.9","67566.4","1","4","4","6","2","-4","-4","0","0","0","5000.4","3000","-2245","[""down"",""left""]","{""num_key_presses"":4,""num_perfect"":4,""num_errors"":0,""num_randdir"":0,""num_randdir_good_moves"":0,""num_whilered"":0,""num_whileblue"":0,""num_blue"":0,""num_good_moves"":4}","[412.57142857142856,420.47767857142856,0.4,412.57142857142856,420.47767857142856,100.5,412.57142857142856,420.47767857142856,205,412.57142857142856,420.47767857142856,305,412.57142857142856,420.47767857142856,405.2,412.57142857142856,420.47767857142856,520.4,428.57142857142856,417.47767857142856,621.2,462.57142857142856,399.47767857142856,721.3,465.57142857142856,369.47767857142856,821.3,465.57142857142856,367.47767857142856,921.4,465.57142857142856,367.47767857142856,1025.2,472.57142857142856,368.47767857142856,1125.7,474.57142857142856,368.47767857142856,1230.6,474.57142857142856,368.47767857142856,1330.7,476.57142857142856,368.47767857142856,1435.7,477.57142857142856,367.47767857142856,1553.6,477.57142857142856,367.47767857142856,1654.1,477.57142857142856,367.47767857142856,1754.9,477.57142857142856,367.47767857142856,1860.4,476.57142857142856,367.47767857142856,1960.5,476.57142857142856,367.47767857142856,2065,475.57142857142856,366.47767857142856,2169.7,475.57142857142856,366.47767857142856,2270.6,475.57142857142856,366.47767857142856,2386.3,475.57142857142856,366.47767857142856,2490.7,475.57142857142856,366.47767857142856,2594.8,475.57142857142856,366.47767857142856,2695.4,475.57142857142856,366.47767857142856,2799.9,475.57142857142856,366.47767857142856,2900.4,475.57142857142856,366.47767857142856,3005.3,475.57142857142856,366.47767857142856,3117.4,475.57142857142856,366.47767857142856,3220.6,475.57142857142856,366.47767857142856,3331.7,475.57142857142856,366.47767857142856,3435.5,475.57142857142856,366.47767857142856,3536,475.57142857142856,366.47767857142856,3639.9,475.57142857142856,366.47767857142856,3746.5,475.57142857142856,366.47767857142856,3850.6,475.57142857142856,366.47767857142856,3950.6,475.57142857142856,366.47767857142856,4055.8,475.57142857142856,366.47767857142856,4159.8,475.57142857142856,366.47767857142856,4260.3,475.57142857142856,366.47767857142856,4360.5,475.57142857142856,366.47767857142856,4464.9,475.57142857142856,366.47767857142856,4565.9,475.57142857142856,366.47767857142856,4669.7,475.57142857142856,366.47767857142856,4770.1,475.57142857142856,366.47767857142856,4870.2,475.57142857142856,366.47767857142856,4979.6]","[1131.4,1131.4,1000,0,131.4,""smooth"",""down"",""down"",""good_move"",5026.4,3894.7,2946.9,1131.8,947.7,""smooth"",""left"",""left"",""good_move"",9358.8,4332.1,2927.5,5026.7,1404.7,""smooth"",""left"",""left"",""good_move"",12504.2,3145.2,1899.4,9359,1245.8,""smooth"",""down"",""down"",""good_move""]","",""
"5838","","<div style=""width:500px;"">
  <p>What determined the result of this run?</p>
  </div>","100","html-slider-response","47","1298282","0.0-10.0-1.1","122","1","2025-07-02 10:20:03","80fe4187154257d5fb01684ea91b68b9","41.122.202.126","Mozilla/5.0 (Windows NT 10.0; Win64; x64) AppleWebKit/537.36 (KHTML, like Gecko) Chrome/137.0.0.0 Safari/537.36","WebKit","Chrome","137.0.0.0","Windows","10.0","https://app.prolific.com/","en-US,en;q=0.9","611cd5bfd7197f8a2a3682d1","683db6dfa200031b80f2a654","6865078594cd57e558f85eb5","611cd5bfd7197f8a2a3682d1","2025-07-02T10:41:43.723Z","","","","","","AttribQ","","","","","","","","","","","","","","","","","","","","","","","","","","","","","","","","","","","","","","50"
"4501","","<div style=""width:500px;"">
  <p>How much control did you have over the ball?</p>
  </div>","100","html-slider-response","48","1302785","0.0-10.0-2.1","122","1","2025-07-02 10:20:03","80fe4187154257d5fb01684ea91b68b9","41.122.202.126","Mozilla/5.0 (Windows NT 10.0; Win64; x64) AppleWebKit/537.36 (KHTML, like Gecko) Chrome/137.0.0.0 Safari/537.36","WebKit","Chrome","137.0.0.0","Windows","10.0","https://app.prolific.com/","en-US,en;q=0.9","611cd5bfd7197f8a2a3682d1","683db6dfa200031b80f2a654","6865078594cd57e558f85eb5","611cd5bfd7197f8a2a3682d1","2025-07-02T10:41:48.226Z","","","","","","ControlQ","","","","","","","","","","","","","","","","","","","","","","","","","","","","","","","","","","","","","","50"
"4370","","<div style=""width:500px;"">
  <p>How would you describe your current emotional state?</p>
  </div>","50","html-slider-response","49","1307156","0.0-10.0-3.1","122","1","2025-07-02 10:20:03","80fe4187154257d5fb01684ea91b68b9","41.122.202.126","Mozilla/5.0 (Windows NT 10.0; Win64; x64) AppleWebKit/537.36 (KHTML, like Gecko) Chrome/137.0.0.0 Safari/537.36","WebKit","Chrome","137.0.0.0","Windows","10.0","https://app.prolific.com/","en-US,en;q=0.9","611cd5bfd7197f8a2a3682d1","683db6dfa200031b80f2a654","6865078594cd57e558f85eb5","611cd5bfd7197f8a2a3682d1","2025-07-02T10:41:52.597Z","","","","","","StressQ","","","","","","","","","","","","","","","","","","","","","","","","","","","","","","","","","","","","","","50"
"3482","","<div style=""width:500px;"">
  <p>What best describes how you currently feel?</p>
  </div>","50","html-slider-response","50","1310639","0.0-10.0-4.1","122","1","2025-07-02 10:20:03","80fe4187154257d5fb01684ea91b68b9","41.122.202.126","Mozilla/5.0 (Windows NT 10.0; Win64; x64) AppleWebKit/537.36 (KHTML, like Gecko) Chrome/137.0.0.0 Safari/537.36","WebKit","Chrome","137.0.0.0","Windows","10.0","https://app.prolific.com/","en-US,en;q=0.9","611cd5bfd7197f8a2a3682d1","683db6dfa200031b80f2a654","6865078594cd57e558f85eb5","611cd5bfd7197f8a2a3682d1","2025-07-02T10:41:56.080Z","","","","","","MotivationQ","","","","","","","","","","","","","","","","","","","","","","","","","","","","","","","","","","","","","","50"
"","","","","ctl-task-cpt","51","1341984","0.0-10.0-0.2","122","1","2025-07-02 10:20:03","80fe4187154257d5fb01684ea91b68b9","41.122.202.126","Mozilla/5.0 (Windows NT 10.0; Win64; x64) AppleWebKit/537.36 (KHTML, like Gecko) Chrome/137.0.0.0 Safari/537.36","WebKit","Chrome","137.0.0.0","Windows","10.0","https://app.prolific.com/","en-US,en;q=0.9","611cd5bfd7197f8a2a3682d1","683db6dfa200031b80f2a654","6865078594cd57e558f85eb5","611cd5bfd7197f8a2a3682d1","2025-07-02T10:42:27.425Z","","","","","","","","","","","","","","","","win-only","2","g1:SE,g2:NW","0.8","3","0","1312922.3","6778.1","11797.1","28331.2","1","4","4","6","1","-1","-2","0","0","0","5019","3000","-2520","[""down"",""right""]","{""num_key_presses"":5,""num_perfect"":3,""num_errors"":1,""num_randdir"":1,""num_randdir_good_moves"":0,""num_whilered"":0,""num_whileblue"":0,""num_blue"":0,""num_good_moves"":1}","[412.57142857142856,414.47767857142856,0.4,412.57142857142856,414.47767857142856,101,412.57142857142856,414.47767857142856,202.8,412.57142857142856,414.47767857142856,305.2,412.57142857142856,414.47767857142856,407.2,412.57142857142856,414.47767857142856,507.9,412.57142857142856,414.47767857142856,617.1,413.57142857142856,414.47767857142856,717.7,419.57142857142856,415.47767857142856,818.2,452.57142857142856,428.47767857142856,938.5,476.57142857142856,439.47767857142856,1043,462.57142857142856,426.47767857142856,1143.1,409.57142857142856,386.47767857142856,1257,399.57142857142856,383.47767857142856,1357.4,453.57142857142856,447.47767857142856,1463.1,497.57142857142856,517.4776785714286,1571.3,495.57142857142856,517.4776785714286,1671.5,474.57142857142856,503.47767857142856,1772.4,473.57142857142856,501.47767857142856,1873.2,473.57142857142856,501.47767857142856,1978.1,473.57142857142856,501.47767857142856,2083,473.57142857142856,501.47767857142856,2202.9,473.57142857142856,501.47767857142856,2303,473.57142857142856,501.47767857142856,2407.7,473.57142857142856,501.47767857142856,2513.1,473.57142857142856,501.47767857142856,2615.4,473.57142857142856,501.47767857142856,2717.3,473.57142857142856,501.47767857142856,2817.8,473.57142857142856,501.47767857142856,2935.5,473.57142857142856,501.47767857142856,3038.1,473.57142857142856,501.47767857142856,3138.2,473.57142857142856,501.47767857142856,3243,473.57142857142856,501.47767857142856,3343.7,473.57142857142856,501.47767857142856,3447.3,473.57142857142856,501.47767857142856,3548.2,473.57142857142856,501.47767857142856,3652.9,473.57142857142856,501.47767857142856,3753,468.57142857142856,500.47767857142856,3867.5,466.57142857142856,499.47767857142856,3972.6,466.57142857142856,498.47767857142856,4072.7,466.57142857142856,498.47767857142856,4178.2,466.57142857142856,498.47767857142856,4278.2,466.57142857142856,498.47767857142856,4382.7,466.57142857142856,498.47767857142856,4487.1,466.57142857142856,498.47767857142856,4588,466.57142857142856,498.47767857142856,4688.1,466.57142857142856,498.47767857142856,4792.9,466.57142857142856,498.47767857142856,4893.2,466.57142857142856,498.47767857142856,4997.4]","[1903.7,1903.7,1000,0,903.7,""smooth"",""up"",""up"",""bad_move"",5071.5,3167.4,2341.1,1904.2,826.2,""oops"",""left"",""left"",""bad_move"",8652.1,3580.2,2532.2,5071.9,1048,""smooth"",""up"",""up"",""bad_move"",12591.2,3939,3137.9,8652.2,801.1,""smooth"",""down"",""down"",""good_move"",13096,504.5,2616.6,12591.5,-2112.1,""error"",""-"",""-"",""no_move""]","",""
"7272","","<div style=""width:500px;"">
  <p>What determined the result of this run?</p>
  </div>","97","html-slider-response","52","1349257","0.0-10.0-1.2","122","1","2025-07-02 10:20:03","80fe4187154257d5fb01684ea91b68b9","41.122.202.126","Mozilla/5.0 (Windows NT 10.0; Win64; x64) AppleWebKit/537.36 (KHTML, like Gecko) Chrome/137.0.0.0 Safari/537.36","WebKit","Chrome","137.0.0.0","Windows","10.0","https://app.prolific.com/","en-US,en;q=0.9","611cd5bfd7197f8a2a3682d1","683db6dfa200031b80f2a654","6865078594cd57e558f85eb5","611cd5bfd7197f8a2a3682d1","2025-07-02T10:42:34.698Z","","","","","","AttribQ","","","","","","","","","","","","","","","","","","","","","","","","","","","","","","","","","","","","","","50"
"2564","","<div style=""width:500px;"">
  <p>How much control did you have over the ball?</p>
  </div>","95","html-slider-response","53","1351822","0.0-10.0-2.2","122","1","2025-07-02 10:20:03","80fe4187154257d5fb01684ea91b68b9","41.122.202.126","Mozilla/5.0 (Windows NT 10.0; Win64; x64) AppleWebKit/537.36 (KHTML, like Gecko) Chrome/137.0.0.0 Safari/537.36","WebKit","Chrome","137.0.0.0","Windows","10.0","https://app.prolific.com/","en-US,en;q=0.9","611cd5bfd7197f8a2a3682d1","683db6dfa200031b80f2a654","6865078594cd57e558f85eb5","611cd5bfd7197f8a2a3682d1","2025-07-02T10:42:37.264Z","","","","","","ControlQ","","","","","","","","","","","","","","","","","","","","","","","","","","","","","","","","","","","","","","50"
"4705","","<div style=""width:500px;"">
  <p>How would you describe your current emotional state?</p>
  </div>","50","html-slider-response","54","1356528","0.0-10.0-3.2","122","1","2025-07-02 10:20:03","80fe4187154257d5fb01684ea91b68b9","41.122.202.126","Mozilla/5.0 (Windows NT 10.0; Win64; x64) AppleWebKit/537.36 (KHTML, like Gecko) Chrome/137.0.0.0 Safari/537.36","WebKit","Chrome","137.0.0.0","Windows","10.0","https://app.prolific.com/","en-US,en;q=0.9","611cd5bfd7197f8a2a3682d1","683db6dfa200031b80f2a654","6865078594cd57e558f85eb5","611cd5bfd7197f8a2a3682d1","2025-07-02T10:42:41.970Z","","","","","","StressQ","","","","","","","","","","","","","","","","","","","","","","","","","","","","","","","","","","","","","","50"
"2700","","<div style=""width:500px;"">
  <p>What best describes how you currently feel?</p>
  </div>","50","html-slider-response","55","1359230","0.0-10.0-4.2","122","1","2025-07-02 10:20:03","80fe4187154257d5fb01684ea91b68b9","41.122.202.126","Mozilla/5.0 (Windows NT 10.0; Win64; x64) AppleWebKit/537.36 (KHTML, like Gecko) Chrome/137.0.0.0 Safari/537.36","WebKit","Chrome","137.0.0.0","Windows","10.0","https://app.prolific.com/","en-US,en;q=0.9","611cd5bfd7197f8a2a3682d1","683db6dfa200031b80f2a654","6865078594cd57e558f85eb5","611cd5bfd7197f8a2a3682d1","2025-07-02T10:42:44.671Z","","","","","","MotivationQ","","","","","","","","","","","","","","","","","","","","","","","","","","","","","","","","","","","","","","50"
"","","","","ctl-task-cpt","56","1388774","0.0-10.0-0.3","122","1","2025-07-02 10:20:03","80fe4187154257d5fb01684ea91b68b9","41.122.202.126","Mozilla/5.0 (Windows NT 10.0; Win64; x64) AppleWebKit/537.36 (KHTML, like Gecko) Chrome/137.0.0.0 Safari/537.36","WebKit","Chrome","137.0.0.0","Windows","10.0","https://app.prolific.com/","en-US,en;q=0.9","611cd5bfd7197f8a2a3682d1","683db6dfa200031b80f2a654","6865078594cd57e558f85eb5","611cd5bfd7197f8a2a3682d1","2025-07-02T10:43:14.215Z","","","","","","","","","","","","","","","","win-only","1","g1:NE,g2:SW","0.7","4","0","1361513.9","1367.9","6371.1","26516.5","1","4","8","6","2","8","7","7","0","0.05303030303030303","5003.2","3000","975","[""down"",""left""]","{""num_key_presses"":6,""num_perfect"":3,""num_errors"":1,""num_randdir"":2,""num_randdir_good_moves"":2,""num_whilered"":0,""num_whileblue"":1,""num_blue"":2,""num_good_moves"":6}","[421.57142857142856,416.47767857142856,0.2,421.57142857142856,416.47767857142856,103.5,421.57142857142856,416.47767857142856,206.8,421.57142857142856,416.47767857142856,308,421.57142857142856,416.47767857142856,413,421.57142857142856,416.47767857142856,517.7,421.57142857142856,416.47767857142856,618.1,421.57142857142856,416.47767857142856,722.7,421.57142857142856,416.47767857142856,827.4,421.57142857142856,416.47767857142856,927.5,421.57142857142856,416.47767857142856,1028.2,421.57142857142856,416.47767857142856,1133.3,421.57142857142856,416.47767857142856,1237.3,421.57142857142856,416.47767857142856,1338.5,421.57142857142856,416.47767857142856,1439,421.57142857142856,416.47767857142856,1548.1,380.57142857142856,465.47767857142856,1665.7,325.57142857142856,530.4776785714286,1766.4,323.57142857142856,534.4776785714286,1868.6,392.57142857142856,439.47767857142856,1972.5,420.57142857142856,409.47767857142856,2072.6,438.57142857142856,390.47767857142856,2178.7,455.57142857142856,371.47767857142856,2284.6,463.57142857142856,356.47767857142856,2388.5,463.57142857142856,356.47767857142856,2492.5,463.57142857142856,356.47767857142856,2599.5,463.57142857142856,356.47767857142856,2703.6,463.57142857142856,356.47767857142856,2806.4,463.57142857142856,356.47767857142856,2908.4,463.57142857142856,356.47767857142856,3009.4,463.57142857142856,356.47767857142856,3115.1,463.57142857142856,356.47767857142856,3232.3,463.57142857142856,356.47767857142856,3332.7,463.57142857142856,359.47767857142856,3433.3,468.57142857142856,359.47767857142856,3555.5,470.57142857142856,359.47767857142856,3658.2,470.57142857142856,359.47767857142856,3759.3,470.57142857142856,359.47767857142856,3863.4,470.57142857142856,359.47767857142856,3984.4,470.57142857142856,359.47767857142856,4088.9,470.57142857142856,359.47767857142856,4195.1,470.57142857142856,359.47767857142856,4299.2,470.57142857142856,359.47767857142856,4417,470.57142857142856,359.47767857142856,4517.6,470.57142857142856,359.47767857142856,4620.5,470.57142857142856,359.47767857142856,4731.3,470.57142857142856,359.47767857142856,4833.4,470.57142857142856,359.47767857142856,4937.9]","[1444.7,1444.7,1000,0,444.8,""smooth"",""down"",""down"",""good_move"",4863.8,3418.7,2330,1445.2,1088.6,""smooth"",""left"",""left"",""good_move"",8012.6,3148.5,2767.6,4864.1,381,""smooth"",""down"",""down"",""good_move"",10769.5,2756.6,2181.4,8012.9,575.2,""oops"",""left"",""down"",""good_move"",16857.8,6088,2450.2,13873.5,534.1,""oops"",""left"",""left"",""good_move"",20032.6,3174.7,2837.2,16857.9,337.5,""while_blue"",""left"",""left"",""good_move""]","",""
"4022","","<div style=""width:500px;"">
  <p>What determined the result of this run?</p>
  </div>","100","html-slider-response","57","1392798","0.0-10.0-1.3","122","1","2025-07-02 10:20:03","80fe4187154257d5fb01684ea91b68b9","41.122.202.126","Mozilla/5.0 (Windows NT 10.0; Win64; x64) AppleWebKit/537.36 (KHTML, like Gecko) Chrome/137.0.0.0 Safari/537.36","WebKit","Chrome","137.0.0.0","Windows","10.0","https://app.prolific.com/","en-US,en;q=0.9","611cd5bfd7197f8a2a3682d1","683db6dfa200031b80f2a654","6865078594cd57e558f85eb5","611cd5bfd7197f8a2a3682d1","2025-07-02T10:43:18.239Z","","","","","","AttribQ","","","","","","","","","","","","","","","","","","","","","","","","","","","","","","","","","","","","","","50"
"3700","","<div style=""width:500px;"">
  <p>How much control did you have over the ball?</p>
  </div>","100","html-slider-response","58","1396499","0.0-10.0-2.3","122","1","2025-07-02 10:20:03","80fe4187154257d5fb01684ea91b68b9","41.122.202.126","Mozilla/5.0 (Windows NT 10.0; Win64; x64) AppleWebKit/537.36 (KHTML, like Gecko) Chrome/137.0.0.0 Safari/537.36","WebKit","Chrome","137.0.0.0","Windows","10.0","https://app.prolific.com/","en-US,en;q=0.9","611cd5bfd7197f8a2a3682d1","683db6dfa200031b80f2a654","6865078594cd57e558f85eb5","611cd5bfd7197f8a2a3682d1","2025-07-02T10:43:21.940Z","","","","","","ControlQ","","","","","","","","","","","","","","","","","","","","","","","","","","","","","","","","","","","","","","50"
"6298","","<div style=""width:500px;"">
  <p>How would you describe your current emotional state?</p>
  </div>","50","html-slider-response","59","1402799","0.0-10.0-3.3","122","1","2025-07-02 10:20:03","80fe4187154257d5fb01684ea91b68b9","41.122.202.126","Mozilla/5.0 (Windows NT 10.0; Win64; x64) AppleWebKit/537.36 (KHTML, like Gecko) Chrome/137.0.0.0 Safari/537.36","WebKit","Chrome","137.0.0.0","Windows","10.0","https://app.prolific.com/","en-US,en;q=0.9","611cd5bfd7197f8a2a3682d1","683db6dfa200031b80f2a654","6865078594cd57e558f85eb5","611cd5bfd7197f8a2a3682d1","2025-07-02T10:43:28.240Z","","","","","","StressQ","","","","","","","","","","","","","","","","","","","","","","","","","","","","","","","","","","","","","","50"
"3828","","<div style=""width:500px;"">
  <p>What best describes how you currently feel?</p>
  </div>","57","html-slider-response","60","1406628","0.0-10.0-4.3","122","1","2025-07-02 10:20:03","80fe4187154257d5fb01684ea91b68b9","41.122.202.126","Mozilla/5.0 (Windows NT 10.0; Win64; x64) AppleWebKit/537.36 (KHTML, like Gecko) Chrome/137.0.0.0 Safari/537.36","WebKit","Chrome","137.0.0.0","Windows","10.0","https://app.prolific.com/","en-US,en;q=0.9","611cd5bfd7197f8a2a3682d1","683db6dfa200031b80f2a654","6865078594cd57e558f85eb5","611cd5bfd7197f8a2a3682d1","2025-07-02T10:43:32.069Z","","","","","","MotivationQ","","","","","","","","","","","","","","","","","","","","","","","","","","","","","","","","","","","","","","50"
"","","","","ctl-task-cpt","61","1441032","0.0-10.0-0.4","122","1","2025-07-02 10:20:03","80fe4187154257d5fb01684ea91b68b9","41.122.202.126","Mozilla/5.0 (Windows NT 10.0; Win64; x64) AppleWebKit/537.36 (KHTML, like Gecko) Chrome/137.0.0.0 Safari/537.36","WebKit","Chrome","137.0.0.0","Windows","10.0","https://app.prolific.com/","en-US,en;q=0.9","611cd5bfd7197f8a2a3682d1","683db6dfa200031b80f2a654","6865078594cd57e558f85eb5","611cd5bfd7197f8a2a3682d1","2025-07-02T10:44:06.473Z","","","","","","","","","","","","","","","","win-only","3","g1:SW,g2:NE","0.6","5","0","1408911.2","3066.3","8075.4","31395.5","1","4","8","6","2","8","7","14","7","0.10606060606060606","5009.1","3000","1275","[""up"",""right""]","{""num_key_presses"":7,""num_perfect"":3,""num_errors"":1,""num_randdir"":3,""num_randdir_good_moves"":3,""num_whilered"":0,""num_whileblue"":0,""num_blue"":1,""num_good_moves"":6}","[415.57142857142856,412.47767857142856,0.2,415.57142857142856,412.47767857142856,112.9,415.57142857142856,412.47767857142856,228.8,415.57142857142856,412.47767857142856,331.9,415.57142857142856,412.47767857142856,434.2,415.57142857142856,412.47767857142856,551.9,415.57142857142856,412.47767857142856,655,414.57142857142856,413.47767857142856,755.4,377.57142857142856,452.47767857142856,859.5,354.57142857142856,467.47767857142856,977.6,354.57142857142856,467.47767857142856,1081.5,354.57142857142856,467.47767857142856,1186,354.57142857142856,467.47767857142856,1289.9,354.57142857142856,469.47767857142856,1394,354.57142857142856,469.47767857142856,1501.4,356.57142857142856,470.47767857142856,1605,356.57142857142856,472.47767857142856,1710.8,355.57142857142856,477.47767857142856,1815.3,355.57142857142856,477.47767857142856,1915.3,355.57142857142856,477.47767857142856,2015.5,355.57142857142856,477.47767857142856,2115.7,355.57142857142856,477.47767857142856,2217.4,355.57142857142856,477.47767857142856,2319.9,355.57142857142856,477.47767857142856,2420,355.57142857142856,477.47767857142856,2525.1,355.57142857142856,477.47767857142856,2625.4,355.57142857142856,477.47767857142856,2728.3,355.57142857142856,477.47767857142856,2832.1,355.57142857142856,477.47767857142856,2935.6,355.57142857142856,477.47767857142856,3039.8,355.57142857142856,477.47767857142856,3150.3,353.57142857142856,464.47767857142856,3268,353.57142857142856,458.47767857142856,3380.6,353.57142857142856,455.47767857142856,3482,353.57142857142856,454.47767857142856,3595.1,353.57142857142856,454.47767857142856,3699.1,353.57142857142856,454.47767857142856,3804.6,353.57142857142856,454.47767857142856,3916.2,353.57142857142856,454.47767857142856,4019.7,353.57142857142856,454.47767857142856,4124.1,353.57142857142856,454.47767857142856,4226.3,353.57142857142856,454.47767857142856,4329.4,353.57142857142856,454.47767857142856,4443,353.57142857142856,454.47767857142856,4545.3,353.57142857142856,454.47767857142856,4649.3,353.57142857142856,454.47767857142856,4754.4,353.57142857142856,454.47767857142856,4854.4,353.57142857142856,454.47767857142856,4955.3]","[1382,1382,1000,0,382,""oops"",""up"",""up"",""good_move"",3619.1,2236.6,1813.7,1382.5,422.9,""oops"",""right"",""up"",""good_move"",5986.5,2367.2,1929.5,3619.3,437.7,""oops"",""right"",""up"",""good_move"",8734.8,2748.2,3111.1,5986.6,-362.9,""error"",""-"",""-"",""no_move"",12603.7,3868.7,2447.4,9744.5,411.8,""smooth"",""right"",""right"",""good_move"",16599.8,3995.8,3412.2,12604,583.6,""smooth"",""right"",""right"",""good_move"",23195.9,6595.8,2032.3,20686.4,477.2,""smooth"",""right"",""right"",""good_move""]","",""
"5002","","<div style=""width:500px;"">
  <p>What determined the result of this run?</p>
  </div>","100","html-slider-response","62","1446035","0.0-10.0-1.4","122","1","2025-07-02 10:20:03","80fe4187154257d5fb01684ea91b68b9","41.122.202.126","Mozilla/5.0 (Windows NT 10.0; Win64; x64) AppleWebKit/537.36 (KHTML, like Gecko) Chrome/137.0.0.0 Safari/537.36","WebKit","Chrome","137.0.0.0","Windows","10.0","https://app.prolific.com/","en-US,en;q=0.9","611cd5bfd7197f8a2a3682d1","683db6dfa200031b80f2a654","6865078594cd57e558f85eb5","611cd5bfd7197f8a2a3682d1","2025-07-02T10:44:11.476Z","","","","","","AttribQ","","","","","","","","","","","","","","","","","","","","","","","","","","","","","","","","","","","","","","50"
"2484","","<div style=""width:500px;"">
  <p>How much control did you have over the ball?</p>
  </div>","100","html-slider-response","63","1448520","0.0-10.0-2.4","122","1","2025-07-02 10:20:03","80fe4187154257d5fb01684ea91b68b9","41.122.202.126","Mozilla/5.0 (Windows NT 10.0; Win64; x64) AppleWebKit/537.36 (KHTML, like Gecko) Chrome/137.0.0.0 Safari/537.36","WebKit","Chrome","137.0.0.0","Windows","10.0","https://app.prolific.com/","en-US,en;q=0.9","611cd5bfd7197f8a2a3682d1","683db6dfa200031b80f2a654","6865078594cd57e558f85eb5","611cd5bfd7197f8a2a3682d1","2025-07-02T10:44:13.961Z","","","","","","ControlQ","","","","","","","","","","","","","","","","","","","","","","","","","","","","","","","","","","","","","","50"
"6449","","<div style=""width:500px;"">
  <p>How would you describe your current emotional state?</p>
  </div>","45","html-slider-response","64","1454970","0.0-10.0-3.4","122","1","2025-07-02 10:20:03","80fe4187154257d5fb01684ea91b68b9","41.122.202.126","Mozilla/5.0 (Windows NT 10.0; Win64; x64) AppleWebKit/537.36 (KHTML, like Gecko) Chrome/137.0.0.0 Safari/537.36","WebKit","Chrome","137.0.0.0","Windows","10.0","https://app.prolific.com/","en-US,en;q=0.9","611cd5bfd7197f8a2a3682d1","683db6dfa200031b80f2a654","6865078594cd57e558f85eb5","611cd5bfd7197f8a2a3682d1","2025-07-02T10:44:20.411Z","","","","","","StressQ","","","","","","","","","","","","","","","","","","","","","","","","","","","","","","","","","","","","","","50"
"3994","","<div style=""width:500px;"">
  <p>What best describes how you currently feel?</p>
  </div>","57","html-slider-response","65","1458966","0.0-10.0-4.4","122","1","2025-07-02 10:20:03","80fe4187154257d5fb01684ea91b68b9","41.122.202.126","Mozilla/5.0 (Windows NT 10.0; Win64; x64) AppleWebKit/537.36 (KHTML, like Gecko) Chrome/137.0.0.0 Safari/537.36","WebKit","Chrome","137.0.0.0","Windows","10.0","https://app.prolific.com/","en-US,en;q=0.9","611cd5bfd7197f8a2a3682d1","683db6dfa200031b80f2a654","6865078594cd57e558f85eb5","611cd5bfd7197f8a2a3682d1","2025-07-02T10:44:24.407Z","","","","","","MotivationQ","","","","","","","","","","","","","","","","","","","","","","","","","","","","","","","","","","","","","","50"
"","","","","ctl-task-cpt","66","1504010","0.0-10.0-0.5","122","1","2025-07-02 10:20:03","80fe4187154257d5fb01684ea91b68b9","41.122.202.126","Mozilla/5.0 (Windows NT 10.0; Win64; x64) AppleWebKit/537.36 (KHTML, like Gecko) Chrome/137.0.0.0 Safari/537.36","WebKit","Chrome","137.0.0.0","Windows","10.0","https://app.prolific.com/","en-US,en;q=0.9","611cd5bfd7197f8a2a3682d1","683db6dfa200031b80f2a654","6865078594cd57e558f85eb5","611cd5bfd7197f8a2a3682d1","2025-07-02T10:45:09.451Z","","","","","","","","","","","","","","","","win-only","2","g1:SE,g2:NW","0.5","6","0","1461249.4","8154.4","13156.3","42026.1","1","4","4","6","2","4","2","16","14","0.12121212121212122","5001.9","3000","215","[""left"",""up""]","{""num_key_presses"":10,""num_perfect"":4,""num_errors"":2,""num_randdir"":4,""num_randdir_good_moves"":3,""num_whilered"":0,""num_whileblue"":2,""num_blue"":2,""num_good_moves"":8}","[419.57142857142856,418.47767857142856,0.3,419.57142857142856,418.47767857142856,110.9,419.57142857142856,418.47767857142856,224.2,419.57142857142856,418.47767857142856,340.9,419.57142857142856,418.47767857142856,449.8,419.57142857142856,418.47767857142856,552.2,419.57142857142856,418.47767857142856,652.7,430.57142857142856,422.47767857142856,755.4,488.57142857142856,467.47767857142856,857.6,490.57142857142856,469.47767857142856,971.6,481.57142857142856,472.47767857142856,1081.8,479.57142857142856,473.47767857142856,1182.2,479.57142857142856,473.47767857142856,1290.6,479.57142857142856,473.47767857142856,1391.2,479.57142857142856,473.47767857142856,1505.4,479.57142857142856,473.47767857142856,1620.6,479.57142857142856,473.47767857142856,1720.8,479.57142857142856,473.47767857142856,1826.5,479.57142857142856,473.47767857142856,1945.3,479.57142857142856,473.47767857142856,2047.9,493.57142857142856,483.47767857142856,2152.9,494.57142857142856,485.47767857142856,2256.6,494.57142857142856,485.47767857142856,2361.6,494.57142857142856,485.47767857142856,2462.5,494.57142857142856,485.47767857142856,2575.6,494.57142857142856,485.47767857142856,2677.7,494.57142857142856,485.47767857142856,2781.6,494.57142857142856,485.47767857142856,2897,494.57142857142856,485.47767857142856,3000.8,494.57142857142856,485.47767857142856,3101.8,494.57142857142856,485.47767857142856,3206.6,494.57142857142856,485.47767857142856,3321.8,494.57142857142856,485.47767857142856,3426.8,494.57142857142856,485.47767857142856,3530.7,496.57142857142856,486.47767857142856,3632.8,500.57142857142856,492.47767857142856,3733,501.57142857142856,495.47767857142856,3836.9,501.57142857142856,495.47767857142856,3942.3,501.57142857142856,495.47767857142856,4046.2,501.57142857142856,495.47767857142856,4161.8,501.57142857142856,495.47767857142856,4277.5,501.57142857142856,495.47767857142856,4389.3,501.57142857142856,495.47767857142856,4499,501.57142857142856,495.47767857142856,4601.2,501.57142857142856,495.47767857142856,4706.7,501.57142857142856,495.47767857142856,4807.4,501.57142857142856,495.47767857142856,4926.4]","[1611.6,1611.6,1000,0,611.6,""smooth"",""up"",""up"",""good_move"",4873.9,3261.9,2300.3,1612,961.6,""smooth"",""left"",""left"",""good_move"",7397.1,2523,2181,4874.1,342,""while_blue"",""up"",""left"",""good_move"",10219.3,2821.9,2497.8,7397.4,324.1,""while_blue"",""up"",""down"",""bad_move"",13726.7,3506.9,2519.8,10219.8,987.1,""oops"",""up"",""left"",""good_move"",16125.1,2398.2,2045.5,13726.9,352.7,""smooth"",""up"",""up"",""good_move"",19108.8,2983.4,2420.3,16125.4,563.1,""oops"",""up"",""up"",""good_move"",22020.7,2911.7,2408.7,19109,503,""oops"",""up"",""right"",""bad_move"",25616.8,3595.7,3099.3,22021.1,496.4,""smooth"",""up"",""up"",""good_move"",28736.9,3119.9,2678.9,25617,441,""oops"",""left"",""left"",""good_move""]","",""
"5647","","<div style=""width:500px;"">
  <p>What determined the result of this run?</p>
  </div>","89","html-slider-response","67","1509658","0.0-10.0-1.5","122","1","2025-07-02 10:20:03","80fe4187154257d5fb01684ea91b68b9","41.122.202.126","Mozilla/5.0 (Windows NT 10.0; Win64; x64) AppleWebKit/537.36 (KHTML, like Gecko) Chrome/137.0.0.0 Safari/537.36","WebKit","Chrome","137.0.0.0","Windows","10.0","https://app.prolific.com/","en-US,en;q=0.9","611cd5bfd7197f8a2a3682d1","683db6dfa200031b80f2a654","6865078594cd57e558f85eb5","611cd5bfd7197f8a2a3682d1","2025-07-02T10:45:15.099Z","","","","","","AttribQ","","","","","","","","","","","","","","","","","","","","","","","","","","","","","","","","","","","","","","50"
"2331","","<div style=""width:500px;"">
  <p>How much control did you have over the ball?</p>
  </div>","86","html-slider-response","68","1511991","0.0-10.0-2.5","122","1","2025-07-02 10:20:03","80fe4187154257d5fb01684ea91b68b9","41.122.202.126","Mozilla/5.0 (Windows NT 10.0; Win64; x64) AppleWebKit/537.36 (KHTML, like Gecko) Chrome/137.0.0.0 Safari/537.36","WebKit","Chrome","137.0.0.0","Windows","10.0","https://app.prolific.com/","en-US,en;q=0.9","611cd5bfd7197f8a2a3682d1","683db6dfa200031b80f2a654","6865078594cd57e558f85eb5","611cd5bfd7197f8a2a3682d1","2025-07-02T10:45:17.432Z","","","","","","ControlQ","","","","","","","","","","","","","","","","","","","","","","","","","","","","","","","","","","","","","","50"
"2970","","<div style=""width:500px;"">
  <p>How would you describe your current emotional state?</p>
  </div>","47","html-slider-response","69","1514963","0.0-10.0-3.5","122","1","2025-07-02 10:20:03","80fe4187154257d5fb01684ea91b68b9","41.122.202.126","Mozilla/5.0 (Windows NT 10.0; Win64; x64) AppleWebKit/537.36 (KHTML, like Gecko) Chrome/137.0.0.0 Safari/537.36","WebKit","Chrome","137.0.0.0","Windows","10.0","https://app.prolific.com/","en-US,en;q=0.9","611cd5bfd7197f8a2a3682d1","683db6dfa200031b80f2a654","6865078594cd57e558f85eb5","611cd5bfd7197f8a2a3682d1","2025-07-02T10:45:20.404Z","","","","","","StressQ","","","","","","","","","","","","","","","","","","","","","","","","","","","","","","","","","","","","","","50"
"2564","","<div style=""width:500px;"">
  <p>What best describes how you currently feel?</p>
  </div>","59","html-slider-response","70","1517529","0.0-10.0-4.5","122","1","2025-07-02 10:20:03","80fe4187154257d5fb01684ea91b68b9","41.122.202.126","Mozilla/5.0 (Windows NT 10.0; Win64; x64) AppleWebKit/537.36 (KHTML, like Gecko) Chrome/137.0.0.0 Safari/537.36","WebKit","Chrome","137.0.0.0","Windows","10.0","https://app.prolific.com/","en-US,en;q=0.9","611cd5bfd7197f8a2a3682d1","683db6dfa200031b80f2a654","6865078594cd57e558f85eb5","611cd5bfd7197f8a2a3682d1","2025-07-02T10:45:22.970Z","","","","","","MotivationQ","","","","","","","","","","","","","","","","","","","","","","","","","","","","","","","","","","","","","","50"
"","","","","ctl-task-cpt","71","1565382","0.0-10.0-0.6","122","1","2025-07-02 10:20:03","80fe4187154257d5fb01684ea91b68b9","41.122.202.126","Mozilla/5.0 (Windows NT 10.0; Win64; x64) AppleWebKit/537.36 (KHTML, like Gecko) Chrome/137.0.0.0 Safari/537.36","WebKit","Chrome","137.0.0.0","Windows","10.0","https://app.prolific.com/","en-US,en;q=0.9","611cd5bfd7197f8a2a3682d1","683db6dfa200031b80f2a654","6865078594cd57e558f85eb5","611cd5bfd7197f8a2a3682d1","2025-07-02T10:46:10.823Z","","","","","","","","","","","","","","","","win-only","1","g1:NE,g2:SW","0.4","7","0","1519812.7","9702.9","14703.9","44836.8","1","4","8","6","1","1","0","16","16","0.12121212121212122","5001","3000","400","[""up"",""right""]","{""num_key_presses"":9,""num_perfect"":4,""num_errors"":1,""num_randdir"":4,""num_randdir_good_moves"":2,""num_whilered"":0,""num_whileblue"":0,""num_blue"":1,""num_good_moves"":6}","[416.57142857142856,425.47767857142856,0.2,416.57142857142856,425.47767857142856,102.5,416.57142857142856,425.47767857142856,203,416.57142857142856,425.47767857142856,303,416.57142857142856,425.47767857142856,413.1,416.57142857142856,425.47767857142856,517.8,416.57142857142856,425.47767857142856,636.1,532.5714285714286,381.47767857142856,748.3,548.5714285714286,380.47767857142856,862.2,535.5714285714286,376.47767857142856,972.5,513.5714285714286,368.47767857142856,1073.2,511.57142857142856,366.47767857142856,1173.4,511.57142857142856,366.47767857142856,1273.5,511.57142857142856,366.47767857142856,1405.9,511.57142857142856,366.47767857142856,1512.6,511.57142857142856,366.47767857142856,1627.1,511.57142857142856,366.47767857142856,1727.5,511.57142857142856,366.47767857142856,1848.3,511.57142857142856,366.47767857142856,1953,511.57142857142856,366.47767857142856,2077.9,511.57142857142856,366.47767857142856,2184.6,490.57142857142856,349.47767857142856,2308.1,489.57142857142856,344.47767857142856,2413.4,489.57142857142856,346.47767857142856,2514.3,489.57142857142856,359.47767857142856,2628.3,489.57142857142856,359.47767857142856,2749.9,489.57142857142856,359.47767857142856,2852.2,489.57142857142856,359.47767857142856,2952.7,489.57142857142856,359.47767857142856,3057.3,489.57142857142856,359.47767857142856,3157.4,489.57142857142856,359.47767857142856,3258,489.57142857142856,359.47767857142856,3362.4,489.57142857142856,359.47767857142856,3479.7,489.57142857142856,359.47767857142856,3592.3,489.57142857142856,359.47767857142856,3715.8,489.57142857142856,359.47767857142856,3827.3,489.57142857142856,359.47767857142856,3928,489.57142857142856,359.47767857142856,4047.2,489.57142857142856,359.47767857142856,4172.2,489.57142857142856,359.47767857142856,4272.8,489.57142857142856,359.47767857142856,4373.3,489.57142857142856,359.47767857142856,4476.8,489.57142857142856,359.47767857142856,4595,489.57142857142856,359.47767857142856,4710.1,489.57142857142856,359.47767857142856,4824.1,489.57142857142856,359.47767857142856,4931.1]","[1390.4,1390.4,1000,0,390.4,""oops"",""down"",""left"",""bad_move"",4563.6,3172.7,2756.9,1390.9,415.8,""oops"",""down"",""left"",""bad_move"",9872.4,5308.5,3483.4,8377.1,-1988.1,""error"",""-"",""-"",""no_move"",14155.5,4282.9,2772.1,10890.9,492.5,""smooth"",""up"",""up"",""good_move"",17161.4,3005.6,1904.7,14155.8,1100.9,""oops"",""right"",""right"",""good_move"",20926.8,3765.1,2788.2,17161.7,976.9,""smooth"",""right"",""right"",""good_move"",24062.8,3135.8,2776.7,20927,359.1,""smooth"",""right"",""right"",""good_move"",27263.8,3200.8,2820.2,24063,380.6,""smooth"",""right"",""right"",""good_move"",29990.9,2727,2213.7,27263.9,513.3,""oops"",""up"",""up"",""good_move""]","",""
"3811","","<div style=""width:500px;"">
  <p>What determined the result of this run?</p>
  </div>","63","html-slider-response","72","1569194","0.0-10.0-1.6","122","1","2025-07-02 10:20:03","80fe4187154257d5fb01684ea91b68b9","41.122.202.126","Mozilla/5.0 (Windows NT 10.0; Win64; x64) AppleWebKit/537.36 (KHTML, like Gecko) Chrome/137.0.0.0 Safari/537.36","WebKit","Chrome","137.0.0.0","Windows","10.0","https://app.prolific.com/","en-US,en;q=0.9","611cd5bfd7197f8a2a3682d1","683db6dfa200031b80f2a654","6865078594cd57e558f85eb5","611cd5bfd7197f8a2a3682d1","2025-07-02T10:46:14.636Z","","","","","","AttribQ","","","","","","","","","","","","","","","","","","","","","","","","","","","","","","","","","","","","","","50"
"5943","","<div style=""width:500px;"">
  <p>How much control did you have over the ball?</p>
  </div>","86","html-slider-response","73","1575139","0.0-10.0-2.6","122","1","2025-07-02 10:20:03","80fe4187154257d5fb01684ea91b68b9","41.122.202.126","Mozilla/5.0 (Windows NT 10.0; Win64; x64) AppleWebKit/537.36 (KHTML, like Gecko) Chrome/137.0.0.0 Safari/537.36","WebKit","Chrome","137.0.0.0","Windows","10.0","https://app.prolific.com/","en-US,en;q=0.9","611cd5bfd7197f8a2a3682d1","683db6dfa200031b80f2a654","6865078594cd57e558f85eb5","611cd5bfd7197f8a2a3682d1","2025-07-02T10:46:20.580Z","","","","","","ControlQ","","","","","","","","","","","","","","","","","","","","","","","","","","","","","","","","","","","","","","50"
"3315","","<div style=""width:500px;"">
  <p>How would you describe your current emotional state?</p>
  </div>","89","html-slider-response","74","1578456","0.0-10.0-3.6","122","1","2025-07-02 10:20:03","80fe4187154257d5fb01684ea91b68b9","41.122.202.126","Mozilla/5.0 (Windows NT 10.0; Win64; x64) AppleWebKit/537.36 (KHTML, like Gecko) Chrome/137.0.0.0 Safari/537.36","WebKit","Chrome","137.0.0.0","Windows","10.0","https://app.prolific.com/","en-US,en;q=0.9","611cd5bfd7197f8a2a3682d1","683db6dfa200031b80f2a654","6865078594cd57e558f85eb5","611cd5bfd7197f8a2a3682d1","2025-07-02T10:46:23.897Z","","","","","","StressQ","","","","","","","","","","","","","","","","","","","","","","","","","","","","","","","","","","","","","","50"
"8719","","<div style=""width:500px;"">
  <p>What best describes how you currently feel?</p>
  </div>","64","html-slider-response","75","1587177","0.0-10.0-4.6","122","1","2025-07-02 10:20:03","80fe4187154257d5fb01684ea91b68b9","41.122.202.126","Mozilla/5.0 (Windows NT 10.0; Win64; x64) AppleWebKit/537.36 (KHTML, like Gecko) Chrome/137.0.0.0 Safari/537.36","WebKit","Chrome","137.0.0.0","Windows","10.0","https://app.prolific.com/","en-US,en;q=0.9","611cd5bfd7197f8a2a3682d1","683db6dfa200031b80f2a654","6865078594cd57e558f85eb5","611cd5bfd7197f8a2a3682d1","2025-07-02T10:46:32.618Z","","","","","","MotivationQ","","","","","","","","","","","","","","","","","","","","","","","","","","","","","","","","","","","","","","50"
"","","","","ctl-task-cpt","76","1644917","0.0-10.0-0.7","122","1","2025-07-02 10:20:03","80fe4187154257d5fb01684ea91b68b9","41.122.202.126","Mozilla/5.0 (Windows NT 10.0; Win64; x64) AppleWebKit/537.36 (KHTML, like Gecko) Chrome/137.0.0.0 Safari/537.36","WebKit","Chrome","137.0.0.0","Windows","10.0","https://app.prolific.com/","en-US,en;q=0.9","611cd5bfd7197f8a2a3682d1","683db6dfa200031b80f2a654","6865078594cd57e558f85eb5","611cd5bfd7197f8a2a3682d1","2025-07-02T10:47:30.359Z","","","","","","","","","","","","","","","","win-only","3","g1:SW,g2:NE","0.3","8","0","1589460.4","11248.1","16250.8","54710.5","1","4","4","6","2","-4","-5","11","16","0.08333333333333333","5002.7","3000","-1600","[""up"",""right""]","{""num_key_presses"":11,""num_perfect"":3,""num_errors"":1,""num_randdir"":7,""num_randdir_good_moves"":3,""num_whilered"":0,""num_whileblue"":1,""num_blue"":2,""num_good_moves"":7}","[418.57142857142856,412.47767857142856,0.3,418.57142857142856,412.47767857142856,103,418.57142857142856,412.47767857142856,208.4,418.57142857142856,412.47767857142856,337.6,418.57142857142856,412.47767857142856,450.1,418.57142857142856,412.47767857142856,552.9,418.57142857142856,412.47767857142856,676.2,418.57142857142856,412.47767857142856,786.4,408.57142857142856,421.47767857142856,888.2,379.57142857142856,452.47767857142856,990.8,372.57142857142856,464.47767857142856,1104.2,368.57142857142856,470.47767857142856,1215.7,366.57142857142856,472.47767857142856,1317.6,366.57142857142856,472.47767857142856,1432.8,366.57142857142856,472.47767857142856,1538.8,366.57142857142856,472.47767857142856,1666.6,366.57142857142856,472.47767857142856,1786.8,366.57142857142856,472.47767857142856,1937.2,366.57142857142856,472.47767857142856,2053.2,366.57142857142856,472.47767857142856,2178,366.57142857142856,472.47767857142856,2278.6,366.57142857142856,472.47767857142856,2378.8,366.57142857142856,472.47767857142856,2482.3,366.57142857142856,472.47767857142856,2582.7,366.57142857142856,472.47767857142856,2691.4,366.57142857142856,472.47767857142856,2793.3,366.57142857142856,472.47767857142856,2898.7,366.57142857142856,472.47767857142856,3025.3,366.57142857142856,472.47767857142856,3126.9,366.57142857142856,472.47767857142856,3256.3,366.57142857142856,472.47767857142856,3367.9,366.57142857142856,472.47767857142856,3491.4,366.57142857142856,472.47767857142856,3593.6,366.57142857142856,472.47767857142856,3716.3,366.57142857142856,472.47767857142856,3816.7,366.57142857142856,472.47767857142856,3930.4,366.57142857142856,472.47767857142856,4033,366.57142857142856,472.47767857142856,4145.9,366.57142857142856,472.47767857142856,4247.2,366.57142857142856,472.47767857142856,4347.2,366.57142857142856,472.47767857142856,4462.5,366.57142857142856,472.47767857142856,4567.9,366.57142857142856,472.47767857142856,4677.3,366.57142857142856,472.47767857142856,4781.3,366.57142857142856,472.47767857142856,4882.4,366.57142857142856,472.47767857142856,4988.5]","[1894.5,1894.5,1000,0,894.5,""oops"",""right"",""right"",""good_move"",4972.8,3077.8,2697.4,1895,380.4,""while_blue"",""right"",""right"",""good_move"",8724.6,3751.6,3249.6,4973,502,""oops"",""right"",""down"",""bad_move"",12556.8,3832.1,2355.3,8724.8,1476.8,""oops"",""right"",""down"",""bad_move"",18341.6,5784.6,1858.2,15909.3,574.1,""smooth"",""right"",""right"",""good_move"",20756.8,2415,1973.5,18341.8,441.5,""oops"",""up"",""up"",""good_move"",23772.6,3015.5,2695.7,20757.1,319.8,""smooth"",""up"",""up"",""good_move"",27496.7,3724,3399.9,23772.7,324.1,""oops"",""up"",""up"",""good_move"",30037,2540,2139.9,27497,400.1,""smooth"",""up"",""up"",""good_move"",32129.9,2092.7,1651.6,30037.2,441.1,""oops"",""up"",""left"",""bad_move"",35610.8,3480.6,3081.6,32130.2,399,""oops"",""up"",""down"",""bad_move""]","",""
"7123","","<div style=""width:500px;"">
  <p>What determined the result of this run?</p>
  </div>","32","html-slider-response","77","1652042","0.0-10.0-1.7","122","1","2025-07-02 10:20:03","80fe4187154257d5fb01684ea91b68b9","41.122.202.126","Mozilla/5.0 (Windows NT 10.0; Win64; x64) AppleWebKit/537.36 (KHTML, like Gecko) Chrome/137.0.0.0 Safari/537.36","WebKit","Chrome","137.0.0.0","Windows","10.0","https://app.prolific.com/","en-US,en;q=0.9","611cd5bfd7197f8a2a3682d1","683db6dfa200031b80f2a654","6865078594cd57e558f85eb5","611cd5bfd7197f8a2a3682d1","2025-07-02T10:47:37.483Z","","","","","","AttribQ","","","","","","","","","","","","","","","","","","","","","","","","","","","","","","","","","","","","","","50"
"6420","","<div style=""width:500px;"">
  <p>How much control did you have over the ball?</p>
  </div>","3","html-slider-response","78","1658463","0.0-10.0-2.7","122","1","2025-07-02 10:20:03","80fe4187154257d5fb01684ea91b68b9","41.122.202.126","Mozilla/5.0 (Windows NT 10.0; Win64; x64) AppleWebKit/537.36 (KHTML, like Gecko) Chrome/137.0.0.0 Safari/537.36","WebKit","Chrome","137.0.0.0","Windows","10.0","https://app.prolific.com/","en-US,en;q=0.9","611cd5bfd7197f8a2a3682d1","683db6dfa200031b80f2a654","6865078594cd57e558f85eb5","611cd5bfd7197f8a2a3682d1","2025-07-02T10:47:43.904Z","","","","","","ControlQ","","","","","","","","","","","","","","","","","","","","","","","","","","","","","","","","","","","","","","50"
"7017","","<div style=""width:500px;"">
  <p>How would you describe your current emotional state?</p>
  </div>","50","html-slider-response","79","1665481","0.0-10.0-3.7","122","1","2025-07-02 10:20:03","80fe4187154257d5fb01684ea91b68b9","41.122.202.126","Mozilla/5.0 (Windows NT 10.0; Win64; x64) AppleWebKit/537.36 (KHTML, like Gecko) Chrome/137.0.0.0 Safari/537.36","WebKit","Chrome","137.0.0.0","Windows","10.0","https://app.prolific.com/","en-US,en;q=0.9","611cd5bfd7197f8a2a3682d1","683db6dfa200031b80f2a654","6865078594cd57e558f85eb5","611cd5bfd7197f8a2a3682d1","2025-07-02T10:47:50.922Z","","","","","","StressQ","","","","","","","","","","","","","","","","","","","","","","","","","","","","","","","","","","","","","","50"
"3652","","<div style=""width:500px;"">
  <p>What best describes how you currently feel?</p>
  </div>","55","html-slider-response","80","1669134","0.0-10.0-4.7","122","1","2025-07-02 10:20:03","80fe4187154257d5fb01684ea91b68b9","41.122.202.126","Mozilla/5.0 (Windows NT 10.0; Win64; x64) AppleWebKit/537.36 (KHTML, like Gecko) Chrome/137.0.0.0 Safari/537.36","WebKit","Chrome","137.0.0.0","Windows","10.0","https://app.prolific.com/","en-US,en;q=0.9","611cd5bfd7197f8a2a3682d1","683db6dfa200031b80f2a654","6865078594cd57e558f85eb5","611cd5bfd7197f8a2a3682d1","2025-07-02T10:47:54.575Z","","","","","","MotivationQ","","","","","","","","","","","","","","","","","","","","","","","","","","","","","","","","","","","","","","50"
"","","","","ctl-task-cpt","81","1774456","0.0-10.0-0.8","122","1","2025-07-02 10:20:03","80fe4187154257d5fb01684ea91b68b9","41.122.202.126","Mozilla/5.0 (Windows NT 10.0; Win64; x64) AppleWebKit/537.36 (KHTML, like Gecko) Chrome/137.0.0.0 Safari/537.36","WebKit","Chrome","137.0.0.0","Windows","10.0","https://app.prolific.com/","en-US,en;q=0.9","611cd5bfd7197f8a2a3682d1","683db6dfa200031b80f2a654","6865078594cd57e558f85eb5","611cd5bfd7197f8a2a3682d1","2025-07-02T10:49:39.897Z","","","","","","","","","","","","","","","","win-only","0","g1:NW,g2:SE","0.4","9","0","1671419","11826.4","16827.3","102273.3","1","4","4","6","2","4","4","15","11","0.11363636363636363","5000.9","3000","685","[""down"",""right""]","{""num_key_presses"":22,""num_perfect"":10,""num_errors"":0,""num_randdir"":12,""num_randdir_good_moves"":4,""num_whilered"":0,""num_whileblue"":0,""num_blue"":3,""num_good_moves"":14}","[418.57142857142856,424.47767857142856,0.1,418.57142857142856,424.47767857142856,116.2,418.57142857142856,424.47767857142856,231.1,418.57142857142856,424.47767857142856,333.9,418.57142857142856,424.47767857142856,439.2,418.57142857142856,424.47767857142856,543.3,418.57142857142856,424.47767857142856,644.4,418.57142857142856,424.47767857142856,744.9,418.57142857142856,424.47767857142856,850.3,418.57142857142856,424.47767857142856,954.9,418.57142857142856,424.47767857142856,1060.5,418.57142857142856,424.47767857142856,1168.8,418.57142857142856,424.47767857142856,1288.9,418.57142857142856,424.47767857142856,1392.5,418.57142857142856,424.47767857142856,1494.3,418.57142857142856,424.47767857142856,1608.5,418.57142857142856,424.47767857142856,1709.6,418.57142857142856,424.47767857142856,1835.8,418.57142857142856,424.47767857142856,1939.4,418.57142857142856,424.47767857142856,2062.3,418.57142857142856,424.47767857142856,2171.3,418.57142857142856,424.47767857142856,2293.9,418.57142857142856,424.47767857142856,2394.2,418.57142857142856,424.47767857142856,2504.8,418.57142857142856,424.47767857142856,2608.8,418.57142857142856,424.47767857142856,2709.4,418.57142857142856,424.47767857142856,2810,418.57142857142856,424.47767857142856,2921,418.57142857142856,424.47767857142856,3024.6,418.57142857142856,424.47767857142856,3125,418.57142857142856,424.47767857142856,3233.7,418.57142857142856,424.47767857142856,3357.5,418.57142857142856,424.47767857142856,3460.1,418.57142857142856,424.47767857142856,3573,418.57142857142856,424.47767857142856,3680.1,418.57142857142856,424.47767857142856,3782.3,418.57142857142856,424.47767857142856,3882.9,418.57142857142856,424.47767857142856,3985.1,418.57142857142856,424.47767857142856,4085.5,418.57142857142856,424.47767857142856,4212.4,418.57142857142856,424.47767857142856,4317.9,418.57142857142856,424.47767857142856,4440.5,418.57142857142856,424.47767857142856,4573.8,418.57142857142856,424.47767857142856,4674.2,418.57142857142856,424.47767857142856,4775,418.57142857142856,424.47767857142856,4875.2,418.57142857142856,424.47767857142856,4975.2]","[1368.1,1368.2,1000,0,368.2,""smooth"",""down"",""down"",""good_move"",4057.6,2689.1,2256.1,1368.5,433,""smooth"",""down"",""down"",""good_move"",7138.4,3080.6,2732.8,4057.8,347.8,""oops"",""down"",""up"",""bad_move"",10024.4,2885.5,2565.5,7138.9,320,""oops"",""down"",""left"",""bad_move"",12561.8,2537,2147.3,10024.8,389.7,""oops"",""down"",""right"",""good_move"",15211.7,2649.5,2275.3,12562.2,374.2,""oops"",""down"",""down"",""good_move"",18395.4,3183.4,2849.9,15212,333.5,""smooth"",""down"",""down"",""good_move"",20641.2,2245.6,1852,18395.6,393.6,""smooth"",""right"",""right"",""good_move"",23352.4,2711,2276.8,20641.4,434.2,""oops"",""right"",""left"",""bad_move"",27035.6,3683.1,3338.7,23352.5,344.4,""oops"",""right"",""right"",""good_move"",30049.2,3013.5,2552.1,27035.7,461.4,""smooth"",""right"",""right"",""good_move"",33764.1,3714.7,3345.5,30049.4,369.2,""oops"",""right"",""left"",""bad_move"",37770,4005.7,2330.2,33764.3,1675.5,""smooth"",""right"",""right"",""good_move"",40702.6,2932.4,2467.5,37770.2,464.9,""oops"",""right"",""up"",""bad_move"",44828.7,4125.9,1879.4,40702.8,2246.5,""oops"",""right"",""down"",""good_move"",47285.3,2456.5,1982.1,44828.8,474.4,""oops"",""right"",""up"",""bad_move"",51633.2,4347.8,2572.3,47285.5,1775.4,""smooth"",""right"",""right"",""good_move"",53912.1,2278.6,1903,51633.5,375.6,""oops"",""down"",""left"",""bad_move"",63401.3,9489,3363,59544.8,493.5,""smooth"",""right"",""right"",""good_move"",70289,6887.5,3230.7,66638.4,419.9,""oops"",""down"",""left"",""bad_move"",81295.4,11006.2,3194.3,77653.2,447.9,""smooth"",""right"",""right"",""good_move"",84613.1,3317.3,2634.7,81295.8,682.6,""smooth"",""down"",""down"",""good_move""]","",""
"12194","","<div style=""width:500px;"">
  <p>What determined the result of this run?</p>
  </div>","68","html-slider-response","82","1786654","0.0-10.0-1.8","122","1","2025-07-02 10:20:03","80fe4187154257d5fb01684ea91b68b9","41.122.202.126","Mozilla/5.0 (Windows NT 10.0; Win64; x64) AppleWebKit/537.36 (KHTML, like Gecko) Chrome/137.0.0.0 Safari/537.36","WebKit","Chrome","137.0.0.0","Windows","10.0","https://app.prolific.com/","en-US,en;q=0.9","611cd5bfd7197f8a2a3682d1","683db6dfa200031b80f2a654","6865078594cd57e558f85eb5","611cd5bfd7197f8a2a3682d1","2025-07-02T10:49:52.095Z","","","","","","AttribQ","","","","","","","","","","","","","","","","","","","","","","","","","","","","","","","","","","","","","","50"
"7964","","<div style=""width:500px;"">
  <p>How much control did you have over the ball?</p>
  </div>","62","html-slider-response","83","1794623","0.0-10.0-2.8","122","1","2025-07-02 10:20:03","80fe4187154257d5fb01684ea91b68b9","41.122.202.126","Mozilla/5.0 (Windows NT 10.0; Win64; x64) AppleWebKit/537.36 (KHTML, like Gecko) Chrome/137.0.0.0 Safari/537.36","WebKit","Chrome","137.0.0.0","Windows","10.0","https://app.prolific.com/","en-US,en;q=0.9","611cd5bfd7197f8a2a3682d1","683db6dfa200031b80f2a654","6865078594cd57e558f85eb5","611cd5bfd7197f8a2a3682d1","2025-07-02T10:50:00.064Z","","","","","","ControlQ","","","","","","","","","","","","","","","","","","","","","","","","","","","","","","","","","","","","","","50"
"3551","","<div style=""width:500px;"">
  <p>How would you describe your current emotional state?</p>
  </div>","67","html-slider-response","84","1798176","0.0-10.0-3.8","122","1","2025-07-02 10:20:03","80fe4187154257d5fb01684ea91b68b9","41.122.202.126","Mozilla/5.0 (Windows NT 10.0; Win64; x64) AppleWebKit/537.36 (KHTML, like Gecko) Chrome/137.0.0.0 Safari/537.36","WebKit","Chrome","137.0.0.0","Windows","10.0","https://app.prolific.com/","en-US,en;q=0.9","611cd5bfd7197f8a2a3682d1","683db6dfa200031b80f2a654","6865078594cd57e558f85eb5","611cd5bfd7197f8a2a3682d1","2025-07-02T10:50:03.617Z","","","","","","StressQ","","","","","","","","","","","","","","","","","","","","","","","","","","","","","","","","","","","","","","50"
"4854","","<div style=""width:500px;"">
  <p>What best describes how you currently feel?</p>
  </div>","50","html-slider-response","85","1803031","0.0-10.0-4.8","122","1","2025-07-02 10:20:03","80fe4187154257d5fb01684ea91b68b9","41.122.202.126","Mozilla/5.0 (Windows NT 10.0; Win64; x64) AppleWebKit/537.36 (KHTML, like Gecko) Chrome/137.0.0.0 Safari/537.36","WebKit","Chrome","137.0.0.0","Windows","10.0","https://app.prolific.com/","en-US,en;q=0.9","611cd5bfd7197f8a2a3682d1","683db6dfa200031b80f2a654","6865078594cd57e558f85eb5","611cd5bfd7197f8a2a3682d1","2025-07-02T10:50:08.472Z","","","","","","MotivationQ","","","","","","","","","","","","","","","","","","","","","","","","","","","","","","","","","","","","","","50"
