"rt","response_timestamp","stimulus","response","trial_type","trial_index","time_elapsed","internal_node_id","run_id","condition","recorded_at","source_code_version","ip","user_agent","device","browser","browser_version","platform","platform_version","referer","accept_language","PROLIFIC_PID","STUDY_ID","SESSION_ID","prolific_id","realtime","view_history","question_order","consent","success","question_id","eventType","responses","item_order","radio_event_ids","radio_event_times","key_event_times","mouse_event_times","straightlining","zigzagging","honeypot","which_type","canvas_config","goals_layout","control_level","trial_number","tutorial_trial_number","trial_start_time","phase1_start_time","phase2_start_time","phase3_start_time","goal_1_value","goal_1_distance","goal_2_value","goal_2_distance","goal_selected","outcome","outcome_total","participant_final_score","participant_initial_score","participant_final_score_prop","goal_choice_rt","allocated_time","allocated_time_remaining","goal_direction","counts","mouse_movements","key_presses","correct","slider_start"
"266751","1751454614828","<p style='font-size:40px;line-height:1.25'><strong>Welcome to the experiment!</strong></p><p style='font-size:1.1em;line-height:1.25'>Thank you for your interest in our experiment! Before you begin, it is important that we obtain your informed consent to participate in the study.</p><p style='font-size:1.1em;line-height:1.25'>On the next screen will be an <strong>information sheet</strong> for you to read. To participate in the study we need you to read this information sheet and the following consent form carefully. If you agree with all the statements, please click the <strong>I agree</strong> button.</p><p style='font-size:1.1em;line-height:1.25'>Press <strong>Next</strong> to read the information sheet.</p>","0","custom-html-button-response","0","266756","0.0-0.0","219","1","2025-07-02 11:05:43","80fe4187154257d5fb01684ea91b68b9","41.150.49.16","Mozilla/5.0 (Windows NT 10.0; Win64; x64) AppleWebKit/537.36 (KHTML, like Gecko) Chrome/138.0.0.0 Safari/537.36","WebKit","Chrome","138.0.0.0","Windows","10.0","https://app.prolific.com/","en-ZA,en-GB;q=0.9,en-US;q=0.8,en;q=0.7","61267b828ead584bcf092e35","683db6dfa200031b80f2a654","686512600b0f53dfe59fc162","61267b828ead584bcf092e35","2025-07-02T11:10:14.830Z","","","","","","","","","","","","","","","","","","","","","","","","","","","","","","","","","","","","","","","","","","","",""
"199699","","","","instructions","1","466457","0.0-1.0","219","1","2025-07-02 11:05:43","80fe4187154257d5fb01684ea91b68b9","41.150.49.16","Mozilla/5.0 (Windows NT 10.0; Win64; x64) AppleWebKit/537.36 (KHTML, like Gecko) Chrome/138.0.0.0 Safari/537.36","WebKit","Chrome","138.0.0.0","Windows","10.0","https://app.prolific.com/","en-ZA,en-GB;q=0.9,en-US;q=0.8,en;q=0.7","61267b828ead584bcf092e35","683db6dfa200031b80f2a654","686512600b0f53dfe59fc162","61267b828ead584bcf092e35","","[{""page_index"":0,""viewing_time"":185632},{""page_index"":1,""viewing_time"":14067}]","","","","","","","","","","","","","","","","","","","","","","","","","","","","","","","","","","","","","","","","","","",""
"24834","","","{""Q0"":"""",""Q1"":"""",""Q2"":"""",""Q3"":"""",""Q4"":"""",""Q5"":"""",""Q6"":""I agree""}","survey-multi-choice","2","491294","0.0-2.0","219","1","2025-07-02 11:05:43","80fe4187154257d5fb01684ea91b68b9","41.150.49.16","Mozilla/5.0 (Windows NT 10.0; Win64; x64) AppleWebKit/537.36 (KHTML, like Gecko) Chrome/138.0.0.0 Safari/537.36","WebKit","Chrome","138.0.0.0","Windows","10.0","https://app.prolific.com/","en-ZA,en-GB;q=0.9,en-US;q=0.8,en;q=0.7","61267b828ead584bcf092e35","683db6dfa200031b80f2a654","686512600b0f53dfe59fc162","61267b828ead584bcf092e35","","","[0,1,2,3,4,5,6]","true","","","","","","","","","","","","","","","","","","","","","","","","","","","","","","","","","","","","","","","","",""
"16912","","","","fullscreen","3","509218","0.0-4.0","219","1","2025-07-02 11:05:43","80fe4187154257d5fb01684ea91b68b9","41.150.49.16","Mozilla/5.0 (Windows NT 10.0; Win64; x64) AppleWebKit/537.36 (KHTML, like Gecko) Chrome/138.0.0.0 Safari/537.36","WebKit","Chrome","138.0.0.0","Windows","10.0","https://app.prolific.com/","en-ZA,en-GB;q=0.9,en-US;q=0.8,en;q=0.7","61267b828ead584bcf092e35","683db6dfa200031b80f2a654","686512600b0f53dfe59fc162","61267b828ead584bcf092e35","","","","","true","","","","","","","","","","","","","","","","","","","","","","","","","","","","","","","","","","","","","","","",""
"63771","1751454921064"," <p style='font-size:1.1em;line-height:1.25'>Thank you for completing the consent form and closing all other tabs.</p><p style='font-size:1.1em;line-height:1.25'>We will now invite you to fill in some demographic information and questionnaires, before starting the game.<br>This will take about 5 minutes.<br></p><p style='font-size:1.1em;line-height:1.25'>Press the <strong>Next</strong> button to continue.</p>","0","custom-html-button-response","4","572990","0.0-5.0","219","1","2025-07-02 11:05:43","80fe4187154257d5fb01684ea91b68b9","41.150.49.16","Mozilla/5.0 (Windows NT 10.0; Win64; x64) AppleWebKit/537.36 (KHTML, like Gecko) Chrome/138.0.0.0 Safari/537.36","WebKit","Chrome","138.0.0.0","Windows","10.0","https://app.prolific.com/","en-ZA,en-GB;q=0.9,en-US;q=0.8,en;q=0.7","61267b828ead584bcf092e35","683db6dfa200031b80f2a654","686512600b0f53dfe59fc162","61267b828ead584bcf092e35","2025-07-02T11:15:21.065Z","","","","","","","","","","","","","","","","","","","","","","","","","","","","","","","","","","","","","","","","","","","",""
"4289","","","{""age"":""36""}","survey-text","5","577284","0.0-6.0-0.0","219","1","2025-07-02 11:05:43","80fe4187154257d5fb01684ea91b68b9","41.150.49.16","Mozilla/5.0 (Windows NT 10.0; Win64; x64) AppleWebKit/537.36 (KHTML, like Gecko) Chrome/138.0.0.0 Safari/537.36","WebKit","Chrome","138.0.0.0","Windows","10.0","https://app.prolific.com/","en-ZA,en-GB;q=0.9,en-US;q=0.8,en;q=0.7","61267b828ead584bcf092e35","683db6dfa200031b80f2a654","686512600b0f53dfe59fc162","61267b828ead584bcf092e35","","","","","","0","demographics","","","","","","","","","","","","","","","","","","","","","","","","","","","","","","","","","","","","","",""
"10605","","","{""gender_identity"":""female/woman""}","survey-multi-choice","6","587891","0.0-6.0-1.0","219","1","2025-07-02 11:05:43","80fe4187154257d5fb01684ea91b68b9","41.150.49.16","Mozilla/5.0 (Windows NT 10.0; Win64; x64) AppleWebKit/537.36 (KHTML, like Gecko) Chrome/138.0.0.0 Safari/537.36","WebKit","Chrome","138.0.0.0","Windows","10.0","https://app.prolific.com/","en-ZA,en-GB;q=0.9,en-US;q=0.8,en;q=0.7","61267b828ead584bcf092e35","683db6dfa200031b80f2a654","686512600b0f53dfe59fc162","61267b828ead584bcf092e35","","","[0]","","","1","demographics","","","","","","","","","","","","","","","","","","","","","","","","","","","","","","","","","","","","","",""
"5697","","","{""assigned_sex"":""female""}","survey-multi-choice","7","593591","0.0-6.0-2.0","219","1","2025-07-02 11:05:43","80fe4187154257d5fb01684ea91b68b9","41.150.49.16","Mozilla/5.0 (Windows NT 10.0; Win64; x64) AppleWebKit/537.36 (KHTML, like Gecko) Chrome/138.0.0.0 Safari/537.36","WebKit","Chrome","138.0.0.0","Windows","10.0","https://app.prolific.com/","en-ZA,en-GB;q=0.9,en-US;q=0.8,en;q=0.7","61267b828ead584bcf092e35","683db6dfa200031b80f2a654","686512600b0f53dfe59fc162","61267b828ead584bcf092e35","","","[0]","","","2","demographics","","","","","","","","","","","","","","","","","","","","","","","","","","","","","","","","","","","","","",""
"5748","","","{""menstrual_cycle"":""Yes""}","survey-multi-choice","8","599341","0.0-6.0-3.0","219","1","2025-07-02 11:05:43","80fe4187154257d5fb01684ea91b68b9","41.150.49.16","Mozilla/5.0 (Windows NT 10.0; Win64; x64) AppleWebKit/537.36 (KHTML, like Gecko) Chrome/138.0.0.0 Safari/537.36","WebKit","Chrome","138.0.0.0","Windows","10.0","https://app.prolific.com/","en-ZA,en-GB;q=0.9,en-US;q=0.8,en;q=0.7","61267b828ead584bcf092e35","683db6dfa200031b80f2a654","686512600b0f53dfe59fc162","61267b828ead584bcf092e35","","","[0]","","","4","demographics","","","","","","","","","","","","","","","","","","","","","","","","","","","","","","","","","","","","","",""
"9999","","","{""education"":""Bachelor's Degree (e.g., BA)""}","survey-multi-choice","9","609342","0.0-6.0-4.0","219","1","2025-07-02 11:05:43","80fe4187154257d5fb01684ea91b68b9","41.150.49.16","Mozilla/5.0 (Windows NT 10.0; Win64; x64) AppleWebKit/537.36 (KHTML, like Gecko) Chrome/138.0.0.0 Safari/537.36","WebKit","Chrome","138.0.0.0","Windows","10.0","https://app.prolific.com/","en-ZA,en-GB;q=0.9,en-US;q=0.8,en;q=0.7","61267b828ead584bcf092e35","683db6dfa200031b80f2a654","686512600b0f53dfe59fc162","61267b828ead584bcf092e35","","","[0]","","","5","demographics","","","","","","","","","","","","","","","","","","","","","","","","","","","","","","","","","","","","","",""
"21000","","","{""education"":""Higher National Diploma""}","survey-multi-choice","10","630345","0.0-6.0-5.0","219","1","2025-07-02 11:05:43","80fe4187154257d5fb01684ea91b68b9","41.150.49.16","Mozilla/5.0 (Windows NT 10.0; Win64; x64) AppleWebKit/537.36 (KHTML, like Gecko) Chrome/138.0.0.0 Safari/537.36","WebKit","Chrome","138.0.0.0","Windows","10.0","https://app.prolific.com/","en-ZA,en-GB;q=0.9,en-US;q=0.8,en;q=0.7","61267b828ead584bcf092e35","683db6dfa200031b80f2a654","686512600b0f53dfe59fc162","61267b828ead584bcf092e35","2025-07-02T11:16:18.419Z","","[0]","","","6","demographics","","","","","","","","","","","","","","","","","","","","","","","","","","","","","","","","","","","","","",""
"28049","","","{""mental_health_condition"":""no"",""mental_health_treatment"":""no"",""psychiatric_medication"":""none""}","survey-text","11","658401","0.0-7.0-0.0","219","1","2025-07-02 11:05:43","80fe4187154257d5fb01684ea91b68b9","41.150.49.16","Mozilla/5.0 (Windows NT 10.0; Win64; x64) AppleWebKit/537.36 (KHTML, like Gecko) Chrome/138.0.0.0 Safari/537.36","WebKit","Chrome","138.0.0.0","Windows","10.0","https://app.prolific.com/","en-ZA,en-GB;q=0.9,en-US;q=0.8,en;q=0.7","61267b828ead584bcf092e35","683db6dfa200031b80f2a654","686512600b0f53dfe59fc162","61267b828ead584bcf092e35","2025-07-02T11:16:46.476Z","","","","","1","mental_health","","","","","","","","","","","","","","","","","","","","","","","","","","","","","","","","","","","","","",""
"26511","","","{""depression_history"":[""Yes""]}","survey-multi-select","12","684919","0.0-7.0-1.0","219","1","2025-07-02 11:05:43","80fe4187154257d5fb01684ea91b68b9","41.150.49.16","Mozilla/5.0 (Windows NT 10.0; Win64; x64) AppleWebKit/537.36 (KHTML, like Gecko) Chrome/138.0.0.0 Safari/537.36","WebKit","Chrome","138.0.0.0","Windows","10.0","https://app.prolific.com/","en-ZA,en-GB;q=0.9,en-US;q=0.8,en;q=0.7","61267b828ead584bcf092e35","683db6dfa200031b80f2a654","686512600b0f53dfe59fc162","61267b828ead584bcf092e35","","","[0]","","","","mental_health","","","","","","","","","","","","","","","","","","","","","","","","","","","","","","","","","","","","","",""
"43152","","","{""depression_episodes"":""3-5"",""depression_recent"":""More than 1 year ago""}","survey-multi-choice","13","728074","0.0-7.0-2.0-0.0","219","1","2025-07-02 11:05:43","80fe4187154257d5fb01684ea91b68b9","41.150.49.16","Mozilla/5.0 (Windows NT 10.0; Win64; x64) AppleWebKit/537.36 (KHTML, like Gecko) Chrome/138.0.0.0 Safari/537.36","WebKit","Chrome","138.0.0.0","Windows","10.0","https://app.prolific.com/","en-ZA,en-GB;q=0.9,en-US;q=0.8,en;q=0.7","61267b828ead584bcf092e35","683db6dfa200031b80f2a654","686512600b0f53dfe59fc162","61267b828ead584bcf092e35","2025-07-02T11:17:56.148Z","","[0,1]","","","3","mental_health","","","","","","","","","","","","","","","","","","","","","","","","","","","","","","","","","","","","","",""
"138743.79999995232","","","","survey-template","14","866826","0.0-7.0-3.0","219","1","2025-07-02 11:05:43","80fe4187154257d5fb01684ea91b68b9","41.150.49.16","Mozilla/5.0 (Windows NT 10.0; Win64; x64) AppleWebKit/537.36 (KHTML, like Gecko) Chrome/138.0.0.0 Safari/537.36","WebKit","Chrome","138.0.0.0","Windows","10.0","https://app.prolific.com/","en-ZA,en-GB;q=0.9,en-US;q=0.8,en;q=0.7","61267b828ead584bcf092e35","683db6dfa200031b80f2a654","686512600b0f53dfe59fc162","61267b828ead584bcf092e35","2025-07-02T11:20:14.901Z","","","","","","ius","{""Q01"":""2"",""Q02"":""4"",""Q03"":""3"",""Q04"":""4"",""Q05"":""1"",""Q06"":""3"",""Q07"":""3"",""Q08"":""0"",""Q09"":""4"",""Q10"":""3"",""Q11"":""2"",""Q12"":""4"",""Q13"":""3""}","[0,1,2,3,4,5,6,7,8,9,10,11,12]","[""Q01"",""Q02"",""Q03"",""Q04"",""Q05"",""Q06"",""Q07"",""Q06"",""Q08"",""Q09"",""Q10"",""Q11"",""Q12"",""Q13""]","[25087.299999952316,40403.89999997616,46070.19999998808,51504.299999952316,62154.19999998808,74904.39999997616,88037,89254.69999998808,95904.19999998808,102772.69999998808,109122.5,120589.5,124538.79999995232,132772.59999996424]","[]","[25087.299999952316,40403.89999997616,46070.19999998808,51504.299999952316,62154.19999998808,74904.39999997616,88037,89254.69999998808,95904.19999998808,102772.69999998808,109122.5,120589.5,124538.79999995232,132772.59999996424,138739.5]","0.38461538461538464","0.5","0","","","","","","","","","","","","","","","","","","","","","","","","","","","","",""
"5891","1751455220793","<p style='font-size:1.1em;line-height:1.25'>In the following, we will ask you a few questions relating to your experiences over the past month.<br></p><p style='font-size:1.1em;line-height:1.25'>Press the <strong>Next</strong> button to continue.</p>","0","custom-html-button-response","15","872720","0.0-7.0-4.0","219","1","2025-07-02 11:05:43","80fe4187154257d5fb01684ea91b68b9","41.150.49.16","Mozilla/5.0 (Windows NT 10.0; Win64; x64) AppleWebKit/537.36 (KHTML, like Gecko) Chrome/138.0.0.0 Safari/537.36","WebKit","Chrome","138.0.0.0","Windows","10.0","https://app.prolific.com/","en-ZA,en-GB;q=0.9,en-US;q=0.8,en;q=0.7","61267b828ead584bcf092e35","683db6dfa200031b80f2a654","686512600b0f53dfe59fc162","61267b828ead584bcf092e35","2025-07-02T11:20:20.794Z","","","","","","","","","","","","","","","","","","","","","","","","","","","","","","","","","","","","","","","","","","","",""
"175171.09999996424","","","","survey-template","16","1047895","0.0-7.0-5.0","219","1","2025-07-02 11:05:43","80fe4187154257d5fb01684ea91b68b9","41.150.49.16","Mozilla/5.0 (Windows NT 10.0; Win64; x64) AppleWebKit/537.36 (KHTML, like Gecko) Chrome/138.0.0.0 Safari/537.36","WebKit","Chrome","138.0.0.0","Windows","10.0","https://app.prolific.com/","en-ZA,en-GB;q=0.9,en-US;q=0.8,en;q=0.7","61267b828ead584bcf092e35","683db6dfa200031b80f2a654","686512600b0f53dfe59fc162","61267b828ead584bcf092e35","2025-07-02T11:23:15.969Z","","","","","","pss","{""Q01"":""3"",""Q02"":""3"",""Q03"":""2"",""Q04"":""0"",""Q05"":""2"",""Q06"":""1"",""Q07"":""1"",""Q08"":""1"",""Q09"":""3"",""Q10"":""4""}","[0,1,2,3,4,5,6,7,8,9]","[""Q01"",""Q02"",""Q03"",""Q04"",""Q05"",""Q06"",""Q06"",""Q07"",""Q08"",""Q08"",""Q09"",""Q10""]","[42414.09999996424,54131.89999997616,63813.39999997616,76780.59999996424,95082.09999996424,108914.19999998808,121898.69999998808,131782.19999998808,142616,147298.59999996424,162432.39999997616,173018]","[]","[17.5,42414.09999996424,54131.89999997616,63813.39999997616,76780.59999996424,93466.39999997616,95082.09999996424,108914.19999998808,121898.69999998808,131782.19999998808,142616,147298.59999996424,162432.39999997616,173018,175166.19999998808]","0.5","0.3333333333333333","0","","","","","","","","","","","","","","","","","","","","","","","","","","","","",""
"5975","1751455401946","<p style='font-size:1.1em;line-height:1.25'>Thank you for your answers! Now we will ask you a few more questions relating to your feelings in the last 24 hours.<br></p><p style='font-size:1.1em;line-height:1.25'>Press the <strong>Next</strong> button to continue.</p>","0","custom-html-button-response","17","1053873","0.0-7.0-6.0","219","1","2025-07-02 11:05:43","80fe4187154257d5fb01684ea91b68b9","41.150.49.16","Mozilla/5.0 (Windows NT 10.0; Win64; x64) AppleWebKit/537.36 (KHTML, like Gecko) Chrome/138.0.0.0 Safari/537.36","WebKit","Chrome","138.0.0.0","Windows","10.0","https://app.prolific.com/","en-ZA,en-GB;q=0.9,en-US;q=0.8,en;q=0.7","61267b828ead584bcf092e35","683db6dfa200031b80f2a654","686512600b0f53dfe59fc162","61267b828ead584bcf092e35","2025-07-02T11:23:21.947Z","","","","","","","","","","","","","","","","","","","","","","","","","","","","","","","","","","","","","","","","","","","",""
"162721.60000002384","","","","survey-template","18","1216600","0.0-7.0-7.0","219","1","2025-07-02 11:05:43","80fe4187154257d5fb01684ea91b68b9","41.150.49.16","Mozilla/5.0 (Windows NT 10.0; Win64; x64) AppleWebKit/537.36 (KHTML, like Gecko) Chrome/138.0.0.0 Safari/537.36","WebKit","Chrome","138.0.0.0","Windows","10.0","https://app.prolific.com/","en-ZA,en-GB;q=0.9,en-US;q=0.8,en;q=0.7","61267b828ead584bcf092e35","683db6dfa200031b80f2a654","686512600b0f53dfe59fc162","61267b828ead584bcf092e35","2025-07-02T11:26:04.674Z","","","","","","drsp","{""Q01"":""1"",""Q02"":""0"",""Q03"":""1"",""Q04"":""1"",""Q05"":""0"",""Q06"":""2"",""Q07"":""3"",""Q08"":""1"",""Q09"":""0"",""Q10"":""0"",""Q11"":""0"",""Q12"":""0"",""Q13"":""1"",""Q14"":""3"",""Q15"":""0"",""Q16"":""2"",""Q17"":""0"",""Q18"":""3"",""Q19"":""1"",""Q20"":""1"",""Q21"":""2""}","[0,1,2,3,4,5,6,7,8,9,10,11,12,13,14,15,16,17,18,19,20]","[""Q01"",""Q02"",""Q03"",""Q04"",""Q05"",""Q06"",""Q07"",""Q07"",""Q08"",""Q09"",""Q10"",""Q11"",""Q12"",""Q13"",""Q14"",""Q15"",""Q14"",""Q16"",""Q16"",""Q17"",""Q18"",""Q19"",""Q20"",""Q21""]","[11294.800000011921,13929.5,19144,25496.400000035763,31446,39161.60000002384,42677.700000047684,46411.40000003576,57660.10000002384,69279,72995.5,75745.70000004768,82645.10000002384,87013.10000002384,94613.80000001192,100163.10000002384,103529.40000003576,110396.10000002384,113562.10000002384,117762.70000004768,129113.90000003576,140411.70000004768,148211.20000004768,155047.60000002384]","[]","[27.5,11294.800000011921,13929.5,19144,25496.400000035763,31446,39161.60000002384,42677.700000047684,46411.40000003576,57660.10000002384,67812,69279,72995.5,75745.70000004768,82645.10000002384,87013.10000002384,94613.80000001192,100163.10000002384,103529.40000003576,110396.10000002384,113562.10000002384,117762.70000004768,129113.90000003576,140411.70000004768,148211.20000004768,155047.60000002384,162714]","0.38095238095238093","0.35","0","","","","","","","","","","","","","","","","","","","","","","","","","","","","",""
"32323.19999998808","","","","survey-template","19","1248926","0.0-7.0-8.0","219","1","2025-07-02 11:05:43","80fe4187154257d5fb01684ea91b68b9","41.150.49.16","Mozilla/5.0 (Windows NT 10.0; Win64; x64) AppleWebKit/537.36 (KHTML, like Gecko) Chrome/138.0.0.0 Safari/537.36","WebKit","Chrome","138.0.0.0","Windows","10.0","https://app.prolific.com/","en-ZA,en-GB;q=0.9,en-US;q=0.8,en;q=0.7","61267b828ead584bcf092e35","683db6dfa200031b80f2a654","686512600b0f53dfe59fc162","61267b828ead584bcf092e35","2025-07-02T11:26:37.000Z","","","","","","stress","{""Q01"":""2"",""Q02"":""2"",""Q03"":""2""}","[0,1,2]","[""Q01"",""Q01"",""Q01"",""Q02"",""Q03"",""Q03""]","[5219.599999964237,6852.899999976158,12736.399999976158,18203.19999998808,27968.799999952316,30704.5]","[]","[5219.599999964237,6852.899999976158,12736.399999976158,18203.19999998808,27968.799999952316,30704.5,32321.5]","0.6666666666666666","1","0","","","","","","","","","","","","","","","","","","","","","","","","","","","","",""
"156084","","","","instructions","20","1405012","0.0-8.0-0.0","219","1","2025-07-02 11:05:43","80fe4187154257d5fb01684ea91b68b9","41.150.49.16","Mozilla/5.0 (Windows NT 10.0; Win64; x64) AppleWebKit/537.36 (KHTML, like Gecko) Chrome/138.0.0.0 Safari/537.36","WebKit","Chrome","138.0.0.0","Windows","10.0","https://app.prolific.com/","en-ZA,en-GB;q=0.9,en-US;q=0.8,en;q=0.7","61267b828ead584bcf092e35","683db6dfa200031b80f2a654","686512600b0f53dfe59fc162","61267b828ead584bcf092e35","","[{""page_index"":0,""viewing_time"":34813},{""page_index"":1,""viewing_time"":45815},{""page_index"":2,""viewing_time"":21782},{""page_index"":3,""viewing_time"":53672}]","","","","","","","","","","","","","","","","","","","","","","","","","","","","","","","","","","","","","","","","","","",""
"","","","","ctl-task-cpt","21","1444609","0.0-8.0-1.0","219","1","2025-07-02 11:05:43","80fe4187154257d5fb01684ea91b68b9","41.150.49.16","Mozilla/5.0 (Windows NT 10.0; Win64; x64) AppleWebKit/537.36 (KHTML, like Gecko) Chrome/138.0.0.0 Safari/537.36","WebKit","Chrome","138.0.0.0","Windows","10.0","https://app.prolific.com/","en-ZA,en-GB;q=0.9,en-US;q=0.8,en;q=0.7","61267b828ead584bcf092e35","683db6dfa200031b80f2a654","686512600b0f53dfe59fc162","61267b828ead584bcf092e35","","","","","","","","","","","","","","","","","win-only","0","g1:NW,g2:SE","1","0","1","1408235.4","5496.3","9497","36576.2","2","4","4","6","2","4","2","2","0","0.015151515151515152","2231.8","4000","555","[""down"",""right""]","{""num_key_presses"":9,""num_perfect"":6,""num_errors"":2,""num_randdir"":0,""num_randdir_good_moves"":0,""num_whilered"":1,""num_whileblue"":0,""num_blue"":2,""num_good_moves"":6}","[415.3214133126395,419.07142761775424,3.2,415.3214133126395,419.07142761775424,100.2,415.3214133126395,419.07142761775424,200.5,415.3214133126395,419.07142761775424,306.4,415.3214133126395,419.07142761775424,410.8,415.3214133126395,419.07142761775424,512.7,415.3214133126395,419.07142761775424,612.9,415.3214133126395,419.07142761775424,715,457.8214133126395,424.07142761775424,819.5,580.3214133126395,472.82142761775424,920.7,754.0714133126395,627.8214276177542,1029.1,770.3214133126395,690.3214276177542,1130.1,515.3214133126395,585.3214276177542,1230.7,192.8214133126395,276.57142761775424,1334.3,391.5714133126395,299.07142761775424,1434.8,589.0714133126395,526.5714276177542,1535.3,644.0714133126395,626.5714276177542,1646.9,667.8214133126395,676.5714276177542,1750.2,721.5714133126395,716.5714276177542,1851.1,752.8214133126395,741.5714276177542,1951.8,760.3214133126395,751.5714276177542,2055.3,760.3214133126395,751.5714276177542,2162.4,760.3214133126395,751.5714276177542,2265.1,760.3214133126395,751.5714276177542,2370.4,760.3214133126395,751.5714276177542,2479.8,760.3214133126395,751.5714276177542,2585.1,760.3214133126395,751.5714276177542,2690.2,760.3214133126395,751.5714276177542,2790.2,760.3214133126395,751.5714276177542,2895.2,760.3214133126395,751.5714276177542,2999.6,760.3214133126395,751.5714276177542,3100.3,760.3214133126395,751.5714276177542,3200.4,760.3214133126395,751.5714276177542,3300.5,760.3214133126395,751.5714276177542,3400.8,760.3214133126395,751.5714276177542,3500.8,760.3214133126395,751.5714276177542,3600.8,760.3214133126395,751.5714276177542,3704.5,760.3214133126395,751.5714276177542,3805,760.3214133126395,751.5714276177542,3905.2]","[1693.7,1693.6,1000,0.2,693.6,""smooth"",""right"",""right"",""good_move"",2446.7,752.4,2291.2,1694.4,-1538.8,""error"",""-"",""-"",""no_move"",2793.7,346.6,2291.2,1694.4,-1191.9,""while_red"",""-"",""-"",""no_move"",6544,4096.9,2442.3,3450.1,651.6,""smooth"",""right"",""right"",""good_move"",7214.2,668.9,1090.3,6545.3,-421.4,""error"",""-"",""-"",""no_move"",10979.6,3765,1508.6,8219.2,1251.8,""smooth"",""right"",""right"",""good_move"",14077.3,3097.2,2588.1,10980.1,509.1,""smooth"",""down"",""down"",""good_move"",23928.9,9851,2257.7,21248.5,422.7,""smooth"",""down"",""down"",""good_move"",26968.6,3038.8,2509.8,23929.8,529,""smooth"",""down"",""down"",""good_move""]","",""
"29300","","","","instructions","22","1473910","0.0-8.0-2.0","219","1","2025-07-02 11:05:43","80fe4187154257d5fb01684ea91b68b9","41.150.49.16","Mozilla/5.0 (Windows NT 10.0; Win64; x64) AppleWebKit/537.36 (KHTML, like Gecko) Chrome/138.0.0.0 Safari/537.36","WebKit","Chrome","138.0.0.0","Windows","10.0","https://app.prolific.com/","en-ZA,en-GB;q=0.9,en-US;q=0.8,en;q=0.7","61267b828ead584bcf092e35","683db6dfa200031b80f2a654","686512600b0f53dfe59fc162","61267b828ead584bcf092e35","","[{""page_index"":0,""viewing_time"":29299}]","","","","","","","","","","","","","","","","","","","","","","","","","","","","","","","","","","","","","","","","","","",""
"","","","","ctl-task-cpt","23","1512442","0.0-8.0-3.0","219","1","2025-07-02 11:05:43","80fe4187154257d5fb01684ea91b68b9","41.150.49.16","Mozilla/5.0 (Windows NT 10.0; Win64; x64) AppleWebKit/537.36 (KHTML, like Gecko) Chrome/138.0.0.0 Safari/537.36","WebKit","Chrome","138.0.0.0","Windows","10.0","https://app.prolific.com/","en-ZA,en-GB;q=0.9,en-US;q=0.8,en;q=0.7","61267b828ead584bcf092e35","683db6dfa200031b80f2a654","686512600b0f53dfe59fc162","61267b828ead584bcf092e35","","","","","","","","","","","","","","","","","win-only","0","g1:NW,g2:SE","0.35","0","3","1477130","2882.9","6884.7","35516.6","2","4","8","6","2","8","8","8","0","0.06060606060606061","1299.4","4000","430","[""down"",""right""]","{""num_key_presses"":8,""num_perfect"":3,""num_errors"":0,""num_randdir"":5,""num_randdir_good_moves"":4,""num_whilered"":0,""num_whileblue"":0,""num_blue"":2,""num_good_moves"":7}","[416.5714133126395,421.57142761775424,0.6,416.5714133126395,421.57142761775424,100.1,416.5714133126395,421.57142761775424,202.9,416.5714133126395,421.57142761775424,304,416.5714133126395,421.57142761775424,409.6,416.5714133126395,421.57142761775424,516.1,416.5714133126395,421.57142761775424,617.9,704.0714133126395,632.8214276177542,718.2,790.3214133126395,730.3214276177542,819.3,776.5714133126395,736.5714276177542,941.1,762.8214133126395,727.8214276177542,1051,761.5714133126395,726.5714276177542,1153,761.5714133126395,726.5714276177542,1267.7,761.5714133126395,726.5714276177542,1368.2,761.5714133126395,726.5714276177542,1473,761.5714133126395,726.5714276177542,1573.8,761.5714133126395,726.5714276177542,1680.3,761.5714133126395,726.5714276177542,1783.6,761.5714133126395,726.5714276177542,1887.9,761.5714133126395,726.5714276177542,1988.6,761.5714133126395,726.5714276177542,2093.4,761.5714133126395,726.5714276177542,2194.4,761.5714133126395,726.5714276177542,2299.8,761.5714133126395,726.5714276177542,2404.5,761.5714133126395,726.5714276177542,2516,761.5714133126395,726.5714276177542,2616.2,761.5714133126395,726.5714276177542,2716.5,761.5714133126395,726.5714276177542,2825.9,761.5714133126395,726.5714276177542,2932.3,761.5714133126395,726.5714276177542,3035.3,761.5714133126395,726.5714276177542,3138.6,761.5714133126395,726.5714276177542,3249.2,761.5714133126395,726.5714276177542,3349.2,761.5714133126395,726.5714276177542,3451.5,761.5714133126395,726.5714276177542,3553,761.5714133126395,726.5714276177542,3653.7,761.5714133126395,726.5714276177542,3767,761.5714133126395,726.5714276177542,3868.9,761.5714133126395,726.5714276177542,3973.6]","[1480.3,1480.1,1000,0.2,480.1,""oops"",""down"",""left"",""bad_move"",4556.5,3075.2,2467.2,1481.4,607.9,""oops"",""down"",""right"",""good_move"",10746,6186.9,2115.3,8131.7,499,""oops"",""down"",""down"",""good_move"",14247.6,3500.9,2877.1,10746.7,623.8,""oops"",""down"",""down"",""good_move"",16746.5,2498.2,2002.9,14248.3,495.3,""oops"",""down"",""down"",""good_move"",22467.6,5720.4,2322.7,19696.5,448.4,""smooth"",""right"",""right"",""good_move"",25757.9,3289.9,2861.7,22468,428.2,""smooth"",""right"",""right"",""good_move"",28543.9,2785.1,2320.8,25758.8,464.3,""smooth"",""right"",""right"",""good_move""]","",""
"85157","","","","instructions","24","1597600","0.0-8.0-4.0","219","1","2025-07-02 11:05:43","80fe4187154257d5fb01684ea91b68b9","41.150.49.16","Mozilla/5.0 (Windows NT 10.0; Win64; x64) AppleWebKit/537.36 (KHTML, like Gecko) Chrome/138.0.0.0 Safari/537.36","WebKit","Chrome","138.0.0.0","Windows","10.0","https://app.prolific.com/","en-ZA,en-GB;q=0.9,en-US;q=0.8,en;q=0.7","61267b828ead584bcf092e35","683db6dfa200031b80f2a654","686512600b0f53dfe59fc162","61267b828ead584bcf092e35","","[{""page_index"":0,""viewing_time"":17704},{""page_index"":1,""viewing_time"":67452}]","","","","","","","","","","","","","","","","","","","","","","","","","","","","","","","","","","","","","","","","","","",""
"32191","","","{""green_ball"":[""Ball always moves in the direction I press"",""Ball sometimes shakes and moves in a random direction""]}","survey-multi-select","25","1629796","0.0-8.0-5.0-0.0","219","1","2025-07-02 11:05:43","80fe4187154257d5fb01684ea91b68b9","41.150.49.16","Mozilla/5.0 (Windows NT 10.0; Win64; x64) AppleWebKit/537.36 (KHTML, like Gecko) Chrome/138.0.0.0 Safari/537.36","WebKit","Chrome","138.0.0.0","Windows","10.0","https://app.prolific.com/","en-ZA,en-GB;q=0.9,en-US;q=0.8,en;q=0.7","61267b828ead584bcf092e35","683db6dfa200031b80f2a654","686512600b0f53dfe59fc162","61267b828ead584bcf092e35","","","[0]","","","","quiz","","","","","","","","","","","","","","","","","","","","","","","","","","","","","","","","","","","","","false",""
"12873","","<p align='center'><b>INCORRECT.</b> Usually the green ball moves in the indicated direction, but sometimes it shakes and moves randomly. </p>","0","html-button-response","26","1642675","0.0-8.0-5.0-1.0","219","1","2025-07-02 11:05:43","80fe4187154257d5fb01684ea91b68b9","41.150.49.16","Mozilla/5.0 (Windows NT 10.0; Win64; x64) AppleWebKit/537.36 (KHTML, like Gecko) Chrome/138.0.0.0 Safari/537.36","WebKit","Chrome","138.0.0.0","Windows","10.0","https://app.prolific.com/","en-ZA,en-GB;q=0.9,en-US;q=0.8,en;q=0.7","61267b828ead584bcf092e35","683db6dfa200031b80f2a654","686512600b0f53dfe59fc162","61267b828ead584bcf092e35","","","","","","","","","","","","","","","","","","","","","","","","","","","","","","","","","","","","","","","","","","","","",""
"16681","","","{""green_ball"":[""Ball always moves in the direction I press""]}","survey-multi-select","27","1659361","0.0-8.0-5.1-0.1","219","1","2025-07-02 11:05:43","80fe4187154257d5fb01684ea91b68b9","41.150.49.16","Mozilla/5.0 (Windows NT 10.0; Win64; x64) AppleWebKit/537.36 (KHTML, like Gecko) Chrome/138.0.0.0 Safari/537.36","WebKit","Chrome","138.0.0.0","Windows","10.0","https://app.prolific.com/","en-ZA,en-GB;q=0.9,en-US;q=0.8,en;q=0.7","61267b828ead584bcf092e35","683db6dfa200031b80f2a654","686512600b0f53dfe59fc162","61267b828ead584bcf092e35","","","[0]","","","","quiz","","","","","","","","","","","","","","","","","","","","","","","","","","","","","","","","","","","","","false",""
"13650","","<p align='center'><b>INCORRECT.</b> Usually the green ball moves in the indicated direction, but sometimes it shakes and moves randomly. </p>","0","html-button-response","28","1673014","0.0-8.0-5.1-1.1","219","1","2025-07-02 11:05:43","80fe4187154257d5fb01684ea91b68b9","41.150.49.16","Mozilla/5.0 (Windows NT 10.0; Win64; x64) AppleWebKit/537.36 (KHTML, like Gecko) Chrome/138.0.0.0 Safari/537.36","WebKit","Chrome","138.0.0.0","Windows","10.0","https://app.prolific.com/","en-ZA,en-GB;q=0.9,en-US;q=0.8,en;q=0.7","61267b828ead584bcf092e35","683db6dfa200031b80f2a654","686512600b0f53dfe59fc162","61267b828ead584bcf092e35","","","","","","","","","","","","","","","","","","","","","","","","","","","","","","","","","","","","","","","","","","","","",""
"14624","","","{""green_ball"":[""Ball sometimes shakes and moves in a random direction""]}","survey-multi-select","29","1687644","0.0-8.0-5.2-0.2","219","1","2025-07-02 11:05:43","80fe4187154257d5fb01684ea91b68b9","41.150.49.16","Mozilla/5.0 (Windows NT 10.0; Win64; x64) AppleWebKit/537.36 (KHTML, like Gecko) Chrome/138.0.0.0 Safari/537.36","WebKit","Chrome","138.0.0.0","Windows","10.0","https://app.prolific.com/","en-ZA,en-GB;q=0.9,en-US;q=0.8,en;q=0.7","61267b828ead584bcf092e35","683db6dfa200031b80f2a654","686512600b0f53dfe59fc162","61267b828ead584bcf092e35","","","[0]","","","","quiz","","","","","","","","","","","","","","","","","","","","","","","","","","","","","","","","","","","","","true",""
"7206","","<p align='center'><b>CORRECT!</b> Indeed, the green ball may sometimes shake and move in a random direction.</p>","0","html-button-response","30","1694854","0.0-8.0-5.2-1.2","219","1","2025-07-02 11:05:43","80fe4187154257d5fb01684ea91b68b9","41.150.49.16","Mozilla/5.0 (Windows NT 10.0; Win64; x64) AppleWebKit/537.36 (KHTML, like Gecko) Chrome/138.0.0.0 Safari/537.36","WebKit","Chrome","138.0.0.0","Windows","10.0","https://app.prolific.com/","en-ZA,en-GB;q=0.9,en-US;q=0.8,en;q=0.7","61267b828ead584bcf092e35","683db6dfa200031b80f2a654","686512600b0f53dfe59fc162","61267b828ead584bcf092e35","","","","","","","","","","","","","","","","","","","","","","","","","","","","","","","","","","","","","","","","","","","","",""
"10254","","","{""yellow_ball"":[""Ball doesn‘t move and I get -1 penalty point""]}","survey-multi-select","31","1705115","0.0-8.0-6.0-0.0","219","1","2025-07-02 11:05:43","80fe4187154257d5fb01684ea91b68b9","41.150.49.16","Mozilla/5.0 (Windows NT 10.0; Win64; x64) AppleWebKit/537.36 (KHTML, like Gecko) Chrome/138.0.0.0 Safari/537.36","WebKit","Chrome","138.0.0.0","Windows","10.0","https://app.prolific.com/","en-ZA,en-GB;q=0.9,en-US;q=0.8,en;q=0.7","61267b828ead584bcf092e35","683db6dfa200031b80f2a654","686512600b0f53dfe59fc162","61267b828ead584bcf092e35","","","[0]","","","","quiz","","","","","","","","","","","","","","","","","","","","","","","","","","","","","","","","","","","","","true",""
"3706","","<p align='center'><b>CORRECT!</b> Indeed, the yellow ball never moves and you receive a penalty.</p>","0","html-button-response","32","1708825","0.0-8.0-6.0-1.0","219","1","2025-07-02 11:05:43","80fe4187154257d5fb01684ea91b68b9","41.150.49.16","Mozilla/5.0 (Windows NT 10.0; Win64; x64) AppleWebKit/537.36 (KHTML, like Gecko) Chrome/138.0.0.0 Safari/537.36","WebKit","Chrome","138.0.0.0","Windows","10.0","https://app.prolific.com/","en-ZA,en-GB;q=0.9,en-US;q=0.8,en;q=0.7","61267b828ead584bcf092e35","683db6dfa200031b80f2a654","686512600b0f53dfe59fc162","61267b828ead584bcf092e35","","","","","","","","","","","","","","","","","","","","","","","","","","","","","","","","","","","","","","","","","","","","",""
"10093","","","{""blue_ball"":[""Ball doesn‘t move and I get -1 penalty point""]}","survey-multi-select","33","1718922","0.0-8.0-7.0-0.0","219","1","2025-07-02 11:05:43","80fe4187154257d5fb01684ea91b68b9","41.150.49.16","Mozilla/5.0 (Windows NT 10.0; Win64; x64) AppleWebKit/537.36 (KHTML, like Gecko) Chrome/138.0.0.0 Safari/537.36","WebKit","Chrome","138.0.0.0","Windows","10.0","https://app.prolific.com/","en-ZA,en-GB;q=0.9,en-US;q=0.8,en;q=0.7","61267b828ead584bcf092e35","683db6dfa200031b80f2a654","686512600b0f53dfe59fc162","61267b828ead584bcf092e35","","","[0]","","","","quiz","","","","","","","","","","","","","","","","","","","","","","","","","","","","","","","","","","","","","false",""
"5216","","<p align='center'><b>INCORRECT.</b> The blue ball always shakes and moves randomly.</p>","0","html-button-response","34","1724143","0.0-8.0-7.0-1.0","219","1","2025-07-02 11:05:43","80fe4187154257d5fb01684ea91b68b9","41.150.49.16","Mozilla/5.0 (Windows NT 10.0; Win64; x64) AppleWebKit/537.36 (KHTML, like Gecko) Chrome/138.0.0.0 Safari/537.36","WebKit","Chrome","138.0.0.0","Windows","10.0","https://app.prolific.com/","en-ZA,en-GB;q=0.9,en-US;q=0.8,en;q=0.7","61267b828ead584bcf092e35","683db6dfa200031b80f2a654","686512600b0f53dfe59fc162","61267b828ead584bcf092e35","","","","","","","","","","","","","","","","","","","","","","","","","","","","","","","","","","","","","","","","","","","","",""
"5829","","","{""blue_ball"":[""Ball always shakes and moves in a random direction""]}","survey-multi-select","35","1729976","0.0-8.0-7.1-0.1","219","1","2025-07-02 11:05:43","80fe4187154257d5fb01684ea91b68b9","41.150.49.16","Mozilla/5.0 (Windows NT 10.0; Win64; x64) AppleWebKit/537.36 (KHTML, like Gecko) Chrome/138.0.0.0 Safari/537.36","WebKit","Chrome","138.0.0.0","Windows","10.0","https://app.prolific.com/","en-ZA,en-GB;q=0.9,en-US;q=0.8,en;q=0.7","61267b828ead584bcf092e35","683db6dfa200031b80f2a654","686512600b0f53dfe59fc162","61267b828ead584bcf092e35","","","[0]","","","","quiz","","","","","","","","","","","","","","","","","","","","","","","","","","","","","","","","","","","","","true",""
"4826","","<p align='center'><b>CORRECT!</b> Indeed, the blue ball always shakes and moves in a random direction. Also there is a penalty of -1 point.</p>","0","html-button-response","36","1734805","0.0-8.0-7.1-1.1","219","1","2025-07-02 11:05:43","80fe4187154257d5fb01684ea91b68b9","41.150.49.16","Mozilla/5.0 (Windows NT 10.0; Win64; x64) AppleWebKit/537.36 (KHTML, like Gecko) Chrome/138.0.0.0 Safari/537.36","WebKit","Chrome","138.0.0.0","Windows","10.0","https://app.prolific.com/","en-ZA,en-GB;q=0.9,en-US;q=0.8,en;q=0.7","61267b828ead584bcf092e35","683db6dfa200031b80f2a654","686512600b0f53dfe59fc162","61267b828ead584bcf092e35","","","","","","","","","","","","","","","","","","","","","","","","","","","","","","","","","","","","","","","","","","","","",""
"8800","","","{""bonus"":[""When I reach 50% of points""]}","survey-multi-select","37","1743612","0.0-8.0-8.0-0.0","219","1","2025-07-02 11:05:43","80fe4187154257d5fb01684ea91b68b9","41.150.49.16","Mozilla/5.0 (Windows NT 10.0; Win64; x64) AppleWebKit/537.36 (KHTML, like Gecko) Chrome/138.0.0.0 Safari/537.36","WebKit","Chrome","138.0.0.0","Windows","10.0","https://app.prolific.com/","en-ZA,en-GB;q=0.9,en-US;q=0.8,en;q=0.7","61267b828ead584bcf092e35","683db6dfa200031b80f2a654","686512600b0f53dfe59fc162","61267b828ead584bcf092e35","","","[0]","","","","quiz","","","","","","","","","","","","","","","","","","","","","","","","","","","","","","","","","","","","","true",""
"2506","","<p align='center'><b>CORRECT!</b> Indeed, you receive 2 pounds extra when you reach 50% of points.</p>","0","html-button-response","38","1746120","0.0-8.0-8.0-1.0","219","1","2025-07-02 11:05:43","80fe4187154257d5fb01684ea91b68b9","41.150.49.16","Mozilla/5.0 (Windows NT 10.0; Win64; x64) AppleWebKit/537.36 (KHTML, like Gecko) Chrome/138.0.0.0 Safari/537.36","WebKit","Chrome","138.0.0.0","Windows","10.0","https://app.prolific.com/","en-ZA,en-GB;q=0.9,en-US;q=0.8,en;q=0.7","61267b828ead584bcf092e35","683db6dfa200031b80f2a654","686512600b0f53dfe59fc162","61267b828ead584bcf092e35","","","","","","","","","","","","","","","","","","","","","","","","","","","","","","","","","","","","","","","","","","","","",""
"6493","","","","instructions","39","1752614","0.0-8.0-9.0","219","1","2025-07-02 11:05:43","80fe4187154257d5fb01684ea91b68b9","41.150.49.16","Mozilla/5.0 (Windows NT 10.0; Win64; x64) AppleWebKit/537.36 (KHTML, like Gecko) Chrome/138.0.0.0 Safari/537.36","WebKit","Chrome","138.0.0.0","Windows","10.0","https://app.prolific.com/","en-ZA,en-GB;q=0.9,en-US;q=0.8,en;q=0.7","61267b828ead584bcf092e35","683db6dfa200031b80f2a654","686512600b0f53dfe59fc162","61267b828ead584bcf092e35","","[{""page_index"":0,""viewing_time"":6492}]","","","","","","","","","","","","","","","","","","","","","","","","","","","","","","","","","","","","","","","","","","",""
"28843","","<p>Before you start with this game please answer the following three questions yourself. </p>
  <p>Through this game, we measure several aspects of your cognitive performance, such as reaction times, multi-tasking capabilities </p>
  <p>and the ability to assess the situation you are in.</p>
  <p></p>
  <p><b>How good do you usually are in such tasks?</b></p>","100","html-slider-response","40","1781463","0.0-9.0-0.0","219","1","2025-07-02 11:05:43","80fe4187154257d5fb01684ea91b68b9","41.150.49.16","Mozilla/5.0 (Windows NT 10.0; Win64; x64) AppleWebKit/537.36 (KHTML, like Gecko) Chrome/138.0.0.0 Safari/537.36","WebKit","Chrome","138.0.0.0","Windows","10.0","https://app.prolific.com/","en-ZA,en-GB;q=0.9,en-US;q=0.8,en;q=0.7","61267b828ead584bcf092e35","683db6dfa200031b80f2a654","686512600b0f53dfe59fc162","61267b828ead584bcf092e35","2025-07-02T11:35:29.537Z","","","","","","PreSkillQ","","","","","","","","","","","","","","","","","","","","","","","","","","","","","","","","","","","","","","50"
"12096","","<div style=""width:500px;"">
  <p>How well do you think you will perform in this task compared to other participants?</p>
  </div>","95","html-slider-response","41","1793563","0.0-9.0-1.0","219","1","2025-07-02 11:05:43","80fe4187154257d5fb01684ea91b68b9","41.150.49.16","Mozilla/5.0 (Windows NT 10.0; Win64; x64) AppleWebKit/537.36 (KHTML, like Gecko) Chrome/138.0.0.0 Safari/537.36","WebKit","Chrome","138.0.0.0","Windows","10.0","https://app.prolific.com/","en-ZA,en-GB;q=0.9,en-US;q=0.8,en;q=0.7","61267b828ead584bcf092e35","683db6dfa200031b80f2a654","686512600b0f53dfe59fc162","61267b828ead584bcf092e35","2025-07-02T11:35:41.637Z","","","","","","PrePerfQ","","","","","","","","","","","","","","","","","","","","","","","","","","","","","","","","","","","","","","50"
"5548","","<div style=""width:500px;"">
  <p>What best describes how you currently feel?</p>
  </div>","100","html-slider-response","42","1799113","0.0-9.0-2.0","219","1","2025-07-02 11:05:43","80fe4187154257d5fb01684ea91b68b9","41.150.49.16","Mozilla/5.0 (Windows NT 10.0; Win64; x64) AppleWebKit/537.36 (KHTML, like Gecko) Chrome/138.0.0.0 Safari/537.36","WebKit","Chrome","138.0.0.0","Windows","10.0","https://app.prolific.com/","en-ZA,en-GB;q=0.9,en-US;q=0.8,en;q=0.7","61267b828ead584bcf092e35","683db6dfa200031b80f2a654","686512600b0f53dfe59fc162","61267b828ead584bcf092e35","2025-07-02T11:35:47.187Z","","","","","","PreMotivationQ","","","","","","","","","","","","","","","","","","","","","","","","","","","","","","","","","","","","","","50"
"","","","","ctl-task-cpt","43","1836185","0.0-10.0-0.0","219","1","2025-07-02 11:05:43","80fe4187154257d5fb01684ea91b68b9","41.150.49.16","Mozilla/5.0 (Windows NT 10.0; Win64; x64) AppleWebKit/537.36 (KHTML, like Gecko) Chrome/138.0.0.0 Safari/537.36","WebKit","Chrome","138.0.0.0","Windows","10.0","https://app.prolific.com/","en-ZA,en-GB;q=0.9,en-US;q=0.8,en;q=0.7","61267b828ead584bcf092e35","683db6dfa200031b80f2a654","686512600b0f53dfe59fc162","61267b828ead584bcf092e35","2025-07-02T11:36:24.259Z","","","","","","","","","","","","","","","","win-only","2","g1:SE,g2:NW","1","1","0","1802333.6","10656","15661.6","34056.4","1","4","4","6","2","4","4","4","0","0.030303030303030304","2722.5","3000","955","[""left"",""up""]","{""num_key_presses"":6,""num_perfect"":6,""num_errors"":0,""num_randdir"":0,""num_randdir_good_moves"":0,""num_whilered"":0,""num_whileblue"":0,""num_blue"":1,""num_good_moves"":6}","[416.5714133126395,416.57142761775424,0.6,416.5714133126395,416.57142761775424,100.5,416.5714133126395,416.57142761775424,202.6,416.5714133126395,416.57142761775424,309.9,416.5714133126395,416.57142761775424,411,416.5714133126395,416.57142761775424,519.4,416.5714133126395,416.57142761775424,620.1,416.5714133126395,416.57142761775424,720.2,416.5714133126395,416.57142761775424,820.2,416.5714133126395,416.57142761775424,925.9,416.5714133126395,416.57142761775424,1025.9,416.5714133126395,416.57142761775424,1129.6,416.5714133126395,416.57142761775424,1230.3,416.5714133126395,416.57142761775424,1330.3,416.5714133126395,416.57142761775424,1430.5,416.5714133126395,416.57142761775424,1535.6,416.5714133126395,416.57142761775424,1638.5,416.5714133126395,416.57142761775424,1740.1,459.0714133126395,419.07142761775424,1845.4,631.5714133126395,462.82142761775424,1950,399.0714133126395,472.82142761775424,2050.5,151.5714133126395,265.32142761775424,2150.5,65.3214133126395,91.57142761775425,2250.9,127.8214133126395,60.32142761775425,2364.1,111.5714133126395,59.07142761775425,2465.1,111.5714133126395,59.07142761775425,2565.6,111.5714133126395,59.07142761775425,2675.4,111.5714133126395,59.07142761775425,2783.7,111.5714133126395,59.07142761775425,2896.2,111.5714133126395,59.07142761775425,2997.5,111.5714133126395,59.07142761775425,3100.6,111.5714133126395,59.07142761775425,3204.9,111.5714133126395,59.07142761775425,3311.9,111.5714133126395,59.07142761775425,3415.6,111.5714133126395,59.07142761775425,3520.8,111.5714133126395,59.07142761775425,3625,111.5714133126395,59.07142761775425,3725.4,111.5714133126395,59.07142761775425,3827.5,111.5714133126395,59.07142761775425,3930,111.5714133126395,59.07142761775425,4030.3,111.5714133126395,59.07142761775425,4130.4,111.5714133126395,59.07142761775425,4240.7,111.5714133126395,59.07142761775425,4345,111.5714133126395,59.07142761775425,4446.2,111.5714133126395,59.07142761775425,4555.6,111.5714133126395,59.07142761775425,4660.3,111.5714133126395,59.07142761775425,4765.3,111.5714133126395,59.07142761775425,4865.6,111.5714133126395,59.07142761775425,4972.6]","[1473.5,1473.5,1000,0,473.5,""smooth"",""up"",""up"",""good_move"",3937.2,2462.1,1934.2,1475.1,528,""smooth"",""up"",""up"",""good_move"",6320.7,2383,1936.5,3937.7,446.5,""smooth"",""up"",""up"",""good_move"",8823.6,2501.8,2112.9,6321.8,388.9,""smooth"",""left"",""left"",""good_move"",14836.4,6011.4,2345.6,12090.1,400.7,""smooth"",""left"",""left"",""good_move"",18287.6,3450.9,3069.3,14836.7,381.6,""smooth"",""left"",""left"",""good_move""]","",""
"5723","","<div style=""width:500px;"">
  <p>What determined the result of this run?</p>
  </div>","100","html-slider-response","44","1841911","0.0-10.0-1.0","219","1","2025-07-02 11:05:43","80fe4187154257d5fb01684ea91b68b9","41.150.49.16","Mozilla/5.0 (Windows NT 10.0; Win64; x64) AppleWebKit/537.36 (KHTML, like Gecko) Chrome/138.0.0.0 Safari/537.36","WebKit","Chrome","138.0.0.0","Windows","10.0","https://app.prolific.com/","en-ZA,en-GB;q=0.9,en-US;q=0.8,en;q=0.7","61267b828ead584bcf092e35","683db6dfa200031b80f2a654","686512600b0f53dfe59fc162","61267b828ead584bcf092e35","2025-07-02T11:36:29.985Z","","","","","","AttribQ","","","","","","","","","","","","","","","","","","","","","","","","","","","","","","","","","","","","","","50"
"6199","","<div style=""width:500px;"">
  <p>How much control did you have over the ball?</p>
  </div>","100","html-slider-response","45","1848112","0.0-10.0-2.0","219","1","2025-07-02 11:05:43","80fe4187154257d5fb01684ea91b68b9","41.150.49.16","Mozilla/5.0 (Windows NT 10.0; Win64; x64) AppleWebKit/537.36 (KHTML, like Gecko) Chrome/138.0.0.0 Safari/537.36","WebKit","Chrome","138.0.0.0","Windows","10.0","https://app.prolific.com/","en-ZA,en-GB;q=0.9,en-US;q=0.8,en;q=0.7","61267b828ead584bcf092e35","683db6dfa200031b80f2a654","686512600b0f53dfe59fc162","61267b828ead584bcf092e35","2025-07-02T11:36:36.187Z","","","","","","ControlQ","","","","","","","","","","","","","","","","","","","","","","","","","","","","","","","","","","","","","","50"
"9264","","<div style=""width:500px;"">
  <p>How would you describe your current emotional state?</p>
  </div>","21","html-slider-response","46","1857379","0.0-10.0-3.0","219","1","2025-07-02 11:05:43","80fe4187154257d5fb01684ea91b68b9","41.150.49.16","Mozilla/5.0 (Windows NT 10.0; Win64; x64) AppleWebKit/537.36 (KHTML, like Gecko) Chrome/138.0.0.0 Safari/537.36","WebKit","Chrome","138.0.0.0","Windows","10.0","https://app.prolific.com/","en-ZA,en-GB;q=0.9,en-US;q=0.8,en;q=0.7","61267b828ead584bcf092e35","683db6dfa200031b80f2a654","686512600b0f53dfe59fc162","61267b828ead584bcf092e35","2025-07-02T11:36:45.453Z","","","","","","StressQ","","","","","","","","","","","","","","","","","","","","","","","","","","","","","","","","","","","","","","50"
"4763","","<div style=""width:500px;"">
  <p>What best describes how you currently feel?</p>
  </div>","100","html-slider-response","47","1862144","0.0-10.0-4.0","219","1","2025-07-02 11:05:43","80fe4187154257d5fb01684ea91b68b9","41.150.49.16","Mozilla/5.0 (Windows NT 10.0; Win64; x64) AppleWebKit/537.36 (KHTML, like Gecko) Chrome/138.0.0.0 Safari/537.36","WebKit","Chrome","138.0.0.0","Windows","10.0","https://app.prolific.com/","en-ZA,en-GB;q=0.9,en-US;q=0.8,en;q=0.7","61267b828ead584bcf092e35","683db6dfa200031b80f2a654","686512600b0f53dfe59fc162","61267b828ead584bcf092e35","2025-07-02T11:36:50.218Z","","","","","","MotivationQ","","","","","","","","","","","","","","","","","","","","","","","","","","","","","","","","","","","","","","50"
"","","","","ctl-task-cpt","48","1900668","0.0-10.0-0.1","219","1","2025-07-02 11:05:43","80fe4187154257d5fb01684ea91b68b9","41.150.49.16","Mozilla/5.0 (Windows NT 10.0; Win64; x64) AppleWebKit/537.36 (KHTML, like Gecko) Chrome/138.0.0.0 Safari/537.36","WebKit","Chrome","138.0.0.0","Windows","10.0","https://app.prolific.com/","en-ZA,en-GB;q=0.9,en-US;q=0.8,en;q=0.7","61267b828ead584bcf092e35","683db6dfa200031b80f2a654","686512600b0f53dfe59fc162","61267b828ead584bcf092e35","2025-07-02T11:37:28.742Z","","","","","","","","","","","","","","","","win-only","0","g1:NW,g2:SE","0.9","2","0","1865364","2420.5","7421.3","35489.2","1","4","8","6","2","8","8","12","4","0.09090909090909091","1275.6","3000","645","[""down"",""right""]","{""num_key_presses"":8,""num_perfect"":7,""num_errors"":0,""num_randdir"":1,""num_randdir_good_moves"":0,""num_whilered"":0,""num_whileblue"":0,""num_blue"":1,""num_good_moves"":7}","[412.8214133126395,414.07142761775424,0.4,412.8214133126395,414.07142761775424,103.3,412.8214133126395,414.07142761775424,205.7,412.8214133126395,414.07142761775424,319.4,412.8214133126395,414.07142761775424,421.2,412.8214133126395,414.07142761775424,521.7,427.8214133126395,419.07142761775424,622.3,721.5714133126395,609.0714276177542,738.3,731.5714133126395,705.3214276177542,841.3,735.3214133126395,722.8214276177542,945.1,737.8214133126395,745.3214276177542,1055,740.3214133126395,747.8214276177542,1169.8,740.3214133126395,747.8214276177542,1277.4,740.3214133126395,747.8214276177542,1380.9,740.3214133126395,747.8214276177542,1481.1,740.3214133126395,747.8214276177542,1581.6,740.3214133126395,747.8214276177542,1682.2,740.3214133126395,747.8214276177542,1785.7,740.3214133126395,747.8214276177542,1891.8,740.3214133126395,747.8214276177542,2001.8,740.3214133126395,747.8214276177542,2105.3,740.3214133126395,747.8214276177542,2205.4,740.3214133126395,747.8214276177542,2306.5,740.3214133126395,747.8214276177542,2413.2,740.3214133126395,747.8214276177542,2516.6,740.3214133126395,747.8214276177542,2616.6,740.3214133126395,747.8214276177542,2720.8,740.3214133126395,747.8214276177542,2821,740.3214133126395,747.8214276177542,2921.2,740.3214133126395,747.8214276177542,3021.7,740.3214133126395,747.8214276177542,3122.5,740.3214133126395,747.8214276177542,3226.4,740.3214133126395,747.8214276177542,3333,740.3214133126395,747.8214276177542,3436.8,740.3214133126395,747.8214276177542,3545.8,740.3214133126395,747.8214276177542,3654.9,740.3214133126395,747.8214276177542,3756.3,740.3214133126395,747.8214276177542,3856.5,740.3214133126395,747.8214276177542,3971.2,740.3214133126395,747.8214276177542,4087.3,740.3214133126395,747.8214276177542,4191.6,740.3214133126395,747.8214276177542,4297.3,740.3214133126395,747.8214276177542,4401.4,740.3214133126395,747.8214276177542,4505.6,740.3214133126395,747.8214276177542,4605.7,740.3214133126395,747.8214276177542,4706.4,740.3214133126395,747.8214276177542,4821.4,740.3214133126395,747.8214276177542,4921.4]","[5828.8,5828.8,3425.6,2010.6,392.6,""oops"",""right"",""up"",""bad_move"",9116.1,3286.3,2780.7,5829.8,505.6,""smooth"",""right"",""right"",""good_move"",11899.6,2782.6,2329,9117,453.6,""smooth"",""right"",""right"",""good_move"",14894,2993.6,2593.5,11900.4,400.1,""smooth"",""right"",""right"",""good_move"",17535.8,2640.9,2197.4,14895,443.4,""smooth"",""down"",""down"",""good_move"",20760.6,3224,2802.4,17536.6,421.6,""smooth"",""down"",""down"",""good_move"",24167.6,3406.3,2980.9,20761.4,425.4,""smooth"",""down"",""down"",""good_move"",27936.3,3768.2,3390.1,24168.1,378.1,""smooth"",""down"",""down"",""good_move""]","",""
"4510","","<div style=""width:500px;"">
  <p>What determined the result of this run?</p>
  </div>","100","html-slider-response","49","1905180","0.0-10.0-1.1","219","1","2025-07-02 11:05:43","80fe4187154257d5fb01684ea91b68b9","41.150.49.16","Mozilla/5.0 (Windows NT 10.0; Win64; x64) AppleWebKit/537.36 (KHTML, like Gecko) Chrome/138.0.0.0 Safari/537.36","WebKit","Chrome","138.0.0.0","Windows","10.0","https://app.prolific.com/","en-ZA,en-GB;q=0.9,en-US;q=0.8,en;q=0.7","61267b828ead584bcf092e35","683db6dfa200031b80f2a654","686512600b0f53dfe59fc162","61267b828ead584bcf092e35","2025-07-02T11:37:33.254Z","","","","","","AttribQ","","","","","","","","","","","","","","","","","","","","","","","","","","","","","","","","","","","","","","50"
"4563","","<div style=""width:500px;"">
  <p>How much control did you have over the ball?</p>
  </div>","82","html-slider-response","50","1909747","0.0-10.0-2.1","219","1","2025-07-02 11:05:43","80fe4187154257d5fb01684ea91b68b9","41.150.49.16","Mozilla/5.0 (Windows NT 10.0; Win64; x64) AppleWebKit/537.36 (KHTML, like Gecko) Chrome/138.0.0.0 Safari/537.36","WebKit","Chrome","138.0.0.0","Windows","10.0","https://app.prolific.com/","en-ZA,en-GB;q=0.9,en-US;q=0.8,en;q=0.7","61267b828ead584bcf092e35","683db6dfa200031b80f2a654","686512600b0f53dfe59fc162","61267b828ead584bcf092e35","2025-07-02T11:37:37.821Z","","","","","","ControlQ","","","","","","","","","","","","","","","","","","","","","","","","","","","","","","","","","","","","","","50"
"5447","","<div style=""width:500px;"">
  <p>How would you describe your current emotional state?</p>
  </div>","11","html-slider-response","51","1915197","0.0-10.0-3.1","219","1","2025-07-02 11:05:43","80fe4187154257d5fb01684ea91b68b9","41.150.49.16","Mozilla/5.0 (Windows NT 10.0; Win64; x64) AppleWebKit/537.36 (KHTML, like Gecko) Chrome/138.0.0.0 Safari/537.36","WebKit","Chrome","138.0.0.0","Windows","10.0","https://app.prolific.com/","en-ZA,en-GB;q=0.9,en-US;q=0.8,en;q=0.7","61267b828ead584bcf092e35","683db6dfa200031b80f2a654","686512600b0f53dfe59fc162","61267b828ead584bcf092e35","2025-07-02T11:37:43.271Z","","","","","","StressQ","","","","","","","","","","","","","","","","","","","","","","","","","","","","","","","","","","","","","","50"
"3248","","<div style=""width:500px;"">
  <p>What best describes how you currently feel?</p>
  </div>","100","html-slider-response","52","1918448","0.0-10.0-4.1","219","1","2025-07-02 11:05:43","80fe4187154257d5fb01684ea91b68b9","41.150.49.16","Mozilla/5.0 (Windows NT 10.0; Win64; x64) AppleWebKit/537.36 (KHTML, like Gecko) Chrome/138.0.0.0 Safari/537.36","WebKit","Chrome","138.0.0.0","Windows","10.0","https://app.prolific.com/","en-ZA,en-GB;q=0.9,en-US;q=0.8,en;q=0.7","61267b828ead584bcf092e35","683db6dfa200031b80f2a654","686512600b0f53dfe59fc162","61267b828ead584bcf092e35","2025-07-02T11:37:46.523Z","","","","","","MotivationQ","","","","","","","","","","","","","","","","","","","","","","","","","","","","","","","","","","","","","","50"
"","","","","ctl-task-cpt","53","1966610","0.0-10.0-0.2","219","1","2025-07-02 11:05:43","80fe4187154257d5fb01684ea91b68b9","41.150.49.16","Mozilla/5.0 (Windows NT 10.0; Win64; x64) AppleWebKit/537.36 (KHTML, like Gecko) Chrome/138.0.0.0 Safari/537.36","WebKit","Chrome","138.0.0.0","Windows","10.0","https://app.prolific.com/","en-ZA,en-GB;q=0.9,en-US;q=0.8,en;q=0.7","61267b828ead584bcf092e35","683db6dfa200031b80f2a654","686512600b0f53dfe59fc162","61267b828ead584bcf092e35","2025-07-02T11:38:34.684Z","","","","","","","","","","","","","","","","win-only","1","g1:NE,g2:SW","0.8","3","0","1921670.9","2095.9","7097.4","45135.9","1","4","4","6","2","4","4","16","12","0.12121212121212122","1729","3000","430","[""down"",""left""]","{""num_key_presses"":10,""num_perfect"":8,""num_errors"":0,""num_randdir"":2,""num_randdir_good_moves"":0,""num_whilered"":0,""num_whileblue"":0,""num_blue"":3,""num_good_moves"":8}","[424.0714133126395,417.82142761775424,0.5,424.0714133126395,417.82142761775424,100.6,424.0714133126395,417.82142761775424,203.5,424.0714133126395,417.82142761775424,309.7,424.0714133126395,417.82142761775424,413.5,424.0714133126395,417.82142761775424,524.7,424.0714133126395,417.82142761775424,632.4,424.0714133126395,417.82142761775424,736.3,424.0714133126395,417.82142761775424,840.5,424.0714133126395,417.82142761775424,940.5,414.0714133126395,421.57142761775424,1040.5,32.82141331263951,661.5714276177542,1141.2,-20.928586687360493,751.5714276177542,1248.4,-52.17858668736049,814.0714276177542,1349.1,26.571413312639507,784.0714276177542,1450.3,85.3214133126395,776.5714276177542,1550.4,85.3214133126395,776.5714276177542,1653,85.3214133126395,776.5714276177542,1761.2,85.3214133126395,776.5714276177542,1874.5,85.3214133126395,776.5714276177542,1976.4,85.3214133126395,776.5714276177542,2089.9,85.3214133126395,776.5714276177542,2191.4,85.3214133126395,776.5714276177542,2307,85.3214133126395,776.5714276177542,2411.1,85.3214133126395,776.5714276177542,2513.9,85.3214133126395,776.5714276177542,2617.3,85.3214133126395,776.5714276177542,2719.1,85.3214133126395,776.5714276177542,2821.2,85.3214133126395,776.5714276177542,2940,85.3214133126395,776.5714276177542,3040.9,85.3214133126395,776.5714276177542,3141.6,85.3214133126395,776.5714276177542,3246.9,85.3214133126395,776.5714276177542,3351.4,85.3214133126395,776.5714276177542,3458.1,85.3214133126395,776.5714276177542,3562.3,85.3214133126395,776.5714276177542,3662.6,85.3214133126395,776.5714276177542,3764.9,85.3214133126395,776.5714276177542,3867.1,85.3214133126395,776.5714276177542,3970.5,85.3214133126395,776.5714276177542,4070.8,85.3214133126395,776.5714276177542,4173.2,85.3214133126395,776.5714276177542,4276.7,85.3214133126395,776.5714276177542,4381.7,85.3214133126395,776.5714276177542,4491,85.3214133126395,776.5714276177542,4597.1,85.3214133126395,776.5714276177542,4698.6,85.3214133126395,776.5714276177542,4801.9,85.3214133126395,776.5714276177542,4906]","[1488,1488,1000,0,488,""oops"",""down"",""up"",""bad_move"",10254.4,8765.4,2737,7141.2,376.2,""smooth"",""down"",""down"",""good_move"",13946.7,3691.3,3195,10255.4,496.4,""smooth"",""down"",""down"",""good_move"",19955.9,6007.9,2617.5,16939.3,399.1,""smooth"",""down"",""down"",""good_move"",22749,2792.7,2311.8,19956.3,480.9,""smooth"",""down"",""down"",""good_move"",26804,4054.2,3632.9,22749.9,421.2,""oops"",""left"",""right"",""bad_move"",29237.8,2433.3,1887.7,26804.5,545.6,""smooth"",""left"",""left"",""good_move"",32146.9,2908.4,2516.7,29238.5,391.7,""smooth"",""left"",""left"",""good_move"",35338.9,3191.1,2793.9,32147.8,397.2,""smooth"",""left"",""left"",""good_move"",37906.5,2567,2178.4,35339.6,388.5,""smooth"",""left"",""left"",""good_move""]","",""
"3837","","<div style=""width:500px;"">
  <p>What determined the result of this run?</p>
  </div>","100","html-slider-response","54","1970451","0.0-10.0-1.2","219","1","2025-07-02 11:05:43","80fe4187154257d5fb01684ea91b68b9","41.150.49.16","Mozilla/5.0 (Windows NT 10.0; Win64; x64) AppleWebKit/537.36 (KHTML, like Gecko) Chrome/138.0.0.0 Safari/537.36","WebKit","Chrome","138.0.0.0","Windows","10.0","https://app.prolific.com/","en-ZA,en-GB;q=0.9,en-US;q=0.8,en;q=0.7","61267b828ead584bcf092e35","683db6dfa200031b80f2a654","686512600b0f53dfe59fc162","61267b828ead584bcf092e35","2025-07-02T11:38:38.525Z","","","","","","AttribQ","","","","","","","","","","","","","","","","","","","","","","","","","","","","","","","","","","","","","","50"
"6926","","<div style=""width:500px;"">
  <p>How much control did you have over the ball?</p>
  </div>","65","html-slider-response","55","1977381","0.0-10.0-2.2","219","1","2025-07-02 11:05:43","80fe4187154257d5fb01684ea91b68b9","41.150.49.16","Mozilla/5.0 (Windows NT 10.0; Win64; x64) AppleWebKit/537.36 (KHTML, like Gecko) Chrome/138.0.0.0 Safari/537.36","WebKit","Chrome","138.0.0.0","Windows","10.0","https://app.prolific.com/","en-ZA,en-GB;q=0.9,en-US;q=0.8,en;q=0.7","61267b828ead584bcf092e35","683db6dfa200031b80f2a654","686512600b0f53dfe59fc162","61267b828ead584bcf092e35","2025-07-02T11:38:45.455Z","","","","","","ControlQ","","","","","","","","","","","","","","","","","","","","","","","","","","","","","","","","","","","","","","50"
"4003","","<div style=""width:500px;"">
  <p>How would you describe your current emotional state?</p>
  </div>","26","html-slider-response","56","1981386","0.0-10.0-3.2","219","1","2025-07-02 11:05:43","80fe4187154257d5fb01684ea91b68b9","41.150.49.16","Mozilla/5.0 (Windows NT 10.0; Win64; x64) AppleWebKit/537.36 (KHTML, like Gecko) Chrome/138.0.0.0 Safari/537.36","WebKit","Chrome","138.0.0.0","Windows","10.0","https://app.prolific.com/","en-ZA,en-GB;q=0.9,en-US;q=0.8,en;q=0.7","61267b828ead584bcf092e35","683db6dfa200031b80f2a654","686512600b0f53dfe59fc162","61267b828ead584bcf092e35","2025-07-02T11:38:49.460Z","","","","","","StressQ","","","","","","","","","","","","","","","","","","","","","","","","","","","","","","","","","","","","","","50"
"5053","","<div style=""width:500px;"">
  <p>What best describes how you currently feel?</p>
  </div>","100","html-slider-response","57","1986445","0.0-10.0-4.2","219","1","2025-07-02 11:05:43","80fe4187154257d5fb01684ea91b68b9","41.150.49.16","Mozilla/5.0 (Windows NT 10.0; Win64; x64) AppleWebKit/537.36 (KHTML, like Gecko) Chrome/138.0.0.0 Safari/537.36","WebKit","Chrome","138.0.0.0","Windows","10.0","https://app.prolific.com/","en-ZA,en-GB;q=0.9,en-US;q=0.8,en;q=0.7","61267b828ead584bcf092e35","683db6dfa200031b80f2a654","686512600b0f53dfe59fc162","61267b828ead584bcf092e35","2025-07-02T11:38:54.519Z","","","","","","MotivationQ","","","","","","","","","","","","","","","","","","","","","","","","","","","","","","","","","","","","","","50"
"","","","","ctl-task-cpt","58","2055182","0.0-10.0-0.3","219","1","2025-07-02 11:05:43","80fe4187154257d5fb01684ea91b68b9","41.150.49.16","Mozilla/5.0 (Windows NT 10.0; Win64; x64) AppleWebKit/537.36 (KHTML, like Gecko) Chrome/138.0.0.0 Safari/537.36","WebKit","Chrome","138.0.0.0","Windows","10.0","https://app.prolific.com/","en-ZA,en-GB;q=0.9,en-US;q=0.8,en;q=0.7","61267b828ead584bcf092e35","683db6dfa200031b80f2a654","686512600b0f53dfe59fc162","61267b828ead584bcf092e35","2025-07-02T11:40:03.256Z","","","","","","","","","","","","","","","","win-only","1","g1:NE,g2:SW","0.7","4","0","1989665.6","1542.2","6543","65705.5","1","4","8","6","2","8","8","24","16","0.18181818181818182","1348.8","3000","595","[""down"",""left""]","{""num_key_presses"":14,""num_perfect"":9,""num_errors"":0,""num_randdir"":5,""num_randdir_good_moves"":1,""num_whilered"":0,""num_whileblue"":0,""num_blue"":4,""num_good_moves"":10}","[414.0714133126395,417.82142761775424,0.3,414.0714133126395,417.82142761775424,103.4,414.0714133126395,417.82142761775424,225.4,414.0714133126395,417.82142761775424,336.4,414.0714133126395,417.82142761775424,445.5,414.0714133126395,417.82142761775424,545.5,414.0714133126395,417.82142761775424,653.9,72.8214133126395,750.3214276177542,772.8,56.57141331263951,812.8214276177542,883.4,89.0714133126395,801.5714276177542,987.5,89.0714133126395,791.5714276177542,1100.3,86.5714133126395,771.5714276177542,1205.7,86.5714133126395,771.5714276177542,1323.1,86.5714133126395,771.5714276177542,1437.9,86.5714133126395,771.5714276177542,1556,86.5714133126395,771.5714276177542,1656.5,86.5714133126395,771.5714276177542,1760.9,86.5714133126395,771.5714276177542,1862.8,86.5714133126395,771.5714276177542,1972.4,86.5714133126395,771.5714276177542,2087.1,86.5714133126395,771.5714276177542,2204.3,86.5714133126395,771.5714276177542,2323.2,86.5714133126395,771.5714276177542,2433.5,86.5714133126395,771.5714276177542,2542.5,86.5714133126395,771.5714276177542,2651.1,86.5714133126395,771.5714276177542,2755.5,86.5714133126395,771.5714276177542,2855.9,86.5714133126395,771.5714276177542,2960.3,86.5714133126395,771.5714276177542,3062.2,86.5714133126395,771.5714276177542,3165,86.5714133126395,771.5714276177542,3283.9,86.5714133126395,771.5714276177542,3384.2,86.5714133126395,771.5714276177542,3489.9,86.5714133126395,771.5714276177542,3591.6,86.5714133126395,771.5714276177542,3695.2,86.5714133126395,771.5714276177542,3797.7,86.5714133126395,771.5714276177542,3899.2,86.5714133126395,771.5714276177542,3999.4,86.5714133126395,771.5714276177542,4099.8,86.5714133126395,771.5714276177542,4203.3,86.5714133126395,771.5714276177542,4307.2,86.5714133126395,771.5714276177542,4421.1,86.5714133126395,771.5714276177542,4532,86.5714133126395,771.5714276177542,4637.7,86.5714133126395,771.5714276177542,4738.4,86.5714133126395,771.5714276177542,4853.4,86.5714133126395,771.5714276177542,4957.2]","[1475.5,1475.6,1000,0,475.6,""smooth"",""down"",""down"",""good_move"",4287.5,2810.6,2307.7,1476.9,502.9,""oops"",""down"",""up"",""bad_move"",7670.9,3382.4,2944.6,4288.5,437.8,""smooth"",""down"",""down"",""good_move"",15423.9,7752.6,3081,11960,382.9,""smooth"",""down"",""down"",""good_move"",22089.5,6665.1,2702.1,18946.2,441.2,""smooth"",""down"",""down"",""good_move"",25083.8,2993.9,2511.8,22089.9,482.1,""oops"",""left"",""right"",""bad_move"",32203.4,7116.9,2869.5,28966.5,367.4,""smooth"",""left"",""left"",""good_move"",35094.5,2890.4,2463,32204.1,427.4,""smooth"",""left"",""left"",""good_move"",38245.4,3149.6,2722.9,35095.9,426.6,""oops"",""left"",""right"",""bad_move"",41262.1,3016.1,2579.8,38246,436.3,""smooth"",""left"",""left"",""good_move"",44520.4,3256.8,2902.6,41263.6,354.2,""oops"",""left"",""right"",""bad_move"",47790.3,3268.7,2859.8,44521.6,408.9,""oops"",""left"",""left"",""good_move"",51405.3,3613,3276.5,47792.3,336.5,""smooth"",""left"",""left"",""good_move"",58805.1,7399,2611.5,55777.4,416.2,""smooth"",""left"",""left"",""good_move""]","",""
"3462","","<div style=""width:500px;"">
  <p>What determined the result of this run?</p>
  </div>","100","html-slider-response","59","2058649","0.0-10.0-1.3","219","1","2025-07-02 11:05:43","80fe4187154257d5fb01684ea91b68b9","41.150.49.16","Mozilla/5.0 (Windows NT 10.0; Win64; x64) AppleWebKit/537.36 (KHTML, like Gecko) Chrome/138.0.0.0 Safari/537.36","WebKit","Chrome","138.0.0.0","Windows","10.0","https://app.prolific.com/","en-ZA,en-GB;q=0.9,en-US;q=0.8,en;q=0.7","61267b828ead584bcf092e35","683db6dfa200031b80f2a654","686512600b0f53dfe59fc162","61267b828ead584bcf092e35","2025-07-02T11:40:06.723Z","","","","","","AttribQ","","","","","","","","","","","","","","","","","","","","","","","","","","","","","","","","","","","","","","50"
"4227","","<div style=""width:500px;"">
  <p>How much control did you have over the ball?</p>
  </div>","59","html-slider-response","60","2062881","0.0-10.0-2.3","219","1","2025-07-02 11:05:43","80fe4187154257d5fb01684ea91b68b9","41.150.49.16","Mozilla/5.0 (Windows NT 10.0; Win64; x64) AppleWebKit/537.36 (KHTML, like Gecko) Chrome/138.0.0.0 Safari/537.36","WebKit","Chrome","138.0.0.0","Windows","10.0","https://app.prolific.com/","en-ZA,en-GB;q=0.9,en-US;q=0.8,en;q=0.7","61267b828ead584bcf092e35","683db6dfa200031b80f2a654","686512600b0f53dfe59fc162","61267b828ead584bcf092e35","2025-07-02T11:40:10.955Z","","","","","","ControlQ","","","","","","","","","","","","","","","","","","","","","","","","","","","","","","","","","","","","","","50"
"2964","","<div style=""width:500px;"">
  <p>How would you describe your current emotional state?</p>
  </div>","43","html-slider-response","61","2065849","0.0-10.0-3.3","219","1","2025-07-02 11:05:43","80fe4187154257d5fb01684ea91b68b9","41.150.49.16","Mozilla/5.0 (Windows NT 10.0; Win64; x64) AppleWebKit/537.36 (KHTML, like Gecko) Chrome/138.0.0.0 Safari/537.36","WebKit","Chrome","138.0.0.0","Windows","10.0","https://app.prolific.com/","en-ZA,en-GB;q=0.9,en-US;q=0.8,en;q=0.7","61267b828ead584bcf092e35","683db6dfa200031b80f2a654","686512600b0f53dfe59fc162","61267b828ead584bcf092e35","2025-07-02T11:40:13.923Z","","","","","","StressQ","","","","","","","","","","","","","","","","","","","","","","","","","","","","","","","","","","","","","","50"
"3028","","<div style=""width:500px;"">
  <p>What best describes how you currently feel?</p>
  </div>","100","html-slider-response","62","2068883","0.0-10.0-4.3","219","1","2025-07-02 11:05:43","80fe4187154257d5fb01684ea91b68b9","41.150.49.16","Mozilla/5.0 (Windows NT 10.0; Win64; x64) AppleWebKit/537.36 (KHTML, like Gecko) Chrome/138.0.0.0 Safari/537.36","WebKit","Chrome","138.0.0.0","Windows","10.0","https://app.prolific.com/","en-ZA,en-GB;q=0.9,en-US;q=0.8,en;q=0.7","61267b828ead584bcf092e35","683db6dfa200031b80f2a654","686512600b0f53dfe59fc162","61267b828ead584bcf092e35","2025-07-02T11:40:16.957Z","","","","","","MotivationQ","","","","","","","","","","","","","","","","","","","","","","","","","","","","","","","","","","","","","","50"
"","","","","ctl-task-cpt","63","2126981","0.0-10.0-0.4","219","1","2025-07-02 11:05:43","80fe4187154257d5fb01684ea91b68b9","41.150.49.16","Mozilla/5.0 (Windows NT 10.0; Win64; x64) AppleWebKit/537.36 (KHTML, like Gecko) Chrome/138.0.0.0 Safari/537.36","WebKit","Chrome","138.0.0.0","Windows","10.0","https://app.prolific.com/","en-ZA,en-GB;q=0.9,en-US;q=0.8,en;q=0.7","61267b828ead584bcf092e35","683db6dfa200031b80f2a654","686512600b0f53dfe59fc162","61267b828ead584bcf092e35","2025-07-02T11:41:15.055Z","","","","","","","","","","","","","","","","win-only","2","g1:SE,g2:NW","0.6","5","0","2072105.7","1453.9","6459.3","55061.6","1","4","4","6","2","4","2","26","24","0.19696969696969696","1350.3","3000","45","[""left"",""up""]","{""num_key_presses"":16,""num_perfect"":10,""num_errors"":2,""num_randdir"":4,""num_randdir_good_moves"":0,""num_whilered"":0,""num_whileblue"":2,""num_blue"":2,""num_good_moves"":11}","[424.0714133126395,416.57142761775424,0.2,424.0714133126395,416.57142761775424,125.8,424.0714133126395,416.57142761775424,231.3,424.0714133126395,416.57142761775424,339.7,424.0714133126395,416.57142761775424,453.8,611.5714133126395,555.3214276177542,563.1,329.0714133126395,441.57142761775424,677.9,166.5714133126395,131.57142761775424,792.9,157.8214133126395,92.82142761775425,900,155.3214133126395,97.82142761775425,1008.7,112.8214133126395,94.07142761775425,1119.6,96.5714133126395,76.57142761775425,1241.4,96.5714133126395,76.57142761775425,1346.6,96.5714133126395,76.57142761775425,1455.4,96.5714133126395,76.57142761775425,1562.6,96.5714133126395,76.57142761775425,1665.9,96.5714133126395,76.57142761775425,1771,96.5714133126395,76.57142761775425,1871.3,96.5714133126395,76.57142761775425,1979.9,96.5714133126395,76.57142761775425,2094.2,96.5714133126395,76.57142761775425,2203.1,96.5714133126395,76.57142761775425,2321.6,96.5714133126395,76.57142761775425,2436.3,96.5714133126395,76.57142761775425,2547.9,96.5714133126395,76.57142761775425,2653.4,96.5714133126395,76.57142761775425,2775,96.5714133126395,76.57142761775425,2896.3,96.5714133126395,76.57142761775425,3010,96.5714133126395,76.57142761775425,3125.6,96.5714133126395,76.57142761775425,3241.6,96.5714133126395,76.57142761775425,3353.4,96.5714133126395,76.57142761775425,3456.1,96.5714133126395,76.57142761775425,3563,96.5714133126395,76.57142761775425,3670.2,96.5714133126395,76.57142761775425,3772.9,96.5714133126395,76.57142761775425,3889.2,96.5714133126395,76.57142761775425,3998,96.5714133126395,76.57142761775425,4099.8,96.5714133126395,76.57142761775425,4203.7,96.5714133126395,76.57142761775425,4303.7,96.5714133126395,76.57142761775425,4410.6,96.5714133126395,76.57142761775425,4513,96.5714133126395,76.57142761775425,4621.7,96.5714133126395,76.57142761775425,4724.2,96.5714133126395,76.57142761775425,4825.2,96.5714133126395,76.57142761775425,4925.7]","[1465.9,1465.9,1000,0,465.9,""oops"",""up"",""right"",""bad_move"",4107.8,2640.9,1692.7,1466.9,948.2,""smooth"",""up"",""up"",""good_move"",7893.7,3785.2,3273.7,4108.6,511.4,""smooth"",""up"",""up"",""good_move"",11048.6,3154.4,2584,7894.2,570.4,""smooth"",""up"",""up"",""good_move"",14390.6,3341.5,2336.4,11049.1,1005.1,""smooth"",""left"",""left"",""good_move"",17380,2988.7,2586,14391.3,402.7,""oops"",""left"",""right"",""bad_move"",20358.1,2976.8,2528,17381.3,448.8,""while_blue"",""left"",""right"",""bad_move"",23250.2,2891.4,2200.3,20358.8,691.1,""smooth"",""left"",""left"",""good_move"",26420.3,3169.7,2731.8,23250.6,437.9,""oops"",""left"",""right"",""bad_move"",30070.5,3648.7,3289.8,26421.8,358.9,""while_blue"",""left"",""left"",""good_move"",33458.1,3387,2886,30071.1,501,""smooth"",""left"",""left"",""good_move"",36690.6,3232,2162.6,33458.6,1069.4,""oops"",""left"",""down"",""bad_move"",39641.7,2950.3,2506.2,36691.4,444.1,""smooth"",""left"",""left"",""good_move"",42537.3,2894.2,2303.2,39643.2,591,""smooth"",""left"",""left"",""good_move"",45234.1,2695.3,1764.3,42538.8,931,""smooth"",""left"",""left"",""good_move"",48318.4,3083.8,2492.4,45234.6,591.4,""smooth"",""up"",""up"",""good_move""]","",""
"3979","","<div style=""width:500px;"">
  <p>What determined the result of this run?</p>
  </div>","100","html-slider-response","64","2130965","0.0-10.0-1.4","219","1","2025-07-02 11:05:43","80fe4187154257d5fb01684ea91b68b9","41.150.49.16","Mozilla/5.0 (Windows NT 10.0; Win64; x64) AppleWebKit/537.36 (KHTML, like Gecko) Chrome/138.0.0.0 Safari/537.36","WebKit","Chrome","138.0.0.0","Windows","10.0","https://app.prolific.com/","en-ZA,en-GB;q=0.9,en-US;q=0.8,en;q=0.7","61267b828ead584bcf092e35","683db6dfa200031b80f2a654","686512600b0f53dfe59fc162","61267b828ead584bcf092e35","2025-07-02T11:41:19.039Z","","","","","","AttribQ","","","","","","","","","","","","","","","","","","","","","","","","","","","","","","","","","","","","","","50"
"4064","","<div style=""width:500px;"">
  <p>How much control did you have over the ball?</p>
  </div>","48","html-slider-response","65","2135032","0.0-10.0-2.4","219","1","2025-07-02 11:05:43","80fe4187154257d5fb01684ea91b68b9","41.150.49.16","Mozilla/5.0 (Windows NT 10.0; Win64; x64) AppleWebKit/537.36 (KHTML, like Gecko) Chrome/138.0.0.0 Safari/537.36","WebKit","Chrome","138.0.0.0","Windows","10.0","https://app.prolific.com/","en-ZA,en-GB;q=0.9,en-US;q=0.8,en;q=0.7","61267b828ead584bcf092e35","683db6dfa200031b80f2a654","686512600b0f53dfe59fc162","61267b828ead584bcf092e35","2025-07-02T11:41:23.106Z","","","","","","ControlQ","","","","","","","","","","","","","","","","","","","","","","","","","","","","","","","","","","","","","","50"
"4179","","<div style=""width:500px;"">
  <p>How would you describe your current emotional state?</p>
  </div>","54","html-slider-response","66","2139213","0.0-10.0-3.4","219","1","2025-07-02 11:05:43","80fe4187154257d5fb01684ea91b68b9","41.150.49.16","Mozilla/5.0 (Windows NT 10.0; Win64; x64) AppleWebKit/537.36 (KHTML, like Gecko) Chrome/138.0.0.0 Safari/537.36","WebKit","Chrome","138.0.0.0","Windows","10.0","https://app.prolific.com/","en-ZA,en-GB;q=0.9,en-US;q=0.8,en;q=0.7","61267b828ead584bcf092e35","683db6dfa200031b80f2a654","686512600b0f53dfe59fc162","61267b828ead584bcf092e35","2025-07-02T11:41:27.288Z","","","","","","StressQ","","","","","","","","","","","","","","","","","","","","","","","","","","","","","","","","","","","","","","50"
"2882","","<div style=""width:500px;"">
  <p>What best describes how you currently feel?</p>
  </div>","100","html-slider-response","67","2142098","0.0-10.0-4.4","219","1","2025-07-02 11:05:43","80fe4187154257d5fb01684ea91b68b9","41.150.49.16","Mozilla/5.0 (Windows NT 10.0; Win64; x64) AppleWebKit/537.36 (KHTML, like Gecko) Chrome/138.0.0.0 Safari/537.36","WebKit","Chrome","138.0.0.0","Windows","10.0","https://app.prolific.com/","en-ZA,en-GB;q=0.9,en-US;q=0.8,en;q=0.7","61267b828ead584bcf092e35","683db6dfa200031b80f2a654","686512600b0f53dfe59fc162","61267b828ead584bcf092e35","2025-07-02T11:41:30.172Z","","","","","","MotivationQ","","","","","","","","","","","","","","","","","","","","","","","","","","","","","","","","","","","","","","50"
"","","","","ctl-task-cpt","68","2197335","0.0-10.0-0.5","219","1","2025-07-02 11:05:43","80fe4187154257d5fb01684ea91b68b9","41.150.49.16","Mozilla/5.0 (Windows NT 10.0; Win64; x64) AppleWebKit/537.36 (KHTML, like Gecko) Chrome/138.0.0.0 Safari/537.36","WebKit","Chrome","138.0.0.0","Windows","10.0","https://app.prolific.com/","en-ZA,en-GB;q=0.9,en-US;q=0.8,en;q=0.7","61267b828ead584bcf092e35","683db6dfa200031b80f2a654","686512600b0f53dfe59fc162","61267b828ead584bcf092e35","2025-07-02T11:42:25.409Z","","","","","","","","","","","","","","","","win-only","0","g1:NW,g2:SE","0.5","6","0","2145318.7","1468.4","6472.6","52216.9","1","4","8","6","2","8","6","32","26","0.24242424242424243","1154.9","3000","1115","[""down"",""right""]","{""num_key_presses"":14,""num_perfect"":7,""num_errors"":2,""num_randdir"":5,""num_randdir_good_moves"":2,""num_whilered"":0,""num_whileblue"":2,""num_blue"":3,""num_good_moves"":10}","[406.5714133126395,421.57142761775424,1.4,406.5714133126395,421.57142761775424,101,406.5714133126395,421.57142761775424,202.3,406.5714133126395,421.57142761775424,313.7,406.5714133126395,421.57142761775424,426.9,681.5714133126395,532.8214276177542,532.5,751.5714133126395,641.5714276177542,636.2,741.5714133126395,711.5714276177542,746,759.0714133126395,741.5714276177542,850.4,761.5714133126395,747.8214276177542,956.2,761.5714133126395,747.8214276177542,1065.9,761.5714133126395,747.8214276177542,1166.4,761.5714133126395,747.8214276177542,1277.9,761.5714133126395,747.8214276177542,1378.1,761.5714133126395,747.8214276177542,1493.3,761.5714133126395,747.8214276177542,1599.8,761.5714133126395,747.8214276177542,1709.6,761.5714133126395,747.8214276177542,1809.8,761.5714133126395,747.8214276177542,1911.7,761.5714133126395,747.8214276177542,2012.2,761.5714133126395,747.8214276177542,2126.8,761.5714133126395,747.8214276177542,2228.5,761.5714133126395,747.8214276177542,2341.8,761.5714133126395,747.8214276177542,2458.9,761.5714133126395,747.8214276177542,2562,761.5714133126395,747.8214276177542,2677,761.5714133126395,747.8214276177542,2778.9,761.5714133126395,747.8214276177542,2879.3,761.5714133126395,747.8214276177542,2996.2,761.5714133126395,747.8214276177542,3100.7,761.5714133126395,747.8214276177542,3202.4,761.5714133126395,747.8214276177542,3318.5,761.5714133126395,747.8214276177542,3422.4,761.5714133126395,747.8214276177542,3532,761.5714133126395,747.8214276177542,3646.5,761.5714133126395,747.8214276177542,3763.7,761.5714133126395,747.8214276177542,3870.6,761.5714133126395,747.8214276177542,3983.1,761.5714133126395,747.8214276177542,4086.2,761.5714133126395,747.8214276177542,4198.9,761.5714133126395,747.8214276177542,4311.7,761.5714133126395,747.8214276177542,4418.8,761.5714133126395,747.8214276177542,4521.4,761.5714133126395,747.8214276177542,4622.9,761.5714133126395,747.8214276177542,4738.9,761.5714133126395,747.8214276177542,4858.9,761.5714133126395,747.8214276177542,4967.8]","[1706.1,1706.1,1000,0,706.1,""smooth"",""down"",""down"",""good_move"",4737.8,3030.8,2437,1707.1,593.7,""oops"",""down"",""down"",""good_move"",7161.7,2421.6,1931.9,4740.1,489.7,""smooth"",""down"",""down"",""good_move"",10706.2,3543.9,3059.6,7162.3,484.3,""smooth"",""right"",""right"",""good_move"",13464.9,2758.1,2316.3,10706.8,441.8,""oops"",""right"",""up"",""bad_move"",17233.9,3768.5,2841.4,13465.5,927.1,""while_blue"",""right"",""right"",""good_move"",19717.6,2483,1914,17234.6,569,""while_blue"",""down"",""left"",""bad_move"",23274.8,3556.5,2984.8,19718.3,571.7,""oops"",""down"",""up"",""bad_move"",26384.7,3109.3,2644.3,23275.4,465,""smooth"",""down"",""down"",""good_move"",29593.7,3208.6,2793.2,26385.1,415.4,""smooth"",""down"",""down"",""good_move"",32106.6,2512.4,2102.3,29594.2,410.1,""oops"",""right"",""up"",""bad_move"",39170.7,7063.4,2790.4,35962.6,417.7,""oops"",""right"",""right"",""good_move"",41974.7,2802.6,2337,39172.1,465.6,""smooth"",""right"",""right"",""good_move"",45377.4,3402.2,2979,41975.2,423.2,""smooth"",""down"",""down"",""good_move""]","",""
"4162","","<div style=""width:500px;"">
  <p>What determined the result of this run?</p>
  </div>","100","html-slider-response","69","2201499","0.0-10.0-1.5","219","1","2025-07-02 11:05:43","80fe4187154257d5fb01684ea91b68b9","41.150.49.16","Mozilla/5.0 (Windows NT 10.0; Win64; x64) AppleWebKit/537.36 (KHTML, like Gecko) Chrome/138.0.0.0 Safari/537.36","WebKit","Chrome","138.0.0.0","Windows","10.0","https://app.prolific.com/","en-ZA,en-GB;q=0.9,en-US;q=0.8,en;q=0.7","61267b828ead584bcf092e35","683db6dfa200031b80f2a654","686512600b0f53dfe59fc162","61267b828ead584bcf092e35","2025-07-02T11:42:29.573Z","","","","","","AttribQ","","","","","","","","","","","","","","","","","","","","","","","","","","","","","","","","","","","","","","50"
"3564","","<div style=""width:500px;"">
  <p>How much control did you have over the ball?</p>
  </div>","61","html-slider-response","70","2205066","0.0-10.0-2.5","219","1","2025-07-02 11:05:43","80fe4187154257d5fb01684ea91b68b9","41.150.49.16","Mozilla/5.0 (Windows NT 10.0; Win64; x64) AppleWebKit/537.36 (KHTML, like Gecko) Chrome/138.0.0.0 Safari/537.36","WebKit","Chrome","138.0.0.0","Windows","10.0","https://app.prolific.com/","en-ZA,en-GB;q=0.9,en-US;q=0.8,en;q=0.7","61267b828ead584bcf092e35","683db6dfa200031b80f2a654","686512600b0f53dfe59fc162","61267b828ead584bcf092e35","2025-07-02T11:42:33.140Z","","","","","","ControlQ","","","","","","","","","","","","","","","","","","","","","","","","","","","","","","","","","","","","","","50"
"3449","","<div style=""width:500px;"">
  <p>How would you describe your current emotional state?</p>
  </div>","32","html-slider-response","71","2208517","0.0-10.0-3.5","219","1","2025-07-02 11:05:43","80fe4187154257d5fb01684ea91b68b9","41.150.49.16","Mozilla/5.0 (Windows NT 10.0; Win64; x64) AppleWebKit/537.36 (KHTML, like Gecko) Chrome/138.0.0.0 Safari/537.36","WebKit","Chrome","138.0.0.0","Windows","10.0","https://app.prolific.com/","en-ZA,en-GB;q=0.9,en-US;q=0.8,en;q=0.7","61267b828ead584bcf092e35","683db6dfa200031b80f2a654","686512600b0f53dfe59fc162","61267b828ead584bcf092e35","2025-07-02T11:42:36.591Z","","","","","","StressQ","","","","","","","","","","","","","","","","","","","","","","","","","","","","","","","","","","","","","","50"
"2529","","<div style=""width:500px;"">
  <p>What best describes how you currently feel?</p>
  </div>","100","html-slider-response","72","2211049","0.0-10.0-4.5","219","1","2025-07-02 11:05:43","80fe4187154257d5fb01684ea91b68b9","41.150.49.16","Mozilla/5.0 (Windows NT 10.0; Win64; x64) AppleWebKit/537.36 (KHTML, like Gecko) Chrome/138.0.0.0 Safari/537.36","WebKit","Chrome","138.0.0.0","Windows","10.0","https://app.prolific.com/","en-ZA,en-GB;q=0.9,en-US;q=0.8,en;q=0.7","61267b828ead584bcf092e35","683db6dfa200031b80f2a654","686512600b0f53dfe59fc162","61267b828ead584bcf092e35","2025-07-02T11:42:39.123Z","","","","","","MotivationQ","","","","","","","","","","","","","","","","","","","","","","","","","","","","","","","","","","","","","","50"
"","","","","ctl-task-cpt","73","2278972","0.0-10.0-0.6","219","1","2025-07-02 11:05:43","80fe4187154257d5fb01684ea91b68b9","41.150.49.16","Mozilla/5.0 (Windows NT 10.0; Win64; x64) AppleWebKit/537.36 (KHTML, like Gecko) Chrome/138.0.0.0 Safari/537.36","WebKit","Chrome","138.0.0.0","Windows","10.0","https://app.prolific.com/","en-ZA,en-GB;q=0.9,en-US;q=0.8,en;q=0.7","61267b828ead584bcf092e35","683db6dfa200031b80f2a654","686512600b0f53dfe59fc162","61267b828ead584bcf092e35","2025-07-02T11:43:47.046Z","","","","","","","","","","","","","","","","win-only","3","g1:SW,g2:NE","0.4","7","0","2214269.9","1698","6700","64903.7","1","4","8","6","2","8","8","40","32","0.30303030303030304","1637.8","3000","585","[""up"",""right""]","{""num_key_presses"":14,""num_perfect"":5,""num_errors"":0,""num_randdir"":9,""num_randdir_good_moves"":5,""num_whilered"":0,""num_whileblue"":0,""num_blue"":4,""num_good_moves"":10}","[416.5714133126395,416.57142761775424,1.4,416.5714133126395,416.57142761775424,103,416.5714133126395,416.57142761775424,208.7,416.5714133126395,416.57142761775424,316.2,416.5714133126395,416.57142761775424,417.4,416.5714133126395,416.57142761775424,523.5,416.5714133126395,416.57142761775424,631.6,416.5714133126395,416.57142761775424,735.2,416.5714133126395,416.57142761775424,843,416.5714133126395,416.57142761775424,948.3,951.5714133126395,27.821427617754253,1058.5,1006.5714133126395,11.571427617754253,1159,955.3214133126395,31.571427617754253,1263.6,800.3214133126395,94.07142761775425,1370.8,784.0714133126395,96.57142761775425,1473.3,784.0714133126395,96.57142761775425,1584.1,784.0714133126395,96.57142761775425,1688.8,784.0714133126395,96.57142761775425,1796.5,784.0714133126395,96.57142761775425,1901.8,784.0714133126395,96.57142761775425,2005.2,784.0714133126395,96.57142761775425,2114.3,784.0714133126395,96.57142761775425,2218.5,784.0714133126395,96.57142761775425,2328.8,784.0714133126395,96.57142761775425,2436,784.0714133126395,96.57142761775425,2538.2,784.0714133126395,96.57142761775425,2641.2,784.0714133126395,96.57142761775425,2751.5,784.0714133126395,96.57142761775425,2857,784.0714133126395,96.57142761775425,2962.1,784.0714133126395,96.57142761775425,3067.8,784.0714133126395,96.57142761775425,3169.3,784.0714133126395,96.57142761775425,3270.3,784.0714133126395,96.57142761775425,3375.6,784.0714133126395,96.57142761775425,3480.7,784.0714133126395,96.57142761775425,3582.3,784.0714133126395,96.57142761775425,3685.4,784.0714133126395,96.57142761775425,3785.5,784.0714133126395,96.57142761775425,3896.1,784.0714133126395,96.57142761775425,3999.8,784.0714133126395,96.57142761775425,4106.7,784.0714133126395,96.57142761775425,4218.3,784.0714133126395,96.57142761775425,4331.4,784.0714133126395,96.57142761775425,4439.5,784.0714133126395,96.57142761775425,4552.4,784.0714133126395,96.57142761775425,4655.9,784.0714133126395,96.57142761775425,4770.5,784.0714133126395,96.57142761775425,4879.4,784.0714133126395,96.57142761775425,4985.4]","[9887.2,9887.2,3297.8,6207.8,381.6,""smooth"",""up"",""up"",""good_move"",13063.2,3174.4,2773.9,9888.8,400.5,""smooth"",""up"",""up"",""good_move"",16577.9,3513.6,3125.1,13064.3,388.5,""oops"",""up"",""down"",""bad_move"",18649.5,2070.9,1432,16578.6,638.9,""oops"",""up"",""up"",""good_move"",21763.2,3112.4,2717.7,18650.8,394.7,""oops"",""up"",""down"",""bad_move"",27237.3,5473.4,1955.8,24846.5,435,""oops"",""right"",""left"",""bad_move"",34785.3,7547,3070.6,31276.8,437.9,""oops"",""up"",""up"",""good_move"",38366.6,3581,2346.9,34785.6,1234.1,""oops"",""up"",""down"",""bad_move"",41754,3386,2759,38368.1,626.9,""smooth"",""right"",""right"",""good_move"",44714.4,2959.1,2502.4,41755.3,456.7,""smooth"",""right"",""right"",""good_move"",48063.3,3348.4,2916.5,44714.9,431.9,""oops"",""right"",""right"",""good_move"",51668,3604,3216.6,48064,387.4,""oops"",""right"",""right"",""good_move"",54872.4,3201.7,2825.3,51670.7,376.4,""smooth"",""up"",""up"",""good_move"",57941,3067.5,2719.8,54873.5,347.7,""oops"",""up"",""up"",""good_move""]","",""
"3791","","<div style=""width:500px;"">
  <p>What determined the result of this run?</p>
  </div>","100","html-slider-response","74","2282767","0.0-10.0-1.6","219","1","2025-07-02 11:05:43","80fe4187154257d5fb01684ea91b68b9","41.150.49.16","Mozilla/5.0 (Windows NT 10.0; Win64; x64) AppleWebKit/537.36 (KHTML, like Gecko) Chrome/138.0.0.0 Safari/537.36","WebKit","Chrome","138.0.0.0","Windows","10.0","https://app.prolific.com/","en-ZA,en-GB;q=0.9,en-US;q=0.8,en;q=0.7","61267b828ead584bcf092e35","683db6dfa200031b80f2a654","686512600b0f53dfe59fc162","61267b828ead584bcf092e35","2025-07-02T11:43:50.841Z","","","","","","AttribQ","","","","","","","","","","","","","","","","","","","","","","","","","","","","","","","","","","","","","","50"
"3716","","<div style=""width:500px;"">
  <p>How much control did you have over the ball?</p>
  </div>","58","html-slider-response","75","2286485","0.0-10.0-2.6","219","1","2025-07-02 11:05:43","80fe4187154257d5fb01684ea91b68b9","41.150.49.16","Mozilla/5.0 (Windows NT 10.0; Win64; x64) AppleWebKit/537.36 (KHTML, like Gecko) Chrome/138.0.0.0 Safari/537.36","WebKit","Chrome","138.0.0.0","Windows","10.0","https://app.prolific.com/","en-ZA,en-GB;q=0.9,en-US;q=0.8,en;q=0.7","61267b828ead584bcf092e35","683db6dfa200031b80f2a654","686512600b0f53dfe59fc162","61267b828ead584bcf092e35","2025-07-02T11:43:54.559Z","","","","","","ControlQ","","","","","","","","","","","","","","","","","","","","","","","","","","","","","","","","","","","","","","50"
"5113","","<div style=""width:500px;"">
  <p>How would you describe your current emotional state?</p>
  </div>","37","html-slider-response","76","2291601","0.0-10.0-3.6","219","1","2025-07-02 11:05:43","80fe4187154257d5fb01684ea91b68b9","41.150.49.16","Mozilla/5.0 (Windows NT 10.0; Win64; x64) AppleWebKit/537.36 (KHTML, like Gecko) Chrome/138.0.0.0 Safari/537.36","WebKit","Chrome","138.0.0.0","Windows","10.0","https://app.prolific.com/","en-ZA,en-GB;q=0.9,en-US;q=0.8,en;q=0.7","61267b828ead584bcf092e35","683db6dfa200031b80f2a654","686512600b0f53dfe59fc162","61267b828ead584bcf092e35","2025-07-02T11:43:59.675Z","","","","","","StressQ","","","","","","","","","","","","","","","","","","","","","","","","","","","","","","","","","","","","","","50"
"3412","","<div style=""width:500px;"">
  <p>What best describes how you currently feel?</p>
  </div>","100","html-slider-response","77","2295017","0.0-10.0-4.6","219","1","2025-07-02 11:05:43","80fe4187154257d5fb01684ea91b68b9","41.150.49.16","Mozilla/5.0 (Windows NT 10.0; Win64; x64) AppleWebKit/537.36 (KHTML, like Gecko) Chrome/138.0.0.0 Safari/537.36","WebKit","Chrome","138.0.0.0","Windows","10.0","https://app.prolific.com/","en-ZA,en-GB;q=0.9,en-US;q=0.8,en;q=0.7","61267b828ead584bcf092e35","683db6dfa200031b80f2a654","686512600b0f53dfe59fc162","61267b828ead584bcf092e35","2025-07-02T11:44:03.092Z","","","","","","MotivationQ","","","","","","","","","","","","","","","","","","","","","","","","","","","","","","","","","","","","","","50"
"","","","","ctl-task-cpt","78","2365488","0.0-10.0-0.7","219","1","2025-07-02 11:05:43","80fe4187154257d5fb01684ea91b68b9","41.150.49.16","Mozilla/5.0 (Windows NT 10.0; Win64; x64) AppleWebKit/537.36 (KHTML, like Gecko) Chrome/138.0.0.0 Safari/537.36","WebKit","Chrome","138.0.0.0","Windows","10.0","https://app.prolific.com/","en-ZA,en-GB;q=0.9,en-US;q=0.8,en;q=0.7","61267b828ead584bcf092e35","683db6dfa200031b80f2a654","686512600b0f53dfe59fc162","61267b828ead584bcf092e35","2025-07-02T11:45:13.563Z","","","","","","","","","","","","","","","","win-only","3","g1:SW,g2:NE","0.3","8","0","2298240","1629.7","6641.5","67437.7","1","4","4","6","2","4","3","43","40","0.32575757575757575","1455.6","3000","1385","[""up"",""right""]","{""num_key_presses"":14,""num_perfect"":4,""num_errors"":1,""num_randdir"":9,""num_randdir_good_moves"":5,""num_whilered"":0,""num_whileblue"":1,""num_blue"":5,""num_good_moves"":10}","[416.5714133126395,412.82142761775424,1,416.5714133126395,412.82142761775424,116.3,416.5714133126395,412.82142761775424,221.2,416.5714133126395,412.82142761775424,328,416.5714133126395,412.82142761775424,429.3,416.5714133126395,412.82142761775424,534.8,416.5714133126395,412.82142761775424,636.7,416.5714133126395,412.82142761775424,739.8,494.0714133126395,337.82142761775424,856,691.5714133126395,150.32142761775424,964.9,694.0714133126395,142.82142761775424,1070.1,711.5714133126395,111.57142761775425,1175.1,734.0714133126395,95.32142761775425,1279.5,734.0714133126395,95.32142761775425,1401.2,734.0714133126395,95.32142761775425,1506.1,734.0714133126395,95.32142761775425,1608.2,734.0714133126395,95.32142761775425,1712.8,734.0714133126395,95.32142761775425,1813.8,734.0714133126395,95.32142761775425,1918.9,734.0714133126395,95.32142761775425,2020.8,734.0714133126395,95.32142761775425,2147.8,734.0714133126395,95.32142761775425,2252,734.0714133126395,95.32142761775425,2357.9,734.0714133126395,95.32142761775425,2464.2,734.0714133126395,95.32142761775425,2567.4,734.0714133126395,95.32142761775425,2667.7,734.0714133126395,95.32142761775425,2774.1,734.0714133126395,95.32142761775425,2878.6,734.0714133126395,95.32142761775425,3003.5,734.0714133126395,95.32142761775425,3129.9,734.0714133126395,95.32142761775425,3231.3,734.0714133126395,95.32142761775425,3335.6,734.0714133126395,95.32142761775425,3446.9,734.0714133126395,95.32142761775425,3553.4,734.0714133126395,95.32142761775425,3658.3,734.0714133126395,95.32142761775425,3765.5,734.0714133126395,95.32142761775425,3868.4,734.0714133126395,95.32142761775425,3971.9,734.0714133126395,95.32142761775425,4073.2,734.0714133126395,95.32142761775425,4176.4,734.0714133126395,95.32142761775425,4302.1,734.0714133126395,95.32142761775425,4405.4,734.0714133126395,95.32142761775425,4505.6,734.0714133126395,95.32142761775425,4606,734.0714133126395,95.32142761775425,4713.5,734.0714133126395,95.32142761775425,4819.2,734.0714133126395,95.32142761775425,4929.2]","[1476.3,1476.3,1000,0,476.3,""oops"",""right"",""right"",""good_move"",4455,2977.3,2513.8,1477.8,463.4,""oops"",""right"",""up"",""good_move"",10226.6,5770.8,2358.2,4455.9,3412.5,""smooth"",""right"",""right"",""good_move"",12759.3,2532.1,2058,10227.2,474.1,""oops"",""right"",""down"",""bad_move"",16082,3322,2793.7,12760,528.3,""smooth"",""up"",""up"",""good_move"",26061,9978.2,2322.1,23302.9,436,""oops"",""up"",""down"",""bad_move"",36885.3,10823.9,2478.4,33976.8,430.1,""smooth"",""up"",""up"",""good_move"",41744.5,4858.8,2164.4,36885.7,2694.4,""oops"",""up"",""left"",""bad_move"",44857.6,3112.2,2457,41745.4,655.2,""oops"",""up"",""left"",""bad_move"",47808.1,2947.6,2530.6,44860.5,417.1,""oops"",""right"",""up"",""good_move"",50852.8,3043.5,2604.1,47809.4,439.3,""oops"",""right"",""right"",""good_move"",54220.8,3367.2,2924,50853.6,443.2,""oops"",""right"",""up"",""good_move"",57451.5,3230.1,1916.8,54221.4,1313.3,""smooth"",""right"",""right"",""good_move"",60360.4,2908,2500.3,57452.4,407.7,""while_blue"",""right"",""right"",""good_move""]","",""
"5342","","<div style=""width:500px;"">
  <p>What determined the result of this run?</p>
  </div>","80","html-slider-response","79","2370835","0.0-10.0-1.7","219","1","2025-07-02 11:05:43","80fe4187154257d5fb01684ea91b68b9","41.150.49.16","Mozilla/5.0 (Windows NT 10.0; Win64; x64) AppleWebKit/537.36 (KHTML, like Gecko) Chrome/138.0.0.0 Safari/537.36","WebKit","Chrome","138.0.0.0","Windows","10.0","https://app.prolific.com/","en-ZA,en-GB;q=0.9,en-US;q=0.8,en;q=0.7","61267b828ead584bcf092e35","683db6dfa200031b80f2a654","686512600b0f53dfe59fc162","61267b828ead584bcf092e35","2025-07-02T11:45:18.909Z","","","","","","AttribQ","","","","","","","","","","","","","","","","","","","","","","","","","","","","","","","","","","","","","","50"
"9546","","<div style=""width:500px;"">
  <p>How much control did you have over the ball?</p>
  </div>","67","html-slider-response","80","2380385","0.0-10.0-2.7","219","1","2025-07-02 11:05:43","80fe4187154257d5fb01684ea91b68b9","41.150.49.16","Mozilla/5.0 (Windows NT 10.0; Win64; x64) AppleWebKit/537.36 (KHTML, like Gecko) Chrome/138.0.0.0 Safari/537.36","WebKit","Chrome","138.0.0.0","Windows","10.0","https://app.prolific.com/","en-ZA,en-GB;q=0.9,en-US;q=0.8,en;q=0.7","61267b828ead584bcf092e35","683db6dfa200031b80f2a654","686512600b0f53dfe59fc162","61267b828ead584bcf092e35","2025-07-02T11:45:28.459Z","","","","","","ControlQ","","","","","","","","","","","","","","","","","","","","","","","","","","","","","","","","","","","","","","50"
"5645","","<div style=""width:500px;"">
  <p>How would you describe your current emotional state?</p>
  </div>","34","html-slider-response","81","2386035","0.0-10.0-3.7","219","1","2025-07-02 11:05:43","80fe4187154257d5fb01684ea91b68b9","41.150.49.16","Mozilla/5.0 (Windows NT 10.0; Win64; x64) AppleWebKit/537.36 (KHTML, like Gecko) Chrome/138.0.0.0 Safari/537.36","WebKit","Chrome","138.0.0.0","Windows","10.0","https://app.prolific.com/","en-ZA,en-GB;q=0.9,en-US;q=0.8,en;q=0.7","61267b828ead584bcf092e35","683db6dfa200031b80f2a654","686512600b0f53dfe59fc162","61267b828ead584bcf092e35","2025-07-02T11:45:34.109Z","","","","","","StressQ","","","","","","","","","","","","","","","","","","","","","","","","","","","","","","","","","","","","","","50"
"3495","","<div style=""width:500px;"">
  <p>What best describes how you currently feel?</p>
  </div>","100","html-slider-response","82","2389533","0.0-10.0-4.7","219","1","2025-07-02 11:05:43","80fe4187154257d5fb01684ea91b68b9","41.150.49.16","Mozilla/5.0 (Windows NT 10.0; Win64; x64) AppleWebKit/537.36 (KHTML, like Gecko) Chrome/138.0.0.0 Safari/537.36","WebKit","Chrome","138.0.0.0","Windows","10.0","https://app.prolific.com/","en-ZA,en-GB;q=0.9,en-US;q=0.8,en;q=0.7","61267b828ead584bcf092e35","683db6dfa200031b80f2a654","686512600b0f53dfe59fc162","61267b828ead584bcf092e35","2025-07-02T11:45:37.607Z","","","","","","MotivationQ","","","","","","","","","","","","","","","","","","","","","","","","","","","","","","","","","","","","","","50"
