"rt","response_timestamp","stimulus","response","trial_type","trial_index","time_elapsed","internal_node_id","run_id","condition","recorded_at","source_code_version","ip","user_agent","device","browser","browser_version","platform","platform_version","referer","accept_language","PROLIFIC_PID","STUDY_ID","SESSION_ID","prolific_id","realtime","view_history","question_order","consent","success","question_id","eventType","responses","item_order","radio_event_ids","radio_event_times","key_event_times","mouse_event_times","straightlining","zigzagging","honeypot","which_type","canvas_config","goals_layout","control_level","trial_number","tutorial_trial_number","trial_start_time","phase1_start_time","phase2_start_time","phase3_start_time","goal_1_value","goal_1_distance","goal_2_value","goal_2_distance","goal_selected","outcome","outcome_total","participant_final_score","participant_initial_score","participant_final_score_prop","goal_choice_rt","allocated_time","allocated_time_remaining","goal_direction","counts","mouse_movements","key_presses","correct","slider_start"
"70147","1751451709051","<p style='font-size:40px;line-height:1.25'><strong>Welcome to the experiment!</strong></p><p style='font-size:1.1em;line-height:1.25'>Thank you for your interest in our experiment! Before you begin, it is important that we obtain your informed consent to participate in the study.</p><p style='font-size:1.1em;line-height:1.25'>On the next screen will be an <strong>information sheet</strong> for you to read. To participate in the study we need you to read this information sheet and the following consent form carefully. If you agree with all the statements, please click the <strong>I agree</strong> button.</p><p style='font-size:1.1em;line-height:1.25'>Press <strong>Next</strong> to read the information sheet.</p>","0","custom-html-button-response","0","70152","0.0-0.0","136","1","2025-07-02 10:20:34","80fe4187154257d5fb01684ea91b68b9","41.150.250.58","Mozilla/5.0 (Windows NT 10.0; Win64; x64) AppleWebKit/537.36 (KHTML, like Gecko) Chrome/137.0.0.0 Safari/537.36 Edg/137.0.0.0","WebKit","Edge","137.0.0.0","Windows","10.0","https://app.prolific.com/","en-GB,en;q=0.9,en-US;q=0.8,en-ZA;q=0.7","612aad0cb69fa8ecd2f6edd8","683db6dfa200031b80f2a654","68650754d1afc2a4926ec2a1","612aad0cb69fa8ecd2f6edd8","2025-07-02T10:21:49.054Z","","","","","","","","","","","","","","","","","","","","","","","","","","","","","","","","","","","","","","","","","","","",""
"23880","","","","instructions","1","94034","0.0-1.0","136","1","2025-07-02 10:20:34","80fe4187154257d5fb01684ea91b68b9","41.150.250.58","Mozilla/5.0 (Windows NT 10.0; Win64; x64) AppleWebKit/537.36 (KHTML, like Gecko) Chrome/137.0.0.0 Safari/537.36 Edg/137.0.0.0","WebKit","Edge","137.0.0.0","Windows","10.0","https://app.prolific.com/","en-GB,en;q=0.9,en-US;q=0.8,en-ZA;q=0.7","612aad0cb69fa8ecd2f6edd8","683db6dfa200031b80f2a654","68650754d1afc2a4926ec2a1","612aad0cb69fa8ecd2f6edd8","","[{""page_index"":0,""viewing_time"":17931},{""page_index"":1,""viewing_time"":5948}]","","","","","","","","","","","","","","","","","","","","","","","","","","","","","","","","","","","","","","","","","","",""
"81400","","","{""Q0"":"""",""Q1"":"""",""Q2"":"""",""Q3"":"""",""Q4"":"""",""Q5"":"""",""Q6"":""I agree""}","survey-multi-choice","2","175438","0.0-2.0","136","1","2025-07-02 10:20:34","80fe4187154257d5fb01684ea91b68b9","41.150.250.58","Mozilla/5.0 (Windows NT 10.0; Win64; x64) AppleWebKit/537.36 (KHTML, like Gecko) Chrome/137.0.0.0 Safari/537.36 Edg/137.0.0.0","WebKit","Edge","137.0.0.0","Windows","10.0","https://app.prolific.com/","en-GB,en;q=0.9,en-US;q=0.8,en-ZA;q=0.7","612aad0cb69fa8ecd2f6edd8","683db6dfa200031b80f2a654","68650754d1afc2a4926ec2a1","612aad0cb69fa8ecd2f6edd8","","","[0,1,2,3,4,5,6]","true","","","","","","","","","","","","","","","","","","","","","","","","","","","","","","","","","","","","","","","","",""
"24019","","","","fullscreen","3","200474","0.0-4.0","136","1","2025-07-02 10:20:34","80fe4187154257d5fb01684ea91b68b9","41.150.250.58","Mozilla/5.0 (Windows NT 10.0; Win64; x64) AppleWebKit/537.36 (KHTML, like Gecko) Chrome/137.0.0.0 Safari/537.36 Edg/137.0.0.0","WebKit","Edge","137.0.0.0","Windows","10.0","https://app.prolific.com/","en-GB,en;q=0.9,en-US;q=0.8,en-ZA;q=0.7","612aad0cb69fa8ecd2f6edd8","683db6dfa200031b80f2a654","68650754d1afc2a4926ec2a1","612aad0cb69fa8ecd2f6edd8","","","","","true","","","","","","","","","","","","","","","","","","","","","","","","","","","","","","","","","","","","","","","",""
"11538","1751451850916"," <p style='font-size:1.1em;line-height:1.25'>Thank you for completing the consent form and closing all other tabs.</p><p style='font-size:1.1em;line-height:1.25'>We will now invite you to fill in some demographic information and questionnaires, before starting the game.<br>This will take about 5 minutes.<br></p><p style='font-size:1.1em;line-height:1.25'>Press the <strong>Next</strong> button to continue.</p>","0","custom-html-button-response","4","212015","0.0-5.0","136","1","2025-07-02 10:20:34","80fe4187154257d5fb01684ea91b68b9","41.150.250.58","Mozilla/5.0 (Windows NT 10.0; Win64; x64) AppleWebKit/537.36 (KHTML, like Gecko) Chrome/137.0.0.0 Safari/537.36 Edg/137.0.0.0","WebKit","Edge","137.0.0.0","Windows","10.0","https://app.prolific.com/","en-GB,en;q=0.9,en-US;q=0.8,en-ZA;q=0.7","612aad0cb69fa8ecd2f6edd8","683db6dfa200031b80f2a654","68650754d1afc2a4926ec2a1","612aad0cb69fa8ecd2f6edd8","2025-07-02T10:24:10.917Z","","","","","","","","","","","","","","","","","","","","","","","","","","","","","","","","","","","","","","","","","","","",""
"4723","","","{""age"":""23""}","survey-text","5","216745","0.0-6.0-0.0","136","1","2025-07-02 10:20:34","80fe4187154257d5fb01684ea91b68b9","41.150.250.58","Mozilla/5.0 (Windows NT 10.0; Win64; x64) AppleWebKit/537.36 (KHTML, like Gecko) Chrome/137.0.0.0 Safari/537.36 Edg/137.0.0.0","WebKit","Edge","137.0.0.0","Windows","10.0","https://app.prolific.com/","en-GB,en;q=0.9,en-US;q=0.8,en-ZA;q=0.7","612aad0cb69fa8ecd2f6edd8","683db6dfa200031b80f2a654","68650754d1afc2a4926ec2a1","612aad0cb69fa8ecd2f6edd8","","","","","","0","demographics","","","","","","","","","","","","","","","","","","","","","","","","","","","","","","","","","","","","","",""
"7819","","","{""gender_identity"":""male/man""}","survey-multi-choice","6","224566","0.0-6.0-1.0","136","1","2025-07-02 10:20:34","80fe4187154257d5fb01684ea91b68b9","41.150.250.58","Mozilla/5.0 (Windows NT 10.0; Win64; x64) AppleWebKit/537.36 (KHTML, like Gecko) Chrome/137.0.0.0 Safari/537.36 Edg/137.0.0.0","WebKit","Edge","137.0.0.0","Windows","10.0","https://app.prolific.com/","en-GB,en;q=0.9,en-US;q=0.8,en-ZA;q=0.7","612aad0cb69fa8ecd2f6edd8","683db6dfa200031b80f2a654","68650754d1afc2a4926ec2a1","612aad0cb69fa8ecd2f6edd8","","","[0]","","","1","demographics","","","","","","","","","","","","","","","","","","","","","","","","","","","","","","","","","","","","","",""
"6374","","","{""assigned_sex"":""male""}","survey-multi-choice","7","230942","0.0-6.0-2.0","136","1","2025-07-02 10:20:34","80fe4187154257d5fb01684ea91b68b9","41.150.250.58","Mozilla/5.0 (Windows NT 10.0; Win64; x64) AppleWebKit/537.36 (KHTML, like Gecko) Chrome/137.0.0.0 Safari/537.36 Edg/137.0.0.0","WebKit","Edge","137.0.0.0","Windows","10.0","https://app.prolific.com/","en-GB,en;q=0.9,en-US;q=0.8,en-ZA;q=0.7","612aad0cb69fa8ecd2f6edd8","683db6dfa200031b80f2a654","68650754d1afc2a4926ec2a1","612aad0cb69fa8ecd2f6edd8","","","[0]","","","2","demographics","","","","","","","","","","","","","","","","","","","","","","","","","","","","","","","","","","","","","",""
"59486","","","{""menstrual_cycle"":""No""}","survey-multi-choice","8","290429","0.0-6.0-3.0","136","1","2025-07-02 10:20:34","80fe4187154257d5fb01684ea91b68b9","41.150.250.58","Mozilla/5.0 (Windows NT 10.0; Win64; x64) AppleWebKit/537.36 (KHTML, like Gecko) Chrome/137.0.0.0 Safari/537.36 Edg/137.0.0.0","WebKit","Edge","137.0.0.0","Windows","10.0","https://app.prolific.com/","en-GB,en;q=0.9,en-US;q=0.8,en-ZA;q=0.7","612aad0cb69fa8ecd2f6edd8","683db6dfa200031b80f2a654","68650754d1afc2a4926ec2a1","612aad0cb69fa8ecd2f6edd8","","","[0]","","","4","demographics","","","","","","","","","","","","","","","","","","","","","","","","","","","","","","","","","","","","","",""
"21176","","","{""education"":""Bachelor's Degree (e.g., BA)""}","survey-multi-choice","9","311607","0.0-6.0-4.0","136","1","2025-07-02 10:20:34","80fe4187154257d5fb01684ea91b68b9","41.150.250.58","Mozilla/5.0 (Windows NT 10.0; Win64; x64) AppleWebKit/537.36 (KHTML, like Gecko) Chrome/137.0.0.0 Safari/537.36 Edg/137.0.0.0","WebKit","Edge","137.0.0.0","Windows","10.0","https://app.prolific.com/","en-GB,en;q=0.9,en-US;q=0.8,en-ZA;q=0.7","612aad0cb69fa8ecd2f6edd8","683db6dfa200031b80f2a654","68650754d1afc2a4926ec2a1","612aad0cb69fa8ecd2f6edd8","","","[0]","","","5","demographics","","","","","","","","","","","","","","","","","","","","","","","","","","","","","","","","","","","","","",""
"14179","","","{""education"":""Bachelor's Degree (e.g., BA)""}","survey-multi-choice","10","325788","0.0-6.0-5.0","136","1","2025-07-02 10:20:34","80fe4187154257d5fb01684ea91b68b9","41.150.250.58","Mozilla/5.0 (Windows NT 10.0; Win64; x64) AppleWebKit/537.36 (KHTML, like Gecko) Chrome/137.0.0.0 Safari/537.36 Edg/137.0.0.0","WebKit","Edge","137.0.0.0","Windows","10.0","https://app.prolific.com/","en-GB,en;q=0.9,en-US;q=0.8,en-ZA;q=0.7","612aad0cb69fa8ecd2f6edd8","683db6dfa200031b80f2a654","68650754d1afc2a4926ec2a1","612aad0cb69fa8ecd2f6edd8","2025-07-02T10:26:04.690Z","","[0]","","","6","demographics","","","","","","","","","","","","","","","","","","","","","","","","","","","","","","","","","","","","","",""
"17812","","","{""mental_health_condition"":""NO"",""mental_health_treatment"":""NO"",""psychiatric_medication"":""""}","survey-text","11","343607","0.0-7.0-0.0","136","1","2025-07-02 10:20:34","80fe4187154257d5fb01684ea91b68b9","41.150.250.58","Mozilla/5.0 (Windows NT 10.0; Win64; x64) AppleWebKit/537.36 (KHTML, like Gecko) Chrome/137.0.0.0 Safari/537.36 Edg/137.0.0.0","WebKit","Edge","137.0.0.0","Windows","10.0","https://app.prolific.com/","en-GB,en;q=0.9,en-US;q=0.8,en-ZA;q=0.7","612aad0cb69fa8ecd2f6edd8","683db6dfa200031b80f2a654","68650754d1afc2a4926ec2a1","612aad0cb69fa8ecd2f6edd8","2025-07-02T10:26:22.509Z","","","","","1","mental_health","","","","","","","","","","","","","","","","","","","","","","","","","","","","","","","","","","","","","",""
"16624","","","{""depression_history"":[""No""]}","survey-multi-select","12","360235","0.0-7.0-1.0","136","1","2025-07-02 10:20:34","80fe4187154257d5fb01684ea91b68b9","41.150.250.58","Mozilla/5.0 (Windows NT 10.0; Win64; x64) AppleWebKit/537.36 (KHTML, like Gecko) Chrome/137.0.0.0 Safari/537.36 Edg/137.0.0.0","WebKit","Edge","137.0.0.0","Windows","10.0","https://app.prolific.com/","en-GB,en;q=0.9,en-US;q=0.8,en-ZA;q=0.7","612aad0cb69fa8ecd2f6edd8","683db6dfa200031b80f2a654","68650754d1afc2a4926ec2a1","612aad0cb69fa8ecd2f6edd8","","","[0]","","","","mental_health","","","","","","","","","","","","","","","","","","","","","","","","","","","","","","","","","","","","","",""
"159486","","","","survey-template","13","519726","0.0-7.0-3.0","136","1","2025-07-02 10:20:34","80fe4187154257d5fb01684ea91b68b9","41.150.250.58","Mozilla/5.0 (Windows NT 10.0; Win64; x64) AppleWebKit/537.36 (KHTML, like Gecko) Chrome/137.0.0.0 Safari/537.36 Edg/137.0.0.0","WebKit","Edge","137.0.0.0","Windows","10.0","https://app.prolific.com/","en-GB,en;q=0.9,en-US;q=0.8,en-ZA;q=0.7","612aad0cb69fa8ecd2f6edd8","683db6dfa200031b80f2a654","68650754d1afc2a4926ec2a1","612aad0cb69fa8ecd2f6edd8","2025-07-02T10:29:18.629Z","","","","","","ius","{""Q01"":""2"",""Q02"":""3"",""Q03"":""2"",""Q04"":""4"",""Q05"":""1"",""Q06"":""1"",""Q07"":""2"",""Q08"":""0"",""Q09"":""4"",""Q10"":""1"",""Q11"":""1"",""Q12"":""3"",""Q13"":""1""}","[0,1,2,3,4,5,6,7,8,9,10,11,12]","[""Q01"",""Q02"",""Q03"",""Q04"",""Q05"",""Q06"",""Q07"",""Q08"",""Q09"",""Q10"",""Q11"",""Q12"",""Q13""]","[14890.199999928474,53168.10000002384,60798.60000002384,66063.29999995232,71156.39999997616,95080.10000002384,123965,126733.69999992847,132367.10000002384,139778,146481.69999992847,151598.39999997616,157745.19999992847]","[]","[10699,14890.199999928474,48162.5,52720.699999928474,53168.10000002384,59226,60798.60000002384,66063.29999995232,71156.39999997616,95080.10000002384,121543.79999995232,123965,126733.69999992847,132367.10000002384,139778,146481.69999992847,151598.39999997616,157745.19999992847,159482.69999992847]","0.38461538461538464","0.3333333333333333","0","","","","","","","","","","","","","","","","","","","","","","","","","","","","",""
"5855","1751452164485","<p style='font-size:1.1em;line-height:1.25'>In the following, we will ask you a few questions relating to your experiences over the past month.<br></p><p style='font-size:1.1em;line-height:1.25'>Press the <strong>Next</strong> button to continue.</p>","0","custom-html-button-response","14","525584","0.0-7.0-4.0","136","1","2025-07-02 10:20:34","80fe4187154257d5fb01684ea91b68b9","41.150.250.58","Mozilla/5.0 (Windows NT 10.0; Win64; x64) AppleWebKit/537.36 (KHTML, like Gecko) Chrome/137.0.0.0 Safari/537.36 Edg/137.0.0.0","WebKit","Edge","137.0.0.0","Windows","10.0","https://app.prolific.com/","en-GB,en;q=0.9,en-US;q=0.8,en-ZA;q=0.7","612aad0cb69fa8ecd2f6edd8","683db6dfa200031b80f2a654","68650754d1afc2a4926ec2a1","612aad0cb69fa8ecd2f6edd8","2025-07-02T10:29:24.486Z","","","","","","","","","","","","","","","","","","","","","","","","","","","","","","","","","","","","","","","","","","","",""
"158382.19999992847","","","","survey-template","15","683971","0.0-7.0-5.0","136","1","2025-07-02 10:20:34","80fe4187154257d5fb01684ea91b68b9","41.150.250.58","Mozilla/5.0 (Windows NT 10.0; Win64; x64) AppleWebKit/537.36 (KHTML, like Gecko) Chrome/137.0.0.0 Safari/537.36 Edg/137.0.0.0","WebKit","Edge","137.0.0.0","Windows","10.0","https://app.prolific.com/","en-GB,en;q=0.9,en-US;q=0.8,en-ZA;q=0.7","612aad0cb69fa8ecd2f6edd8","683db6dfa200031b80f2a654","68650754d1afc2a4926ec2a1","612aad0cb69fa8ecd2f6edd8","2025-07-02T10:32:02.873Z","","","","","","pss","{""Q01"":""2"",""Q02"":""1"",""Q03"":""1"",""Q04"":""0"",""Q05"":""0"",""Q06"":""1"",""Q07"":""1"",""Q08"":""1"",""Q09"":""1"",""Q10"":""0""}","[0,1,2,3,4,5,6,7,8,9]","[""Q01"",""Q02"",""Q02"",""Q03"",""Q04"",""Q05"",""Q06"",""Q07"",""Q08"",""Q09"",""Q10""]","[14269.299999952316,20411,34167.299999952316,45961.89999997616,66551.89999997616,111626.29999995232,116957.69999992847,123614.79999995232,136599.69999992847,144927,156248.59999990463]","[]","[0.19999992847442627,14269.299999952316,20411,32996.199999928474,34167.299999952316,42106,45961.89999997616,66551.89999997616,111626.29999995232,116957.69999992847,123614.79999995232,136599.69999992847,144927,156248.59999990463,158379.19999992847]","0.4","0.2222222222222222","0","","","","","","","","","","","","","","","","","","","","","","","","","","","","",""
"9054","1751452331929","<p style='font-size:1.1em;line-height:1.25'>Thank you for your answers! Now we will ask you a few more questions relating to your feelings in the last 24 hours.<br></p><p style='font-size:1.1em;line-height:1.25'>Press the <strong>Next</strong> button to continue.</p>","0","custom-html-button-response","16","693028","0.0-7.0-6.0","136","1","2025-07-02 10:20:34","80fe4187154257d5fb01684ea91b68b9","41.150.250.58","Mozilla/5.0 (Windows NT 10.0; Win64; x64) AppleWebKit/537.36 (KHTML, like Gecko) Chrome/137.0.0.0 Safari/537.36 Edg/137.0.0.0","WebKit","Edge","137.0.0.0","Windows","10.0","https://app.prolific.com/","en-GB,en;q=0.9,en-US;q=0.8,en-ZA;q=0.7","612aad0cb69fa8ecd2f6edd8","683db6dfa200031b80f2a654","68650754d1afc2a4926ec2a1","612aad0cb69fa8ecd2f6edd8","2025-07-02T10:32:11.930Z","","","","","","","","","","","","","","","","","","","","","","","","","","","","","","","","","","","","","","","","","","","",""
"109679.29999995232","","","","survey-template","17","802715","0.0-7.0-7.0","136","1","2025-07-02 10:20:34","80fe4187154257d5fb01684ea91b68b9","41.150.250.58","Mozilla/5.0 (Windows NT 10.0; Win64; x64) AppleWebKit/537.36 (KHTML, like Gecko) Chrome/137.0.0.0 Safari/537.36 Edg/137.0.0.0","WebKit","Edge","137.0.0.0","Windows","10.0","https://app.prolific.com/","en-GB,en;q=0.9,en-US;q=0.8,en-ZA;q=0.7","612aad0cb69fa8ecd2f6edd8","683db6dfa200031b80f2a654","68650754d1afc2a4926ec2a1","612aad0cb69fa8ecd2f6edd8","2025-07-02T10:34:01.617Z","","","","","","drsp","{""Q01"":""2"",""Q02"":""1"",""Q03"":""0"",""Q04"":""0"",""Q05"":""1"",""Q06"":""0"",""Q07"":""1"",""Q08"":""0"",""Q09"":""1"",""Q10"":""0"",""Q11"":""0"",""Q12"":""2"",""Q13"":""2"",""Q14"":""0"",""Q15"":""0"",""Q16"":""0"",""Q17"":""1"",""Q18"":""0"",""Q19"":""0"",""Q20"":""0"",""Q21"":""0""}","[0,1,2,3,4,5,6,7,8,9,10,11,12,13,14,15,16,17,18,19,20]","[""Q01"",""Q02"",""Q03"",""Q04"",""Q05"",""Q06"",""Q07"",""Q08"",""Q09"",""Q10"",""Q11"",""Q12"",""Q13"",""Q14"",""Q15"",""Q16"",""Q17"",""Q18"",""Q19"",""Q20"",""Q21""]","[6235.600000023842,8101.5,10098.699999928474,17925.899999976158,19633.299999952316,23693,25951.699999928474,28906.199999928474,38962.39999997616,43275.199999928474,45717.39999997616,50919.5,53931.699999928474,59959.5,68170.69999992847,72731.89999997616,77203.69999992847,82134.89999997616,94029.39999997616,104101.19999992847,106664.19999992847]","[]","[0.19999992847442627,4787.799999952316,6235.600000023842,8101.5,10098.699999928474,14312.5,16097.100000023842,17925.899999976158,19633.299999952316,23693,25951.699999928474,28906.199999928474,38962.39999997616,43275.199999928474,45717.39999997616,49769.299999952316,50919.5,53931.699999928474,58461.699999928474,59959.5,68170.69999992847,70529.69999992847,72731.89999997616,77203.69999992847,82134.89999997616,88766.39999997616,94029.39999997616,101805.29999995232,104101.19999992847,106664.19999992847,109671.89999997616]","0.6190476190476191","0.5","0","","","","","","","","","","","","","","","","","","","","","","","","","","","","",""
"18026.700000047684","","","","survey-template","18","820745","0.0-7.0-8.0","136","1","2025-07-02 10:20:34","80fe4187154257d5fb01684ea91b68b9","41.150.250.58","Mozilla/5.0 (Windows NT 10.0; Win64; x64) AppleWebKit/537.36 (KHTML, like Gecko) Chrome/137.0.0.0 Safari/537.36 Edg/137.0.0.0","WebKit","Edge","137.0.0.0","Windows","10.0","https://app.prolific.com/","en-GB,en;q=0.9,en-US;q=0.8,en-ZA;q=0.7","612aad0cb69fa8ecd2f6edd8","683db6dfa200031b80f2a654","68650754d1afc2a4926ec2a1","612aad0cb69fa8ecd2f6edd8","2025-07-02T10:34:19.647Z","","","","","","stress","{""Q01"":""0"",""Q02"":""0"",""Q03"":""0""}","[0,1,2]","[""Q01"",""Q02"",""Q03""]","[9713,12159.700000047684,16476.899999976158]","[]","[6831.800000071526,9713,12159.700000047684,16476.899999976158,18024.200000047684]","0.6666666666666666","1","0","","","","","","","","","","","","","","","","","","","","","","","","","","","","",""
"33294","","","","instructions","19","854040","0.0-8.0-0.0","136","1","2025-07-02 10:20:34","80fe4187154257d5fb01684ea91b68b9","41.150.250.58","Mozilla/5.0 (Windows NT 10.0; Win64; x64) AppleWebKit/537.36 (KHTML, like Gecko) Chrome/137.0.0.0 Safari/537.36 Edg/137.0.0.0","WebKit","Edge","137.0.0.0","Windows","10.0","https://app.prolific.com/","en-GB,en;q=0.9,en-US;q=0.8,en-ZA;q=0.7","612aad0cb69fa8ecd2f6edd8","683db6dfa200031b80f2a654","68650754d1afc2a4926ec2a1","612aad0cb69fa8ecd2f6edd8","","[{""page_index"":0,""viewing_time"":22246},{""page_index"":1,""viewing_time"":5703},{""page_index"":2,""viewing_time"":3698},{""page_index"":3,""viewing_time"":1646}]","","","","","","","","","","","","","","","","","","","","","","","","","","","","","","","","","","","","","","","","","","",""
"","","","","ctl-task-cpt","20","880044","0.0-8.0-1.0","136","1","2025-07-02 10:20:34","80fe4187154257d5fb01684ea91b68b9","41.150.250.58","Mozilla/5.0 (Windows NT 10.0; Win64; x64) AppleWebKit/537.36 (KHTML, like Gecko) Chrome/137.0.0.0 Safari/537.36 Edg/137.0.0.0","WebKit","Edge","137.0.0.0","Windows","10.0","https://app.prolific.com/","en-GB,en;q=0.9,en-US;q=0.8,en-ZA;q=0.7","612aad0cb69fa8ecd2f6edd8","683db6dfa200031b80f2a654","68650754d1afc2a4926ec2a1","612aad0cb69fa8ecd2f6edd8","","","","","","","","","","","","","","","","","win-only","2","g1:SE,g2:NW","1","0","1","860091.5","12708.6","16711.8","22986.3","2","4","4","6","2","-4","-4","0","0","0","3787.7","4000","-2290","[""left"",""up""]","{""num_key_presses"":0,""num_perfect"":0,""num_errors"":0,""num_randdir"":0,""num_randdir_good_moves"":0,""num_whilered"":0,""num_whileblue"":0,""num_blue"":0,""num_good_moves"":0}","[422.8214133126395,420.32142761775424,1.5,422.8214133126395,420.32142761775424,102.9,422.8214133126395,420.32142761775424,209,422.8214133126395,420.32142761775424,314.4,422.8214133126395,420.32142761775424,418.5,422.8214133126395,420.32142761775424,525.6,422.8214133126395,420.32142761775424,633.2,422.8214133126395,420.32142761775424,738.9,422.8214133126395,420.32142761775424,849.7,422.8214133126395,420.32142761775424,954.7,416.5714133126395,391.57142761775424,1060.8,406.5714133126395,355.32142761775424,1162.9,401.5714133126395,341.57142761775424,1270.6,395.3214133126395,326.57142761775424,1377.5,386.5714133126395,315.32142761775424,1478.5,377.8214133126395,296.57142761775424,1578.8,376.5714133126395,287.82142761775424,1684.8,375.3214133126395,286.57142761775424,1793.6,359.0714133126395,282.82142761775424,1900.3,326.5714133126395,271.57142761775424,2000.7,297.8214133126395,261.57142761775424,2105.2,285.3214133126395,254.07142761775424,2209.7,272.8214133126395,232.82142761775424,2315.2,266.5714133126395,219.07142761775424,2418.2,264.0714133126395,211.57142761775424,2522.1,256.5714133126395,196.57142761775424,2631.4,240.3214133126395,171.57142761775424,2735.3,225.3214133126395,154.07142761775424,2838.1,191.5714133126395,126.57142761775425,2948.1,185.3214133126395,121.57142761775425,3050.8,185.3214133126395,121.57142761775425,3158.9,185.3214133126395,121.57142761775425,3262.9,101.5714133126395,66.57142761775425,3366.7,61.57141331263951,31.571427617754253,3469,59.07141331263951,29.071427617754253,3575.9,59.07141331263951,27.821427617754253,3680.3,59.07141331263951,27.821427617754253,3784.9,59.07141331263951,27.821427617754253,3890,59.07141331263951,27.821427617754253,3997.8]","[]","",""
"2577","","","","instructions","21","882622","0.0-8.0-2.0","136","1","2025-07-02 10:20:34","80fe4187154257d5fb01684ea91b68b9","41.150.250.58","Mozilla/5.0 (Windows NT 10.0; Win64; x64) AppleWebKit/537.36 (KHTML, like Gecko) Chrome/137.0.0.0 Safari/537.36 Edg/137.0.0.0","WebKit","Edge","137.0.0.0","Windows","10.0","https://app.prolific.com/","en-GB,en;q=0.9,en-US;q=0.8,en-ZA;q=0.7","612aad0cb69fa8ecd2f6edd8","683db6dfa200031b80f2a654","68650754d1afc2a4926ec2a1","612aad0cb69fa8ecd2f6edd8","","[{""page_index"":0,""viewing_time"":2576}]","","","","","","","","","","","","","","","","","","","","","","","","","","","","","","","","","","","","","","","","","","",""
"","","","","ctl-task-cpt","22","899844","0.0-8.0-3.0","136","1","2025-07-02 10:20:34","80fe4187154257d5fb01684ea91b68b9","41.150.250.58","Mozilla/5.0 (Windows NT 10.0; Win64; x64) AppleWebKit/537.36 (KHTML, like Gecko) Chrome/137.0.0.0 Safari/537.36 Edg/137.0.0.0","WebKit","Edge","137.0.0.0","Windows","10.0","https://app.prolific.com/","en-GB,en;q=0.9,en-US;q=0.8,en-ZA;q=0.7","612aad0cb69fa8ecd2f6edd8","683db6dfa200031b80f2a654","68650754d1afc2a4926ec2a1","612aad0cb69fa8ecd2f6edd8","","","","","","","","","","","","","","","","","win-only","2","g1:SE,g2:NW","0.35","0","3","888669.1","3632.5","7639.9","14217.1","2","4","8","6","2","-8","-8","0","0","0","3178.7","4000","-2215","[""left"",""up""]","{""num_key_presses"":0,""num_perfect"":0,""num_errors"":0,""num_randdir"":0,""num_randdir_good_moves"":0,""num_whilered"":0,""num_whileblue"":0,""num_blue"":0,""num_good_moves"":0}","[416.5714133126395,406.57142761775424,0.2,416.5714133126395,406.57142761775424,101.9,416.5714133126395,406.57142761775424,206.1,416.5714133126395,406.57142761775424,316.6,416.5714133126395,406.57142761775424,422.6,416.5714133126395,406.57142761775424,529.7,416.5714133126395,406.57142761775424,635.5,416.5714133126395,406.57142761775424,737,417.8214133126395,389.07142761775424,842.7,416.5714133126395,376.57142761775424,944.6,416.5714133126395,370.32142761775424,1048.9,414.0714133126395,364.07142761775424,1153.8,414.0714133126395,362.82142761775424,1265.4,414.0714133126395,362.82142761775424,1365.5,414.0714133126395,362.82142761775424,1477.8,414.0714133126395,362.82142761775424,1580.1,414.0714133126395,364.07142761775424,1684.2,419.0714133126395,367.82142761775424,1795.8,422.8214133126395,376.57142761775424,1901.9,425.3214133126395,380.32142761775424,2017.6,425.3214133126395,380.32142761775424,2127.4,296.5714133126395,372.82142761775424,2230,14.071413312639507,224.07142761775424,2338,-44.67858668736049,96.57142761775425,2449.5,-45.92858668736049,95.32142761775425,2550.4,-32.17858668736049,82.82142761775425,2650.8,6.571413312639507,59.07142761775425,2750.8,19.071413312639507,41.57142761775425,2859.2,19.071413312639507,41.57142761775425,2961.7,19.071413312639507,41.57142761775425,3068.9,19.071413312639507,41.57142761775425,3181.1,19.071413312639507,41.57142761775425,3283.9,19.071413312639507,41.57142761775425,3384.5,19.071413312639507,41.57142761775425,3498.7,19.071413312639507,41.57142761775425,3604.8,19.071413312639507,41.57142761775425,3707.9,19.071413312639507,41.57142761775425,3819.1,19.071413312639507,41.57142761775425,3922]","[]","",""
"3091","","","","instructions","23","902935","0.0-8.0-4.0","136","1","2025-07-02 10:20:34","80fe4187154257d5fb01684ea91b68b9","41.150.250.58","Mozilla/5.0 (Windows NT 10.0; Win64; x64) AppleWebKit/537.36 (KHTML, like Gecko) Chrome/137.0.0.0 Safari/537.36 Edg/137.0.0.0","WebKit","Edge","137.0.0.0","Windows","10.0","https://app.prolific.com/","en-GB,en;q=0.9,en-US;q=0.8,en-ZA;q=0.7","612aad0cb69fa8ecd2f6edd8","683db6dfa200031b80f2a654","68650754d1afc2a4926ec2a1","612aad0cb69fa8ecd2f6edd8","","[{""page_index"":0,""viewing_time"":1551},{""page_index"":1,""viewing_time"":1540}]","","","","","","","","","","","","","","","","","","","","","","","","","","","","","","","","","","","","","","","","","","",""
"15174","","","{""green_ball"":[""Ball doesn‘t move and I get -1 penalty point""]}","survey-multi-select","24","918111","0.0-8.0-5.0-0.0","136","1","2025-07-02 10:20:34","80fe4187154257d5fb01684ea91b68b9","41.150.250.58","Mozilla/5.0 (Windows NT 10.0; Win64; x64) AppleWebKit/537.36 (KHTML, like Gecko) Chrome/137.0.0.0 Safari/537.36 Edg/137.0.0.0","WebKit","Edge","137.0.0.0","Windows","10.0","https://app.prolific.com/","en-GB,en;q=0.9,en-US;q=0.8,en-ZA;q=0.7","612aad0cb69fa8ecd2f6edd8","683db6dfa200031b80f2a654","68650754d1afc2a4926ec2a1","612aad0cb69fa8ecd2f6edd8","","","[0]","","","","quiz","","","","","","","","","","","","","","","","","","","","","","","","","","","","","","","","","","","","","false",""
"4760","","<p align='center'><b>INCORRECT.</b> Usually the green ball moves in the indicated direction, but sometimes it shakes and moves randomly. </p>","0","html-button-response","25","922875","0.0-8.0-5.0-1.0","136","1","2025-07-02 10:20:34","80fe4187154257d5fb01684ea91b68b9","41.150.250.58","Mozilla/5.0 (Windows NT 10.0; Win64; x64) AppleWebKit/537.36 (KHTML, like Gecko) Chrome/137.0.0.0 Safari/537.36 Edg/137.0.0.0","WebKit","Edge","137.0.0.0","Windows","10.0","https://app.prolific.com/","en-GB,en;q=0.9,en-US;q=0.8,en-ZA;q=0.7","612aad0cb69fa8ecd2f6edd8","683db6dfa200031b80f2a654","68650754d1afc2a4926ec2a1","612aad0cb69fa8ecd2f6edd8","","","","","","","","","","","","","","","","","","","","","","","","","","","","","","","","","","","","","","","","","","","","",""
"17182","","","{""green_ball"":[""Ball sometimes shakes and moves in a random direction""]}","survey-multi-select","26","940062","0.0-8.0-5.1-0.1","136","1","2025-07-02 10:20:34","80fe4187154257d5fb01684ea91b68b9","41.150.250.58","Mozilla/5.0 (Windows NT 10.0; Win64; x64) AppleWebKit/537.36 (KHTML, like Gecko) Chrome/137.0.0.0 Safari/537.36 Edg/137.0.0.0","WebKit","Edge","137.0.0.0","Windows","10.0","https://app.prolific.com/","en-GB,en;q=0.9,en-US;q=0.8,en-ZA;q=0.7","612aad0cb69fa8ecd2f6edd8","683db6dfa200031b80f2a654","68650754d1afc2a4926ec2a1","612aad0cb69fa8ecd2f6edd8","","","[0]","","","","quiz","","","","","","","","","","","","","","","","","","","","","","","","","","","","","","","","","","","","","true",""
"2047","","<p align='center'><b>CORRECT!</b> Indeed, the green ball may sometimes shake and move in a random direction.</p>","0","html-button-response","27","942112","0.0-8.0-5.1-1.1","136","1","2025-07-02 10:20:34","80fe4187154257d5fb01684ea91b68b9","41.150.250.58","Mozilla/5.0 (Windows NT 10.0; Win64; x64) AppleWebKit/537.36 (KHTML, like Gecko) Chrome/137.0.0.0 Safari/537.36 Edg/137.0.0.0","WebKit","Edge","137.0.0.0","Windows","10.0","https://app.prolific.com/","en-GB,en;q=0.9,en-US;q=0.8,en-ZA;q=0.7","612aad0cb69fa8ecd2f6edd8","683db6dfa200031b80f2a654","68650754d1afc2a4926ec2a1","612aad0cb69fa8ecd2f6edd8","","","","","","","","","","","","","","","","","","","","","","","","","","","","","","","","","","","","","","","","","","","","",""
"11357","","","{""yellow_ball"":[""Ball doesn‘t move and I get -1 penalty point""]}","survey-multi-select","28","953474","0.0-8.0-6.0-0.0","136","1","2025-07-02 10:20:34","80fe4187154257d5fb01684ea91b68b9","41.150.250.58","Mozilla/5.0 (Windows NT 10.0; Win64; x64) AppleWebKit/537.36 (KHTML, like Gecko) Chrome/137.0.0.0 Safari/537.36 Edg/137.0.0.0","WebKit","Edge","137.0.0.0","Windows","10.0","https://app.prolific.com/","en-GB,en;q=0.9,en-US;q=0.8,en-ZA;q=0.7","612aad0cb69fa8ecd2f6edd8","683db6dfa200031b80f2a654","68650754d1afc2a4926ec2a1","612aad0cb69fa8ecd2f6edd8","","","[0]","","","","quiz","","","","","","","","","","","","","","","","","","","","","","","","","","","","","","","","","","","","","true",""
"1513","","<p align='center'><b>CORRECT!</b> Indeed, the yellow ball never moves and you receive a penalty.</p>","0","html-button-response","29","954989","0.0-8.0-6.0-1.0","136","1","2025-07-02 10:20:34","80fe4187154257d5fb01684ea91b68b9","41.150.250.58","Mozilla/5.0 (Windows NT 10.0; Win64; x64) AppleWebKit/537.36 (KHTML, like Gecko) Chrome/137.0.0.0 Safari/537.36 Edg/137.0.0.0","WebKit","Edge","137.0.0.0","Windows","10.0","https://app.prolific.com/","en-GB,en;q=0.9,en-US;q=0.8,en-ZA;q=0.7","612aad0cb69fa8ecd2f6edd8","683db6dfa200031b80f2a654","68650754d1afc2a4926ec2a1","612aad0cb69fa8ecd2f6edd8","","","","","","","","","","","","","","","","","","","","","","","","","","","","","","","","","","","","","","","","","","","","",""
"9550","","","{""blue_ball"":[""Ball always moves in the direction I press""]}","survey-multi-select","30","964544","0.0-8.0-7.0-0.0","136","1","2025-07-02 10:20:34","80fe4187154257d5fb01684ea91b68b9","41.150.250.58","Mozilla/5.0 (Windows NT 10.0; Win64; x64) AppleWebKit/537.36 (KHTML, like Gecko) Chrome/137.0.0.0 Safari/537.36 Edg/137.0.0.0","WebKit","Edge","137.0.0.0","Windows","10.0","https://app.prolific.com/","en-GB,en;q=0.9,en-US;q=0.8,en-ZA;q=0.7","612aad0cb69fa8ecd2f6edd8","683db6dfa200031b80f2a654","68650754d1afc2a4926ec2a1","612aad0cb69fa8ecd2f6edd8","","","[0]","","","","quiz","","","","","","","","","","","","","","","","","","","","","","","","","","","","","","","","","","","","","false",""
"1445","","<p align='center'><b>INCORRECT.</b> The blue ball always shakes and moves randomly.</p>","0","html-button-response","31","965993","0.0-8.0-7.0-1.0","136","1","2025-07-02 10:20:34","80fe4187154257d5fb01684ea91b68b9","41.150.250.58","Mozilla/5.0 (Windows NT 10.0; Win64; x64) AppleWebKit/537.36 (KHTML, like Gecko) Chrome/137.0.0.0 Safari/537.36 Edg/137.0.0.0","WebKit","Edge","137.0.0.0","Windows","10.0","https://app.prolific.com/","en-GB,en;q=0.9,en-US;q=0.8,en-ZA;q=0.7","612aad0cb69fa8ecd2f6edd8","683db6dfa200031b80f2a654","68650754d1afc2a4926ec2a1","612aad0cb69fa8ecd2f6edd8","","","","","","","","","","","","","","","","","","","","","","","","","","","","","","","","","","","","","","","","","","","","",""
"3960","","","{""blue_ball"":[""Ball always shakes and moves in a random direction""]}","survey-multi-select","32","969961","0.0-8.0-7.1-0.1","136","1","2025-07-02 10:20:34","80fe4187154257d5fb01684ea91b68b9","41.150.250.58","Mozilla/5.0 (Windows NT 10.0; Win64; x64) AppleWebKit/537.36 (KHTML, like Gecko) Chrome/137.0.0.0 Safari/537.36 Edg/137.0.0.0","WebKit","Edge","137.0.0.0","Windows","10.0","https://app.prolific.com/","en-GB,en;q=0.9,en-US;q=0.8,en-ZA;q=0.7","612aad0cb69fa8ecd2f6edd8","683db6dfa200031b80f2a654","68650754d1afc2a4926ec2a1","612aad0cb69fa8ecd2f6edd8","","","[0]","","","","quiz","","","","","","","","","","","","","","","","","","","","","","","","","","","","","","","","","","","","","true",""
"1522","","<p align='center'><b>CORRECT!</b> Indeed, the blue ball always shakes and moves in a random direction. Also there is a penalty of -1 point.</p>","0","html-button-response","33","971486","0.0-8.0-7.1-1.1","136","1","2025-07-02 10:20:34","80fe4187154257d5fb01684ea91b68b9","41.150.250.58","Mozilla/5.0 (Windows NT 10.0; Win64; x64) AppleWebKit/537.36 (KHTML, like Gecko) Chrome/137.0.0.0 Safari/537.36 Edg/137.0.0.0","WebKit","Edge","137.0.0.0","Windows","10.0","https://app.prolific.com/","en-GB,en;q=0.9,en-US;q=0.8,en-ZA;q=0.7","612aad0cb69fa8ecd2f6edd8","683db6dfa200031b80f2a654","68650754d1afc2a4926ec2a1","612aad0cb69fa8ecd2f6edd8","","","","","","","","","","","","","","","","","","","","","","","","","","","","","","","","","","","","","","","","","","","","",""
"11301","","","{""bonus"":[""When I reach all possible points""]}","survey-multi-select","34","982791","0.0-8.0-8.0-0.0","136","1","2025-07-02 10:20:34","80fe4187154257d5fb01684ea91b68b9","41.150.250.58","Mozilla/5.0 (Windows NT 10.0; Win64; x64) AppleWebKit/537.36 (KHTML, like Gecko) Chrome/137.0.0.0 Safari/537.36 Edg/137.0.0.0","WebKit","Edge","137.0.0.0","Windows","10.0","https://app.prolific.com/","en-GB,en;q=0.9,en-US;q=0.8,en-ZA;q=0.7","612aad0cb69fa8ecd2f6edd8","683db6dfa200031b80f2a654","68650754d1afc2a4926ec2a1","612aad0cb69fa8ecd2f6edd8","","","[0]","","","","quiz","","","","","","","","","","","","","","","","","","","","","","","","","","","","","","","","","","","","","false",""
"2200","","<p align='center'><b>INCORRECT.</b> You receive 2 pounds extra when you reach 50% of points </p>","0","html-button-response","35","984995","0.0-8.0-8.0-1.0","136","1","2025-07-02 10:20:34","80fe4187154257d5fb01684ea91b68b9","41.150.250.58","Mozilla/5.0 (Windows NT 10.0; Win64; x64) AppleWebKit/537.36 (KHTML, like Gecko) Chrome/137.0.0.0 Safari/537.36 Edg/137.0.0.0","WebKit","Edge","137.0.0.0","Windows","10.0","https://app.prolific.com/","en-GB,en;q=0.9,en-US;q=0.8,en-ZA;q=0.7","612aad0cb69fa8ecd2f6edd8","683db6dfa200031b80f2a654","68650754d1afc2a4926ec2a1","612aad0cb69fa8ecd2f6edd8","","","","","","","","","","","","","","","","","","","","","","","","","","","","","","","","","","","","","","","","","","","","",""
"6263","","","{""bonus"":[""When I reach 50% of points""]}","survey-multi-select","36","991263","0.0-8.0-8.1-0.1","136","1","2025-07-02 10:20:34","80fe4187154257d5fb01684ea91b68b9","41.150.250.58","Mozilla/5.0 (Windows NT 10.0; Win64; x64) AppleWebKit/537.36 (KHTML, like Gecko) Chrome/137.0.0.0 Safari/537.36 Edg/137.0.0.0","WebKit","Edge","137.0.0.0","Windows","10.0","https://app.prolific.com/","en-GB,en;q=0.9,en-US;q=0.8,en-ZA;q=0.7","612aad0cb69fa8ecd2f6edd8","683db6dfa200031b80f2a654","68650754d1afc2a4926ec2a1","612aad0cb69fa8ecd2f6edd8","","","[0]","","","","quiz","","","","","","","","","","","","","","","","","","","","","","","","","","","","","","","","","","","","","true",""
"5202","","<p align='center'><b>CORRECT!</b> Indeed, you receive 2 pounds extra when you reach 50% of points.</p>","0","html-button-response","37","996467","0.0-8.0-8.1-1.1","136","1","2025-07-02 10:20:34","80fe4187154257d5fb01684ea91b68b9","41.150.250.58","Mozilla/5.0 (Windows NT 10.0; Win64; x64) AppleWebKit/537.36 (KHTML, like Gecko) Chrome/137.0.0.0 Safari/537.36 Edg/137.0.0.0","WebKit","Edge","137.0.0.0","Windows","10.0","https://app.prolific.com/","en-GB,en;q=0.9,en-US;q=0.8,en-ZA;q=0.7","612aad0cb69fa8ecd2f6edd8","683db6dfa200031b80f2a654","68650754d1afc2a4926ec2a1","612aad0cb69fa8ecd2f6edd8","","","","","","","","","","","","","","","","","","","","","","","","","","","","","","","","","","","","","","","","","","","","",""
"11552","","","","instructions","38","1008020","0.0-8.0-9.0","136","1","2025-07-02 10:20:34","80fe4187154257d5fb01684ea91b68b9","41.150.250.58","Mozilla/5.0 (Windows NT 10.0; Win64; x64) AppleWebKit/537.36 (KHTML, like Gecko) Chrome/137.0.0.0 Safari/537.36 Edg/137.0.0.0","WebKit","Edge","137.0.0.0","Windows","10.0","https://app.prolific.com/","en-GB,en;q=0.9,en-US;q=0.8,en-ZA;q=0.7","612aad0cb69fa8ecd2f6edd8","683db6dfa200031b80f2a654","68650754d1afc2a4926ec2a1","612aad0cb69fa8ecd2f6edd8","","[{""page_index"":0,""viewing_time"":11551}]","","","","","","","","","","","","","","","","","","","","","","","","","","","","","","","","","","","","","","","","","","",""
"22342","","<p>Before you start with this game please answer the following three questions yourself. </p>
  <p>Through this game, we measure several aspects of your cognitive performance, such as reaction times, multi-tasking capabilities </p>
  <p>and the ability to assess the situation you are in.</p>
  <p></p>
  <p><b>How good do you usually are in such tasks?</b></p>","62","html-slider-response","39","1030367","0.0-9.0-0.0","136","1","2025-07-02 10:20:34","80fe4187154257d5fb01684ea91b68b9","41.150.250.58","Mozilla/5.0 (Windows NT 10.0; Win64; x64) AppleWebKit/537.36 (KHTML, like Gecko) Chrome/137.0.0.0 Safari/537.36 Edg/137.0.0.0","WebKit","Edge","137.0.0.0","Windows","10.0","https://app.prolific.com/","en-GB,en;q=0.9,en-US;q=0.8,en-ZA;q=0.7","612aad0cb69fa8ecd2f6edd8","683db6dfa200031b80f2a654","68650754d1afc2a4926ec2a1","612aad0cb69fa8ecd2f6edd8","2025-07-02T10:37:49.269Z","","","","","","PreSkillQ","","","","","","","","","","","","","","","","","","","","","","","","","","","","","","","","","","","","","","50"
"8103","","<div style=""width:500px;"">
  <p>How well do you think you will perform in this task compared to other participants?</p>
  </div>","80","html-slider-response","40","1038474","0.0-9.0-1.0","136","1","2025-07-02 10:20:34","80fe4187154257d5fb01684ea91b68b9","41.150.250.58","Mozilla/5.0 (Windows NT 10.0; Win64; x64) AppleWebKit/537.36 (KHTML, like Gecko) Chrome/137.0.0.0 Safari/537.36 Edg/137.0.0.0","WebKit","Edge","137.0.0.0","Windows","10.0","https://app.prolific.com/","en-GB,en;q=0.9,en-US;q=0.8,en-ZA;q=0.7","612aad0cb69fa8ecd2f6edd8","683db6dfa200031b80f2a654","68650754d1afc2a4926ec2a1","612aad0cb69fa8ecd2f6edd8","2025-07-02T10:37:57.376Z","","","","","","PrePerfQ","","","","","","","","","","","","","","","","","","","","","","","","","","","","","","","","","","","","","","50"
"10041","","<div style=""width:500px;"">
  <p>What best describes how you currently feel?</p>
  </div>","100","html-slider-response","41","1048517","0.0-9.0-2.0","136","1","2025-07-02 10:20:34","80fe4187154257d5fb01684ea91b68b9","41.150.250.58","Mozilla/5.0 (Windows NT 10.0; Win64; x64) AppleWebKit/537.36 (KHTML, like Gecko) Chrome/137.0.0.0 Safari/537.36 Edg/137.0.0.0","WebKit","Edge","137.0.0.0","Windows","10.0","https://app.prolific.com/","en-GB,en;q=0.9,en-US;q=0.8,en-ZA;q=0.7","612aad0cb69fa8ecd2f6edd8","683db6dfa200031b80f2a654","68650754d1afc2a4926ec2a1","612aad0cb69fa8ecd2f6edd8","2025-07-02T10:38:07.420Z","","","","","","PreMotivationQ","","","","","","","","","","","","","","","","","","","","","","","","","","","","","","","","","","","","","","50"
"","","","","ctl-task-cpt","42","1068051","0.0-10.0-0.0","136","1","2025-07-02 10:20:34","80fe4187154257d5fb01684ea91b68b9","41.150.250.58","Mozilla/5.0 (Windows NT 10.0; Win64; x64) AppleWebKit/537.36 (KHTML, like Gecko) Chrome/137.0.0.0 Safari/537.36 Edg/137.0.0.0","WebKit","Edge","137.0.0.0","Windows","10.0","https://app.prolific.com/","en-GB,en;q=0.9,en-US;q=0.8,en-ZA;q=0.7","612aad0cb69fa8ecd2f6edd8","683db6dfa200031b80f2a654","68650754d1afc2a4926ec2a1","612aad0cb69fa8ecd2f6edd8","2025-07-02T10:38:26.953Z","","","","","","","","","","","","","","","","win-only","2","g1:SE,g2:NW","1","1","0","1054568.2","6066","11076","16510.7","1","4","4","6","1","-1","-1","0","0","0","2653.5","3000","-2125","[""down"",""right""]","{""num_key_presses"":0,""num_perfect"":0,""num_errors"":0,""num_randdir"":0,""num_randdir_good_moves"":0,""num_whilered"":0,""num_whileblue"":0,""num_blue"":0,""num_good_moves"":0}","[414.0714133126395,406.57142761775424,0.3,414.0714133126395,406.57142761775424,109.3,414.0714133126395,406.57142761775424,210.2,414.0714133126395,406.57142761775424,314.4,414.0714133126395,406.57142761775424,419.3,414.0714133126395,406.57142761775424,520.8,414.0714133126395,406.57142761775424,627.4,414.0714133126395,406.57142761775424,727.7,414.0714133126395,406.57142761775424,832.5,414.0714133126395,406.57142761775424,936.6,414.0714133126395,406.57142761775424,1043.2,414.0714133126395,406.57142761775424,1147.6,414.0714133126395,406.57142761775424,1252.4,541.5714133126395,496.57142761775424,1357.2,641.5714133126395,576.5714276177542,1460.5,642.8214133126395,579.0714276177542,1567,642.8214133126395,579.0714276177542,1677.1,642.8214133126395,579.0714276177542,1784.5,647.8214133126395,655.3214276177542,1884.8,680.3214133126395,701.5714276177542,1989.3,710.3214133126395,741.5714276177542,2096.1,722.8214133126395,761.5714276177542,2199.1,750.3214133126395,765.3214276177542,2309.7,751.5714133126395,765.3214276177542,2410.2,751.5714133126395,765.3214276177542,2510.3,751.5714133126395,765.3214276177542,2617.7,751.5714133126395,765.3214276177542,2721.5,751.5714133126395,765.3214276177542,2824.5,751.5714133126395,765.3214276177542,2927.3,751.5714133126395,765.3214276177542,3034.2,751.5714133126395,765.3214276177542,3137.6,751.5714133126395,765.3214276177542,3245.5,751.5714133126395,765.3214276177542,3359.6,691.5714133126395,717.8214276177542,3459.9,632.8214133126395,660.3214276177542,3565.5,557.8214133126395,589.0714276177542,3674.7,547.8214133126395,577.8214276177542,3775.1,547.8214133126395,577.8214276177542,3875.2,547.8214133126395,577.8214276177542,3977.3,547.8214133126395,577.8214276177542,4078.1,505.3214133126395,542.8214276177542,4191.1,502.8214133126395,540.3214276177542,4294.4,482.8214133126395,517.8214276177542,4395.2,481.5714133126395,511.57142761775424,4506.6,481.5714133126395,509.07142761775424,4610.2,480.3214133126395,510.32142761775424,4715.5,480.3214133126395,510.32142761775424,4818.2,480.3214133126395,510.32142761775424,4923.7]","[]","",""
"13223","","<div style=""width:500px;"">
  <p>What determined the result of this run?</p>
  </div>","2","html-slider-response","43","1081280","0.0-10.0-1.0","136","1","2025-07-02 10:20:34","80fe4187154257d5fb01684ea91b68b9","41.150.250.58","Mozilla/5.0 (Windows NT 10.0; Win64; x64) AppleWebKit/537.36 (KHTML, like Gecko) Chrome/137.0.0.0 Safari/537.36 Edg/137.0.0.0","WebKit","Edge","137.0.0.0","Windows","10.0","https://app.prolific.com/","en-GB,en;q=0.9,en-US;q=0.8,en-ZA;q=0.7","612aad0cb69fa8ecd2f6edd8","683db6dfa200031b80f2a654","68650754d1afc2a4926ec2a1","612aad0cb69fa8ecd2f6edd8","2025-07-02T10:38:40.182Z","","","","","","AttribQ","","","","","","","","","","","","","","","","","","","","","","","","","","","","","","","","","","","","","","50"
"7998","","<div style=""width:500px;"">
  <p>How much control did you have over the ball?</p>
  </div>","94","html-slider-response","44","1089284","0.0-10.0-2.0","136","1","2025-07-02 10:20:34","80fe4187154257d5fb01684ea91b68b9","41.150.250.58","Mozilla/5.0 (Windows NT 10.0; Win64; x64) AppleWebKit/537.36 (KHTML, like Gecko) Chrome/137.0.0.0 Safari/537.36 Edg/137.0.0.0","WebKit","Edge","137.0.0.0","Windows","10.0","https://app.prolific.com/","en-GB,en;q=0.9,en-US;q=0.8,en-ZA;q=0.7","612aad0cb69fa8ecd2f6edd8","683db6dfa200031b80f2a654","68650754d1afc2a4926ec2a1","612aad0cb69fa8ecd2f6edd8","2025-07-02T10:38:48.186Z","","","","","","ControlQ","","","","","","","","","","","","","","","","","","","","","","","","","","","","","","","","","","","","","","50"
"9912","","<div style=""width:500px;"">
  <p>How would you describe your current emotional state?</p>
  </div>","38","html-slider-response","45","1099199","0.0-10.0-3.0","136","1","2025-07-02 10:20:34","80fe4187154257d5fb01684ea91b68b9","41.150.250.58","Mozilla/5.0 (Windows NT 10.0; Win64; x64) AppleWebKit/537.36 (KHTML, like Gecko) Chrome/137.0.0.0 Safari/537.36 Edg/137.0.0.0","WebKit","Edge","137.0.0.0","Windows","10.0","https://app.prolific.com/","en-GB,en;q=0.9,en-US;q=0.8,en-ZA;q=0.7","612aad0cb69fa8ecd2f6edd8","683db6dfa200031b80f2a654","68650754d1afc2a4926ec2a1","612aad0cb69fa8ecd2f6edd8","2025-07-02T10:38:58.101Z","","","","","","StressQ","","","","","","","","","","","","","","","","","","","","","","","","","","","","","","","","","","","","","","50"
"9025","","<div style=""width:500px;"">
  <p>What best describes how you currently feel?</p>
  </div>","64","html-slider-response","46","1108228","0.0-10.0-4.0","136","1","2025-07-02 10:20:34","80fe4187154257d5fb01684ea91b68b9","41.150.250.58","Mozilla/5.0 (Windows NT 10.0; Win64; x64) AppleWebKit/537.36 (KHTML, like Gecko) Chrome/137.0.0.0 Safari/537.36 Edg/137.0.0.0","WebKit","Edge","137.0.0.0","Windows","10.0","https://app.prolific.com/","en-GB,en;q=0.9,en-US;q=0.8,en-ZA;q=0.7","612aad0cb69fa8ecd2f6edd8","683db6dfa200031b80f2a654","68650754d1afc2a4926ec2a1","612aad0cb69fa8ecd2f6edd8","2025-07-02T10:39:07.130Z","","","","","","MotivationQ","","","","","","","","","","","","","","","","","","","","","","","","","","","","","","","","","","","","","","50"
"","","","","ctl-task-cpt","47","1127154","0.0-10.0-0.1","136","1","2025-07-02 10:20:34","80fe4187154257d5fb01684ea91b68b9","41.150.250.58","Mozilla/5.0 (Windows NT 10.0; Win64; x64) AppleWebKit/537.36 (KHTML, like Gecko) Chrome/137.0.0.0 Safari/537.36 Edg/137.0.0.0","WebKit","Edge","137.0.0.0","Windows","10.0","https://app.prolific.com/","en-GB,en;q=0.9,en-US;q=0.8,en-ZA;q=0.7","612aad0cb69fa8ecd2f6edd8","683db6dfa200031b80f2a654","68650754d1afc2a4926ec2a1","612aad0cb69fa8ecd2f6edd8","2025-07-02T10:39:26.056Z","","","","","","","","","","","","","","","","win-only","0","g1:NW,g2:SE","0.9","2","0","1114278.1","5250.5","10261.9","15903.9","1","4","8","6","1","-1","-1","0","0","0","4628.4","3000","-2005","[""left"",""up""]","{""num_key_presses"":0,""num_perfect"":0,""num_errors"":0,""num_randdir"":0,""num_randdir_good_moves"":0,""num_whilered"":0,""num_whileblue"":0,""num_blue"":0,""num_good_moves"":0}","[416.5714133126395,412.82142761775424,0.1,416.5714133126395,412.82142761775424,104.4,416.5714133126395,412.82142761775424,215.6,416.5714133126395,412.82142761775424,319,416.5714133126395,412.82142761775424,420,416.5714133126395,412.82142761775424,529.5,416.5714133126395,412.82142761775424,631.7,416.5714133126395,412.82142761775424,732.8,416.5714133126395,412.82142761775424,839.5,416.5714133126395,412.82142761775424,946.1,416.5714133126395,412.82142761775424,1046.1,416.5714133126395,412.82142761775424,1149.4,416.5714133126395,412.82142761775424,1257,416.5714133126395,412.82142761775424,1359.6,416.5714133126395,412.82142761775424,1465.8,416.5714133126395,412.82142761775424,1577.7,416.5714133126395,412.82142761775424,1689.6,416.5714133126395,412.82142761775424,1794.5,416.5714133126395,412.82142761775424,1895.2,401.5714133126395,405.32142761775424,1996.6,346.5714133126395,371.57142761775424,2103.3,336.5714133126395,361.57142761775424,2207.8,326.5714133126395,361.57142761775424,2310.8,300.3214133126395,311.57142761775424,2413,289.0714133126395,301.57142761775424,2515.8,257.8214133126395,295.32142761775424,2616.9,186.5714133126395,249.07142761775424,2717,182.8214133126395,245.32142761775424,2820.2,182.8214133126395,245.32142761775424,2937.8,182.8214133126395,245.32142761775424,3058.8,182.8214133126395,245.32142761775424,3161.4,182.8214133126395,245.32142761775424,3267.1,182.8214133126395,245.32142761775424,3367.3,182.8214133126395,245.32142761775424,3468.1,182.8214133126395,245.32142761775424,3570,179.0714133126395,244.07142761775424,3675.5,1.571413312639507,111.57142761775425,3792.1,-47.17858668736049,70.32142761775425,3900,-55.92858668736049,47.82142761775425,4012.8,-55.92858668736049,47.82142761775425,4120.9,-55.92858668736049,47.82142761775425,4222.3,-8.428586687360493,64.07142761775425,4327.7,25.321413312639507,72.82142761775425,4432.4,25.321413312639507,72.82142761775425,4544.9,25.321413312639507,72.82142761775425,4645,25.321413312639507,72.82142761775425,4750.8,25.321413312639507,72.82142761775425,4855.8,25.321413312639507,72.82142761775425,4958.1]","[]","",""
"13862","","<div style=""width:500px;"">
  <p>What determined the result of this run?</p>
  </div>","78","html-slider-response","48","1141021","0.0-10.0-1.1","136","1","2025-07-02 10:20:34","80fe4187154257d5fb01684ea91b68b9","41.150.250.58","Mozilla/5.0 (Windows NT 10.0; Win64; x64) AppleWebKit/537.36 (KHTML, like Gecko) Chrome/137.0.0.0 Safari/537.36 Edg/137.0.0.0","WebKit","Edge","137.0.0.0","Windows","10.0","https://app.prolific.com/","en-GB,en;q=0.9,en-US;q=0.8,en-ZA;q=0.7","612aad0cb69fa8ecd2f6edd8","683db6dfa200031b80f2a654","68650754d1afc2a4926ec2a1","612aad0cb69fa8ecd2f6edd8","2025-07-02T10:39:39.924Z","","","","","","AttribQ","","","","","","","","","","","","","","","","","","","","","","","","","","","","","","","","","","","","","","50"
"7681","","<div style=""width:500px;"">
  <p>How much control did you have over the ball?</p>
  </div>","72","html-slider-response","49","1148711","0.0-10.0-2.1","136","1","2025-07-02 10:20:34","80fe4187154257d5fb01684ea91b68b9","41.150.250.58","Mozilla/5.0 (Windows NT 10.0; Win64; x64) AppleWebKit/537.36 (KHTML, like Gecko) Chrome/137.0.0.0 Safari/537.36 Edg/137.0.0.0","WebKit","Edge","137.0.0.0","Windows","10.0","https://app.prolific.com/","en-GB,en;q=0.9,en-US;q=0.8,en-ZA;q=0.7","612aad0cb69fa8ecd2f6edd8","683db6dfa200031b80f2a654","68650754d1afc2a4926ec2a1","612aad0cb69fa8ecd2f6edd8","2025-07-02T10:39:47.614Z","","","","","","ControlQ","","","","","","","","","","","","","","","","","","","","","","","","","","","","","","","","","","","","","","50"
"6485","","<div style=""width:500px;"">
  <p>How would you describe your current emotional state?</p>
  </div>","77","html-slider-response","50","1155201","0.0-10.0-3.1","136","1","2025-07-02 10:20:34","80fe4187154257d5fb01684ea91b68b9","41.150.250.58","Mozilla/5.0 (Windows NT 10.0; Win64; x64) AppleWebKit/537.36 (KHTML, like Gecko) Chrome/137.0.0.0 Safari/537.36 Edg/137.0.0.0","WebKit","Edge","137.0.0.0","Windows","10.0","https://app.prolific.com/","en-GB,en;q=0.9,en-US;q=0.8,en-ZA;q=0.7","612aad0cb69fa8ecd2f6edd8","683db6dfa200031b80f2a654","68650754d1afc2a4926ec2a1","612aad0cb69fa8ecd2f6edd8","2025-07-02T10:39:54.103Z","","","","","","StressQ","","","","","","","","","","","","","","","","","","","","","","","","","","","","","","","","","","","","","","50"
"10319","","<div style=""width:500px;"">
  <p>What best describes how you currently feel?</p>
  </div>","29","html-slider-response","51","1165522","0.0-10.0-4.1","136","1","2025-07-02 10:20:34","80fe4187154257d5fb01684ea91b68b9","41.150.250.58","Mozilla/5.0 (Windows NT 10.0; Win64; x64) AppleWebKit/537.36 (KHTML, like Gecko) Chrome/137.0.0.0 Safari/537.36 Edg/137.0.0.0","WebKit","Edge","137.0.0.0","Windows","10.0","https://app.prolific.com/","en-GB,en;q=0.9,en-US;q=0.8,en-ZA;q=0.7","612aad0cb69fa8ecd2f6edd8","683db6dfa200031b80f2a654","68650754d1afc2a4926ec2a1","612aad0cb69fa8ecd2f6edd8","2025-07-02T10:40:04.425Z","","","","","","MotivationQ","","","","","","","","","","","","","","","","","","","","","","","","","","","","","","","","","","","","","","50"
"","","","","ctl-task-cpt","52","1182833","0.0-10.0-0.2","136","1","2025-07-02 10:20:34","80fe4187154257d5fb01684ea91b68b9","41.150.250.58","Mozilla/5.0 (Windows NT 10.0; Win64; x64) AppleWebKit/537.36 (KHTML, like Gecko) Chrome/137.0.0.0 Safari/537.36 Edg/137.0.0.0","WebKit","Edge","137.0.0.0","Windows","10.0","https://app.prolific.com/","en-GB,en;q=0.9,en-US;q=0.8,en-ZA;q=0.7","612aad0cb69fa8ecd2f6edd8","683db6dfa200031b80f2a654","68650754d1afc2a4926ec2a1","612aad0cb69fa8ecd2f6edd8","2025-07-02T10:40:21.735Z","","","","","","","","","","","","","","","","win-only","2","g1:SE,g2:NW","0.8","3","0","1171572.8","3396.7","8397.5","14287.4","1","4","4","6","1","-1","-1","0","0","0","5000.8","3000","-1920","[""down"",""right""]","{""num_key_presses"":0,""num_perfect"":0,""num_errors"":0,""num_randdir"":0,""num_randdir_good_moves"":0,""num_whilered"":0,""num_whileblue"":0,""num_blue"":0,""num_good_moves"":0}","[405.3214133126395,421.57142761775424,0.1,405.3214133126395,421.57142761775424,107.1,405.3214133126395,421.57142761775424,220.7,405.3214133126395,421.57142761775424,322.8,405.3214133126395,421.57142761775424,424.6,405.3214133126395,421.57142761775424,526.6,405.3214133126395,421.57142761775424,629.5,426.5714133126395,465.32142761775424,735.8,472.8214133126395,590.3214276177542,836,472.8214133126395,590.3214276177542,942.8,472.8214133126395,590.3214276177542,1044,472.8214133126395,590.3214276177542,1153,472.8214133126395,590.3214276177542,1258.3,472.8214133126395,590.3214276177542,1361.2,472.8214133126395,590.3214276177542,1468.8,472.8214133126395,590.3214276177542,1576,472.8214133126395,590.3214276177542,1687.1,472.8214133126395,590.3214276177542,1789.7,472.8214133126395,590.3214276177542,1890.5,472.8214133126395,590.3214276177542,1991.9,472.8214133126395,590.3214276177542,2094.9,472.8214133126395,590.3214276177542,2195.4,472.8214133126395,590.3214276177542,2303.2,472.8214133126395,590.3214276177542,2413.6,472.8214133126395,590.3214276177542,2515.2,472.8214133126395,590.3214276177542,2616.7,489.0714133126395,591.5714276177542,2723.2,525.3214133126395,617.8214276177542,2841.7,549.0714133126395,632.8214276177542,2942.8,551.5714133126395,635.3214276177542,3043.6,551.5714133126395,635.3214276177542,3145.6,551.5714133126395,635.3214276177542,3245.9,551.5714133126395,635.3214276177542,3347.3,552.8214133126395,645.3214276177542,3453.7,552.8214133126395,651.5714276177542,3559,552.8214133126395,651.5714276177542,3661.5,560.3214133126395,656.5714276177542,3763.1,566.5714133126395,661.5714276177542,3867,566.5714133126395,661.5714276177542,3967.6,566.5714133126395,661.5714276177542,4071.5,566.5714133126395,661.5714276177542,4180.4,566.5714133126395,661.5714276177542,4281,566.5714133126395,661.5714276177542,4383.6,566.5714133126395,661.5714276177542,4484.7,566.5714133126395,661.5714276177542,4585.1,566.5714133126395,661.5714276177542,4688.1,566.5714133126395,661.5714276177542,4792.6,566.5714133126395,661.5714276177542,4894.4,566.5714133126395,661.5714276177542,4995.3]","[]","",""
"13153","","<div style=""width:500px;"">
  <p>What determined the result of this run?</p>
  </div>","84","html-slider-response","53","1195991","0.0-10.0-1.2","136","1","2025-07-02 10:20:34","80fe4187154257d5fb01684ea91b68b9","41.150.250.58","Mozilla/5.0 (Windows NT 10.0; Win64; x64) AppleWebKit/537.36 (KHTML, like Gecko) Chrome/137.0.0.0 Safari/537.36 Edg/137.0.0.0","WebKit","Edge","137.0.0.0","Windows","10.0","https://app.prolific.com/","en-GB,en;q=0.9,en-US;q=0.8,en-ZA;q=0.7","612aad0cb69fa8ecd2f6edd8","683db6dfa200031b80f2a654","68650754d1afc2a4926ec2a1","612aad0cb69fa8ecd2f6edd8","2025-07-02T10:40:34.893Z","","","","","","AttribQ","","","","","","","","","","","","","","","","","","","","","","","","","","","","","","","","","","","","","","50"
"5794","","<div style=""width:500px;"">
  <p>How much control did you have over the ball?</p>
  </div>","83","html-slider-response","54","1201790","0.0-10.0-2.2","136","1","2025-07-02 10:20:34","80fe4187154257d5fb01684ea91b68b9","41.150.250.58","Mozilla/5.0 (Windows NT 10.0; Win64; x64) AppleWebKit/537.36 (KHTML, like Gecko) Chrome/137.0.0.0 Safari/537.36 Edg/137.0.0.0","WebKit","Edge","137.0.0.0","Windows","10.0","https://app.prolific.com/","en-GB,en;q=0.9,en-US;q=0.8,en-ZA;q=0.7","612aad0cb69fa8ecd2f6edd8","683db6dfa200031b80f2a654","68650754d1afc2a4926ec2a1","612aad0cb69fa8ecd2f6edd8","2025-07-02T10:40:40.692Z","","","","","","ControlQ","","","","","","","","","","","","","","","","","","","","","","","","","","","","","","","","","","","","","","50"
"18464","","<div style=""width:500px;"">
  <p>How would you describe your current emotional state?</p>
  </div>","86","html-slider-response","55","1220256","0.0-10.0-3.2","136","1","2025-07-02 10:20:34","80fe4187154257d5fb01684ea91b68b9","41.150.250.58","Mozilla/5.0 (Windows NT 10.0; Win64; x64) AppleWebKit/537.36 (KHTML, like Gecko) Chrome/137.0.0.0 Safari/537.36 Edg/137.0.0.0","WebKit","Edge","137.0.0.0","Windows","10.0","https://app.prolific.com/","en-GB,en;q=0.9,en-US;q=0.8,en-ZA;q=0.7","612aad0cb69fa8ecd2f6edd8","683db6dfa200031b80f2a654","68650754d1afc2a4926ec2a1","612aad0cb69fa8ecd2f6edd8","2025-07-02T10:40:59.158Z","","","","","","StressQ","","","","","","","","","","","","","","","","","","","","","","","","","","","","","","","","","","","","","","50"
"17403","","<div style=""width:500px;"">
  <p>What best describes how you currently feel?</p>
  </div>","11","html-slider-response","56","1237662","0.0-10.0-4.2","136","1","2025-07-02 10:20:34","80fe4187154257d5fb01684ea91b68b9","41.150.250.58","Mozilla/5.0 (Windows NT 10.0; Win64; x64) AppleWebKit/537.36 (KHTML, like Gecko) Chrome/137.0.0.0 Safari/537.36 Edg/137.0.0.0","WebKit","Edge","137.0.0.0","Windows","10.0","https://app.prolific.com/","en-GB,en;q=0.9,en-US;q=0.8,en-ZA;q=0.7","612aad0cb69fa8ecd2f6edd8","683db6dfa200031b80f2a654","68650754d1afc2a4926ec2a1","612aad0cb69fa8ecd2f6edd8","2025-07-02T10:41:16.565Z","","","","","","MotivationQ","","","","","","","","","","","","","","","","","","","","","","","","","","","","","","","","","","","","","","50"
"","","","","ctl-task-cpt","57","1262638","0.0-10.0-0.3","136","1","2025-07-02 10:20:34","80fe4187154257d5fb01684ea91b68b9","41.150.250.58","Mozilla/5.0 (Windows NT 10.0; Win64; x64) AppleWebKit/537.36 (KHTML, like Gecko) Chrome/137.0.0.0 Safari/537.36 Edg/137.0.0.0","WebKit","Edge","137.0.0.0","Windows","10.0","https://app.prolific.com/","en-GB,en;q=0.9,en-US;q=0.8,en-ZA;q=0.7","612aad0cb69fa8ecd2f6edd8","683db6dfa200031b80f2a654","68650754d1afc2a4926ec2a1","612aad0cb69fa8ecd2f6edd8","2025-07-02T10:41:41.540Z","","","","","","","","","","","","","","","","win-only","1","g1:NE,g2:SW","0.7","4","0","1243717.6","7168.7","12169.7","21956.8","1","4","8","6","2","-8","-8","0","0","0","1900","3000","-1940","[""down"",""left""]","{""num_key_presses"":0,""num_perfect"":0,""num_errors"":0,""num_randdir"":0,""num_randdir_good_moves"":0,""num_whilered"":0,""num_whileblue"":0,""num_blue"":1,""num_good_moves"":0}","[421.5714133126395,417.82142761775424,0.1,421.5714133126395,417.82142761775424,104.3,384.0714133126395,407.82142761775424,210.8,335.3214133126395,419.07142761775424,318.6,335.3214133126395,419.07142761775424,424,331.5714133126395,412.82142761775424,524,331.5714133126395,384.07142761775424,630.7,377.8214133126395,387.82142761775424,737.1,389.0714133126395,391.57142761775424,838.1,245.3214133126395,545.3214276177542,939.7,169.0714133126395,697.8214276177542,1041.8,152.8214133126395,716.5714276177542,1147.3,116.5714133126395,725.3214276177542,1248.2,115.3214133126395,726.5714276177542,1350.8,109.0714133126395,735.3214276177542,1453.1,102.8214133126395,735.3214276177542,1563.7,101.5714133126395,735.3214276177542,1666.1,101.5714133126395,735.3214276177542,1768.5,101.5714133126395,735.3214276177542,1868.8,101.5714133126395,735.3214276177542,1979.2,101.5714133126395,735.3214276177542,2080.6,101.5714133126395,735.3214276177542,2184.4,101.5714133126395,735.3214276177542,2289.8,101.5714133126395,735.3214276177542,2392.8,101.5714133126395,735.3214276177542,2503.5,101.5714133126395,735.3214276177542,2604.1,101.5714133126395,735.3214276177542,2708.7,101.5714133126395,735.3214276177542,2813.4,101.5714133126395,735.3214276177542,2917.1,101.5714133126395,735.3214276177542,3024.9,101.5714133126395,735.3214276177542,3133,101.5714133126395,735.3214276177542,3234.1,101.5714133126395,735.3214276177542,3339.4,101.5714133126395,735.3214276177542,3442.9,101.5714133126395,735.3214276177542,3543.7,101.5714133126395,735.3214276177542,3652.5,101.5714133126395,735.3214276177542,3757,101.5714133126395,735.3214276177542,3870,101.5714133126395,735.3214276177542,3979.1,101.5714133126395,735.3214276177542,4083.8,101.5714133126395,735.3214276177542,4188.1,101.5714133126395,735.3214276177542,4290.3,101.5714133126395,735.3214276177542,4393.1,101.5714133126395,735.3214276177542,4507.9,101.5714133126395,735.3214276177542,4609.2,101.5714133126395,735.3214276177542,4711.7,101.5714133126395,735.3214276177542,4820.2,101.5714133126395,735.3214276177542,4922.8]","[]","",""
"93395","","<div style=""width:500px;"">
  <p>What determined the result of this run?</p>
  </div>","61","html-slider-response","58","1356035","0.0-10.0-1.3","136","1","2025-07-02 10:20:34","80fe4187154257d5fb01684ea91b68b9","41.150.250.58","Mozilla/5.0 (Windows NT 10.0; Win64; x64) AppleWebKit/537.36 (KHTML, like Gecko) Chrome/137.0.0.0 Safari/537.36 Edg/137.0.0.0","WebKit","Edge","137.0.0.0","Windows","10.0","https://app.prolific.com/","en-GB,en;q=0.9,en-US;q=0.8,en-ZA;q=0.7","612aad0cb69fa8ecd2f6edd8","683db6dfa200031b80f2a654","68650754d1afc2a4926ec2a1","612aad0cb69fa8ecd2f6edd8","2025-07-02T10:43:14.937Z","","","","","","AttribQ","","","","","","","","","","","","","","","","","","","","","","","","","","","","","","","","","","","","","","50"
"17739","","<div style=""width:500px;"">
  <p>How much control did you have over the ball?</p>
  </div>","0","html-slider-response","59","1373778","0.0-10.0-2.3","136","1","2025-07-02 10:20:34","80fe4187154257d5fb01684ea91b68b9","41.150.250.58","Mozilla/5.0 (Windows NT 10.0; Win64; x64) AppleWebKit/537.36 (KHTML, like Gecko) Chrome/137.0.0.0 Safari/537.36 Edg/137.0.0.0","WebKit","Edge","137.0.0.0","Windows","10.0","https://app.prolific.com/","en-GB,en;q=0.9,en-US;q=0.8,en-ZA;q=0.7","612aad0cb69fa8ecd2f6edd8","683db6dfa200031b80f2a654","68650754d1afc2a4926ec2a1","612aad0cb69fa8ecd2f6edd8","2025-07-02T10:43:32.681Z","","","","","","ControlQ","","","","","","","","","","","","","","","","","","","","","","","","","","","","","","","","","","","","","","50"
"7376","","<div style=""width:500px;"">
  <p>How would you describe your current emotional state?</p>
  </div>","100","html-slider-response","60","1381163","0.0-10.0-3.3","136","1","2025-07-02 10:20:34","80fe4187154257d5fb01684ea91b68b9","41.150.250.58","Mozilla/5.0 (Windows NT 10.0; Win64; x64) AppleWebKit/537.36 (KHTML, like Gecko) Chrome/137.0.0.0 Safari/537.36 Edg/137.0.0.0","WebKit","Edge","137.0.0.0","Windows","10.0","https://app.prolific.com/","en-GB,en;q=0.9,en-US;q=0.8,en-ZA;q=0.7","612aad0cb69fa8ecd2f6edd8","683db6dfa200031b80f2a654","68650754d1afc2a4926ec2a1","612aad0cb69fa8ecd2f6edd8","2025-07-02T10:43:40.066Z","","","","","","StressQ","","","","","","","","","","","","","","","","","","","","","","","","","","","","","","","","","","","","","","50"
"8898","","<div style=""width:500px;"">
  <p>What best describes how you currently feel?</p>
  </div>","0","html-slider-response","61","1390071","0.0-10.0-4.3","136","1","2025-07-02 10:20:34","80fe4187154257d5fb01684ea91b68b9","41.150.250.58","Mozilla/5.0 (Windows NT 10.0; Win64; x64) AppleWebKit/537.36 (KHTML, like Gecko) Chrome/137.0.0.0 Safari/537.36 Edg/137.0.0.0","WebKit","Edge","137.0.0.0","Windows","10.0","https://app.prolific.com/","en-GB,en;q=0.9,en-US;q=0.8,en-ZA;q=0.7","612aad0cb69fa8ecd2f6edd8","683db6dfa200031b80f2a654","68650754d1afc2a4926ec2a1","612aad0cb69fa8ecd2f6edd8","2025-07-02T10:43:48.973Z","","","","","","MotivationQ","","","","","","","","","","","","","","","","","","","","","","","","","","","","","","","","","","","","","","50"
"","","","","ctl-task-cpt","62","1409240","0.0-10.0-0.4","136","1","2025-07-02 10:20:34","80fe4187154257d5fb01684ea91b68b9","41.150.250.58","Mozilla/5.0 (Windows NT 10.0; Win64; x64) AppleWebKit/537.36 (KHTML, like Gecko) Chrome/137.0.0.0 Safari/537.36 Edg/137.0.0.0","WebKit","Edge","137.0.0.0","Windows","10.0","https://app.prolific.com/","en-GB,en;q=0.9,en-US;q=0.8,en-ZA;q=0.7","612aad0cb69fa8ecd2f6edd8","683db6dfa200031b80f2a654","68650754d1afc2a4926ec2a1","612aad0cb69fa8ecd2f6edd8","2025-07-02T10:44:08.142Z","","","","","","","","","","","","","","","","win-only","0","g1:NW,g2:SE","0.6","5","0","1396123","2313.4","7316.8","16137.8","1","4","8","6","2","-8","-8","0","0","0","2064.2","3000","-1000","[""down"",""right""]","{""num_key_presses"":0,""num_perfect"":0,""num_errors"":0,""num_randdir"":0,""num_randdir_good_moves"":0,""num_whilered"":0,""num_whileblue"":0,""num_blue"":0,""num_good_moves"":0}","[357.0714362008231,359.3214257104056,0.3,357.0714362008231,359.3214257104056,102.3,357.0714362008231,359.3214257104056,222.5,357.0714362008231,359.3214257104056,324.5,357.0714362008231,359.3214257104056,425.1,357.0714362008231,359.3214257104056,528.7,357.0714362008231,359.3214257104056,646,320.8214362008231,308.0714257104056,761,387.0714362008231,406.8214257104056,871.6,460.8214362008231,549.3214257104056,971.7,544.5714362008231,665.5714257104056,1086.1,583.3214362008231,688.0714257104056,1195.4,644.5714362008231,695.5714257104056,1318.1,708.3214362008231,691.8214257104056,1431.1,685.8214362008231,683.0714257104056,1541.8,675.8214362008231,683.0714257104056,1648.5,668.3214362008231,680.5714257104056,1767,668.3214362008231,680.5714257104056,1868.7,668.3214362008231,680.5714257104056,1983.6,668.3214362008231,680.5714257104056,2091.4,668.3214362008231,680.5714257104056,2196,668.3214362008231,680.5714257104056,2298.2,668.3214362008231,680.5714257104056,2399,668.3214362008231,680.5714257104056,2500.4,663.3214362008231,675.5714257104056,2605.8,578.3214362008231,561.8214257104056,2712.4,525.8214362008231,486.8214257104056,2813.2,487.0714362008231,456.8214257104056,2918.7,444.5714362008231,410.5714257104056,3022.4,392.0714362008231,356.8214257104056,3136,385.8214362008231,350.5714257104056,3251.5,385.8214362008231,349.3214257104056,3359.4,385.8214362008231,349.3214257104056,3469.1,370.8214362008231,341.8214257104056,3570.8,342.0714362008231,318.0714257104056,3681.3,342.0714362008231,316.8214257104056,3796.1,337.0714362008231,316.8214257104056,3897.2,325.8214362008231,316.8214257104056,4026.9,328.3214362008231,320.5714257104056,4128.1,547.0714362008231,553.0714257104056,4231.3,710.8214362008231,766.8214257104056,4332.5,750.8214362008231,820.5714257104056,4436.4,750.8214362008231,820.5714257104056,4544.4,725.8214362008231,774.3214257104056,4652.2,710.8214362008231,729.3214257104056,4763.7,708.3214362008231,715.5714257104056,4865.4,695.8214362008231,696.8214257104056,4966.3]","[]","",""
"13388","","<div style=""width:500px;"">
  <p>What determined the result of this run?</p>
  </div>","0","html-slider-response","63","1422631","0.0-10.0-1.4","136","1","2025-07-02 10:20:34","80fe4187154257d5fb01684ea91b68b9","41.150.250.58","Mozilla/5.0 (Windows NT 10.0; Win64; x64) AppleWebKit/537.36 (KHTML, like Gecko) Chrome/137.0.0.0 Safari/537.36 Edg/137.0.0.0","WebKit","Edge","137.0.0.0","Windows","10.0","https://app.prolific.com/","en-GB,en;q=0.9,en-US;q=0.8,en-ZA;q=0.7","612aad0cb69fa8ecd2f6edd8","683db6dfa200031b80f2a654","68650754d1afc2a4926ec2a1","612aad0cb69fa8ecd2f6edd8","2025-07-02T10:44:21.533Z","","","","","","AttribQ","","","","","","","","","","","","","","","","","","","","","","","","","","","","","","","","","","","","","","50"
"7935","","<div style=""width:500px;"">
  <p>How much control did you have over the ball?</p>
  </div>","0","html-slider-response","64","1430569","0.0-10.0-2.4","136","1","2025-07-02 10:20:34","80fe4187154257d5fb01684ea91b68b9","41.150.250.58","Mozilla/5.0 (Windows NT 10.0; Win64; x64) AppleWebKit/537.36 (KHTML, like Gecko) Chrome/137.0.0.0 Safari/537.36 Edg/137.0.0.0","WebKit","Edge","137.0.0.0","Windows","10.0","https://app.prolific.com/","en-GB,en;q=0.9,en-US;q=0.8,en-ZA;q=0.7","612aad0cb69fa8ecd2f6edd8","683db6dfa200031b80f2a654","68650754d1afc2a4926ec2a1","612aad0cb69fa8ecd2f6edd8","2025-07-02T10:44:29.471Z","","","","","","ControlQ","","","","","","","","","","","","","","","","","","","","","","","","","","","","","","","","","","","","","","50"
"19059","","<div style=""width:500px;"">
  <p>How would you describe your current emotional state?</p>
  </div>","100","html-slider-response","65","1449632","0.0-10.0-3.4","136","1","2025-07-02 10:20:34","80fe4187154257d5fb01684ea91b68b9","41.150.250.58","Mozilla/5.0 (Windows NT 10.0; Win64; x64) AppleWebKit/537.36 (KHTML, like Gecko) Chrome/137.0.0.0 Safari/537.36 Edg/137.0.0.0","WebKit","Edge","137.0.0.0","Windows","10.0","https://app.prolific.com/","en-GB,en;q=0.9,en-US;q=0.8,en-ZA;q=0.7","612aad0cb69fa8ecd2f6edd8","683db6dfa200031b80f2a654","68650754d1afc2a4926ec2a1","612aad0cb69fa8ecd2f6edd8","2025-07-02T10:44:48.534Z","","","","","","StressQ","","","","","","","","","","","","","","","","","","","","","","","","","","","","","","","","","","","","","","50"
"21293","","<div style=""width:500px;"">
  <p>What best describes how you currently feel?</p>
  </div>","0","html-slider-response","66","1470928","0.0-10.0-4.4","136","1","2025-07-02 10:20:34","80fe4187154257d5fb01684ea91b68b9","41.150.250.58","Mozilla/5.0 (Windows NT 10.0; Win64; x64) AppleWebKit/537.36 (KHTML, like Gecko) Chrome/137.0.0.0 Safari/537.36 Edg/137.0.0.0","WebKit","Edge","137.0.0.0","Windows","10.0","https://app.prolific.com/","en-GB,en;q=0.9,en-US;q=0.8,en-ZA;q=0.7","612aad0cb69fa8ecd2f6edd8","683db6dfa200031b80f2a654","68650754d1afc2a4926ec2a1","612aad0cb69fa8ecd2f6edd8","2025-07-02T10:45:09.831Z","","","","","","MotivationQ","","","","","","","","","","","","","","","","","","","","","","","","","","","","","","","","","","","","","","50"
"","","","","ctl-task-cpt","67","1560659","0.0-10.0-0.5","136","1","2025-07-02 10:20:34","80fe4187154257d5fb01684ea91b68b9","41.150.250.58","Mozilla/5.0 (Windows NT 10.0; Win64; x64) AppleWebKit/537.36 (KHTML, like Gecko) Chrome/137.0.0.0 Safari/537.36 Edg/137.0.0.0","WebKit","Edge","137.0.0.0","Windows","10.0","https://app.prolific.com/","en-GB,en;q=0.9,en-US;q=0.8,en-ZA;q=0.7","612aad0cb69fa8ecd2f6edd8","683db6dfa200031b80f2a654","68650754d1afc2a4926ec2a1","612aad0cb69fa8ecd2f6edd8","2025-07-02T10:46:39.561Z","","","","","","","","","","","","","","","","win-only","0","g1:NW,g2:SE","0.5","6","0","1476983.4","74470.7","79480","86694","1","4","4","6","2","-4","-4","0","0","0","3148.9","3000","-1410","[""down"",""right""]","{""num_key_presses"":0,""num_perfect"":0,""num_errors"":0,""num_randdir"":0,""num_randdir_good_moves"":0,""num_whilered"":0,""num_whileblue"":0,""num_blue"":0,""num_good_moves"":0}","[354.5714362008231,353.0714257104056,0.8,354.5714362008231,353.0714257104056,102.1,354.5714362008231,353.0714257104056,208.3,354.5714362008231,353.0714257104056,315.1,354.5714362008231,353.0714257104056,415.8,354.5714362008231,353.0714257104056,525.5,354.5714362008231,353.0714257104056,629.7,344.5714362008231,403.0714257104056,732.8,394.5714362008231,549.3214257104056,837.8,417.0714362008231,591.8214257104056,975.5,425.8214362008231,603.0714257104056,1082.9,435.8214362008231,605.5714257104056,1187.4,467.0714362008231,596.8214257104056,1289.2,470.8214362008231,595.5714257104056,1392.8,474.5714362008231,596.8214257104056,1493.3,494.5714362008231,606.8214257104056,1606.6,504.5714362008231,611.8214257104056,1711.8,522.0714362008231,630.5714257104056,1822.6,525.8214362008231,631.8214257104056,1930.2,548.3214362008231,659.3214257104056,2038.1,568.3214362008231,733.0714257104056,2155.9,575.8214362008231,716.8214257104056,2257.6,584.5714362008231,698.0714257104056,2373,600.8214362008231,694.3214257104056,2479.2,605.8214362008231,694.3214257104056,2580.3,613.3214362008231,694.3214257104056,2681.5,627.0714362008231,694.3214257104056,2798.1,632.0714362008231,694.3214257104056,2898.4,632.0714362008231,694.3214257104056,3004.8,632.0714362008231,694.3214257104056,3104.8,632.0714362008231,694.3214257104056,3223.4,632.0714362008231,694.3214257104056,3326.5,632.0714362008231,694.3214257104056,3430.1,632.0714362008231,694.3214257104056,3538.8,632.0714362008231,694.3214257104056,3644.9,632.0714362008231,694.3214257104056,3747,632.0714362008231,694.3214257104056,3862.9,632.0714362008231,694.3214257104056,3967.1,632.0714362008231,694.3214257104056,4084.3,632.0714362008231,694.3214257104056,4189.1,632.0714362008231,694.3214257104056,4293.9,632.0714362008231,694.3214257104056,4396.8,632.0714362008231,694.3214257104056,4508.4,632.0714362008231,694.3214257104056,4619.3,632.0714362008231,694.3214257104056,4720.2,632.0714362008231,694.3214257104056,4829.8,632.0714362008231,694.3214257104056,4930.8]","[]","",""
"10573","","<div style=""width:500px;"">
  <p>What determined the result of this run?</p>
  </div>","0","html-slider-response","68","1571234","0.0-10.0-1.5","136","1","2025-07-02 10:20:34","80fe4187154257d5fb01684ea91b68b9","41.150.250.58","Mozilla/5.0 (Windows NT 10.0; Win64; x64) AppleWebKit/537.36 (KHTML, like Gecko) Chrome/137.0.0.0 Safari/537.36 Edg/137.0.0.0","WebKit","Edge","137.0.0.0","Windows","10.0","https://app.prolific.com/","en-GB,en;q=0.9,en-US;q=0.8,en-ZA;q=0.7","612aad0cb69fa8ecd2f6edd8","683db6dfa200031b80f2a654","68650754d1afc2a4926ec2a1","612aad0cb69fa8ecd2f6edd8","2025-07-02T10:46:50.136Z","","","","","","AttribQ","","","","","","","","","","","","","","","","","","","","","","","","","","","","","","","","","","","","","","50"
"9307","","<div style=""width:500px;"">
  <p>How much control did you have over the ball?</p>
  </div>","0","html-slider-response","69","1580545","0.0-10.0-2.5","136","1","2025-07-02 10:20:34","80fe4187154257d5fb01684ea91b68b9","41.150.250.58","Mozilla/5.0 (Windows NT 10.0; Win64; x64) AppleWebKit/537.36 (KHTML, like Gecko) Chrome/137.0.0.0 Safari/537.36 Edg/137.0.0.0","WebKit","Edge","137.0.0.0","Windows","10.0","https://app.prolific.com/","en-GB,en;q=0.9,en-US;q=0.8,en-ZA;q=0.7","612aad0cb69fa8ecd2f6edd8","683db6dfa200031b80f2a654","68650754d1afc2a4926ec2a1","612aad0cb69fa8ecd2f6edd8","2025-07-02T10:46:59.448Z","","","","","","ControlQ","","","","","","","","","","","","","","","","","","","","","","","","","","","","","","","","","","","","","","50"
"16360","","<div style=""width:500px;"">
  <p>How would you describe your current emotional state?</p>
  </div>","100","html-slider-response","70","1596915","0.0-10.0-3.5","136","1","2025-07-02 10:20:34","80fe4187154257d5fb01684ea91b68b9","41.150.250.58","Mozilla/5.0 (Windows NT 10.0; Win64; x64) AppleWebKit/537.36 (KHTML, like Gecko) Chrome/137.0.0.0 Safari/537.36 Edg/137.0.0.0","WebKit","Edge","137.0.0.0","Windows","10.0","https://app.prolific.com/","en-GB,en;q=0.9,en-US;q=0.8,en-ZA;q=0.7","612aad0cb69fa8ecd2f6edd8","683db6dfa200031b80f2a654","68650754d1afc2a4926ec2a1","612aad0cb69fa8ecd2f6edd8","2025-07-02T10:47:15.817Z","","","","","","StressQ","","","","","","","","","","","","","","","","","","","","","","","","","","","","","","","","","","","","","","50"
"23119","","<div style=""width:500px;"">
  <p>What best describes how you currently feel?</p>
  </div>","0","html-slider-response","71","1620040","0.0-10.0-4.5","136","1","2025-07-02 10:20:34","80fe4187154257d5fb01684ea91b68b9","41.150.250.58","Mozilla/5.0 (Windows NT 10.0; Win64; x64) AppleWebKit/537.36 (KHTML, like Gecko) Chrome/137.0.0.0 Safari/537.36 Edg/137.0.0.0","WebKit","Edge","137.0.0.0","Windows","10.0","https://app.prolific.com/","en-GB,en;q=0.9,en-US;q=0.8,en-ZA;q=0.7","612aad0cb69fa8ecd2f6edd8","683db6dfa200031b80f2a654","68650754d1afc2a4926ec2a1","612aad0cb69fa8ecd2f6edd8","2025-07-02T10:47:38.942Z","","","","","","MotivationQ","","","","","","","","","","","","","","","","","","","","","","","","","","","","","","","","","","","","","","50"
"","","","","ctl-task-cpt","72","1639448","0.0-10.0-0.6","136","1","2025-07-02 10:20:34","80fe4187154257d5fb01684ea91b68b9","41.150.250.58","Mozilla/5.0 (Windows NT 10.0; Win64; x64) AppleWebKit/537.36 (KHTML, like Gecko) Chrome/137.0.0.0 Safari/537.36 Edg/137.0.0.0","WebKit","Edge","137.0.0.0","Windows","10.0","https://app.prolific.com/","en-GB,en;q=0.9,en-US;q=0.8,en-ZA;q=0.7","612aad0cb69fa8ecd2f6edd8","683db6dfa200031b80f2a654","68650754d1afc2a4926ec2a1","612aad0cb69fa8ecd2f6edd8","2025-07-02T10:47:58.350Z","","","","","","","","","","","","","","","","win-only","0","g1:NW,g2:SE","0.4","7","0","1626090.4","3884.5","8885.1","16391.3","1","4","8","6","2","-8","-8","0","0","0","1683.4","3000","-1405","[""down"",""right""]","{""num_key_presses"":0,""num_perfect"":0,""num_errors"":0,""num_randdir"":0,""num_randdir_good_moves"":0,""num_whilered"":0,""num_whileblue"":0,""num_blue"":0,""num_good_moves"":0}","[354.5714362008231,356.8214257104056,1.9,354.5714362008231,356.8214257104056,105.7,354.5714362008231,356.8214257104056,208.1,354.5714362008231,356.8214257104056,312,354.5714362008231,356.8214257104056,412.2,354.5714362008231,356.8214257104056,513.6,352.0714362008231,401.8214257104056,636.4,385.8214362008231,541.8214257104056,743.1,467.0714362008231,586.8214257104056,844.4,544.5714362008231,636.8214257104056,944.6,574.5714362008231,658.0714257104056,1046.7,592.0714362008231,658.0714257104056,1153.1,599.5714362008231,659.3214257104056,1254.3,627.0714362008231,656.8214257104056,1357.4,627.0714362008231,656.8214257104056,1461.4,627.0714362008231,656.8214257104056,1567,627.0714362008231,656.8214257104056,1667.5,627.0714362008231,656.8214257104056,1767.8,627.0714362008231,656.8214257104056,1870.4,627.0714362008231,656.8214257104056,1971.3,627.0714362008231,656.8214257104056,2073.7,627.0714362008231,656.8214257104056,2177,627.0714362008231,655.5714257104056,2282.4,660.8214362008231,620.5714257104056,2386.6,678.3214362008231,561.8214257104056,2490.4,679.5714362008231,481.8214257104056,2592.4,679.5714362008231,481.8214257104056,2695.4,679.5714362008231,481.8214257104056,2797.9,679.5714362008231,481.8214257104056,2899,679.5714362008231,481.8214257104056,3002.4,679.5714362008231,481.8214257104056,3102.7,679.5714362008231,481.8214257104056,3203.7,679.5714362008231,481.8214257104056,3308.3,679.5714362008231,481.8214257104056,3413.1,679.5714362008231,481.8214257104056,3517.6,687.0714362008231,411.8214257104056,3620.4,687.0714362008231,411.8214257104056,3720.8,687.0714362008231,411.8214257104056,3831.1,687.0714362008231,411.8214257104056,3940.5,687.0714362008231,411.8214257104056,4048.3,687.0714362008231,411.8214257104056,4158.6,687.0714362008231,411.8214257104056,4261.2,687.0714362008231,411.8214257104056,4362.8,687.0714362008231,411.8214257104056,4467.9,687.0714362008231,411.8214257104056,4572.2,614.5714362008231,381.8214257104056,4678.8,540.8214362008231,381.8214257104056,4784.6,537.0714362008231,383.0714257104056,4889.3,537.0714362008231,383.0714257104056,4993.9]","[]","",""
"11800","","<div style=""width:500px;"">
  <p>What determined the result of this run?</p>
  </div>","100","html-slider-response","73","1651250","0.0-10.0-1.6","136","1","2025-07-02 10:20:34","80fe4187154257d5fb01684ea91b68b9","41.150.250.58","Mozilla/5.0 (Windows NT 10.0; Win64; x64) AppleWebKit/537.36 (KHTML, like Gecko) Chrome/137.0.0.0 Safari/537.36 Edg/137.0.0.0","WebKit","Edge","137.0.0.0","Windows","10.0","https://app.prolific.com/","en-GB,en;q=0.9,en-US;q=0.8,en-ZA;q=0.7","612aad0cb69fa8ecd2f6edd8","683db6dfa200031b80f2a654","68650754d1afc2a4926ec2a1","612aad0cb69fa8ecd2f6edd8","2025-07-02T10:48:10.152Z","","","","","","AttribQ","","","","","","","","","","","","","","","","","","","","","","","","","","","","","","","","","","","","","","50"
"6416","","<div style=""width:500px;"">
  <p>How much control did you have over the ball?</p>
  </div>","100","html-slider-response","74","1657669","0.0-10.0-2.6","136","1","2025-07-02 10:20:34","80fe4187154257d5fb01684ea91b68b9","41.150.250.58","Mozilla/5.0 (Windows NT 10.0; Win64; x64) AppleWebKit/537.36 (KHTML, like Gecko) Chrome/137.0.0.0 Safari/537.36 Edg/137.0.0.0","WebKit","Edge","137.0.0.0","Windows","10.0","https://app.prolific.com/","en-GB,en;q=0.9,en-US;q=0.8,en-ZA;q=0.7","612aad0cb69fa8ecd2f6edd8","683db6dfa200031b80f2a654","68650754d1afc2a4926ec2a1","612aad0cb69fa8ecd2f6edd8","2025-07-02T10:48:16.572Z","","","","","","ControlQ","","","","","","","","","","","","","","","","","","","","","","","","","","","","","","","","","","","","","","50"
"12352","","<div style=""width:500px;"">
  <p>How would you describe your current emotional state?</p>
  </div>","0","html-slider-response","75","1670025","0.0-10.0-3.6","136","1","2025-07-02 10:20:34","80fe4187154257d5fb01684ea91b68b9","41.150.250.58","Mozilla/5.0 (Windows NT 10.0; Win64; x64) AppleWebKit/537.36 (KHTML, like Gecko) Chrome/137.0.0.0 Safari/537.36 Edg/137.0.0.0","WebKit","Edge","137.0.0.0","Windows","10.0","https://app.prolific.com/","en-GB,en;q=0.9,en-US;q=0.8,en-ZA;q=0.7","612aad0cb69fa8ecd2f6edd8","683db6dfa200031b80f2a654","68650754d1afc2a4926ec2a1","612aad0cb69fa8ecd2f6edd8","2025-07-02T10:48:28.927Z","","","","","","StressQ","","","","","","","","","","","","","","","","","","","","","","","","","","","","","","","","","","","","","","50"
"38466","","<div style=""width:500px;"">
  <p>What best describes how you currently feel?</p>
  </div>","100","html-slider-response","76","1708498","0.0-10.0-4.6","136","1","2025-07-02 10:20:34","80fe4187154257d5fb01684ea91b68b9","41.150.250.58","Mozilla/5.0 (Windows NT 10.0; Win64; x64) AppleWebKit/537.36 (KHTML, like Gecko) Chrome/137.0.0.0 Safari/537.36 Edg/137.0.0.0","WebKit","Edge","137.0.0.0","Windows","10.0","https://app.prolific.com/","en-GB,en;q=0.9,en-US;q=0.8,en-ZA;q=0.7","612aad0cb69fa8ecd2f6edd8","683db6dfa200031b80f2a654","68650754d1afc2a4926ec2a1","612aad0cb69fa8ecd2f6edd8","2025-07-02T10:49:07.400Z","","","","","","MotivationQ","","","","","","","","","","","","","","","","","","","","","","","","","","","","","","","","","","","","","","50"
"","","","","ctl-task-cpt","77","1729491","0.0-10.0-0.7","136","1","2025-07-02 10:20:34","80fe4187154257d5fb01684ea91b68b9","41.150.250.58","Mozilla/5.0 (Windows NT 10.0; Win64; x64) AppleWebKit/537.36 (KHTML, like Gecko) Chrome/137.0.0.0 Safari/537.36 Edg/137.0.0.0","WebKit","Edge","137.0.0.0","Windows","10.0","https://app.prolific.com/","en-GB,en;q=0.9,en-US;q=0.8,en-ZA;q=0.7","612aad0cb69fa8ecd2f6edd8","683db6dfa200031b80f2a654","68650754d1afc2a4926ec2a1","612aad0cb69fa8ecd2f6edd8","2025-07-02T10:49:28.393Z","","","","","","","","","","","","","","","","win-only","2","g1:SE,g2:NW","0.3","8","0","1714552.2","2181.7","7185.7","17954","1","4","4","6","2","-4","-4","0","0","0","1674.9","3000","-1220","[""left"",""up""]","{""num_key_presses"":0,""num_perfect"":0,""num_errors"":0,""num_randdir"":0,""num_randdir_good_moves"":0,""num_whilered"":0,""num_whileblue"":0,""num_blue"":0,""num_good_moves"":0}","[345.8214362008231,355.5714257104056,0.5,345.8214362008231,355.5714257104056,100.2,345.8214362008231,355.5714257104056,202.4,345.8214362008231,355.5714257104056,304.9,345.8214362008231,355.5714257104056,411.7,345.8214362008231,355.5714257104056,524.6,395.8214362008231,419.3214257104056,639.3,167.0714362008231,151.8214257104056,741.5,122.0714362008231,131.8214257104056,845.1,122.0714362008231,129.3214257104056,947.2,122.0714362008231,125.57142571040562,1049.9,103.3214362008231,71.82142571040562,1150.1,98.3214362008231,59.32142571040562,1252.9,98.3214362008231,59.32142571040562,1362.5,98.3214362008231,59.32142571040562,1473.3,98.3214362008231,59.32142571040562,1582.5,98.3214362008231,59.32142571040562,1691.8,98.3214362008231,59.32142571040562,1797.2,98.3214362008231,59.32142571040562,1904,98.3214362008231,59.32142571040562,2004.2,98.3214362008231,59.32142571040562,2111.6,98.3214362008231,59.32142571040562,2215.3,98.3214362008231,59.32142571040562,2325.9,98.3214362008231,59.32142571040562,2426.9,98.3214362008231,59.32142571040562,2538.1,98.3214362008231,59.32142571040562,2647.3,98.3214362008231,59.32142571040562,2756.3,98.3214362008231,59.32142571040562,2861.9,98.3214362008231,59.32142571040562,2964.1,98.3214362008231,59.32142571040562,3064.7,98.3214362008231,59.32142571040562,3170,98.3214362008231,59.32142571040562,3279.7,98.3214362008231,59.32142571040562,3389.4,98.3214362008231,59.32142571040562,3502.9,98.3214362008231,59.32142571040562,3604.2,98.3214362008231,59.32142571040562,3709.5,98.3214362008231,59.32142571040562,3825.8,114.5714362008231,88.07142571040562,3939.5,114.5714362008231,88.07142571040562,4050.3,118.3214362008231,94.32142571040562,4153.8,133.3214362008231,118.07142571040562,4267.3,133.3214362008231,106.82142571040562,4379.5,145.8214362008231,118.07142571040562,4484.6,189.5714362008231,161.8214257104056,4600,215.8214362008231,175.5714257104056,4701.8,307.0714362008231,273.0714257104056,4812.1,352.0714362008231,331.8214257104056,4921]","[]","",""
"16680","","<div style=""width:500px;"">
  <p>What determined the result of this run?</p>
  </div>","100","html-slider-response","78","1746178","0.0-10.0-1.7","136","1","2025-07-02 10:20:34","80fe4187154257d5fb01684ea91b68b9","41.150.250.58","Mozilla/5.0 (Windows NT 10.0; Win64; x64) AppleWebKit/537.36 (KHTML, like Gecko) Chrome/137.0.0.0 Safari/537.36 Edg/137.0.0.0","WebKit","Edge","137.0.0.0","Windows","10.0","https://app.prolific.com/","en-GB,en;q=0.9,en-US;q=0.8,en-ZA;q=0.7","612aad0cb69fa8ecd2f6edd8","683db6dfa200031b80f2a654","68650754d1afc2a4926ec2a1","612aad0cb69fa8ecd2f6edd8","2025-07-02T10:49:45.081Z","","","","","","AttribQ","","","","","","","","","","","","","","","","","","","","","","","","","","","","","","","","","","","","","","50"
"30394","","<div style=""width:500px;"">
  <p>How much control did you have over the ball?</p>
  </div>","100","html-slider-response","79","1776581","0.0-10.0-2.7","136","1","2025-07-02 10:20:34","80fe4187154257d5fb01684ea91b68b9","41.150.250.58","Mozilla/5.0 (Windows NT 10.0; Win64; x64) AppleWebKit/537.36 (KHTML, like Gecko) Chrome/137.0.0.0 Safari/537.36 Edg/137.0.0.0","WebKit","Edge","137.0.0.0","Windows","10.0","https://app.prolific.com/","en-GB,en;q=0.9,en-US;q=0.8,en-ZA;q=0.7","612aad0cb69fa8ecd2f6edd8","683db6dfa200031b80f2a654","68650754d1afc2a4926ec2a1","612aad0cb69fa8ecd2f6edd8","2025-07-02T10:50:15.483Z","","","","","","ControlQ","","","","","","","","","","","","","","","","","","","","","","","","","","","","","","","","","","","","","","50"
"505811","","<div style=""width:500px;"">
  <p>How would you describe your current emotional state?</p>
  </div>","0","html-slider-response","80","2282399","0.0-10.0-3.7","136","1","2025-07-02 10:20:34","80fe4187154257d5fb01684ea91b68b9","41.150.250.58","Mozilla/5.0 (Windows NT 10.0; Win64; x64) AppleWebKit/537.36 (KHTML, like Gecko) Chrome/137.0.0.0 Safari/537.36 Edg/137.0.0.0","WebKit","Edge","137.0.0.0","Windows","10.0","https://app.prolific.com/","en-GB,en;q=0.9,en-US;q=0.8,en-ZA;q=0.7","612aad0cb69fa8ecd2f6edd8","683db6dfa200031b80f2a654","68650754d1afc2a4926ec2a1","612aad0cb69fa8ecd2f6edd8","2025-07-02T10:58:41.301Z","","","","","","StressQ","","","","","","","","","","","","","","","","","","","","","","","","","","","","","","","","","","","","","","50"
"12453","","<div style=""width:500px;"">
  <p>What best describes how you currently feel?</p>
  </div>","0","html-slider-response","81","2294861","0.0-10.0-4.7","136","1","2025-07-02 10:20:34","80fe4187154257d5fb01684ea91b68b9","41.150.250.58","Mozilla/5.0 (Windows NT 10.0; Win64; x64) AppleWebKit/537.36 (KHTML, like Gecko) Chrome/137.0.0.0 Safari/537.36 Edg/137.0.0.0","WebKit","Edge","137.0.0.0","Windows","10.0","https://app.prolific.com/","en-GB,en;q=0.9,en-US;q=0.8,en-ZA;q=0.7","612aad0cb69fa8ecd2f6edd8","683db6dfa200031b80f2a654","68650754d1afc2a4926ec2a1","612aad0cb69fa8ecd2f6edd8","2025-07-02T10:58:53.764Z","","","","","","MotivationQ","","","","","","","","","","","","","","","","","","","","","","","","","","","","","","","","","","","","","","50"
"","","","","ctl-task-cpt","82","2318661","0.0-10.0-0.8","136","1","2025-07-02 10:20:34","80fe4187154257d5fb01684ea91b68b9","41.150.250.58","Mozilla/5.0 (Windows NT 10.0; Win64; x64) AppleWebKit/537.36 (KHTML, like Gecko) Chrome/137.0.0.0 Safari/537.36 Edg/137.0.0.0","WebKit","Edge","137.0.0.0","Windows","10.0","https://app.prolific.com/","en-GB,en;q=0.9,en-US;q=0.8,en-ZA;q=0.7","612aad0cb69fa8ecd2f6edd8","683db6dfa200031b80f2a654","68650754d1afc2a4926ec2a1","612aad0cb69fa8ecd2f6edd8","2025-07-02T10:59:17.563Z","","","","","","","","","","","","","","","","win-only","1","g1:NE,g2:SW","0.4","9","0","2300912.4","2231.2","7240.6","20750.8","1","4","8","6","2","-8","-8","0","0","0","2777.6","3000","-835","[""down"",""left""]","{""num_key_presses"":0,""num_perfect"":0,""num_errors"":0,""num_randdir"":0,""num_randdir_good_moves"":0,""num_whilered"":0,""num_whileblue"":0,""num_blue"":0,""num_good_moves"":0}","[347.0714362008231,350.5714257104056,0.4,347.0714362008231,350.5714257104056,113.8,347.0714362008231,350.5714257104056,232.3,347.0714362008231,350.5714257104056,344,347.0714362008231,350.5714257104056,467.8,347.0714362008231,350.5714257104056,569.6,347.0714362008231,350.5714257104056,688.7,290.8214362008231,381.8214257104056,803.6,145.8214362008231,530.5714257104056,916.5,72.0714362008231,653.0714257104056,1033.9,63.3214362008231,640.5714257104056,1146.1,63.3214362008231,640.5714257104056,1253.6,63.3214362008231,641.8214257104056,1355.7,63.3214362008231,641.8214257104056,1460.3,63.3214362008231,641.8214257104056,1568.1,63.3214362008231,641.8214257104056,1668.5,64.5714362008231,641.8214257104056,1777,64.5714362008231,641.8214257104056,1895.4,64.5714362008231,641.8214257104056,2013,64.5714362008231,641.8214257104056,2122,64.5714362008231,641.8214257104056,2235.9,64.5714362008231,641.8214257104056,2343.6,64.5714362008231,641.8214257104056,2458.1,64.5714362008231,641.8214257104056,2575.9,64.5714362008231,641.8214257104056,2692.9,64.5714362008231,641.8214257104056,2810.5,64.5714362008231,641.8214257104056,2915.4,64.5714362008231,641.8214257104056,3027.8,64.5714362008231,641.8214257104056,3132.5,64.5714362008231,641.8214257104056,3245.8,75.8214362008231,640.5714257104056,3354.1,155.8214362008231,573.0714257104056,3467.2,220.8214362008231,494.3214257104056,3570.5,235.8214362008231,473.0714257104056,3678.3,270.8214362008231,406.8214257104056,3786.7,293.3214362008231,340.5714257104056,3889,293.3214362008231,340.5714257104056,3993.7,293.3214362008231,340.5714257104056,4097.1,298.3214362008231,326.8214257104056,4220.3,372.0714362008231,171.8214257104056,4324.7,404.5714362008231,95.57142571040562,4427.5,419.5714362008231,65.57142571040562,4532.4,420.8214362008231,65.57142571040562,4647.3,420.8214362008231,65.57142571040562,4759.8,420.8214362008231,65.57142571040562,4863.6,420.8214362008231,65.57142571040562,4966]","[]","",""
"41799","","<div style=""width:500px;"">
  <p>What determined the result of this run?</p>
  </div>","0","html-slider-response","83","2360464","0.0-10.0-1.8","136","1","2025-07-02 10:20:34","80fe4187154257d5fb01684ea91b68b9","41.150.250.58","Mozilla/5.0 (Windows NT 10.0; Win64; x64) AppleWebKit/537.36 (KHTML, like Gecko) Chrome/137.0.0.0 Safari/537.36 Edg/137.0.0.0","WebKit","Edge","137.0.0.0","Windows","10.0","https://app.prolific.com/","en-GB,en;q=0.9,en-US;q=0.8,en-ZA;q=0.7","612aad0cb69fa8ecd2f6edd8","683db6dfa200031b80f2a654","68650754d1afc2a4926ec2a1","612aad0cb69fa8ecd2f6edd8","2025-07-02T10:59:59.367Z","","","","","","AttribQ","","","","","","","","","","","","","","","","","","","","","","","","","","","","","","","","","","","","","","50"
"7157","","<div style=""width:500px;"">
  <p>How much control did you have over the ball?</p>
  </div>","0","html-slider-response","84","2367626","0.0-10.0-2.8","136","1","2025-07-02 10:20:34","80fe4187154257d5fb01684ea91b68b9","41.150.250.58","Mozilla/5.0 (Windows NT 10.0; Win64; x64) AppleWebKit/537.36 (KHTML, like Gecko) Chrome/137.0.0.0 Safari/537.36 Edg/137.0.0.0","WebKit","Edge","137.0.0.0","Windows","10.0","https://app.prolific.com/","en-GB,en;q=0.9,en-US;q=0.8,en-ZA;q=0.7","612aad0cb69fa8ecd2f6edd8","683db6dfa200031b80f2a654","68650754d1afc2a4926ec2a1","612aad0cb69fa8ecd2f6edd8","2025-07-02T11:00:06.528Z","","","","","","ControlQ","","","","","","","","","","","","","","","","","","","","","","","","","","","","","","","","","","","","","","50"
"11062","","<div style=""width:500px;"">
  <p>How would you describe your current emotional state?</p>
  </div>","0","html-slider-response","85","2378694","0.0-10.0-3.8","136","1","2025-07-02 10:20:34","80fe4187154257d5fb01684ea91b68b9","41.150.250.58","Mozilla/5.0 (Windows NT 10.0; Win64; x64) AppleWebKit/537.36 (KHTML, like Gecko) Chrome/137.0.0.0 Safari/537.36 Edg/137.0.0.0","WebKit","Edge","137.0.0.0","Windows","10.0","https://app.prolific.com/","en-GB,en;q=0.9,en-US;q=0.8,en-ZA;q=0.7","612aad0cb69fa8ecd2f6edd8","683db6dfa200031b80f2a654","68650754d1afc2a4926ec2a1","612aad0cb69fa8ecd2f6edd8","2025-07-02T11:00:17.596Z","","","","","","StressQ","","","","","","","","","","","","","","","","","","","","","","","","","","","","","","","","","","","","","","50"
"5341","","<div style=""width:500px;"">
  <p>What best describes how you currently feel?</p>
  </div>","0","html-slider-response","86","2384039","0.0-10.0-4.8","136","1","2025-07-02 10:20:34","80fe4187154257d5fb01684ea91b68b9","41.150.250.58","Mozilla/5.0 (Windows NT 10.0; Win64; x64) AppleWebKit/537.36 (KHTML, like Gecko) Chrome/137.0.0.0 Safari/537.36 Edg/137.0.0.0","WebKit","Edge","137.0.0.0","Windows","10.0","https://app.prolific.com/","en-GB,en;q=0.9,en-US;q=0.8,en-ZA;q=0.7","612aad0cb69fa8ecd2f6edd8","683db6dfa200031b80f2a654","68650754d1afc2a4926ec2a1","612aad0cb69fa8ecd2f6edd8","2025-07-02T11:00:22.941Z","","","","","","MotivationQ","","","","","","","","","","","","","","","","","","","","","","","","","","","","","","","","","","","","","","50"
"","","","","ctl-task-cpt","87","2404433","0.0-10.0-0.9","136","1","2025-07-02 10:20:34","80fe4187154257d5fb01684ea91b68b9","41.150.250.58","Mozilla/5.0 (Windows NT 10.0; Win64; x64) AppleWebKit/537.36 (KHTML, like Gecko) Chrome/137.0.0.0 Safari/537.36 Edg/137.0.0.0","WebKit","Edge","137.0.0.0","Windows","10.0","https://app.prolific.com/","en-GB,en;q=0.9,en-US;q=0.8,en-ZA;q=0.7","612aad0cb69fa8ecd2f6edd8","683db6dfa200031b80f2a654","68650754d1afc2a4926ec2a1","612aad0cb69fa8ecd2f6edd8","2025-07-02T11:00:43.336Z","","","","","","","","","","","","","","","","win-only","3","g1:SW,g2:NE","0.5","10","0","2390094.3","1678.4","6690.2","17345.5","1","4","4","6","2","-4","-4","0","0","0","1650.1","3000","-860","[""up"",""right""]","{""num_key_presses"":0,""num_perfect"":0,""num_errors"":0,""num_randdir"":0,""num_randdir_good_moves"":0,""num_whilered"":0,""num_whileblue"":0,""num_blue"":0,""num_good_moves"":0}","[359.5714362008231,359.3214257104056,0.3,359.5714362008231,359.3214257104056,100.8,359.5714362008231,359.3214257104056,211.6,359.5714362008231,359.3214257104056,324.2,359.5714362008231,359.3214257104056,432.8,359.5714362008231,359.3214257104056,540.6,355.8214362008231,360.5714257104056,644.1,405.8214362008231,308.0714257104056,753,650.8214362008231,98.07142571040562,860.7,663.3214362008231,85.57142571040562,975.9,682.0714362008231,34.32142571040562,1089,682.0714362008231,33.07142571040562,1199.8,673.3214362008231,40.57142571040562,1307.1,669.5714362008231,43.07142571040562,1413.9,669.5714362008231,43.07142571040562,1515,669.5714362008231,43.07142571040562,1629.5,669.5714362008231,43.07142571040562,1732.5,669.5714362008231,43.07142571040562,1834.2,669.5714362008231,43.07142571040562,1943.9,669.5714362008231,43.07142571040562,2059.1,669.5714362008231,43.07142571040562,2159.4,669.5714362008231,43.07142571040562,2275.7,669.5714362008231,43.07142571040562,2384.2,669.5714362008231,43.07142571040562,2493.3,669.5714362008231,43.07142571040562,2594.6,669.5714362008231,43.07142571040562,2697,669.5714362008231,43.07142571040562,2803.2,669.5714362008231,43.07142571040562,2908.8,637.0714362008231,38.07142571040562,3011.7,510.8214362008231,-3.17857428959438,3128.5,510.8214362008231,-4.42857428959438,3232.6,510.8214362008231,-6.92857428959438,3341.6,495.8214362008231,-14.42857428959438,3446.9,360.8214362008231,-50.67857428959438,3559.1,190.8214362008231,-26.92857428959438,3670,123.3214362008231,6.82142571040562,3773.2,115.8214362008231,-1.9285742895943798,3883.8,90.8214362008231,-14.42857428959438,3984.3,65.8214362008231,-28.17857428959438,4091.1,65.8214362008231,-28.17857428959438,4191.4,65.8214362008231,-28.17857428959438,4299.7,65.8214362008231,-26.92857428959438,4405.8,43.3214362008231,-24.42857428959438,4521.9,32.0714362008231,-29.42857428959438,4636.9,32.0714362008231,-33.17857428959438,4737.5,37.0714362008231,-33.17857428959438,4838.6,50.8214362008231,-36.92857428959438,4948.8]","[]","",""
"9550","","<div style=""width:500px;"">
  <p>What determined the result of this run?</p>
  </div>","100","html-slider-response","88","2413989","0.0-10.0-1.9","136","1","2025-07-02 10:20:34","80fe4187154257d5fb01684ea91b68b9","41.150.250.58","Mozilla/5.0 (Windows NT 10.0; Win64; x64) AppleWebKit/537.36 (KHTML, like Gecko) Chrome/137.0.0.0 Safari/537.36 Edg/137.0.0.0","WebKit","Edge","137.0.0.0","Windows","10.0","https://app.prolific.com/","en-GB,en;q=0.9,en-US;q=0.8,en-ZA;q=0.7","612aad0cb69fa8ecd2f6edd8","683db6dfa200031b80f2a654","68650754d1afc2a4926ec2a1","612aad0cb69fa8ecd2f6edd8","2025-07-02T11:00:52.892Z","","","","","","AttribQ","","","","","","","","","","","","","","","","","","","","","","","","","","","","","","","","","","","","","","50"
"5932","","<div style=""width:500px;"">
  <p>How much control did you have over the ball?</p>
  </div>","100","html-slider-response","89","2419929","0.0-10.0-2.9","136","1","2025-07-02 10:20:34","80fe4187154257d5fb01684ea91b68b9","41.150.250.58","Mozilla/5.0 (Windows NT 10.0; Win64; x64) AppleWebKit/537.36 (KHTML, like Gecko) Chrome/137.0.0.0 Safari/537.36 Edg/137.0.0.0","WebKit","Edge","137.0.0.0","Windows","10.0","https://app.prolific.com/","en-GB,en;q=0.9,en-US;q=0.8,en-ZA;q=0.7","612aad0cb69fa8ecd2f6edd8","683db6dfa200031b80f2a654","68650754d1afc2a4926ec2a1","612aad0cb69fa8ecd2f6edd8","2025-07-02T11:00:58.832Z","","","","","","ControlQ","","","","","","","","","","","","","","","","","","","","","","","","","","","","","","","","","","","","","","50"
"9148","","<div style=""width:500px;"">
  <p>How would you describe your current emotional state?</p>
  </div>","0","html-slider-response","90","2429083","0.0-10.0-3.9","136","1","2025-07-02 10:20:34","80fe4187154257d5fb01684ea91b68b9","41.150.250.58","Mozilla/5.0 (Windows NT 10.0; Win64; x64) AppleWebKit/537.36 (KHTML, like Gecko) Chrome/137.0.0.0 Safari/537.36 Edg/137.0.0.0","WebKit","Edge","137.0.0.0","Windows","10.0","https://app.prolific.com/","en-GB,en;q=0.9,en-US;q=0.8,en-ZA;q=0.7","612aad0cb69fa8ecd2f6edd8","683db6dfa200031b80f2a654","68650754d1afc2a4926ec2a1","612aad0cb69fa8ecd2f6edd8","2025-07-02T11:01:07.985Z","","","","","","StressQ","","","","","","","","","","","","","","","","","","","","","","","","","","","","","","","","","","","","","","50"
"9173","","<div style=""width:500px;"">
  <p>What best describes how you currently feel?</p>
