"rt","response_timestamp","stimulus","response","trial_type","trial_index","time_elapsed","internal_node_id","run_id","condition","recorded_at","source_code_version","ip","user_agent","device","browser","browser_version","platform","platform_version","referer","accept_language","PROLIFIC_PID","STUDY_ID","SESSION_ID","prolific_id","realtime","view_history","question_order","consent","success","question_id","eventType","responses","item_order","radio_event_ids","radio_event_times","key_event_times","mouse_event_times","straightlining","zigzagging","honeypot","which_type","canvas_config","goals_layout","control_level","trial_number","tutorial_trial_number","trial_start_time","phase1_start_time","phase2_start_time","phase3_start_time","goal_1_value","goal_1_distance","goal_2_value","goal_2_distance","goal_selected","outcome","outcome_total","participant_final_score","participant_initial_score","participant_final_score_prop","goal_choice_rt","allocated_time","allocated_time_remaining","goal_direction","counts","mouse_movements","key_presses","correct","slider_start","sub_question"
"10859","1751453334011","<p style='font-size:40px;line-height:1.25'><strong>Welcome to the experiment!</strong></p><p style='font-size:1.1em;line-height:1.25'>Thank you for your interest in our experiment! Before you begin, it is important that we obtain your informed consent to participate in the study.</p><p style='font-size:1.1em;line-height:1.25'>On the next screen will be an <strong>information sheet</strong> for you to read. To participate in the study we need you to read this information sheet and the following consent form carefully. If you agree with all the statements, please click the <strong>I agree</strong> button.</p><p style='font-size:1.1em;line-height:1.25'>Press <strong>Next</strong> to read the information sheet.</p>","0","custom-html-button-response","0","10868","0.0-0.0","213","1","2025-07-02 10:47:49","80fe4187154257d5fb01684ea91b68b9","196.39.253.117","Mozilla/5.0 (Windows NT 10.0; Win64; x64) AppleWebKit/537.36 (KHTML, like Gecko) Chrome/137.0.0.0 Safari/537.36","WebKit","Chrome","137.0.0.0","Windows","10.0","https://app.prolific.com/","en-US,en;q=0.9","612dd1efd339db83def47366","683db6dfa200031b80f2a654","68650767da92bc5d2c90dfd4","612dd1efd339db83def47366","2025-07-02T10:48:54.018Z","","","","","","","","","","","","","","","","","","","","","","","","","","","","","","","","","","","","","","","","","","","","",""
"42349","","","","instructions","1","53227","0.0-1.0","213","1","2025-07-02 10:47:49","80fe4187154257d5fb01684ea91b68b9","196.39.253.117","Mozilla/5.0 (Windows NT 10.0; Win64; x64) AppleWebKit/537.36 (KHTML, like Gecko) Chrome/137.0.0.0 Safari/537.36","WebKit","Chrome","137.0.0.0","Windows","10.0","https://app.prolific.com/","en-US,en;q=0.9","612dd1efd339db83def47366","683db6dfa200031b80f2a654","68650767da92bc5d2c90dfd4","612dd1efd339db83def47366","","[{""page_index"":0,""viewing_time"":39334},{""page_index"":1,""viewing_time"":3014}]","","","","","","","","","","","","","","","","","","","","","","","","","","","","","","","","","","","","","","","","","","","",""
"9615","","","{""Q0"":"""",""Q1"":"""",""Q2"":"""",""Q3"":"""",""Q4"":"""",""Q5"":"""",""Q6"":""I agree""}","survey-multi-choice","2","62847","0.0-2.0","213","1","2025-07-02 10:47:49","80fe4187154257d5fb01684ea91b68b9","196.39.253.117","Mozilla/5.0 (Windows NT 10.0; Win64; x64) AppleWebKit/537.36 (KHTML, like Gecko) Chrome/137.0.0.0 Safari/537.36","WebKit","Chrome","137.0.0.0","Windows","10.0","https://app.prolific.com/","en-US,en;q=0.9","612dd1efd339db83def47366","683db6dfa200031b80f2a654","68650767da92bc5d2c90dfd4","612dd1efd339db83def47366","","","[0,1,2,3,4,5,6]","true","","","","","","","","","","","","","","","","","","","","","","","","","","","","","","","","","","","","","","","","","",""
"29073","","","","fullscreen","3","92957","0.0-4.0","213","1","2025-07-02 10:47:49","80fe4187154257d5fb01684ea91b68b9","196.39.253.117","Mozilla/5.0 (Windows NT 10.0; Win64; x64) AppleWebKit/537.36 (KHTML, like Gecko) Chrome/137.0.0.0 Safari/537.36","WebKit","Chrome","137.0.0.0","Windows","10.0","https://app.prolific.com/","en-US,en;q=0.9","612dd1efd339db83def47366","683db6dfa200031b80f2a654","68650767da92bc5d2c90dfd4","612dd1efd339db83def47366","","","","","true","","","","","","","","","","","","","","","","","","","","","","","","","","","","","","","","","","","","","","","","",""
"209493","1751453625602"," <p style='font-size:1.1em;line-height:1.25'>Thank you for completing the consent form and closing all other tabs.</p><p style='font-size:1.1em;line-height:1.25'>We will now invite you to fill in some demographic information and questionnaires, before starting the game.<br>This will take about 5 minutes.<br></p><p style='font-size:1.1em;line-height:1.25'>Press the <strong>Next</strong> button to continue.</p>","0","custom-html-button-response","4","302453","0.0-5.0","213","1","2025-07-02 10:47:49","80fe4187154257d5fb01684ea91b68b9","196.39.253.117","Mozilla/5.0 (Windows NT 10.0; Win64; x64) AppleWebKit/537.36 (KHTML, like Gecko) Chrome/137.0.0.0 Safari/537.36","WebKit","Chrome","137.0.0.0","Windows","10.0","https://app.prolific.com/","en-US,en;q=0.9","612dd1efd339db83def47366","683db6dfa200031b80f2a654","68650767da92bc5d2c90dfd4","612dd1efd339db83def47366","2025-07-02T10:53:45.604Z","","","","","","","","","","","","","","","","","","","","","","","","","","","","","","","","","","","","","","","","","","","","",""
"13542","","","{""age"":""26""}","survey-text","5","316302","0.0-6.0-0.0","213","1","2025-07-02 10:47:49","80fe4187154257d5fb01684ea91b68b9","196.39.253.117","Mozilla/5.0 (Windows NT 10.0; Win64; x64) AppleWebKit/537.36 (KHTML, like Gecko) Chrome/137.0.0.0 Safari/537.36","WebKit","Chrome","137.0.0.0","Windows","10.0","https://app.prolific.com/","en-US,en;q=0.9","612dd1efd339db83def47366","683db6dfa200031b80f2a654","68650767da92bc5d2c90dfd4","612dd1efd339db83def47366","","","","","","0","demographics","","","","","","","","","","","","","","","","","","","","","","","","","","","","","","","","","","","","","","",""
"6669","","","{""gender_identity"":""female/woman""}","survey-multi-choice","6","322974","0.0-6.0-1.0","213","1","2025-07-02 10:47:49","80fe4187154257d5fb01684ea91b68b9","196.39.253.117","Mozilla/5.0 (Windows NT 10.0; Win64; x64) AppleWebKit/537.36 (KHTML, like Gecko) Chrome/137.0.0.0 Safari/537.36","WebKit","Chrome","137.0.0.0","Windows","10.0","https://app.prolific.com/","en-US,en;q=0.9","612dd1efd339db83def47366","683db6dfa200031b80f2a654","68650767da92bc5d2c90dfd4","612dd1efd339db83def47366","","","[0]","","","1","demographics","","","","","","","","","","","","","","","","","","","","","","","","","","","","","","","","","","","","","","",""
"2923","","","{""assigned_sex"":""female""}","survey-multi-choice","7","325900","0.0-6.0-2.0","213","1","2025-07-02 10:47:49","80fe4187154257d5fb01684ea91b68b9","196.39.253.117","Mozilla/5.0 (Windows NT 10.0; Win64; x64) AppleWebKit/537.36 (KHTML, like Gecko) Chrome/137.0.0.0 Safari/537.36","WebKit","Chrome","137.0.0.0","Windows","10.0","https://app.prolific.com/","en-US,en;q=0.9","612dd1efd339db83def47366","683db6dfa200031b80f2a654","68650767da92bc5d2c90dfd4","612dd1efd339db83def47366","","","[0]","","","2","demographics","","","","","","","","","","","","","","","","","","","","","","","","","","","","","","","","","","","","","","",""
"18633","","","{""menstrual_cycle"":""Yes""}","survey-multi-choice","8","344535","0.0-6.0-3.0","213","1","2025-07-02 10:47:49","80fe4187154257d5fb01684ea91b68b9","196.39.253.117","Mozilla/5.0 (Windows NT 10.0; Win64; x64) AppleWebKit/537.36 (KHTML, like Gecko) Chrome/137.0.0.0 Safari/537.36","WebKit","Chrome","137.0.0.0","Windows","10.0","https://app.prolific.com/","en-US,en;q=0.9","612dd1efd339db83def47366","683db6dfa200031b80f2a654","68650767da92bc5d2c90dfd4","612dd1efd339db83def47366","","","[0]","","","4","demographics","","","","","","","","","","","","","","","","","","","","","","","","","","","","","","","","","","","","","","",""
"22996","","","{""education"":""Bachelor's Degree (e.g., BA)""}","survey-multi-choice","9","367537","0.0-6.0-4.0","213","1","2025-07-02 10:47:49","80fe4187154257d5fb01684ea91b68b9","196.39.253.117","Mozilla/5.0 (Windows NT 10.0; Win64; x64) AppleWebKit/537.36 (KHTML, like Gecko) Chrome/137.0.0.0 Safari/537.36","WebKit","Chrome","137.0.0.0","Windows","10.0","https://app.prolific.com/","en-US,en;q=0.9","612dd1efd339db83def47366","683db6dfa200031b80f2a654","68650767da92bc5d2c90dfd4","612dd1efd339db83def47366","","","[0]","","","5","demographics","","","","","","","","","","","","","","","","","","","","","","","","","","","","","","","","","","","","","","",""
"11414","","","{""education"":""Vocational Qualifications (e.g. City & Guilds)""}","survey-multi-choice","10","378955","0.0-6.0-5.0","213","1","2025-07-02 10:47:49","80fe4187154257d5fb01684ea91b68b9","196.39.253.117","Mozilla/5.0 (Windows NT 10.0; Win64; x64) AppleWebKit/537.36 (KHTML, like Gecko) Chrome/137.0.0.0 Safari/537.36","WebKit","Chrome","137.0.0.0","Windows","10.0","https://app.prolific.com/","en-US,en;q=0.9","612dd1efd339db83def47366","683db6dfa200031b80f2a654","68650767da92bc5d2c90dfd4","612dd1efd339db83def47366","2025-07-02T10:55:02.105Z","","[0]","","","6","demographics","","","","","","","","","","","","","","","","","","","","","","","","","","","","","","","","","","","","","","",""
"23818","","","{""mental_health_condition"":""No"",""mental_health_treatment"":""No"",""psychiatric_medication"":""No""}","survey-text","11","402804","0.0-7.0-0.0","213","1","2025-07-02 10:47:49","80fe4187154257d5fb01684ea91b68b9","196.39.253.117","Mozilla/5.0 (Windows NT 10.0; Win64; x64) AppleWebKit/537.36 (KHTML, like Gecko) Chrome/137.0.0.0 Safari/537.36","WebKit","Chrome","137.0.0.0","Windows","10.0","https://app.prolific.com/","en-US,en;q=0.9","612dd1efd339db83def47366","683db6dfa200031b80f2a654","68650767da92bc5d2c90dfd4","612dd1efd339db83def47366","2025-07-02T10:55:25.954Z","","","","","1","mental_health","","","","","","","","","","","","","","","","","","","","","","","","","","","","","","","","","","","","","","",""
"17874","","","{""depression_history"":[""Yes""]}","survey-multi-select","12","420807","0.0-7.0-1.0","213","1","2025-07-02 10:47:49","80fe4187154257d5fb01684ea91b68b9","196.39.253.117","Mozilla/5.0 (Windows NT 10.0; Win64; x64) AppleWebKit/537.36 (KHTML, like Gecko) Chrome/137.0.0.0 Safari/537.36","WebKit","Chrome","137.0.0.0","Windows","10.0","https://app.prolific.com/","en-US,en;q=0.9","612dd1efd339db83def47366","683db6dfa200031b80f2a654","68650767da92bc5d2c90dfd4","612dd1efd339db83def47366","","","[0]","","","","mental_health","","","","","","","","","","","","","","","","","","","","","","","","","","","","","","","","","","","","","","",""
"16116","","","{""depression_episodes"":""3-5"",""depression_recent"":""Within the past year""}","survey-multi-choice","13","436926","0.0-7.0-2.0-0.0","213","1","2025-07-02 10:47:49","80fe4187154257d5fb01684ea91b68b9","196.39.253.117","Mozilla/5.0 (Windows NT 10.0; Win64; x64) AppleWebKit/537.36 (KHTML, like Gecko) Chrome/137.0.0.0 Safari/537.36","WebKit","Chrome","137.0.0.0","Windows","10.0","https://app.prolific.com/","en-US,en;q=0.9","612dd1efd339db83def47366","683db6dfa200031b80f2a654","68650767da92bc5d2c90dfd4","612dd1efd339db83def47366","2025-07-02T10:56:00.077Z","","[0,1]","","","3","mental_health","","","","","","","","","","","","","","","","","","","","","","","","","","","","","","","","","","","","","","",""
"97451.8999999999","","","","survey-template","14","534676","0.0-7.0-3.0","213","1","2025-07-02 10:47:49","80fe4187154257d5fb01684ea91b68b9","196.39.253.117","Mozilla/5.0 (Windows NT 10.0; Win64; x64) AppleWebKit/537.36 (KHTML, like Gecko) Chrome/137.0.0.0 Safari/537.36","WebKit","Chrome","137.0.0.0","Windows","10.0","https://app.prolific.com/","en-US,en;q=0.9","612dd1efd339db83def47366","683db6dfa200031b80f2a654","68650767da92bc5d2c90dfd4","612dd1efd339db83def47366","2025-07-02T10:57:37.826Z","","","","","","ius","{""Q01"":""2"",""Q02"":""3"",""Q03"":""0"",""Q04"":""3"",""Q05"":""1"",""Q06"":""0"",""Q07"":""0"",""Q08"":""0"",""Q09"":""0"",""Q10"":""1"",""Q11"":""0"",""Q12"":""3"",""Q13"":""1""}","[0,1,2,3,4,5,6,7,8,9,10,11,12]","[""Q01"",""Q02"",""Q03"",""Q04"",""Q05"",""Q06"",""Q05"",""Q05"",""Q07"",""Q08"",""Q09"",""Q10"",""Q11"",""Q12"",""Q13""]","[12130.200000000186,16926.899999999907,22674.700000000186,30334.899999999907,36615.799999999814,45231.299999999814,52401,53745.10000000009,61600.299999999814,63642,69430.8999999999,80967.3999999999,85865.70000000019,89317.29999999981,96184.6000000001]","[]","[12130.200000000186,16926.899999999907,22674.700000000186,30334.899999999907,36615.799999999814,45231.299999999814,52401,53745.10000000009,61600.299999999814,63642,69430.8999999999,80967.3999999999,85865.70000000019,89317.29999999981,96184.6000000001,97445.8999999999]","0.46153846153846156","0.3333333333333333","0","","","","","","","","","","","","","","","","","","","","","","","","","","","","","",""
"2670","1751453860498","<p style='font-size:1.1em;line-height:1.25'>In the following, we will ask you a few questions relating to your experiences over the past month.<br></p><p style='font-size:1.1em;line-height:1.25'>Press the <strong>Next</strong> button to continue.</p>","0","custom-html-button-response","15","537349","0.0-7.0-4.0","213","1","2025-07-02 10:47:49","80fe4187154257d5fb01684ea91b68b9","196.39.253.117","Mozilla/5.0 (Windows NT 10.0; Win64; x64) AppleWebKit/537.36 (KHTML, like Gecko) Chrome/137.0.0.0 Safari/537.36","WebKit","Chrome","137.0.0.0","Windows","10.0","https://app.prolific.com/","en-US,en;q=0.9","612dd1efd339db83def47366","683db6dfa200031b80f2a654","68650767da92bc5d2c90dfd4","612dd1efd339db83def47366","2025-07-02T10:57:40.500Z","","","","","","","","","","","","","","","","","","","","","","","","","","","","","","","","","","","","","","","","","","","","",""
"68176.1000000001","","","","survey-template","16","605531","0.0-7.0-5.0","213","1","2025-07-02 10:47:49","80fe4187154257d5fb01684ea91b68b9","196.39.253.117","Mozilla/5.0 (Windows NT 10.0; Win64; x64) AppleWebKit/537.36 (KHTML, like Gecko) Chrome/137.0.0.0 Safari/537.36","WebKit","Chrome","137.0.0.0","Windows","10.0","https://app.prolific.com/","en-US,en;q=0.9","612dd1efd339db83def47366","683db6dfa200031b80f2a654","68650767da92bc5d2c90dfd4","612dd1efd339db83def47366","2025-07-02T10:58:48.681Z","","","","","","pss","{""Q01"":""4"",""Q02"":""4"",""Q03"":""2"",""Q04"":""0"",""Q05"":""3"",""Q06"":""0"",""Q07"":""1"",""Q08"":""3"",""Q09"":""4"",""Q10"":""4""}","[0,1,2,3,4,5,6,7,8,9]","[""Q01"",""Q02"",""Q03"",""Q04"",""Q05"",""Q06"",""Q07"",""Q08"",""Q09"",""Q10""]","[17953.399999999907,19541.5,23454.100000000093,27862.19999999972,32524.100000000093,42252.39999999991,49733.10000000009,57158.19999999972,65448.69999999972,66740.19999999972]","[]","[0.10000000009313226,13879.100000000093,17953.399999999907,19541.5,23454.100000000093,27862.19999999972,32524.100000000093,42252.39999999991,49733.10000000009,57158.19999999972,61478.10000000009,65448.69999999972,66740.19999999972,68173.79999999981]","0.5","0.1111111111111111","0","","","","","","","","","","","","","","","","","","","","","","","","","","","","","",""
"2199","1751453930883","<p style='font-size:1.1em;line-height:1.25'>Thank you for your answers! Now we will ask you a few more questions relating to your feelings in the last 24 hours.<br></p><p style='font-size:1.1em;line-height:1.25'>Press the <strong>Next</strong> button to continue.</p>","0","custom-html-button-response","17","607734","0.0-7.0-6.0","213","1","2025-07-02 10:47:49","80fe4187154257d5fb01684ea91b68b9","196.39.253.117","Mozilla/5.0 (Windows NT 10.0; Win64; x64) AppleWebKit/537.36 (KHTML, like Gecko) Chrome/137.0.0.0 Safari/537.36","WebKit","Chrome","137.0.0.0","Windows","10.0","https://app.prolific.com/","en-US,en;q=0.9","612dd1efd339db83def47366","683db6dfa200031b80f2a654","68650767da92bc5d2c90dfd4","612dd1efd339db83def47366","2025-07-02T10:58:50.884Z","","","","","","","","","","","","","","","","","","","","","","","","","","","","","","","","","","","","","","","","","","","","",""
"79928.69999999972","","","","survey-template","18","687673","0.0-7.0-7.0","213","1","2025-07-02 10:47:49","80fe4187154257d5fb01684ea91b68b9","196.39.253.117","Mozilla/5.0 (Windows NT 10.0; Win64; x64) AppleWebKit/537.36 (KHTML, like Gecko) Chrome/137.0.0.0 Safari/537.36","WebKit","Chrome","137.0.0.0","Windows","10.0","https://app.prolific.com/","en-US,en;q=0.9","612dd1efd339db83def47366","683db6dfa200031b80f2a654","68650767da92bc5d2c90dfd4","612dd1efd339db83def47366","2025-07-02T11:00:10.823Z","","","","","","drsp","{""Q01"":""0"",""Q02"":""3"",""Q03"":""0"",""Q04"":""5"",""Q05"":""0"",""Q06"":""0"",""Q07"":""0"",""Q08"":""0"",""Q09"":""3"",""Q10"":""0"",""Q11"":""0"",""Q12"":""4"",""Q13"":""4"",""Q14"":""0"",""Q15"":""0"",""Q16"":""5"",""Q17"":""1"",""Q18"":""0"",""Q19"":""0"",""Q20"":""0"",""Q21"":""1""}","[0,1,2,3,4,5,6,7,8,9,10,11,12,13,14,15,16,17,18,19,20]","[""Q01"",""Q02"",""Q03"",""Q04"",""Q05"",""Q06"",""Q07"",""Q08"",""Q09"",""Q10"",""Q09"",""Q11"",""Q12"",""Q13"",""Q14"",""Q15"",""Q16"",""Q17"",""Q18"",""Q19"",""Q20"",""Q21"",""Q21""]","[5192.299999999814,9907.5,12031.299999999814,16650,18187,19642.19999999972,24467.100000000093,25737.799999999814,31329.899999999907,32859.89999999991,34827.89999999991,37062.10000000009,52748.39999999991,55696.10000000009,57730.60000000009,59289.60000000009,62676.19999999972,63945.19999999972,68252,71993.6000000001,73983.1000000001,77243.69999999972,78417.29999999981]","[]","[0.10000000009313226,5192.299999999814,9907.5,12031.299999999814,16650,18187,19642.19999999972,24467.100000000093,25737.799999999814,31329.899999999907,32859.89999999991,34827.89999999991,37062.10000000009,52748.39999999991,55696.10000000009,57730.60000000009,59289.60000000009,61331.60000000009,62676.19999999972,63945.19999999972,68252,71993.6000000001,73983.1000000001,75662.5,77243.69999999972,78417.29999999981,79920.79999999981]","0.6190476190476191","0.25","0","","","","","","","","","","","","","","","","","","","","","","","","","","","","","",""
"15132.799999999814","","","","survey-template","19","702810","0.0-7.0-8.0","213","1","2025-07-02 10:47:49","80fe4187154257d5fb01684ea91b68b9","196.39.253.117","Mozilla/5.0 (Windows NT 10.0; Win64; x64) AppleWebKit/537.36 (KHTML, like Gecko) Chrome/137.0.0.0 Safari/537.36","WebKit","Chrome","137.0.0.0","Windows","10.0","https://app.prolific.com/","en-US,en;q=0.9","612dd1efd339db83def47366","683db6dfa200031b80f2a654","68650767da92bc5d2c90dfd4","612dd1efd339db83def47366","2025-07-02T11:00:25.960Z","","","","","","stress","{""Q01"":""4"",""Q02"":""1"",""Q03"":""0""}","[0,1,2]","[""Q01"",""Q02"",""Q03""]","[6876.199999999721,10640.299999999814,14003.599999999627]","[]","[6876.199999999721,10640.299999999814,14003.599999999627,15131.599999999627]","0.6666666666666666","0","0","","","","","","","","","","","","","","","","","","","","","","","","","","","","","",""
"110656","","","","instructions","20","813468","0.0-8.0-0.0","213","1","2025-07-02 10:47:49","80fe4187154257d5fb01684ea91b68b9","196.39.253.117","Mozilla/5.0 (Windows NT 10.0; Win64; x64) AppleWebKit/537.36 (KHTML, like Gecko) Chrome/137.0.0.0 Safari/537.36","WebKit","Chrome","137.0.0.0","Windows","10.0","https://app.prolific.com/","en-US,en;q=0.9","612dd1efd339db83def47366","683db6dfa200031b80f2a654","68650767da92bc5d2c90dfd4","612dd1efd339db83def47366","","[{""page_index"":0,""viewing_time"":40411},{""page_index"":1,""viewing_time"":31833},{""page_index"":2,""viewing_time"":18379},{""page_index"":3,""viewing_time"":20032}]","","","","","","","","","","","","","","","","","","","","","","","","","","","","","","","","","","","","","","","","","","","",""
"","","","","ctl-task-cpt","21","862273","0.0-8.0-1.0","213","1","2025-07-02 10:47:49","80fe4187154257d5fb01684ea91b68b9","196.39.253.117","Mozilla/5.0 (Windows NT 10.0; Win64; x64) AppleWebKit/537.36 (KHTML, like Gecko) Chrome/137.0.0.0 Safari/537.36","WebKit","Chrome","137.0.0.0","Windows","10.0","https://app.prolific.com/","en-US,en;q=0.9","612dd1efd339db83def47366","683db6dfa200031b80f2a654","68650767da92bc5d2c90dfd4","612dd1efd339db83def47366","","","","","","","","","","","","","","","","","win-only","1","g1:NE,g2:SW","1","0","1","859523","6596.6","10601.6","45797.5","2","4","4","6","2","-4","-11","0","0","0","2523.2","4000","-2965","[""down"",""left""]","{""num_key_presses"":27,""num_perfect"":7,""num_errors"":7,""num_randdir"":0,""num_randdir_good_moves"":0,""num_whilered"":13,""num_whileblue"":0,""num_blue"":1,""num_good_moves"":6}","[294.22232142857143,293.12857142857143,1.2,294.22232142857143,293.12857142857143,100.3,294.22232142857143,293.12857142857143,204.8,294.22232142857143,293.12857142857143,315.1,294.22232142857143,293.12857142857143,415.2,294.22232142857143,293.12857142857143,517.5,294.22232142857143,293.12857142857143,619.3,294.22232142857143,293.12857142857143,719.5,294.22232142857143,293.12857142857143,819.9,294.22232142857143,293.12857142857143,920.8,294.22232142857143,293.12857142857143,1021,294.22232142857143,293.12857142857143,1125.6,294.22232142857143,293.12857142857143,1232.4,294.22232142857143,293.12857142857143,1334.3,294.22232142857143,293.12857142857143,1435.2,294.22232142857143,293.12857142857143,1540.5,294.22232142857143,293.12857142857143,1649.2,294.22232142857143,293.12857142857143,1754.8,294.22232142857143,293.12857142857143,1856.3,166.22232142857143,448.12857142857143,1960,95.22232142857143,551.1285714285714,2061.4,78.22232142857143,558.1285714285714,2165,67.22232142857143,559.1285714285714,2271.2,67.22232142857143,559.1285714285714,2371.3,67.22232142857143,559.1285714285714,2530.5,67.22232142857143,559.1285714285714,2702.6,67.22232142857143,559.1285714285714,2804.6,67.22232142857143,559.1285714285714,2904.9,67.22232142857143,559.1285714285714,3006.6,67.22232142857143,559.1285714285714,3109.2,67.22232142857143,559.1285714285714,3209.3,67.22232142857143,559.1285714285714,3310.3,67.22232142857143,559.1285714285714,3410.7,67.22232142857143,559.1285714285714,3514.8,67.22232142857143,559.1285714285714,3616.9,67.22232142857143,559.1285714285714,3720,67.22232142857143,559.1285714285714,3824.9,67.22232142857143,559.1285714285714,3929.5]","[2082.8,2082.8,1000,0.1,1082.7,""smooth"",""right"",""right"",""bad_move"",2297.5,213.5,2059.9,2084.1,-1846.5,""error"",""-"",""-"",""no_move"",2395.7,97.3,2059.9,2084.1,-1748.2,""while_red"",""-"",""-"",""no_move"",2550.6,252.1,2059.9,2084.1,-1593.4,""while_red"",""-"",""-"",""no_move"",3227.5,929,2059.9,2084.1,-916.5,""while_red"",""-"",""-"",""no_move"",3712,1413.6,2434.7,3300.4,-2023,""error"",""-"",""-"",""no_move"",3953.5,241.4,2434.7,3300.4,-1781.6,""while_red"",""-"",""-"",""no_move"",4131.9,419.8,2434.7,3300.4,-1603.2,""while_red"",""-"",""-"",""no_move"",4305.6,593.5,2434.7,3300.4,-1429.5,""while_red"",""-"",""-"",""no_move"",4518.2,806.1,2434.7,3300.4,-1216.8,""while_red"",""-"",""-"",""no_move"",5875.1,2163,2295.8,4714.9,-1135.6,""error"",""-"",""-"",""no_move"",12552.8,6677.5,2128.7,9775.6,648.5,""smooth"",""down"",""down"",""good_move"",12768,214.8,2800.3,12553.2,-2585.5,""error"",""-"",""-"",""no_move"",12908.4,140.4,2800.3,12553.2,-2445.1,""while_red"",""-"",""-"",""no_move"",13057.4,289.4,2800.3,12553.2,-2296.1,""while_red"",""-"",""-"",""no_move"",13159,391,2800.3,12553.2,-2194.5,""while_red"",""-"",""-"",""no_move"",13333.2,565.2,2800.3,12553.2,-2020.3,""while_red"",""-"",""-"",""no_move"",13494.3,726.4,2800.3,12553.2,-1859.1,""while_red"",""-"",""-"",""no_move"",13659.1,891.1,2800.3,12553.2,-1694.4,""while_red"",""-"",""-"",""no_move"",13837.6,1069.6,2437.4,13770,-2369.8,""error"",""-"",""-"",""no_move"",18326.6,4488.7,2754.3,14839.2,733.1,""smooth"",""down"",""down"",""good_move"",18676.7,350,2490.4,18326.7,-2140.4,""error"",""-"",""-"",""no_move"",23136.5,4459.8,2879.6,19680.8,576.1,""smooth"",""down"",""down"",""good_move"",26524,3387.4,2885.9,23136.6,501.5,""smooth"",""left"",""left"",""good_move"",27044.6,519.8,2874.8,26524.8,-2355,""error"",""-"",""-"",""no_move"",30672.5,3627.8,2262.3,28050,360.2,""smooth"",""left"",""left"",""good_move"",33170.5,2498,2001.6,30672.7,496.3,""smooth"",""left"",""left"",""good_move""]","","",""
"18703","","","","instructions","22","880977","0.0-8.0-2.0","213","1","2025-07-02 10:47:49","80fe4187154257d5fb01684ea91b68b9","196.39.253.117","Mozilla/5.0 (Windows NT 10.0; Win64; x64) AppleWebKit/537.36 (KHTML, like Gecko) Chrome/137.0.0.0 Safari/537.36","WebKit","Chrome","137.0.0.0","Windows","10.0","https://app.prolific.com/","en-US,en;q=0.9","612dd1efd339db83def47366","683db6dfa200031b80f2a654","68650767da92bc5d2c90dfd4","612dd1efd339db83def47366","","[{""page_index"":0,""viewing_time"":18702}]","","","","","","","","","","","","","","","","","","","","","","","","","","","","","","","","","","","","","","","","","","","",""
"","","","","ctl-task-cpt","23","927267","0.0-8.0-3.0","213","1","2025-07-02 10:47:49","80fe4187154257d5fb01684ea91b68b9","196.39.253.117","Mozilla/5.0 (Windows NT 10.0; Win64; x64) AppleWebKit/537.36 (KHTML, like Gecko) Chrome/137.0.0.0 Safari/537.36","WebKit","Chrome","137.0.0.0","Windows","10.0","https://app.prolific.com/","en-US,en;q=0.9","612dd1efd339db83def47366","683db6dfa200031b80f2a654","68650767da92bc5d2c90dfd4","612dd1efd339db83def47366","","","","","","","","","","","","","","","","","win-only","1","g1:NE,g2:SW","0.35","0","3","927030.6","3992.8","7999.6","43281.6","2","4","8","6","1","-2","-4","0","0","0","2318.9","4000","-2935","[""up"",""right""]","{""num_key_presses"":10,""num_perfect"":4,""num_errors"":2,""num_randdir"":4,""num_randdir_good_moves"":1,""num_whilered"":0,""num_whileblue"":0,""num_blue"":2,""num_good_moves"":5}","[291.22232142857143,291.12857142857143,1.3,291.22232142857143,291.12857142857143,105.3,291.22232142857143,291.12857142857143,210.7,291.22232142857143,291.12857142857143,313.4,291.22232142857143,291.12857142857143,414.4,291.22232142857143,291.12857142857143,514.9,291.22232142857143,291.12857142857143,618.8,291.22232142857143,291.12857142857143,719.1,291.22232142857143,291.12857142857143,827.4,291.22232142857143,291.12857142857143,928.4,291.22232142857143,291.12857142857143,1029.7,291.22232142857143,291.12857142857143,1130,291.22232142857143,291.12857142857143,1233.3,386.22232142857143,200.12857142857143,1336.7,626.2223214285714,-27.871428571428574,1448.7,626.2223214285714,-27.871428571428574,1549.3,626.2223214285714,-27.871428571428574,1653.7,622.2223214285714,-21.871428571428574,1756.5,598.2223214285714,1.1285714285714263,1856.7,579.2223214285714,17.128571428571426,1968.8,570.2223214285714,22.128571428571426,2069.2,570.2223214285714,22.128571428571426,2171.8,570.2223214285714,22.128571428571426,2276.8,570.2223214285714,22.128571428571426,2379.6,570.2223214285714,22.128571428571426,2483.6,570.2223214285714,22.128571428571426,2584.8,570.2223214285714,22.128571428571426,2693.4,570.2223214285714,22.128571428571426,2794.1,570.2223214285714,22.128571428571426,2897.9,570.2223214285714,22.128571428571426,2999.4,570.2223214285714,22.128571428571426,3104,570.2223214285714,22.128571428571426,3212.8,570.2223214285714,22.128571428571426,3313.4,570.2223214285714,22.128571428571426,3420.2,570.2223214285714,22.128571428571426,3527.2,570.2223214285714,22.128571428571426,3629.1,570.2223214285714,22.128571428571426,3733.4,570.2223214285714,22.128571428571426,3833.7,570.2223214285714,22.128571428571426,3942.6]","[1439.3,1439.3,1000,0,439.3,""oops"",""down"",""left"",""bad_move"",2445.9,1005.2,2874.1,1440.7,-1868.9,""error"",""-"",""-"",""no_move"",10633.3,8186.5,2953.1,7276.3,403.9,""oops"",""right"",""left"",""bad_move"",13329.7,2696.1,1898.4,10633.6,797.7,""smooth"",""right"",""right"",""good_move"",13733.1,402.9,2291.6,13330.2,-1888.7,""error"",""-"",""-"",""no_move"",17361.5,3628.5,2123,14736,502.6,""smooth"",""right"",""right"",""good_move"",20232.9,2871.2,2378.2,17361.7,493,""oops"",""right"",""up"",""good_move"",22817.4,2584.2,1571.5,20233.2,1012.7,""smooth"",""right"",""right"",""good_move"",25615.1,2797.6,2343.3,22817.5,454.3,""smooth"",""right"",""right"",""good_move"",32299.7,6684.7,2559.3,29321.8,418.8,""oops"",""up"",""left"",""bad_move""]","","",""
"34749","","","","instructions","24","962018","0.0-8.0-4.0","213","1","2025-07-02 10:47:49","80fe4187154257d5fb01684ea91b68b9","196.39.253.117","Mozilla/5.0 (Windows NT 10.0; Win64; x64) AppleWebKit/537.36 (KHTML, like Gecko) Chrome/137.0.0.0 Safari/537.36","WebKit","Chrome","137.0.0.0","Windows","10.0","https://app.prolific.com/","en-US,en;q=0.9","612dd1efd339db83def47366","683db6dfa200031b80f2a654","68650767da92bc5d2c90dfd4","612dd1efd339db83def47366","","[{""page_index"":0,""viewing_time"":9883},{""page_index"":1,""viewing_time"":24865}]","","","","","","","","","","","","","","","","","","","","","","","","","","","","","","","","","","","","","","","","","","","",""
"17940","","","{""green_ball"":[""Ball always moves in the direction I press""]}","survey-multi-select","25","980388","0.0-8.0-5.0-0.0","213","1","2025-07-02 10:47:49","80fe4187154257d5fb01684ea91b68b9","196.39.253.117","Mozilla/5.0 (Windows NT 10.0; Win64; x64) AppleWebKit/537.36 (KHTML, like Gecko) Chrome/137.0.0.0 Safari/537.36","WebKit","Chrome","137.0.0.0","Windows","10.0","https://app.prolific.com/","en-US,en;q=0.9","612dd1efd339db83def47366","683db6dfa200031b80f2a654","68650767da92bc5d2c90dfd4","612dd1efd339db83def47366","","","[0]","","","","quiz","","","","","","","","","","","","","","","","","","","","","","","","","","","","","","","","","","","","","false","",""
"5536","","<p align='center'><b>INCORRECT.</b> Usually the green ball moves in the indicated direction, but sometimes it shakes and moves randomly. </p>","0","html-button-response","26","986329","0.0-8.0-5.0-1.0","213","1","2025-07-02 10:47:49","80fe4187154257d5fb01684ea91b68b9","196.39.253.117","Mozilla/5.0 (Windows NT 10.0; Win64; x64) AppleWebKit/537.36 (KHTML, like Gecko) Chrome/137.0.0.0 Safari/537.36","WebKit","Chrome","137.0.0.0","Windows","10.0","https://app.prolific.com/","en-US,en;q=0.9","612dd1efd339db83def47366","683db6dfa200031b80f2a654","68650767da92bc5d2c90dfd4","612dd1efd339db83def47366","","","","","","","","","","","","","","","","","","","","","","","","","","","","","","","","","","","","","","","","","","","","","",""
"2810","","","{""green_ball"":[""Ball sometimes shakes and moves in a random direction""]}","survey-multi-select","27","989144","0.0-8.0-5.1-0.1","213","1","2025-07-02 10:47:49","80fe4187154257d5fb01684ea91b68b9","196.39.253.117","Mozilla/5.0 (Windows NT 10.0; Win64; x64) AppleWebKit/537.36 (KHTML, like Gecko) Chrome/137.0.0.0 Safari/537.36","WebKit","Chrome","137.0.0.0","Windows","10.0","https://app.prolific.com/","en-US,en;q=0.9","612dd1efd339db83def47366","683db6dfa200031b80f2a654","68650767da92bc5d2c90dfd4","612dd1efd339db83def47366","","","[0]","","","","quiz","","","","","","","","","","","","","","","","","","","","","","","","","","","","","","","","","","","","","true","",""
"3475","","<p align='center'><b>CORRECT!</b> Indeed, the green ball may sometimes shake and move in a random direction.</p>","0","html-button-response","28","992622","0.0-8.0-5.1-1.1","213","1","2025-07-02 10:47:49","80fe4187154257d5fb01684ea91b68b9","196.39.253.117","Mozilla/5.0 (Windows NT 10.0; Win64; x64) AppleWebKit/537.36 (KHTML, like Gecko) Chrome/137.0.0.0 Safari/537.36","WebKit","Chrome","137.0.0.0","Windows","10.0","https://app.prolific.com/","en-US,en;q=0.9","612dd1efd339db83def47366","683db6dfa200031b80f2a654","68650767da92bc5d2c90dfd4","612dd1efd339db83def47366","","","","","","","","","","","","","","","","","","","","","","","","","","","","","","","","","","","","","","","","","","","","","",""
"63222","","","{""yellow_ball"":[""Ball doesn‘t move and I get -1 penalty point""]}","survey-multi-select","29","1055849","0.0-8.0-6.0-0.0","213","1","2025-07-02 10:47:49","80fe4187154257d5fb01684ea91b68b9","196.39.253.117","Mozilla/5.0 (Windows NT 10.0; Win64; x64) AppleWebKit/537.36 (KHTML, like Gecko) Chrome/137.0.0.0 Safari/537.36","WebKit","Chrome","137.0.0.0","Windows","10.0","https://app.prolific.com/","en-US,en;q=0.9","612dd1efd339db83def47366","683db6dfa200031b80f2a654","68650767da92bc5d2c90dfd4","612dd1efd339db83def47366","","","[0]","","","","quiz","","","","","","","","","","","","","","","","","","","","","","","","","","","","","","","","","","","","","true","",""
"3439","","<p align='center'><b>CORRECT!</b> Indeed, the yellow ball never moves and you receive a penalty.</p>","0","html-button-response","30","1059292","0.0-8.0-6.0-1.0","213","1","2025-07-02 10:47:49","80fe4187154257d5fb01684ea91b68b9","196.39.253.117","Mozilla/5.0 (Windows NT 10.0; Win64; x64) AppleWebKit/537.36 (KHTML, like Gecko) Chrome/137.0.0.0 Safari/537.36","WebKit","Chrome","137.0.0.0","Windows","10.0","https://app.prolific.com/","en-US,en;q=0.9","612dd1efd339db83def47366","683db6dfa200031b80f2a654","68650767da92bc5d2c90dfd4","612dd1efd339db83def47366","","","","","","","","","","","","","","","","","","","","","","","","","","","","","","","","","","","","","","","","","","","","","",""
"10930","","","{""blue_ball"":[""Ball always shakes and moves in a random direction""]}","survey-multi-select","31","1070228","0.0-8.0-7.0-0.0","213","1","2025-07-02 10:47:49","80fe4187154257d5fb01684ea91b68b9","196.39.253.117","Mozilla/5.0 (Windows NT 10.0; Win64; x64) AppleWebKit/537.36 (KHTML, like Gecko) Chrome/137.0.0.0 Safari/537.36","WebKit","Chrome","137.0.0.0","Windows","10.0","https://app.prolific.com/","en-US,en;q=0.9","612dd1efd339db83def47366","683db6dfa200031b80f2a654","68650767da92bc5d2c90dfd4","612dd1efd339db83def47366","","","[0]","","","","quiz","","","","","","","","","","","","","","","","","","","","","","","","","","","","","","","","","","","","","true","",""
"2379","","<p align='center'><b>CORRECT!</b> Indeed, the blue ball always shakes and moves in a random direction. Also there is a penalty of -1 point.</p>","0","html-button-response","32","1072611","0.0-8.0-7.0-1.0","213","1","2025-07-02 10:47:49","80fe4187154257d5fb01684ea91b68b9","196.39.253.117","Mozilla/5.0 (Windows NT 10.0; Win64; x64) AppleWebKit/537.36 (KHTML, like Gecko) Chrome/137.0.0.0 Safari/537.36","WebKit","Chrome","137.0.0.0","Windows","10.0","https://app.prolific.com/","en-US,en;q=0.9","612dd1efd339db83def47366","683db6dfa200031b80f2a654","68650767da92bc5d2c90dfd4","612dd1efd339db83def47366","","","","","","","","","","","","","","","","","","","","","","","","","","","","","","","","","","","","","","","","","","","","","",""
"11975","","","{""bonus"":[""When I reach 50% of points""]}","survey-multi-select","33","1084592","0.0-8.0-8.0-0.0","213","1","2025-07-02 10:47:49","80fe4187154257d5fb01684ea91b68b9","196.39.253.117","Mozilla/5.0 (Windows NT 10.0; Win64; x64) AppleWebKit/537.36 (KHTML, like Gecko) Chrome/137.0.0.0 Safari/537.36","WebKit","Chrome","137.0.0.0","Windows","10.0","https://app.prolific.com/","en-US,en;q=0.9","612dd1efd339db83def47366","683db6dfa200031b80f2a654","68650767da92bc5d2c90dfd4","612dd1efd339db83def47366","","","[0]","","","","quiz","","","","","","","","","","","","","","","","","","","","","","","","","","","","","","","","","","","","","true","",""
"1509","","<p align='center'><b>CORRECT!</b> Indeed, you receive 2 pounds extra when you reach 50% of points.</p>","0","html-button-response","34","1086105","0.0-8.0-8.0-1.0","213","1","2025-07-02 10:47:49","80fe4187154257d5fb01684ea91b68b9","196.39.253.117","Mozilla/5.0 (Windows NT 10.0; Win64; x64) AppleWebKit/537.36 (KHTML, like Gecko) Chrome/137.0.0.0 Safari/537.36","WebKit","Chrome","137.0.0.0","Windows","10.0","https://app.prolific.com/","en-US,en;q=0.9","612dd1efd339db83def47366","683db6dfa200031b80f2a654","68650767da92bc5d2c90dfd4","612dd1efd339db83def47366","","","","","","","","","","","","","","","","","","","","","","","","","","","","","","","","","","","","","","","","","","","","","",""
"2410","","","","instructions","35","1088519","0.0-8.0-9.0","213","1","2025-07-02 10:47:49","80fe4187154257d5fb01684ea91b68b9","196.39.253.117","Mozilla/5.0 (Windows NT 10.0; Win64; x64) AppleWebKit/537.36 (KHTML, like Gecko) Chrome/137.0.0.0 Safari/537.36","WebKit","Chrome","137.0.0.0","Windows","10.0","https://app.prolific.com/","en-US,en;q=0.9","612dd1efd339db83def47366","683db6dfa200031b80f2a654","68650767da92bc5d2c90dfd4","612dd1efd339db83def47366","","[{""page_index"":0,""viewing_time"":2409}]","","","","","","","","","","","","","","","","","","","","","","","","","","","","","","","","","","","","","","","","","","","",""
"18929","","<p>Before you start with this game please answer the following three questions yourself. </p>
  <p>Through this game, we measure several aspects of your cognitive performance, such as reaction times, multi-tasking capabilities </p>
  <p>and the ability to assess the situation you are in.</p>
  <p></p>
  <p><b>How good do you usually are in such tasks?</b></p>","91","html-slider-response","36","1107451","0.0-9.0-0.0","213","1","2025-07-02 10:47:49","80fe4187154257d5fb01684ea91b68b9","196.39.253.117","Mozilla/5.0 (Windows NT 10.0; Win64; x64) AppleWebKit/537.36 (KHTML, like Gecko) Chrome/137.0.0.0 Safari/537.36","WebKit","Chrome","137.0.0.0","Windows","10.0","https://app.prolific.com/","en-US,en;q=0.9","612dd1efd339db83def47366","683db6dfa200031b80f2a654","68650767da92bc5d2c90dfd4","612dd1efd339db83def47366","2025-07-02T11:07:10.601Z","","","","","","PreSkillQ","","","","","","","","","","","","","","","","","","","","","","","","","","","","","","","","","","","","","","50",""
"5159","","<div style=""width:500px;"">
  <p>How well do you think you will perform in this task compared to other participants?</p>
  </div>","100","html-slider-response","37","1112614","0.0-9.0-1.0","213","1","2025-07-02 10:47:49","80fe4187154257d5fb01684ea91b68b9","196.39.253.117","Mozilla/5.0 (Windows NT 10.0; Win64; x64) AppleWebKit/537.36 (KHTML, like Gecko) Chrome/137.0.0.0 Safari/537.36","WebKit","Chrome","137.0.0.0","Windows","10.0","https://app.prolific.com/","en-US,en;q=0.9","612dd1efd339db83def47366","683db6dfa200031b80f2a654","68650767da92bc5d2c90dfd4","612dd1efd339db83def47366","2025-07-02T11:07:15.764Z","","","","","","PrePerfQ","","","","","","","","","","","","","","","","","","","","","","","","","","","","","","","","","","","","","","50",""
"10235","","<div style=""width:500px;"">
  <p>What best describes how you currently feel?</p>
  </div>","100","html-slider-response","38","1122853","0.0-9.0-2.0","213","1","2025-07-02 10:47:49","80fe4187154257d5fb01684ea91b68b9","196.39.253.117","Mozilla/5.0 (Windows NT 10.0; Win64; x64) AppleWebKit/537.36 (KHTML, like Gecko) Chrome/137.0.0.0 Safari/537.36","WebKit","Chrome","137.0.0.0","Windows","10.0","https://app.prolific.com/","en-US,en;q=0.9","612dd1efd339db83def47366","683db6dfa200031b80f2a654","68650767da92bc5d2c90dfd4","612dd1efd339db83def47366","2025-07-02T11:07:26.003Z","","","","","","PreMotivationQ","","","","","","","","","","","","","","","","","","","","","","","","","","","","","","","","","","","","","","50",""
"","","","","ctl-task-cpt","39","1143838","0.0-10.0-0.0","213","1","2025-07-02 10:47:49","80fe4187154257d5fb01684ea91b68b9","196.39.253.117","Mozilla/5.0 (Windows NT 10.0; Win64; x64) AppleWebKit/537.36 (KHTML, like Gecko) Chrome/137.0.0.0 Safari/537.36","WebKit","Chrome","137.0.0.0","Windows","10.0","https://app.prolific.com/","en-US,en;q=0.9","612dd1efd339db83def47366","683db6dfa200031b80f2a654","68650767da92bc5d2c90dfd4","612dd1efd339db83def47366","2025-07-02T11:07:46.988Z","","","","","","","","","","","","","","","","win-only","0","g1:NW,g2:SE","1","1","0","1168912.5","1851","6854.4","17966.4","1","4","4","6","1","1","1","1","0","0.007575757575757576","2494.7","3000","1360","[""left"",""up""]","{""num_key_presses"":4,""num_perfect"":4,""num_errors"":0,""num_randdir"":0,""num_randdir_good_moves"":0,""num_whilered"":0,""num_whileblue"":0,""num_blue"":0,""num_good_moves"":4}","[294.22232142857143,294.12857142857143,0.8,294.22232142857143,294.12857142857143,101.6,294.22232142857143,294.12857142857143,206.8,294.22232142857143,294.12857142857143,313,294.22232142857143,294.12857142857143,415,294.22232142857143,294.12857142857143,516.7,294.22232142857143,294.12857142857143,619.3,294.22232142857143,294.12857142857143,721.9,294.22232142857143,294.12857142857143,836.5,294.22232142857143,294.12857142857143,936.8,294.22232142857143,294.12857142857143,1040,294.22232142857143,294.12857142857143,1144.8,294.22232142857143,294.12857142857143,1248.4,294.22232142857143,294.12857142857143,1349.9,294.22232142857143,294.12857142857143,1451.2,309.22232142857143,308.12857142857143,1559.2,295.22232142857143,301.12857142857143,1664.1,141.22232142857143,148.12857142857143,1768.3,138.22232142857143,143.12857142857143,1871.6,138.22232142857143,143.12857142857143,1976.3,126.22232142857143,131.12857142857143,2081.7,78.22232142857143,81.12857142857143,2184.7,56.222321428571426,59.128571428571426,2292.9,56.222321428571426,59.128571428571426,2395.7,56.222321428571426,59.128571428571426,2501.7,56.222321428571426,59.128571428571426,2605.1,56.222321428571426,59.128571428571426,2707.2,56.222321428571426,59.128571428571426,2810.4,56.222321428571426,59.128571428571426,2911.2,56.222321428571426,59.128571428571426,3014.5,56.222321428571426,59.128571428571426,3119,56.222321428571426,59.128571428571426,3223.7,56.222321428571426,59.128571428571426,3334,56.222321428571426,59.128571428571426,3436.9,56.222321428571426,59.128571428571426,3546.5,56.222321428571426,59.128571428571426,3652.2,56.222321428571426,59.128571428571426,3754.5,56.222321428571426,59.128571428571426,3855.4,56.222321428571426,59.128571428571426,3964.3,99.22232142857143,85.12857142857143,4076.4,155.22232142857143,139.12857142857143,4185.4,167.22232142857143,157.12857142857143,4293.6,168.22232142857143,158.12857142857143,4396.4,168.22232142857143,158.12857142857143,4497.3,168.22232142857143,158.12857142857143,4599.6,168.22232142857143,158.12857142857143,4707.7,168.22232142857143,158.12857142857143,4810.9,168.22232142857143,158.12857142857143,4925.3]","[1455.8,1455.8,1000,0,455.8,""smooth"",""up"",""up"",""good_move"",4346.3,2889,2230,1457.5,658.9,""smooth"",""up"",""up"",""good_move"",8024.7,3678.2,3091.6,4346.5,586.6,""smooth"",""left"",""left"",""good_move"",11001.8,2976.7,2524.9,8025.1,451.8,""smooth"",""left"",""left"",""good_move""]","","",""
"5498","","<div style=""width:500px;"">
  <p>What determined the result of this run?</p>
  </div>","100","html-slider-response","40","1149339","0.0-10.0-1.0","213","1","2025-07-02 10:47:49","80fe4187154257d5fb01684ea91b68b9","196.39.253.117","Mozilla/5.0 (Windows NT 10.0; Win64; x64) AppleWebKit/537.36 (KHTML, like Gecko) Chrome/137.0.0.0 Safari/537.36","WebKit","Chrome","137.0.0.0","Windows","10.0","https://app.prolific.com/","en-US,en;q=0.9","612dd1efd339db83def47366","683db6dfa200031b80f2a654","68650767da92bc5d2c90dfd4","612dd1efd339db83def47366","2025-07-02T11:07:52.489Z","","","","","","AttribQ","","","","","","","","","","","","","","","","","","","","","","","","","","","","","","","","","","","","","","50",""
"7284","","<div style=""width:500px;"">
  <p>How much control did you have over the ball?</p>
  </div>","100","html-slider-response","41","1156626","0.0-10.0-2.0","213","1","2025-07-02 10:47:49","80fe4187154257d5fb01684ea91b68b9","196.39.253.117","Mozilla/5.0 (Windows NT 10.0; Win64; x64) AppleWebKit/537.36 (KHTML, like Gecko) Chrome/137.0.0.0 Safari/537.36","WebKit","Chrome","137.0.0.0","Windows","10.0","https://app.prolific.com/","en-US,en;q=0.9","612dd1efd339db83def47366","683db6dfa200031b80f2a654","68650767da92bc5d2c90dfd4","612dd1efd339db83def47366","2025-07-02T11:07:59.776Z","","","","","","ControlQ","","","","","","","","","","","","","","","","","","","","","","","","","","","","","","","","","","","","","","50",""
"6226","","<div style=""width:500px;"">
  <p>How would you describe your current emotional state?</p>
  </div>","0","html-slider-response","42","1162856","0.0-10.0-3.0","213","1","2025-07-02 10:47:49","80fe4187154257d5fb01684ea91b68b9","196.39.253.117","Mozilla/5.0 (Windows NT 10.0; Win64; x64) AppleWebKit/537.36 (KHTML, like Gecko) Chrome/137.0.0.0 Safari/537.36","WebKit","Chrome","137.0.0.0","Windows","10.0","https://app.prolific.com/","en-US,en;q=0.9","612dd1efd339db83def47366","683db6dfa200031b80f2a654","68650767da92bc5d2c90dfd4","612dd1efd339db83def47366","2025-07-02T11:08:06.006Z","","","","","","StressQ","","","","","","","","","","","","","","","","","","","","","","","","","","","","","","","","","","","","","","50",""
"4222","","<div style=""width:500px;"">
  <p>What best describes how you currently feel?</p>
  </div>","100","html-slider-response","43","1167082","0.0-10.0-4.0","213","1","2025-07-02 10:47:49","80fe4187154257d5fb01684ea91b68b9","196.39.253.117","Mozilla/5.0 (Windows NT 10.0; Win64; x64) AppleWebKit/537.36 (KHTML, like Gecko) Chrome/137.0.0.0 Safari/537.36","WebKit","Chrome","137.0.0.0","Windows","10.0","https://app.prolific.com/","en-US,en;q=0.9","612dd1efd339db83def47366","683db6dfa200031b80f2a654","68650767da92bc5d2c90dfd4","612dd1efd339db83def47366","2025-07-02T11:08:10.232Z","","","","","","MotivationQ","","","","","","","","","","","","","","","","","","","","","","","","","","","","","","","","","","","","","","50",""
"","","","","ctl-task-cpt","44","1193495","0.0-10.0-0.1","213","1","2025-07-02 10:47:49","80fe4187154257d5fb01684ea91b68b9","196.39.253.117","Mozilla/5.0 (Windows NT 10.0; Win64; x64) AppleWebKit/537.36 (KHTML, like Gecko) Chrome/137.0.0.0 Safari/537.36","WebKit","Chrome","137.0.0.0","Windows","10.0","https://app.prolific.com/","en-US,en;q=0.9","612dd1efd339db83def47366","683db6dfa200031b80f2a654","68650767da92bc5d2c90dfd4","612dd1efd339db83def47366","2025-07-02T11:08:36.646Z","","","","","","","","","","","","","","","","win-only","2","g1:SE,g2:NW","0.9","2","0","1213144.2","1389.9","6402","23381.9","1","4","8","6","1","1","1","2","1","0.015151515151515152","1440.7","3000","1130","[""down"",""right""]","{""num_key_presses"":6,""num_perfect"":6,""num_errors"":0,""num_randdir"":0,""num_randdir_good_moves"":0,""num_whilered"":0,""num_whileblue"":0,""num_blue"":0,""num_good_moves"":5}","[294.22232142857143,294.12857142857143,0.9,294.22232142857143,294.12857142857143,105.9,294.22232142857143,294.12857142857143,225.8,294.22232142857143,294.12857142857143,327.9,294.22232142857143,294.12857142857143,437.4,294.22232142857143,294.12857142857143,547,191.22232142857143,198.12857142857143,647.3,109.22232142857143,90.12857142857143,749.4,109.22232142857143,89.12857142857143,861.1,371.22232142857143,312.12857142857143,978.4,541.2223214285714,542.1285714285714,1083.5,546.2223214285714,551.1285714285714,1188.2,546.2223214285714,551.1285714285714,1289.5,546.2223214285714,551.1285714285714,1403.9,546.2223214285714,551.1285714285714,1509.6,546.2223214285714,551.1285714285714,1611.8,546.2223214285714,551.1285714285714,1725.5,546.2223214285714,551.1285714285714,1835.1,546.2223214285714,551.1285714285714,1945.7,546.2223214285714,551.1285714285714,2049.4,546.2223214285714,551.1285714285714,2157.1,546.2223214285714,551.1285714285714,2262.8,546.2223214285714,551.1285714285714,2370.9,546.2223214285714,551.1285714285714,2477,546.2223214285714,551.1285714285714,2582.5,546.2223214285714,551.1285714285714,3632.3,546.2223214285714,551.1285714285714,3738.9,552.2223214285714,535.1285714285714,3839.1,553.2223214285714,527.1285714285714,3941.1,553.2223214285714,525.1285714285714,4043.4,553.2223214285714,525.1285714285714,4156.2,553.2223214285714,526.1285714285714,4261.3,540.2223214285714,538.1285714285714,4369.4,539.2223214285714,539.1285714285714,4469.4,539.2223214285714,539.1285714285714,4574.2,539.2223214285714,539.1285714285714,4683.5,539.2223214285714,539.1285714285714,4794.6,539.2223214285714,539.1285714285714,4901.7]","[1590.3,1590.3,1000,0.1,590.2,""smooth"",""up"",""up"",""bad_move"",4393.4,2800.6,2163,1592.8,637.6,""smooth"",""down"",""down"",""good_move"",6915.8,2521.9,2074.3,4393.9,447.6,""smooth"",""down"",""down"",""good_move"",10645.3,3729.4,3171.3,6915.9,558.1,""smooth"",""down"",""down"",""good_move"",13701.8,3056.4,2645.6,10645.4,410.8,""smooth"",""right"",""right"",""good_move"",16826.5,3124.5,2714,13702.3,410.5,""smooth"",""right"",""right"",""good_move""]","","",""
"3158","","<div style=""width:500px;"">
  <p>What determined the result of this run?</p>
  </div>","100","html-slider-response","45","1196659","0.0-10.0-1.1","213","1","2025-07-02 10:47:49","80fe4187154257d5fb01684ea91b68b9","196.39.253.117","Mozilla/5.0 (Windows NT 10.0; Win64; x64) AppleWebKit/537.36 (KHTML, like Gecko) Chrome/137.0.0.0 Safari/537.36","WebKit","Chrome","137.0.0.0","Windows","10.0","https://app.prolific.com/","en-US,en;q=0.9","612dd1efd339db83def47366","683db6dfa200031b80f2a654","68650767da92bc5d2c90dfd4","612dd1efd339db83def47366","2025-07-02T11:08:39.810Z","","","","","","AttribQ","","","","","","","","","","","","","","","","","","","","","","","","","","","","","","","","","","","","","","50",""
"3349","","<div style=""width:500px;"">
  <p>How much control did you have over the ball?</p>
  </div>","100","html-slider-response","46","1200011","0.0-10.0-2.1","213","1","2025-07-02 10:47:49","80fe4187154257d5fb01684ea91b68b9","196.39.253.117","Mozilla/5.0 (Windows NT 10.0; Win64; x64) AppleWebKit/537.36 (KHTML, like Gecko) Chrome/137.0.0.0 Safari/537.36","WebKit","Chrome","137.0.0.0","Windows","10.0","https://app.prolific.com/","en-US,en;q=0.9","612dd1efd339db83def47366","683db6dfa200031b80f2a654","68650767da92bc5d2c90dfd4","612dd1efd339db83def47366","2025-07-02T11:08:43.162Z","","","","","","ControlQ","","","","","","","","","","","","","","","","","","","","","","","","","","","","","","","","","","","","","","50",""
"4266","","<div style=""width:500px;"">
  <p>How would you describe your current emotional state?</p>
  </div>","0","html-slider-response","47","1204282","0.0-10.0-3.1","213","1","2025-07-02 10:47:49","80fe4187154257d5fb01684ea91b68b9","196.39.253.117","Mozilla/5.0 (Windows NT 10.0; Win64; x64) AppleWebKit/537.36 (KHTML, like Gecko) Chrome/137.0.0.0 Safari/537.36","WebKit","Chrome","137.0.0.0","Windows","10.0","https://app.prolific.com/","en-US,en;q=0.9","612dd1efd339db83def47366","683db6dfa200031b80f2a654","68650767da92bc5d2c90dfd4","612dd1efd339db83def47366","2025-07-02T11:08:47.432Z","","","","","","StressQ","","","","","","","","","","","","","","","","","","","","","","","","","","","","","","","","","","","","","","50",""
"3458","","<div style=""width:500px;"">
  <p>What best describes how you currently feel?</p>
  </div>","100","html-slider-response","48","1207743","0.0-10.0-4.1","213","1","2025-07-02 10:47:49","80fe4187154257d5fb01684ea91b68b9","196.39.253.117","Mozilla/5.0 (Windows NT 10.0; Win64; x64) AppleWebKit/537.36 (KHTML, like Gecko) Chrome/137.0.0.0 Safari/537.36","WebKit","Chrome","137.0.0.0","Windows","10.0","https://app.prolific.com/","en-US,en;q=0.9","612dd1efd339db83def47366","683db6dfa200031b80f2a654","68650767da92bc5d2c90dfd4","612dd1efd339db83def47366","2025-07-02T11:08:50.893Z","","","","","","MotivationQ","","","","","","","","","","","","","","","","","","","","","","","","","","","","","","","","","","","","","","50",""
"","","","","ctl-task-cpt","49","1245320","0.0-10.0-0.2","213","1","2025-07-02 10:47:49","80fe4187154257d5fb01684ea91b68b9","196.39.253.117","Mozilla/5.0 (Windows NT 10.0; Win64; x64) AppleWebKit/537.36 (KHTML, like Gecko) Chrome/137.0.0.0 Safari/537.36","WebKit","Chrome","137.0.0.0","Windows","10.0","https://app.prolific.com/","en-US,en;q=0.9","612dd1efd339db83def47366","683db6dfa200031b80f2a654","68650767da92bc5d2c90dfd4","612dd1efd339db83def47366","2025-07-02T11:09:28.470Z","","","","","","","","","","","","","","","","win-only","1","g1:NE,g2:SW","0.8","3","0","1253798.5","2898.4","7915.1","34549.5","1","4","8","6","2","8","8","10","2","0.07575757575757576","1490.9","3000","880","[""down"",""left""]","{""num_key_presses"":8,""num_perfect"":7,""num_errors"":0,""num_randdir"":1,""num_randdir_good_moves"":0,""num_whilered"":0,""num_whileblue"":0,""num_blue"":1,""num_good_moves"":7}","[293.22232142857143,292.12857142857143,1.9,293.22232142857143,292.12857142857143,106.5,293.22232142857143,292.12857142857143,215.2,293.22232142857143,292.12857142857143,356,293.22232142857143,292.12857142857143,459,301.22232142857143,286.12857142857143,571.5,310.22232142857143,280.12857142857143,673.3,160.22232142857143,489.12857142857143,777.1,94.22232142857143,539.1285714285714,888.1,91.22232142857143,540.1285714285714,996.3,91.22232142857143,540.1285714285714,1099.7,68.22232142857143,542.1285714285714,1203.5,57.222321428571426,542.1285714285714,1306.3,57.222321428571426,542.1285714285714,1415.5,57.222321428571426,542.1285714285714,1531.5,57.222321428571426,542.1285714285714,1639.4,57.222321428571426,542.1285714285714,1741.3,57.222321428571426,542.1285714285714,1851.1,57.222321428571426,542.1285714285714,1957.1,57.222321428571426,542.1285714285714,2062.9,57.222321428571426,542.1285714285714,2180.2,57.222321428571426,542.1285714285714,2280.6,57.222321428571426,542.1285714285714,2391.4,57.222321428571426,542.1285714285714,2497.5,57.222321428571426,542.1285714285714,2599.5,57.222321428571426,542.1285714285714,2703.2,57.222321428571426,542.1285714285714,2805.4,57.222321428571426,542.1285714285714,2914.4,57.222321428571426,542.1285714285714,3018.1,57.222321428571426,542.1285714285714,3123.5,57.222321428571426,542.1285714285714,3237.8,57.222321428571426,542.1285714285714,3340,57.222321428571426,542.1285714285714,3456.3,57.222321428571426,542.1285714285714,3557.1,57.222321428571426,542.1285714285714,3659.4,57.222321428571426,542.1285714285714,3763.1,57.222321428571426,542.1285714285714,3864.4,57.222321428571426,542.1285714285714,3966.2,57.222321428571426,542.1285714285714,4068.9,57.222321428571426,542.1285714285714,4183.3,57.222321428571426,542.1285714285714,4287,57.222321428571426,542.1285714285714,4391.4,57.222321428571426,542.1285714285714,4500.2,57.222321428571426,542.1285714285714,4602.7,57.222321428571426,542.1285714285714,4708.5,57.222321428571426,542.1285714285714,4811.2,57.222321428571426,542.1285714285714,4914.2]","[1499.9,1499.9,1000,0,499.9,""oops"",""up"",""right"",""bad_move"",4949.2,3447.4,2740.6,1501.8,706.8,""smooth"",""down"",""down"",""good_move"",11161.1,6211.5,3263.2,7510.6,387.3,""smooth"",""down"",""down"",""good_move"",14162.3,3001.1,2189.6,11161.4,811.4,""smooth"",""down"",""down"",""good_move"",16555.9,2393.6,1918.9,14162.4,474.7,""smooth"",""left"",""left"",""good_move"",19806.6,3250.2,2787.4,16556.4,462.8,""smooth"",""left"",""left"",""good_move"",23167.2,3360.5,2926.9,19806.7,433.6,""smooth"",""left"",""left"",""good_move"",26483,3315.8,2912.8,23167.3,402.9,""smooth"",""left"",""left"",""good_move""]","","",""
"3710","","<div style=""width:500px;"">
  <p>What determined the result of this run?</p>
  </div>","100","html-slider-response","50","1249034","0.0-10.0-1.2","213","1","2025-07-02 10:47:49","80fe4187154257d5fb01684ea91b68b9","196.39.253.117","Mozilla/5.0 (Windows NT 10.0; Win64; x64) AppleWebKit/537.36 (KHTML, like Gecko) Chrome/137.0.0.0 Safari/537.36","WebKit","Chrome","137.0.0.0","Windows","10.0","https://app.prolific.com/","en-US,en;q=0.9","612dd1efd339db83def47366","683db6dfa200031b80f2a654","68650767da92bc5d2c90dfd4","612dd1efd339db83def47366","2025-07-02T11:09:32.185Z","","","","","","AttribQ","","","","","","","","","","","","","","","","","","","","","","","","","","","","","","","","","","","","","","50",""
"2356","","<div style=""width:500px;"">
  <p>How much control did you have over the ball?</p>
  </div>","100","html-slider-response","51","1251399","0.0-10.0-2.2","213","1","2025-07-02 10:47:49","80fe4187154257d5fb01684ea91b68b9","196.39.253.117","Mozilla/5.0 (Windows NT 10.0; Win64; x64) AppleWebKit/537.36 (KHTML, like Gecko) Chrome/137.0.0.0 Safari/537.36","WebKit","Chrome","137.0.0.0","Windows","10.0","https://app.prolific.com/","en-US,en;q=0.9","612dd1efd339db83def47366","683db6dfa200031b80f2a654","68650767da92bc5d2c90dfd4","612dd1efd339db83def47366","2025-07-02T11:09:34.549Z","","","","","","ControlQ","","","","","","","","","","","","","","","","","","","","","","","","","","","","","","","","","","","","","","50",""
"4084","","<div style=""width:500px;"">
  <p>How would you describe your current emotional state?</p>
  </div>","0","html-slider-response","52","1255486","0.0-10.0-3.2","213","1","2025-07-02 10:47:49","80fe4187154257d5fb01684ea91b68b9","196.39.253.117","Mozilla/5.0 (Windows NT 10.0; Win64; x64) AppleWebKit/537.36 (KHTML, like Gecko) Chrome/137.0.0.0 Safari/537.36","WebKit","Chrome","137.0.0.0","Windows","10.0","https://app.prolific.com/","en-US,en;q=0.9","612dd1efd339db83def47366","683db6dfa200031b80f2a654","68650767da92bc5d2c90dfd4","612dd1efd339db83def47366","2025-07-02T11:09:38.636Z","","","","","","StressQ","","","","","","","","","","","","","","","","","","","","","","","","","","","","","","","","","","","","","","50",""
"3291","","<div style=""width:500px;"">
  <p>What best describes how you currently feel?</p>
  </div>","100","html-slider-response","53","1258781","0.0-10.0-4.2","213","1","2025-07-02 10:47:49","80fe4187154257d5fb01684ea91b68b9","196.39.253.117","Mozilla/5.0 (Windows NT 10.0; Win64; x64) AppleWebKit/537.36 (KHTML, like Gecko) Chrome/137.0.0.0 Safari/537.36","WebKit","Chrome","137.0.0.0","Windows","10.0","https://app.prolific.com/","en-US,en;q=0.9","612dd1efd339db83def47366","683db6dfa200031b80f2a654","68650767da92bc5d2c90dfd4","612dd1efd339db83def47366","2025-07-02T11:09:41.931Z","","","","","","MotivationQ","","","","","","","","","","","","","","","","","","","","","","","","","","","","","","","","","","","","","","50",""
"","","","","ctl-task-cpt","54","1317320","0.0-10.0-0.3","213","1","2025-07-02 10:47:49","80fe4187154257d5fb01684ea91b68b9","196.39.253.117","Mozilla/5.0 (Windows NT 10.0; Win64; x64) AppleWebKit/537.36 (KHTML, like Gecko) Chrome/137.0.0.0 Safari/537.36","WebKit","Chrome","137.0.0.0","Windows","10.0","https://app.prolific.com/","en-US,en;q=0.9","612dd1efd339db83def47366","683db6dfa200031b80f2a654","68650767da92bc5d2c90dfd4","612dd1efd339db83def47366","2025-07-02T11:10:40.470Z","","","","","","","","","","","","","","","","win-only","3","g1:SW,g2:NE","0.7","4","0","1304837.3","1464.3","6564.9","55519.8","1","4","4","6","2","4","4","14","10","0.10606060606060606","2195.6","3000","390","[""up"",""right""]","{""num_key_presses"":12,""num_perfect"":9,""num_errors"":0,""num_randdir"":3,""num_randdir_good_moves"":2,""num_whilered"":0,""num_whileblue"":0,""num_blue"":4,""num_good_moves"":9}","[292.22232142857143,295.12857142857143,0.9,292.22232142857143,295.12857142857143,111.1,292.22232142857143,295.12857142857143,213.2,292.22232142857143,295.12857142857143,313.7,292.22232142857143,295.12857142857143,414.9,292.22232142857143,295.12857142857143,520.8,292.22232142857143,295.12857142857143,668,280.22232142857143,309.12857142857143,773.8,248.22232142857143,340.12857142857143,877.9,237.22232142857143,351.12857142857143,979.1,366.22232142857143,177.12857142857143,1080.9,547.2223214285714,0.12857142857142634,1201.8,547.2223214285714,0.12857142857142634,1309.8,547.2223214285714,0.12857142857142634,1413.7,547.2223214285714,3.1285714285714263,1519.9,536.2223214285714,29.128571428571426,1623.2,536.2223214285714,31.128571428571426,1734.8,536.2223214285714,31.128571428571426,2203.5,536.2223214285714,31.128571428571426,2307.8,536.2223214285714,31.128571428571426,2411.3,536.2223214285714,31.128571428571426,2522.3,536.2223214285714,31.128571428571426,2629,536.2223214285714,31.128571428571426,2731.6,536.2223214285714,31.128571428571426,2839.2,536.2223214285714,31.128571428571426,2940.6,536.2223214285714,31.128571428571426,3042.8,536.2223214285714,31.128571428571426,3149.6,536.2223214285714,31.128571428571426,3258.5,536.2223214285714,31.128571428571426,3367.9,536.2223214285714,31.128571428571426,3470.7,536.2223214285714,31.128571428571426,3575.4,536.2223214285714,31.128571428571426,3678.9,536.2223214285714,31.128571428571426,3789.5,536.2223214285714,31.128571428571426,3895.2,536.2223214285714,31.128571428571426,3996.4,536.2223214285714,31.128571428571426,4102.2,536.2223214285714,31.128571428571426,4212.3,536.2223214285714,31.128571428571426,4317,536.2223214285714,31.128571428571426,4423.3,536.2223214285714,31.128571428571426,4526.9,536.2223214285714,31.128571428571426,4629.6,536.2223214285714,31.128571428571426,4772.1,536.2223214285714,31.128571428571426,4873.4]","[1637.8,1637.8,1000,0,637.8,""smooth"",""down"",""down"",""bad_move"",4847.9,3208.4,2560.2,1639.5,648.2,""smooth"",""up"",""up"",""good_move"",7291.2,2443,1950.4,4848.2,492.6,""smooth"",""up"",""up"",""good_move"",9929.3,2638,2196.7,7291.3,441.3,""smooth"",""up"",""up"",""good_move"",17133.3,7203.9,3130.5,13516.1,486.7,""oops"",""right"",""up"",""good_move"",20385.7,3252.2,2706.1,17133.5,546.1,""smooth"",""up"",""left"",""bad_move"",23497.2,3109.6,2675.1,20387.6,434.5,""smooth"",""right"",""right"",""good_move"",33737.4,10239.9,2173.7,31138.2,425.5,""oops"",""right"",""down"",""bad_move"",36116.9,2378.6,1807.1,33738.3,571.5,""smooth"",""right"",""right"",""good_move"",39830.2,3713.2,3232.4,36117,480.8,""oops"",""right"",""up"",""good_move"",43235.2,3404.9,2872.6,39830.4,532.3,""smooth"",""right"",""right"",""good_move"",48812.6,5577.3,2466.5,45987.7,358.4,""smooth"",""right"",""right"",""good_move""]","","",""
"3142","","<div style=""width:500px;"">
  <p>What determined the result of this run?</p>
  </div>","100","html-slider-response","55","1320467","0.0-10.0-1.3","213","1","2025-07-02 10:47:49","80fe4187154257d5fb01684ea91b68b9","196.39.253.117","Mozilla/5.0 (Windows NT 10.0; Win64; x64) AppleWebKit/537.36 (KHTML, like Gecko) Chrome/137.0.0.0 Safari/537.36","WebKit","Chrome","137.0.0.0","Windows","10.0","https://app.prolific.com/","en-US,en;q=0.9","612dd1efd339db83def47366","683db6dfa200031b80f2a654","68650767da92bc5d2c90dfd4","612dd1efd339db83def47366","2025-07-02T11:10:43.617Z","","","","","","AttribQ","","","","","","","","","","","","","","","","","","","","","","","","","","","","","","","","","","","","","","50",""
"3305","","<div style=""width:500px;"">
  <p>How much control did you have over the ball?</p>
  </div>","100","html-slider-response","56","1323776","0.0-10.0-2.3","213","1","2025-07-02 10:47:49","80fe4187154257d5fb01684ea91b68b9","196.39.253.117","Mozilla/5.0 (Windows NT 10.0; Win64; x64) AppleWebKit/537.36 (KHTML, like Gecko) Chrome/137.0.0.0 Safari/537.36","WebKit","Chrome","137.0.0.0","Windows","10.0","https://app.prolific.com/","en-US,en;q=0.9","612dd1efd339db83def47366","683db6dfa200031b80f2a654","68650767da92bc5d2c90dfd4","612dd1efd339db83def47366","2025-07-02T11:10:46.926Z","","","","","","ControlQ","","","","","","","","","","","","","","","","","","","","","","","","","","","","","","","","","","","","","","50",""
"3807","","<div style=""width:500px;"">
  <p>How would you describe your current emotional state?</p>
  </div>","0","html-slider-response","57","1327588","0.0-10.0-3.3","213","1","2025-07-02 10:47:49","80fe4187154257d5fb01684ea91b68b9","196.39.253.117","Mozilla/5.0 (Windows NT 10.0; Win64; x64) AppleWebKit/537.36 (KHTML, like Gecko) Chrome/137.0.0.0 Safari/537.36","WebKit","Chrome","137.0.0.0","Windows","10.0","https://app.prolific.com/","en-US,en;q=0.9","612dd1efd339db83def47366","683db6dfa200031b80f2a654","68650767da92bc5d2c90dfd4","612dd1efd339db83def47366","2025-07-02T11:10:50.738Z","","","","","","StressQ","","","","","","","","","","","","","","","","","","","","","","","","","","","","","","","","","","","","","","50",""
"5203","","<div style=""width:500px;"">
  <p>What best describes how you currently feel?</p>
  </div>","100","html-slider-response","58","1332796","0.0-10.0-4.3","213","1","2025-07-02 10:47:49","80fe4187154257d5fb01684ea91b68b9","196.39.253.117","Mozilla/5.0 (Windows NT 10.0; Win64; x64) AppleWebKit/537.36 (KHTML, like Gecko) Chrome/137.0.0.0 Safari/537.36","WebKit","Chrome","137.0.0.0","Windows","10.0","https://app.prolific.com/","en-US,en;q=0.9","612dd1efd339db83def47366","683db6dfa200031b80f2a654","68650767da92bc5d2c90dfd4","612dd1efd339db83def47366","2025-07-02T11:10:55.947Z","","","","","","MotivationQ","","","","","","","","","","","","","","","","","","","","","","","","","","","","","","","","","","","","","","50",""
"","","","","ctl-task-cpt","59","1394043","0.0-10.0-0.4","213","1","2025-07-02 10:47:49","80fe4187154257d5fb01684ea91b68b9","196.39.253.117","Mozilla/5.0 (Windows NT 10.0; Win64; x64) AppleWebKit/537.36 (KHTML, like Gecko) Chrome/137.0.0.0 Safari/537.36","WebKit","Chrome","137.0.0.0","Windows","10.0","https://app.prolific.com/","en-US,en;q=0.9","612dd1efd339db83def47366","683db6dfa200031b80f2a654","68650767da92bc5d2c90dfd4","612dd1efd339db83def47366","2025-07-02T11:11:57.193Z","","","","","","","","","","","","","","","","win-only","3","g1:SW,g2:NE","0.6","5","0","1378852.9","1413.1","6417.1","58214","1","4","4","6","2","-4","-4","10","14","0.07575757575757576","2239.6","3000","-1280","[""up"",""right""]","{""num_key_presses"":13,""num_perfect"":8,""num_errors"":0,""num_randdir"":5,""num_randdir_good_moves"":1,""num_whilered"":0,""num_whileblue"":0,""num_blue"":3,""num_good_moves"":8}","[289.22232142857143,295.12857142857143,0.9,289.22232142857143,295.12857142857143,101.1,289.22232142857143,295.12857142857143,202.6,289.22232142857143,295.12857142857143,309.4,289.22232142857143,295.12857142857143,422.2,289.22232142857143,295.12857142857143,522.8,289.22232142857143,295.12857142857143,630,233.22232142857143,345.12857142857143,732.6,192.22232142857143,375.12857142857143,845.4,193.22232142857143,369.12857142857143,955.6,458.22232142857143,136.12857142857143,1066.3,494.22232142857143,117.12857142857143,1181.6,494.22232142857143,117.12857142857143,1289.7,433.22232142857143,185.12857142857143,1408,277.22232142857143,358.12857142857143,1517,266.22232142857143,370.12857142857143,1618.2,545.2223214285714,83.12857142857143,1733.6,565.2223214285714,64.12857142857143,1839.3,565.2223214285714,64.12857142857143,1939.7,565.2223214285714,64.12857142857143,2051.4,565.2223214285714,64.12857142857143,2153.3,565.2223214285714,64.12857142857143,2254.9,565.2223214285714,64.12857142857143,2364.7,565.2223214285714,64.12857142857143,2476.6,565.2223214285714,64.12857142857143,2583,565.2223214285714,64.12857142857143,3025.6,565.2223214285714,64.12857142857143,3130.6,565.2223214285714,64.12857142857143,3236.6,565.2223214285714,64.12857142857143,3354.9,565.2223214285714,64.12857142857143,3458.6,565.2223214285714,64.12857142857143,3576.5,565.2223214285714,64.12857142857143,3692.8,565.2223214285714,64.12857142857143,3808.9,565.2223214285714,64.12857142857143,3924,565.2223214285714,64.12857142857143,4032.4,565.2223214285714,64.12857142857143,4149.6,565.2223214285714,64.12857142857143,4252.7,565.2223214285714,64.12857142857143,4359.2,565.2223214285714,64.12857142857143,4470.3,565.2223214285714,64.12857142857143,4584.8,565.2223214285714,64.12857142857143,4686.5,565.2223214285714,64.12857142857143,4807.2,565.2223214285714,64.12857142857143,4919.5]","[1624.6,1624.6,1000,0,624.6,""smooth"",""up"",""up"",""good_move"",8132.5,6503.9,2097.8,5546.7,488,""oops"",""up"",""down"",""bad_move"",12778.8,4645.9,3060.9,8132.9,1585,""smooth"",""right"",""right"",""good_move"",15463.9,2684.8,2057.9,12779.1,626.9,""oops"",""right"",""down"",""bad_move"",21869.9,6406,2646.5,18758.2,465.2,""smooth"",""up"",""up"",""good_move"",25341.7,3471.7,2919.2,21870,552.5,""smooth"",""up"",""up"",""good_move"",28608.2,3266.4,2641.1,25341.8,625.3,""smooth"",""up"",""up"",""good_move"",31250.8,2642.4,2176.5,28608.4,465.9,""smooth"",""up"",""up"",""good_move"",34245.8,2994.9,2565.2,31250.9,429.7,""oops"",""right"",""left"",""bad_move"",36919.5,2673.3,2088.5,34246.2,584.8,""oops"",""right"",""left"",""bad_move"",39861.4,2941.6,2237.6,36919.8,704,""smooth"",""down"",""down"",""bad_move"",42719.6,2857.9,2440.6,39861.7,417.3,""smooth"",""right"",""right"",""good_move"",49225.5,6506,2710,46059.5,456.1,""oops"",""right"",""up"",""good_move""]","","",""
"8615","","<div style=""width:500px;"">
  <p>What determined the result of this run?</p>
  </div>","16","html-slider-response","60","1402661","0.0-10.0-1.4","213","1","2025-07-02 10:47:49","80fe4187154257d5fb01684ea91b68b9","196.39.253.117","Mozilla/5.0 (Windows NT 10.0; Win64; x64) AppleWebKit/537.36 (KHTML, like Gecko) Chrome/137.0.0.0 Safari/537.36","WebKit","Chrome","137.0.0.0","Windows","10.0","https://app.prolific.com/","en-US,en;q=0.9","612dd1efd339db83def47366","683db6dfa200031b80f2a654","68650767da92bc5d2c90dfd4","612dd1efd339db83def47366","2025-07-02T11:12:05.811Z","","","","","","AttribQ","","","","","","","","","","","","","","","","","","","","","","","","","","","","","","","","","","","","","","50",""
"5738","","<div style=""width:500px;"">
  <p>How much control did you have over the ball?</p>
  </div>","16","html-slider-response","61","1408403","0.0-10.0-2.4","213","1","2025-07-02 10:47:49","80fe4187154257d5fb01684ea91b68b9","196.39.253.117","Mozilla/5.0 (Windows NT 10.0; Win64; x64) AppleWebKit/537.36 (KHTML, like Gecko) Chrome/137.0.0.0 Safari/537.36","WebKit","Chrome","137.0.0.0","Windows","10.0","https://app.prolific.com/","en-US,en;q=0.9","612dd1efd339db83def47366","683db6dfa200031b80f2a654","68650767da92bc5d2c90dfd4","612dd1efd339db83def47366","2025-07-02T11:12:11.553Z","","","","","","ControlQ","","","","","","","","","","","","","","","","","","","","","","","","","","","","","","","","","","","","","","50",""
"3814","","<div style=""width:500px;"">
  <p>How would you describe your current emotional state?</p>
  </div>","0","html-slider-response","62","1412222","0.0-10.0-3.4","213","1","2025-07-02 10:47:49","80fe4187154257d5fb01684ea91b68b9","196.39.253.117","Mozilla/5.0 (Windows NT 10.0; Win64; x64) AppleWebKit/537.36 (KHTML, like Gecko) Chrome/137.0.0.0 Safari/537.36","WebKit","Chrome","137.0.0.0","Windows","10.0","https://app.prolific.com/","en-US,en;q=0.9","612dd1efd339db83def47366","683db6dfa200031b80f2a654","68650767da92bc5d2c90dfd4","612dd1efd339db83def47366","2025-07-02T11:12:15.373Z","","","","","","StressQ","","","","","","","","","","","","","","","","","","","","","","","","","","","","","","","","","","","","","","50",""
"3550","","<div style=""width:500px;"">
  <p>What best describes how you currently feel?</p>
  </div>","100","html-slider-response","63","1415776","0.0-10.0-4.4","213","1","2025-07-02 10:47:49","80fe4187154257d5fb01684ea91b68b9","196.39.253.117","Mozilla/5.0 (Windows NT 10.0; Win64; x64) AppleWebKit/537.36 (KHTML, like Gecko) Chrome/137.0.0.0 Safari/537.36","WebKit","Chrome","137.0.0.0","Windows","10.0","https://app.prolific.com/","en-US,en;q=0.9","612dd1efd339db83def47366","683db6dfa200031b80f2a654","68650767da92bc5d2c90dfd4","612dd1efd339db83def47366","2025-07-02T11:12:18.926Z","","","","","","MotivationQ","","","","","","","","","","","","","","","","","","","","","","","","","","","","","","","","","","","","","","50",""
"","","","","ctl-task-cpt","64","1471769","0.0-10.0-0.5","213","1","2025-07-02 10:47:49","80fe4187154257d5fb01684ea91b68b9","196.39.253.117","Mozilla/5.0 (Windows NT 10.0; Win64; x64) AppleWebKit/537.36 (KHTML, like Gecko) Chrome/137.0.0.0 Safari/537.36","WebKit","Chrome","137.0.0.0","Windows","10.0","https://app.prolific.com/","en-US,en;q=0.9","612dd1efd339db83def47366","683db6dfa200031b80f2a654","68650767da92bc5d2c90dfd4","612dd1efd339db83def47366","2025-07-02T11:13:14.919Z","","","","","","","","","","","","","","","","win-only","1","g1:NE,g2:SW","0.5","6","0","1461834.8","1552.2","6557.3","52948.8","1","4","8","6","2","8","8","18","10","0.13636363636363635","1488.4","3000","970","[""down"",""left""]","{""num_key_presses"":10,""num_perfect"":5,""num_errors"":0,""num_randdir"":5,""num_randdir_good_moves"":3,""num_whilered"":0,""num_whileblue"":0,""num_blue"":4,""num_good_moves"":8}","[291.22232142857143,297.12857142857143,0.8,291.22232142857143,297.12857142857143,105.3,291.22232142857143,297.12857142857143,216.2,291.22232142857143,297.12857142857143,321.7,291.22232142857143,297.12857142857143,433.4,291.22232142857143,297.12857142857143,547.9,291.22232142857143,297.12857142857143,648.2,291.22232142857143,297.12857142857143,755.4,172.22232142857143,437.12857142857143,871.7,93.22232142857143,518.1285714285714,982.9,66.22232142857143,544.1285714285714,1093,54.222321428571426,548.1285714285714,1208.5,46.222321428571426,550.1285714285714,1314.7,46.222321428571426,550.1285714285714,1419.3,46.222321428571426,550.1285714285714,1524.8,46.222321428571426,550.1285714285714,1642.7,46.222321428571426,550.1285714285714,1748.1,46.222321428571426,550.1285714285714,1958.1,46.222321428571426,550.1285714285714,2123.4,46.222321428571426,550.1285714285714,2237.1,46.222321428571426,550.1285714285714,2348.1,46.222321428571426,550.1285714285714,2448.8,46.222321428571426,550.1285714285714,2559.6,46.222321428571426,550.1285714285714,2666,46.222321428571426,550.1285714285714,2771,46.222321428571426,550.1285714285714,2877.2,46.222321428571426,550.1285714285714,2984.9,46.222321428571426,550.1285714285714,3088.3,46.222321428571426,550.1285714285714,3202,46.222321428571426,550.1285714285714,3315.9,46.222321428571426,550.1285714285714,3427.4,46.222321428571426,550.1285714285714,3533.7,46.222321428571426,550.1285714285714,3636.7,46.222321428571426,550.1285714285714,3746,46.222321428571426,550.1285714285714,3849.1,46.222321428571426,550.1285714285714,3951,46.222321428571426,550.1285714285714,4053.8,46.222321428571426,550.1285714285714,4160.3,46.222321428571426,550.1285714285714,4271.9,46.222321428571426,550.1285714285714,4376.2,46.222321428571426,550.1285714285714,4486.7,46.222321428571426,550.1285714285714,4594.2,46.222321428571426,550.1285714285714,4709.2,46.222321428571426,550.1285714285714,4825.1,46.222321428571426,550.1285714285714,4936.4]","[5422.7,5422.7,2963.2,2009.9,449.6,""smooth"",""down"",""down"",""good_move"",8987.4,3560.2,3050.4,5427.2,509.8,""smooth"",""down"",""down"",""good_move"",15779.7,6792.2,3169.4,12151.4,458.9,""oops"",""down"",""up"",""bad_move"",18904.7,3124.6,2500.9,15780.2,623.6,""oops"",""left"",""up"",""bad_move"",22352.5,3447.6,1902.1,18904.9,1545.5,""smooth"",""down"",""down"",""good_move"",29757.6,7405,2688.2,26651.6,417.8,""oops"",""down"",""left"",""good_move"",33257.7,3498.5,2338.1,29759.2,1160.4,""smooth"",""down"",""down"",""good_move"",39617.5,6359.7,1962.8,37157.3,497.4,""oops"",""down"",""left"",""good_move"",42865.1,3247.5,2333.6,39617.7,913.8,""smooth"",""down"",""down"",""good_move"",46140.4,3275.2,2616.9,42865.3,658.3,""oops"",""left"",""left"",""good_move""]","","",""
"4207","","<div style=""width:500px;"">
  <p>What determined the result of this run?</p>
  </div>","50","html-slider-response","65","1475980","0.0-10.0-1.5","213","1","2025-07-02 10:47:49","80fe4187154257d5fb01684ea91b68b9","196.39.253.117","Mozilla/5.0 (Windows NT 10.0; Win64; x64) AppleWebKit/537.36 (KHTML, like Gecko) Chrome/137.0.0.0 Safari/537.36","WebKit","Chrome","137.0.0.0","Windows","10.0","https://app.prolific.com/","en-US,en;q=0.9","612dd1efd339db83def47366","683db6dfa200031b80f2a654","68650767da92bc5d2c90dfd4","612dd1efd339db83def47366","2025-07-02T11:13:19.130Z","","","","","","AttribQ","","","","","","","","","","","","","","","","","","","","","","","","","","","","","","","","","","","","","","50",""
"5387","","<div style=""width:500px;"">
  <p>How much control did you have over the ball?</p>
  </div>","50","html-slider-response","66","1481373","0.0-10.0-2.5","213","1","2025-07-02 10:47:49","80fe4187154257d5fb01684ea91b68b9","196.39.253.117","Mozilla/5.0 (Windows NT 10.0; Win64; x64) AppleWebKit/537.36 (KHTML, like Gecko) Chrome/137.0.0.0 Safari/537.36","WebKit","Chrome","137.0.0.0","Windows","10.0","https://app.prolific.com/","en-US,en;q=0.9","612dd1efd339db83def47366","683db6dfa200031b80f2a654","68650767da92bc5d2c90dfd4","612dd1efd339db83def47366","2025-07-02T11:13:24.523Z","","","","","","ControlQ","","","","","","","","","","","","","","","","","","","","","","","","","","","","","","","","","","","","","","50",""
"3441","","<div style=""width:500px;"">
  <p>How would you describe your current emotional state?</p>
  </div>","0","html-slider-response","67","1484821","0.0-10.0-3.5","213","1","2025-07-02 10:47:49","80fe4187154257d5fb01684ea91b68b9","196.39.253.117","Mozilla/5.0 (Windows NT 10.0; Win64; x64) AppleWebKit/537.36 (KHTML, like Gecko) Chrome/137.0.0.0 Safari/537.36","WebKit","Chrome","137.0.0.0","Windows","10.0","https://app.prolific.com/","en-US,en;q=0.9","612dd1efd339db83def47366","683db6dfa200031b80f2a654","68650767da92bc5d2c90dfd4","612dd1efd339db83def47366","2025-07-02T11:13:27.971Z","","","","","","StressQ","","","","","","","","","","","","","","","","","","","","","","","","","","","","","","","","","","","","","","50",""
"3290","","<div style=""width:500px;"">
  <p>What best describes how you currently feel?</p>
  </div>","100","html-slider-response","68","1488115","0.0-10.0-4.5","213","1","2025-07-02 10:47:49","80fe4187154257d5fb01684ea91b68b9","196.39.253.117","Mozilla/5.0 (Windows NT 10.0; Win64; x64) AppleWebKit/537.36 (KHTML, like Gecko) Chrome/137.0.0.0 Safari/537.36","WebKit","Chrome","137.0.0.0","Windows","10.0","https://app.prolific.com/","en-US,en;q=0.9","612dd1efd339db83def47366","683db6dfa200031b80f2a654","68650767da92bc5d2c90dfd4","612dd1efd339db83def47366","2025-07-02T11:13:31.266Z","","","","","","MotivationQ","","","","","","","","","","","","","","","","","","","","","","","","","","","","","","","","","","","","","","50",""
"","","","","ctl-task-cpt","69","1533354","0.0-10.0-0.6","213","1","2025-07-02 10:47:49","80fe4187154257d5fb01684ea91b68b9","196.39.253.117","Mozilla/5.0 (Windows NT 10.0; Win64; x64) AppleWebKit/537.36 (KHTML, like Gecko) Chrome/137.0.0.0 Safari/537.36","WebKit","Chrome","137.0.0.0","Windows","10.0","https://app.prolific.com/","en-US,en;q=0.9","612dd1efd339db83def47366","683db6dfa200031b80f2a654","68650767da92bc5d2c90dfd4","612dd1efd339db83def47366","2025-07-02T11:14:16.505Z","","","","","","","","","","","","","","","","win-only","3","g1:SW,g2:NE","0.4","7","0","1534172.1","1938.5","6946.7","42204.1","1","4","4","6","2","4","4","22","18","0.16666666666666666","2263.3","3000","1220","[""up"",""right""]","{""num_key_presses"":8,""num_perfect"":4,""num_errors"":0,""num_randdir"":4,""num_randdir_good_moves"":3,""num_whilered"":0,""num_whileblue"":0,""num_blue"":3,""num_good_moves"":7}","[298.22232142857143,298.12857142857143,1,298.22232142857143,298.12857142857143,116,298.22232142857143,298.12857142857143,218,298.22232142857143,298.12857142857143,344.8,298.22232142857143,298.12857142857143,458.2,298.22232142857143,298.12857142857143,574.8,298.22232142857143,298.12857142857143,682,298.22232142857143,298.12857142857143,788.3,290.22232142857143,307.12857142857143,918,283.22232142857143,317.12857142857143,1023.4,276.22232142857143,324.12857142857143,1135.4,273.22232142857143,326.12857142857143,1261.6,222.22232142857143,377.12857142857143,1365.2,100.22232142857143,534.1285714285714,1496.7,85.22232142857143,544.1285714285714,1602,277.22232142857143,344.12857142857143,1711.6,543.2223214285714,96.12857142857143,1814.7,584.2223214285714,47.128571428571426,1924.4,586.2223214285714,45.128571428571426,2045.7,586.2223214285714,45.128571428571426,2155.5,586.2223214285714,45.128571428571426,2275,586.2223214285714,45.128571428571426,2379.7,586.2223214285714,45.128571428571426,2489.4,586.2223214285714,45.128571428571426,2609.1,586.2223214285714,45.128571428571426,2729.4,586.2223214285714,45.128571428571426,2859,586.2223214285714,45.128571428571426,2983,586.2223214285714,45.128571428571426,3090.6,586.2223214285714,45.128571428571426,3196.4,586.2223214285714,45.128571428571426,3302.2,586.2223214285714,45.128571428571426,3408.4,586.2223214285714,45.128571428571426,3516.9,586.2223214285714,45.128571428571426,3626.3,586.2223214285714,45.128571428571426,3736.1,586.2223214285714,45.128571428571426,3848,586.2223214285714,45.128571428571426,3962.6,586.2223214285714,45.128571428571426,4068.8,586.2223214285714,45.128571428571426,4177.4,586.2223214285714,45.128571428571426,4290.3,586.2223214285714,45.128571428571426,4399.2,586.2223214285714,45.128571428571426,4499.7,586.2223214285714,45.128571428571426,4609.9,586.2223214285714,45.128571428571426,4731.3,586.2223214285714,45.128571428571426,4842.5,586.2223214285714,45.128571428571426,4946.6]","[1751.8,1751.8,1000,0,751.8,""smooth"",""right"",""right"",""good_move"",4776.4,3024.1,2389.3,1752.3,634.8,""smooth"",""right"",""right"",""good_move"",14596.5,9820,2189.7,11871.2,535.6,""oops"",""right"",""up"",""good_move"",19579.2,4982.4,3571.7,14596.8,1410.7,""smooth"",""up"",""up"",""good_move"",22997.9,3418.6,2813.3,19579.3,605.3,""oops"",""up"",""right"",""good_move"",25456.7,2458.6,1882.2,22998.1,576.4,""oops"",""up"",""down"",""bad_move"",28344.5,2887.5,2366.8,25457,520.7,""smooth"",""up"",""up"",""good_move"",34943.2,6598.5,2642.2,31851,450,""oops"",""up"",""up"",""good_move""]","","",""
"4886","","<div style=""width:500px;"">
  <p>What determined the result of this run?</p>
  </div>","77","html-slider-response","70","1538243","0.0-10.0-1.6","213","1","2025-07-02 10:47:49","80fe4187154257d5fb01684ea91b68b9","196.39.253.117","Mozilla/5.0 (Windows NT 10.0; Win64; x64) AppleWebKit/537.36 (KHTML, like Gecko) Chrome/137.0.0.0 Safari/537.36","WebKit","Chrome","137.0.0.0","Windows","10.0","https://app.prolific.com/","en-US,en;q=0.9","612dd1efd339db83def47366","683db6dfa200031b80f2a654","68650767da92bc5d2c90dfd4","612dd1efd339db83def47366","2025-07-02T11:14:21.394Z","","","","","","AttribQ","","","","","","","","","","","","","","","","","","","","","","","","","","","","","","","","","","","","","","50",""
"9124","","<div style=""width:500px;"">
  <p>How much control did you have over the ball?</p>
  </div>","91","html-slider-response","71","1547371","0.0-10.0-2.6","213","1","2025-07-02 10:47:49","80fe4187154257d5fb01684ea91b68b9","196.39.253.117","Mozilla/5.0 (Windows NT 10.0; Win64; x64) AppleWebKit/537.36 (KHTML, like Gecko) Chrome/137.0.0.0 Safari/537.36","WebKit","Chrome","137.0.0.0","Windows","10.0","https://app.prolific.com/","en-US,en;q=0.9","612dd1efd339db83def47366","683db6dfa200031b80f2a654","68650767da92bc5d2c90dfd4","612dd1efd339db83def47366","2025-07-02T11:14:30.521Z","","","","","","ControlQ","","","","","","","","","","","","","","","","","","","","","","","","","","","","","","","","","","","","","","50",""
"4254","","<div style=""width:500px;"">
  <p>How would you describe your current emotional state?</p>
  </div>","0","html-slider-response","72","1551631","0.0-10.0-3.6","213","1","2025-07-02 10:47:49","80fe4187154257d5fb01684ea91b68b9","196.39.253.117","Mozilla/5.0 (Windows NT 10.0; Win64; x64) AppleWebKit/537.36 (KHTML, like Gecko) Chrome/137.0.0.0 Safari/537.36","WebKit","Chrome","137.0.0.0","Windows","10.0","https://app.prolific.com/","en-US,en;q=0.9","612dd1efd339db83def47366","683db6dfa200031b80f2a654","68650767da92bc5d2c90dfd4","612dd1efd339db83def47366","2025-07-02T11:14:34.781Z","","","","","","StressQ","","","","","","","","","","","","","","","","","","","","","","","","","","","","","","","","","","","","","","50",""
"3273","","<div style=""width:500px;"">
  <p>What best describes how you currently feel?</p>
  </div>","100","html-slider-response","73","1554916","0.0-10.0-4.6","213","1","2025-07-02 10:47:49","80fe4187154257d5fb01684ea91b68b9","196.39.253.117","Mozilla/5.0 (Windows NT 10.0; Win64; x64) AppleWebKit/537.36 (KHTML, like Gecko) Chrome/137.0.0.0 Safari/537.36","WebKit","Chrome","137.0.0.0","Windows","10.0","https://app.prolific.com/","en-US,en;q=0.9","612dd1efd339db83def47366","683db6dfa200031b80f2a654","68650767da92bc5d2c90dfd4","612dd1efd339db83def47366","2025-07-02T11:14:38.066Z","","","","","","MotivationQ","","","","","","","","","","","","","","","","","","","","","","","","","","","","","","","","","","","","","","50",""
"","","","","ctl-task-cpt","74","1682719","0.0-10.0-0.7","213","1","2025-07-02 10:47:49","80fe4187154257d5fb01684ea91b68b9","196.39.253.117","Mozilla/5.0 (Windows NT 10.0; Win64; x64) AppleWebKit/537.36 (KHTML, like Gecko) Chrome/137.0.0.0 Safari/537.36","WebKit","Chrome","137.0.0.0","Windows","10.0","https://app.prolific.com/","en-US,en;q=0.9","612dd1efd339db83def47366","683db6dfa200031b80f2a654","68650767da92bc5d2c90dfd4","612dd1efd339db83def47366","2025-07-02T11:16:45.869Z","","","","","","","","","","","","","","","","win-only","2","g1:SE,g2:NW","0.3","8","0","1600970.7","5538","10585.4","124767.9","1","4","8","6","2","-8","-8","14","22","0.10606060606060606","1753.1","3000","-890","[""left"",""up""]","{""num_key_presses"":22,""num_perfect"":6,""num_errors"":0,""num_randdir"":16,""num_randdir_good_moves"":7,""num_whilered"":0,""num_whileblue"":0,""num_blue"":9,""num_good_moves"":13}","[294.22232142857143,292.12857142857143,1.8,294.22232142857143,292.12857142857143,103.8,294.22232142857143,292.12857142857143,221.9,294.22232142857143,292.12857142857143,329.1,294.22232142857143,292.12857142857143,430.7,294.22232142857143,292.12857142857143,531,294.22232142857143,292.12857142857143,644.6,294.22232142857143,292.12857142857143,746,233.22232142857143,256.12857142857143,866.9,91.22232142857143,113.12857142857143,969.8,26.222321428571426,8.128571428571426,1076,25.222321428571426,5.128571428571426,1193.8,25.222321428571426,5.128571428571426,1302.1,25.222321428571426,5.128571428571426,1409.4,38.222321428571426,27.128571428571426,1516.1,40.222321428571426,29.128571428571426,1624.5,40.222321428571426,29.128571428571426,1725.3,40.222321428571426,29.128571428571426,1833.7,40.222321428571426,29.128571428571426,1943,40.222321428571426,29.128571428571426,2049.6,40.222321428571426,29.128571428571426,2166.3,40.222321428571426,29.128571428571426,2282.6,40.222321428571426,29.128571428571426,2389.4,40.222321428571426,29.128571428571426,2493,40.222321428571426,29.128571428571426,2597.5,40.222321428571426,29.128571428571426,2703,40.222321428571426,29.128571428571426,2815.5,40.222321428571426,29.128571428571426,2927.9,40.222321428571426,29.128571428571426,3033.6,40.222321428571426,29.128571428571426,3144.8,40.222321428571426,29.128571428571426,3247.7,40.222321428571426,29.128571428571426,3355.2,40.222321428571426,29.128571428571426,3469.5,40.222321428571426,29.128571428571426,3586.7,40.222321428571426,29.128571428571426,3698.6,40.222321428571426,29.128571428571426,3814.4,40.222321428571426,29.128571428571426,3929.4,40.222321428571426,29.128571428571426,4049.1,40.222321428571426,29.128571428571426,4168.8,40.222321428571426,29.128571428571426,4270.1,40.222321428571426,29.128571428571426,4373,40.222321428571426,29.128571428571426,4480.9,40.222321428571426,29.128571428571426,4599.1,40.222321428571426,29.128571428571426,4739.8,40.222321428571426,29.128571428571426,4849,40.222321428571426,29.128571428571426,4956.1]","[1593.6,1593.6,1000,0,593.6,""oops"",""left"",""down"",""bad_move"",4631.2,3034.3,2423.8,1596.9,610.5,""smooth"",""left"",""left"",""good_move"",11927.7,7296.1,2718.9,8718,490.8,""oops"",""left"",""right"",""bad_move"",22058,10129.9,2642.2,18935.8,480,""oops"",""up"",""down"",""bad_move"",28093.3,6034.8,2409.1,25144,540.2,""oops"",""left"",""right"",""bad_move"",34583.4,6489.8,2101.5,31905.6,576.3,""oops"",""right"",""right"",""bad_move"",37303.3,2719.7,1801.4,34583.6,918.3,""smooth"",""up"",""up"",""good_move"",46736.6,9432.9,2872.1,43290,574.5,""oops"",""up"",""up"",""good_move"",54674.6,7937.9,2658.7,51556.8,459.1,""oops"",""up"",""up"",""good_move"",58526.1,3851.4,2410.4,54674.7,1441,""smooth"",""up"",""up"",""good_move"",62624.1,4097.8,1661,58526.3,2436.8,""oops"",""up"",""up"",""good_move"",69809.2,7185.1,1889.2,67433.9,486.1,""oops"",""left"",""down"",""bad_move"",72775.8,2966.4,2275,69809.5,691.4,""oops"",""left"",""up"",""good_move"",78274.5,5498.5,3183.7,72776,2314.8,""smooth"",""left"",""left"",""good_move"",84552.3,6276.5,2296,81727.1,529.2,""oops"",""left"",""right"",""bad_move"",87223,2670.5,1553.6,84552.5,1116.9,""smooth"",""left"",""left"",""good_move"",91222.6,3999.4,2955.8,87223.2,1043.6,""oops"",""left"",""left"",""good_move"",95451.7,4229,2598.6,91222.7,1630.4,""oops"",""left"",""left"",""good_move"",100783.5,5331.8,2806.8,95451.7,2525.1,""oops"",""left"",""right"",""bad_move"",104204.9,3421.1,2800.8,100783.9,620.2,""smooth"",""left"",""left"",""good_move"",108633,4427.9,2877.6,104205.1,1550.3,""oops"",""left"",""right"",""bad_move"",111407.8,2774.7,2221.7,108633.1,553,""oops"",""left"",""left"",""good_move""]","","",""
"7641","","<div style=""width:500px;"">
  <p>What determined the result of this run?</p>
  </div>","5","html-slider-response","75","1690362","0.0-10.0-1.7","213","1","2025-07-02 10:47:49","80fe4187154257d5fb01684ea91b68b9","196.39.253.117","Mozilla/5.0 (Windows NT 10.0; Win64; x64) AppleWebKit/537.36 (KHTML, like Gecko) Chrome/137.0.0.0 Safari/537.36","WebKit","Chrome","137.0.0.0","Windows","10.0","https://app.prolific.com/","en-US,en;q=0.9","612dd1efd339db83def47366","683db6dfa200031b80f2a654","68650767da92bc5d2c90dfd4","612dd1efd339db83def47366","2025-07-02T11:16:53.512Z","","","","","","AttribQ","","","","","","","","","","","","","","","","","","","","","","","","","","","","","","","","","","","","","","50",""
"7472","","<div style=""width:500px;"">
  <p>How much control did you have over the ball?</p>
  </div>","11","html-slider-response","76","1697837","0.0-10.0-2.7","213","1","2025-07-02 10:47:49","80fe4187154257d5fb01684ea91b68b9","196.39.253.117","Mozilla/5.0 (Windows NT 10.0; Win64; x64) AppleWebKit/537.36 (KHTML, like Gecko) Chrome/137.0.0.0 Safari/537.36","WebKit","Chrome","137.0.0.0","Windows","10.0","https://app.prolific.com/","en-US,en;q=0.9","612dd1efd339db83def47366","683db6dfa200031b80f2a654","68650767da92bc5d2c90dfd4","612dd1efd339db83def47366","2025-07-02T11:17:00.988Z","","","","","","ControlQ","","","","","","","","","","","","","","","","","","","","","","","","","","","","","","","","","","","","","","50",""
"3310","","<div style=""width:500px;"">
  <p>How would you describe your current emotional state?</p>
  </div>","0","html-slider-response","77","1701152","0.0-10.0-3.7","213","1","2025-07-02 10:47:49","80fe4187154257d5fb01684ea91b68b9","196.39.253.117","Mozilla/5.0 (Windows NT 10.0; Win64; x64) AppleWebKit/537.36 (KHTML, like Gecko) Chrome/137.0.0.0 Safari/537.36","WebKit","Chrome","137.0.0.0","Windows","10.0","https://app.prolific.com/","en-US,en;q=0.9","612dd1efd339db83def47366","683db6dfa200031b80f2a654","68650767da92bc5d2c90dfd4","612dd1efd339db83def47366","2025-07-02T11:17:04.303Z","","","","","","StressQ","","","","","","","","","","","","","","","","","","","","","","","","","","","","","","","","","","","","","","50",""
"5181","","<div style=""width:500px;"">
  <p>What best describes how you currently feel?</p>
  </div>","82","html-slider-response","78","1706338","0.0-10.0-4.7","213","1","2025-07-02 10:47:49","80fe4187154257d5fb01684ea91b68b9","196.39.253.117","Mozilla/5.0 (Windows NT 10.0; Win64; x64) AppleWebKit/537.36 (KHTML, like Gecko) Chrome/137.0.0.0 Safari/537.36","WebKit","Chrome","137.0.0.0","Windows","10.0","https://app.prolific.com/","en-US,en;q=0.9","612dd1efd339db83def47366","683db6dfa200031b80f2a654","68650767da92bc5d2c90dfd4","612dd1efd339db83def47366","2025-07-02T11:17:09.488Z","","","","","","MotivationQ","","","","","","","","","","","","","","","","","","","","","","","","","","","","","","","","","","","","","","50",""
"","","","","ctl-task-cpt","79","1815448","0.0-10.0-0.8","213","1","2025-07-02 10:47:49","80fe4187154257d5fb01684ea91b68b9","196.39.253.117","Mozilla/5.0 (Windows NT 10.0; Win64; x64) AppleWebKit/537.36 (KHTML, like Gecko) Chrome/137.0.0.0 Safari/537.36","WebKit","Chrome","137.0.0.0","Windows","10.0","https://app.prolific.com/","en-US,en;q=0.9","612dd1efd339db83def47366","683db6dfa200031b80f2a654","68650767da92bc5d2c90dfd4","612dd1efd339db83def47366","2025-07-02T11:18:58.598Z","","","","","","","","","","","","","","","","win-only","0","g1:NW,g2:SE","0.4","9","0","1752396.5","2182.3","7189.5","106060.3","1","4","4","6","2","-4","-5","9","14","0.06818181818181818","2194","3000","-615","[""down"",""right""]","{""num_key_presses"":20,""num_perfect"":7,""num_errors"":1,""num_randdir"":12,""num_randdir_good_moves"":3,""num_whilered"":0,""num_whileblue"":1,""num_blue"":9,""num_good_moves"":11}","[299.22232142857143,299.12857142857143,3.5,299.22232142857143,299.12857142857143,100.5,299.22232142857143,299.12857142857143,209,299.22232142857143,299.12857142857143,315.5,299.22232142857143,299.12857142857143,423,299.22232142857143,299.12857142857143,525,299.22232142857143,299.12857142857143,635.4,299.22232142857143,299.12857142857143,750.2,299.22232142857143,299.12857142857143,862,299.22232142857143,299.12857142857143,980.2,302.22232142857143,300.12857142857143,1094.7,377.22232142857143,357.12857142857143,1210.2,410.22232142857143,391.12857142857143,1337.1,451.22232142857143,425.12857142857143,1447.9,497.22232142857143,472.12857142857143,1565.6,497.22232142857143,472.12857142857143,1678.1,498.22232142857143,475.12857142857143,1793.7,532.2223214285714,523.1285714285714,1903.3,536.2223214285714,528.1285714285714,2007.9,536.2223214285714,528.1285714285714,2118.1,536.2223214285714,528.1285714285714,2227.8,536.2223214285714,528.1285714285714,2330.3,536.2223214285714,528.1285714285714,2434,536.2223214285714,528.1285714285714,2545.2,536.2223214285714,528.1285714285714,2651.4,536.2223214285714,528.1285714285714,2758.2,536.2223214285714,528.1285714285714,2862.4,536.2223214285714,528.1285714285714,2971,536.2223214285714,528.1285714285714,3088.7,536.2223214285714,528.1285714285714,3192.9,536.2223214285714,528.1285714285714,3298.4,536.2223214285714,528.1285714285714,3401.8,536.2223214285714,528.1285714285714,3520.3,536.2223214285714,528.1285714285714,3631.1,536.2223214285714,528.1285714285714,3743.7,536.2223214285714,528.1285714285714,3857.8,536.2223214285714,528.1285714285714,3975,536.2223214285714,528.1285714285714,4097.7,536.2223214285714,528.1285714285714,4204.6,536.2223214285714,528.1285714285714,4312.1,536.2223214285714,528.1285714285714,4425.9,536.2223214285714,528.1285714285714,4541.6,536.2223214285714,528.1285714285714,4660,536.2223214285714,528.1285714285714,4776.2,536.2223214285714,528.1285714285714,4926.7]","[1544.8,1544.8,1000,0,544.8,""smooth"",""down"",""down"",""good_move"",4344.4,2798.2,2253.8,1546.2,544.4,""smooth"",""down"",""down"",""good_move"",7498.2,3152.9,2705.9,4345.4,446.9,""oops"",""right"",""up"",""bad_move"",10854.9,3356.3,2514.3,7498.6,842,""oops"",""down"",""left"",""bad_move"",14748.6,3893.3,1727.3,10855.3,2166,""smooth"",""down"",""down"",""good_move"",18241.6,3492.8,3005.3,14748.8,487.5,""oops"",""down"",""left"",""bad_move"",25609.9,7368,2742,22377.2,490.7,""oops"",""down"",""up"",""bad_move"",35530.1,9919.5,2040.9,33046.9,442.3,""oops"",""right"",""down"",""good_move"",42335.8,6805.6,2692.6,39121.8,521.4,""oops"",""right"",""right"",""good_move"",49190.7,6854.6,2364,46121.5,705.2,""smooth"",""right"",""right"",""good_move"",59573.2,10382.4,3104.9,55954.2,514.1,""smooth"",""right"",""right"",""good_move"",63177.1,3603.8,3051.3,59573.3,552.5,""oops"",""right"",""up"",""bad_move"",66931.2,3753.7,2582.4,63177.5,1171.3,""smooth"",""right"",""right"",""good_move"",69768.7,2837.4,2295.4,66931.3,542,""oops"",""right"",""up"",""bad_move"",74548.6,4779.8,2478.4,69768.8,2301.4,""oops"",""down"",""up"",""bad_move"",78479,3930.3,2228.8,74548.7,1701.5,""oops"",""right"",""up"",""bad_move"",82881.8,4402.4,3977.1,78479.5,425.3,""while_blue"",""down"",""down"",""good_move"",85720.2,2837,2238.5,82883.3,598.4,""oops"",""down"",""right"",""good_move"",88642.9,2922.6,2362.5,85720.4,560,""smooth"",""down"",""down"",""good_move"",91188.8,2545.8,2119.9,88643,425.9,""oops"",""down"",""left"",""bad_move""]","","",""
"4786","","<div style=""width:500px;"">
  <p>What determined the result of this run?</p>
  </div>","0","html-slider-response","80","1820238","0.0-10.0-1.8","213","1","2025-07-02 10:47:49","80fe4187154257d5fb01684ea91b68b9","196.39.253.117","Mozilla/5.0 (Windows NT 10.0; Win64; x64) AppleWebKit/537.36 (KHTML, like Gecko) Chrome/137.0.0.0 Safari/537.36","WebKit","Chrome","137.0.0.0","Windows","10.0","https://app.prolific.com/","en-US,en;q=0.9","612dd1efd339db83def47366","683db6dfa200031b80f2a654","68650767da92bc5d2c90dfd4","612dd1efd339db83def47366","2025-07-02T11:19:03.388Z","","","","","","AttribQ","","","","","","","","","","","","","","","","","","","","","","","","","","","","","","","","","","","","","","50",""
"4652","","<div style=""width:500px;"">
  <p>How much control did you have over the ball?</p>
  </div>","0","html-slider-response","81","1824899","0.0-10.0-2.8","213","1","2025-07-02 10:47:49","80fe4187154257d5fb01684ea91b68b9","196.39.253.117","Mozilla/5.0 (Windows NT 10.0; Win64; x64) AppleWebKit/537.36 (KHTML, like Gecko) Chrome/137.0.0.0 Safari/537.36","WebKit","Chrome","137.0.0.0","Windows","10.0","https://app.prolific.com/","en-US,en;q=0.9","612dd1efd339db83def47366","683db6dfa200031b80f2a654","68650767da92bc5d2c90dfd4","612dd1efd339db83def47366","2025-07-02T11:19:08.050Z","","","","","","ControlQ","","","","","","","","","","","","","","","","","","","","","","","","","","","","","","","","","","","","","","50",""
"5913","","<div style=""width:500px;"">
  <p>How would you describe your current emotional state?</p>
  </div>","17","html-slider-response","82","1830818","0.0-10.0-3.8","213","1","2025-07-02 10:47:49","80fe4187154257d5fb01684ea91b68b9","196.39.253.117","Mozilla/5.0 (Windows NT 10.0; Win64; x64) AppleWebKit/537.36 (KHTML, like Gecko) Chrome/137.0.0.0 Safari/537.36","WebKit","Chrome","137.0.0.0","Windows","10.0","https://app.prolific.com/","en-US,en;q=0.9","612dd1efd339db83def47366","683db6dfa200031b80f2a654","68650767da92bc5d2c90dfd4","612dd1efd339db83def47366","2025-07-02T11:19:13.970Z","","","","","","StressQ","","","","","","","","","","","","","","","","","","","","","","","","","","","","","","","","","","","","","","50",""
"4061","","<div style=""width:500px;"">
  <p>What best describes how you currently feel?</p>
  </div>","100","html-slider-response","83","1834886","0.0-10.0-4.8","213","1","2025-07-02 10:47:49","80fe4187154257d5fb01684ea91b68b9","196.39.253.117","Mozilla/5.0 (Windows NT 10.0; Win64; x64) AppleWebKit/537.36 (KHTML, like Gecko) Chrome/137.0.0.0 Safari/537.36","WebKit","Chrome","137.0.0.0","Windows","10.0","https://app.prolific.com/","en-US,en;q=0.9","612dd1efd339db83def47366","683db6dfa200031b80f2a654","68650767da92bc5d2c90dfd4","612dd1efd339db83def47366","2025-07-02T11:19:18.036Z","","","","","","MotivationQ","","","","","","","","","","","","","","","","","","","","","","","","","","","","","","","","","","","","","","50",""
