"rt","response_timestamp","stimulus","response","trial_type","trial_index","time_elapsed","internal_node_id","run_id","condition","recorded_at","source_code_version","ip","user_agent","device","browser","browser_version","platform","platform_version","referer","accept_language","PROLIFIC_PID","STUDY_ID","SESSION_ID","prolific_id","realtime","view_history","question_order","consent","success","question_id","eventType","responses","item_order","radio_event_ids","radio_event_times","key_event_times","mouse_event_times","straightlining","zigzagging","honeypot","which_type","canvas_config","goals_layout","control_level","trial_number","tutorial_trial_number","trial_start_time","phase1_start_time","phase2_start_time","phase3_start_time","goal_1_value","goal_1_distance","goal_2_value","goal_2_distance","goal_selected","outcome","outcome_total","participant_final_score","participant_initial_score","participant_final_score_prop","goal_choice_rt","allocated_time","allocated_time_remaining","goal_direction","counts","mouse_movements","key_presses","correct","slider_start"
"336047","1751451879918","<p style='font-size:40px;line-height:1.25'><strong>Welcome to the experiment!</strong></p><p style='font-size:1.1em;line-height:1.25'>Thank you for your interest in our experiment! Before you begin, it is important that we obtain your informed consent to participate in the study.</p><p style='font-size:1.1em;line-height:1.25'>On the next screen will be an <strong>information sheet</strong> for you to read. To participate in the study we need you to read this information sheet and the following consent form carefully. If you agree with all the statements, please click the <strong>I agree</strong> button.</p><p style='font-size:1.1em;line-height:1.25'>Press <strong>Next</strong> to read the information sheet.</p>","0","custom-html-button-response","0","336051","0.0-0.0","62","1","2025-07-02 10:18:58","80fe4187154257d5fb01684ea91b68b9","41.76.96.194","Mozilla/5.0 (Windows NT 10.0; Win64; x64) AppleWebKit/537.36 (KHTML, like Gecko) Chrome/137.0.0.0 Safari/537.36","WebKit","Chrome","137.0.0.0","Windows","10.0","https://app.prolific.com/","en-ZA,en-GB;q=0.9,en-US;q=0.8,en;q=0.7","612d86a981a81014cd1cb48f","683db6dfa200031b80f2a654","6865078a5400bdc6c835830c","612d86a981a81014cd1cb48f","2025-07-02T10:24:39.922Z","","","","","","","","","","","","","","","","","","","","","","","","","","","","","","","","","","","","","","","","","","","",""
"35064","","","","instructions","1","371121","0.0-1.0","62","1","2025-07-02 10:18:58","80fe4187154257d5fb01684ea91b68b9","41.76.96.194","Mozilla/5.0 (Windows NT 10.0; Win64; x64) AppleWebKit/537.36 (KHTML, like Gecko) Chrome/137.0.0.0 Safari/537.36","WebKit","Chrome","137.0.0.0","Windows","10.0","https://app.prolific.com/","en-ZA,en-GB;q=0.9,en-US;q=0.8,en;q=0.7","612d86a981a81014cd1cb48f","683db6dfa200031b80f2a654","6865078a5400bdc6c835830c","612d86a981a81014cd1cb48f","","[{""page_index"":0,""viewing_time"":15224},{""page_index"":1,""viewing_time"":19839}]","","","","","","","","","","","","","","","","","","","","","","","","","","","","","","","","","","","","","","","","","","",""
"6066","","","{""Q0"":"""",""Q1"":"""",""Q2"":"""",""Q3"":"""",""Q4"":"""",""Q5"":"""",""Q6"":""I agree""}","survey-multi-choice","2","377197","0.0-2.0","62","1","2025-07-02 10:18:58","80fe4187154257d5fb01684ea91b68b9","41.76.96.194","Mozilla/5.0 (Windows NT 10.0; Win64; x64) AppleWebKit/537.36 (KHTML, like Gecko) Chrome/137.0.0.0 Safari/537.36","WebKit","Chrome","137.0.0.0","Windows","10.0","https://app.prolific.com/","en-ZA,en-GB;q=0.9,en-US;q=0.8,en;q=0.7","612d86a981a81014cd1cb48f","683db6dfa200031b80f2a654","6865078a5400bdc6c835830c","612d86a981a81014cd1cb48f","","","[0,1,2,3,4,5,6]","true","","","","","","","","","","","","","","","","","","","","","","","","","","","","","","","","","","","","","","","","",""
"454909","","","","fullscreen","3","833129","0.0-4.0","62","1","2025-07-02 10:18:58","80fe4187154257d5fb01684ea91b68b9","41.76.96.194","Mozilla/5.0 (Windows NT 10.0; Win64; x64) AppleWebKit/537.36 (KHTML, like Gecko) Chrome/137.0.0.0 Safari/537.36","WebKit","Chrome","137.0.0.0","Windows","10.0","https://app.prolific.com/","en-ZA,en-GB;q=0.9,en-US;q=0.8,en;q=0.7","612d86a981a81014cd1cb48f","683db6dfa200031b80f2a654","6865078a5400bdc6c835830c","612d86a981a81014cd1cb48f","","","","","true","","","","","","","","","","","","","","","","","","","","","","","","","","","","","","","","","","","","","","","",""
"9192","1751452386193"," <p style='font-size:1.1em;line-height:1.25'>Thank you for completing the consent form and closing all other tabs.</p><p style='font-size:1.1em;line-height:1.25'>We will now invite you to fill in some demographic information and questionnaires, before starting the game.<br>This will take about 5 minutes.<br></p><p style='font-size:1.1em;line-height:1.25'>Press the <strong>Next</strong> button to continue.</p>","0","custom-html-button-response","4","842324","0.0-5.0","62","1","2025-07-02 10:18:58","80fe4187154257d5fb01684ea91b68b9","41.76.96.194","Mozilla/5.0 (Windows NT 10.0; Win64; x64) AppleWebKit/537.36 (KHTML, like Gecko) Chrome/137.0.0.0 Safari/537.36","WebKit","Chrome","137.0.0.0","Windows","10.0","https://app.prolific.com/","en-ZA,en-GB;q=0.9,en-US;q=0.8,en;q=0.7","612d86a981a81014cd1cb48f","683db6dfa200031b80f2a654","6865078a5400bdc6c835830c","612d86a981a81014cd1cb48f","2025-07-02T10:33:06.194Z","","","","","","","","","","","","","","","","","","","","","","","","","","","","","","","","","","","","","","","","","","","",""
"4230","","","{""age"":""27""}","survey-text","5","846566","0.0-6.0-0.0","62","1","2025-07-02 10:18:58","80fe4187154257d5fb01684ea91b68b9","41.76.96.194","Mozilla/5.0 (Windows NT 10.0; Win64; x64) AppleWebKit/537.36 (KHTML, like Gecko) Chrome/137.0.0.0 Safari/537.36","WebKit","Chrome","137.0.0.0","Windows","10.0","https://app.prolific.com/","en-ZA,en-GB;q=0.9,en-US;q=0.8,en;q=0.7","612d86a981a81014cd1cb48f","683db6dfa200031b80f2a654","6865078a5400bdc6c835830c","612d86a981a81014cd1cb48f","","","","","","0","demographics","","","","","","","","","","","","","","","","","","","","","","","","","","","","","","","","","","","","","",""
"2637","","","{""gender_identity"":""female/woman""}","survey-multi-choice","6","849205","0.0-6.0-1.0","62","1","2025-07-02 10:18:58","80fe4187154257d5fb01684ea91b68b9","41.76.96.194","Mozilla/5.0 (Windows NT 10.0; Win64; x64) AppleWebKit/537.36 (KHTML, like Gecko) Chrome/137.0.0.0 Safari/537.36","WebKit","Chrome","137.0.0.0","Windows","10.0","https://app.prolific.com/","en-ZA,en-GB;q=0.9,en-US;q=0.8,en;q=0.7","612d86a981a81014cd1cb48f","683db6dfa200031b80f2a654","6865078a5400bdc6c835830c","612d86a981a81014cd1cb48f","","","[0]","","","1","demographics","","","","","","","","","","","","","","","","","","","","","","","","","","","","","","","","","","","","","",""
"4037","","","{""assigned_sex"":""female""}","survey-multi-choice","7","853245","0.0-6.0-2.0","62","1","2025-07-02 10:18:58","80fe4187154257d5fb01684ea91b68b9","41.76.96.194","Mozilla/5.0 (Windows NT 10.0; Win64; x64) AppleWebKit/537.36 (KHTML, like Gecko) Chrome/137.0.0.0 Safari/537.36","WebKit","Chrome","137.0.0.0","Windows","10.0","https://app.prolific.com/","en-ZA,en-GB;q=0.9,en-US;q=0.8,en;q=0.7","612d86a981a81014cd1cb48f","683db6dfa200031b80f2a654","6865078a5400bdc6c835830c","612d86a981a81014cd1cb48f","","","[0]","","","2","demographics","","","","","","","","","","","","","","","","","","","","","","","","","","","","","","","","","","","","","",""
"4661","","","{""menstrual_cycle"":""Yes""}","survey-multi-choice","8","857909","0.0-6.0-3.0","62","1","2025-07-02 10:18:58","80fe4187154257d5fb01684ea91b68b9","41.76.96.194","Mozilla/5.0 (Windows NT 10.0; Win64; x64) AppleWebKit/537.36 (KHTML, like Gecko) Chrome/137.0.0.0 Safari/537.36","WebKit","Chrome","137.0.0.0","Windows","10.0","https://app.prolific.com/","en-ZA,en-GB;q=0.9,en-US;q=0.8,en;q=0.7","612d86a981a81014cd1cb48f","683db6dfa200031b80f2a654","6865078a5400bdc6c835830c","612d86a981a81014cd1cb48f","","","[0]","","","4","demographics","","","","","","","","","","","","","","","","","","","","","","","","","","","","","","","","","","","","","",""
"4646","","","{""education"":""Bachelor's Degree (e.g., BA)""}","survey-multi-choice","9","862558","0.0-6.0-4.0","62","1","2025-07-02 10:18:58","80fe4187154257d5fb01684ea91b68b9","41.76.96.194","Mozilla/5.0 (Windows NT 10.0; Win64; x64) AppleWebKit/537.36 (KHTML, like Gecko) Chrome/137.0.0.0 Safari/537.36","WebKit","Chrome","137.0.0.0","Windows","10.0","https://app.prolific.com/","en-ZA,en-GB;q=0.9,en-US;q=0.8,en;q=0.7","612d86a981a81014cd1cb48f","683db6dfa200031b80f2a654","6865078a5400bdc6c835830c","612d86a981a81014cd1cb48f","","","[0]","","","5","demographics","","","","","","","","","","","","","","","","","","","","","","","","","","","","","","","","","","","","","",""
"34485","","","{""education"":""Master's Degree (e.g., MSc)""}","survey-multi-choice","10","897046","0.0-6.0-5.0","62","1","2025-07-02 10:18:58","80fe4187154257d5fb01684ea91b68b9","41.76.96.194","Mozilla/5.0 (Windows NT 10.0; Win64; x64) AppleWebKit/537.36 (KHTML, like Gecko) Chrome/137.0.0.0 Safari/537.36","WebKit","Chrome","137.0.0.0","Windows","10.0","https://app.prolific.com/","en-ZA,en-GB;q=0.9,en-US;q=0.8,en;q=0.7","612d86a981a81014cd1cb48f","683db6dfa200031b80f2a654","6865078a5400bdc6c835830c","612d86a981a81014cd1cb48f","2025-07-02T10:34:00.915Z","","[0]","","","6","demographics","","","","","","","","","","","","","","","","","","","","","","","","","","","","","","","","","","","","","",""
"17490","","","{""mental_health_condition"":""No"",""mental_health_treatment"":""No"",""psychiatric_medication"":""""}","survey-text","11","914542","0.0-7.0-0.0","62","1","2025-07-02 10:18:58","80fe4187154257d5fb01684ea91b68b9","41.76.96.194","Mozilla/5.0 (Windows NT 10.0; Win64; x64) AppleWebKit/537.36 (KHTML, like Gecko) Chrome/137.0.0.0 Safari/537.36","WebKit","Chrome","137.0.0.0","Windows","10.0","https://app.prolific.com/","en-ZA,en-GB;q=0.9,en-US;q=0.8,en;q=0.7","612d86a981a81014cd1cb48f","683db6dfa200031b80f2a654","6865078a5400bdc6c835830c","612d86a981a81014cd1cb48f","2025-07-02T10:34:18.411Z","","","","","1","mental_health","","","","","","","","","","","","","","","","","","","","","","","","","","","","","","","","","","","","","",""
"24190","","","{""depression_history"":[""No""]}","survey-multi-select","12","938743","0.0-7.0-1.0","62","1","2025-07-02 10:18:58","80fe4187154257d5fb01684ea91b68b9","41.76.96.194","Mozilla/5.0 (Windows NT 10.0; Win64; x64) AppleWebKit/537.36 (KHTML, like Gecko) Chrome/137.0.0.0 Safari/537.36","WebKit","Chrome","137.0.0.0","Windows","10.0","https://app.prolific.com/","en-ZA,en-GB;q=0.9,en-US;q=0.8,en;q=0.7","612d86a981a81014cd1cb48f","683db6dfa200031b80f2a654","6865078a5400bdc6c835830c","612d86a981a81014cd1cb48f","","","[0]","","","","mental_health","","","","","","","","","","","","","","","","","","","","","","","","","","","","","","","","","","","","","",""
"100841.39999999851","","","","survey-template","13","1039600","0.0-7.0-3.0","62","1","2025-07-02 10:18:58","80fe4187154257d5fb01684ea91b68b9","41.76.96.194","Mozilla/5.0 (Windows NT 10.0; Win64; x64) AppleWebKit/537.36 (KHTML, like Gecko) Chrome/137.0.0.0 Safari/537.36","WebKit","Chrome","137.0.0.0","Windows","10.0","https://app.prolific.com/","en-ZA,en-GB;q=0.9,en-US;q=0.8,en;q=0.7","612d86a981a81014cd1cb48f","683db6dfa200031b80f2a654","6865078a5400bdc6c835830c","612d86a981a81014cd1cb48f","2025-07-02T10:36:23.469Z","","","","","","ius","{""Q01"":""2"",""Q02"":""3"",""Q03"":""1"",""Q04"":""3"",""Q05"":""1"",""Q06"":""0"",""Q07"":""2"",""Q08"":""0"",""Q09"":""3"",""Q10"":""1"",""Q11"":""0"",""Q12"":""3"",""Q13"":""1""}","[0,1,2,3,4,5,6,7,8,9,10,11,12]","[""Q01"",""Q02"",""Q03"",""Q04"",""Q05"",""Q06"",""Q07"",""Q08"",""Q09"",""Q10"",""Q11"",""Q12"",""Q13""]","[19581,28828.79999999702,36868.89999999851,43309,54005.20000000298,63140.20000000298,68893.10000000149,73445,81373.29999999702,84996,88493.20000000298,93965.29999999702,99301.20000000298]","[]","[19581,28828.79999999702,36868.89999999851,43309,54005.20000000298,63140.20000000298,68893.10000000149,73445,80941.20000000298,81373.29999999702,84996,88493.20000000298,93965.29999999702,98150.10000000149,99301.20000000298,100837.39999999851]","0.3076923076923077","0.25","0","","","","","","","","","","","","","","","","","","","","","","","","","","","","",""
"5492","1751452588962","<p style='font-size:1.1em;line-height:1.25'>In the following, we will ask you a few questions relating to your experiences over the past month.<br></p><p style='font-size:1.1em;line-height:1.25'>Press the <strong>Next</strong> button to continue.</p>","0","custom-html-button-response","14","1045094","0.0-7.0-4.0","62","1","2025-07-02 10:18:58","80fe4187154257d5fb01684ea91b68b9","41.76.96.194","Mozilla/5.0 (Windows NT 10.0; Win64; x64) AppleWebKit/537.36 (KHTML, like Gecko) Chrome/137.0.0.0 Safari/537.36","WebKit","Chrome","137.0.0.0","Windows","10.0","https://app.prolific.com/","en-ZA,en-GB;q=0.9,en-US;q=0.8,en;q=0.7","612d86a981a81014cd1cb48f","683db6dfa200031b80f2a654","6865078a5400bdc6c835830c","612d86a981a81014cd1cb48f","2025-07-02T10:36:28.963Z","","","","","","","","","","","","","","","","","","","","","","","","","","","","","","","","","","","","","","","","","","","",""
"96024.39999999851","","","","survey-template","15","1141124","0.0-7.0-5.0","62","1","2025-07-02 10:18:58","80fe4187154257d5fb01684ea91b68b9","41.76.96.194","Mozilla/5.0 (Windows NT 10.0; Win64; x64) AppleWebKit/537.36 (KHTML, like Gecko) Chrome/137.0.0.0 Safari/537.36","WebKit","Chrome","137.0.0.0","Windows","10.0","https://app.prolific.com/","en-ZA,en-GB;q=0.9,en-US;q=0.8,en;q=0.7","612d86a981a81014cd1cb48f","683db6dfa200031b80f2a654","6865078a5400bdc6c835830c","612d86a981a81014cd1cb48f","2025-07-02T10:38:04.993Z","","","","","","pss","{""Q01"":""3"",""Q02"":""2"",""Q03"":""3"",""Q04"":""0"",""Q05"":""0"",""Q06"":""2"",""Q07"":""1"",""Q08"":""0"",""Q09"":""3"",""Q10"":""2""}","[0,1,2,3,4,5,6,7,8,9]","[""Q01"",""Q02"",""Q03"",""Q04"",""Q05"",""Q06"",""Q07"",""Q08"",""Q09"",""Q10""]","[8579.89999999851,21156.89999999851,27747.79999999702,34332,42852.89999999851,53475.89999999851,60588,68300.5,80397,94500.39999999851]","[]","[1.2999999970197678,8579.89999999851,21156.89999999851,27747.79999999702,34332,41635.69999999553,42852.89999999851,53475.89999999851,59700.19999999553,60588,68300.5,80397,94500.39999999851,96020.60000000149]","0.4","0.7777777777777778","0","","","","","","","","","","","","","","","","","","","","","","","","","","","","",""
"6489","1751452691483","<p style='font-size:1.1em;line-height:1.25'>Thank you for your answers! Now we will ask you a few more questions relating to your feelings in the last 24 hours.<br></p><p style='font-size:1.1em;line-height:1.25'>Press the <strong>Next</strong> button to continue.</p>","0","custom-html-button-response","16","1147615","0.0-7.0-6.0","62","1","2025-07-02 10:18:58","80fe4187154257d5fb01684ea91b68b9","41.76.96.194","Mozilla/5.0 (Windows NT 10.0; Win64; x64) AppleWebKit/537.36 (KHTML, like Gecko) Chrome/137.0.0.0 Safari/537.36","WebKit","Chrome","137.0.0.0","Windows","10.0","https://app.prolific.com/","en-ZA,en-GB;q=0.9,en-US;q=0.8,en;q=0.7","612d86a981a81014cd1cb48f","683db6dfa200031b80f2a654","6865078a5400bdc6c835830c","612d86a981a81014cd1cb48f","2025-07-02T10:38:11.484Z","","","","","","","","","","","","","","","","","","","","","","","","","","","","","","","","","","","","","","","","","","","",""
"108314","","","","survey-template","17","1255935","0.0-7.0-7.0","62","1","2025-07-02 10:18:58","80fe4187154257d5fb01684ea91b68b9","41.76.96.194","Mozilla/5.0 (Windows NT 10.0; Win64; x64) AppleWebKit/537.36 (KHTML, like Gecko) Chrome/137.0.0.0 Safari/537.36","WebKit","Chrome","137.0.0.0","Windows","10.0","https://app.prolific.com/","en-ZA,en-GB;q=0.9,en-US;q=0.8,en;q=0.7","612d86a981a81014cd1cb48f","683db6dfa200031b80f2a654","6865078a5400bdc6c835830c","612d86a981a81014cd1cb48f","2025-07-02T10:39:59.805Z","","","","","","drsp","{""Q01"":""3"",""Q02"":""1"",""Q03"":""0"",""Q04"":""2"",""Q05"":""3"",""Q06"":""1"",""Q07"":""2"",""Q08"":""0"",""Q09"":""0"",""Q10"":""1"",""Q11"":""3"",""Q12"":""0"",""Q13"":""2"",""Q14"":""0"",""Q15"":""0"",""Q16"":""4"",""Q17"":""3"",""Q18"":""1"",""Q19"":""1"",""Q20"":""2"",""Q21"":""2""}","[0,1,2,3,4,5,6,7,8,9,10,11,12,13,14,15,16,17,18,19,20]","[""Q01"",""Q02"",""Q04"",""Q03"",""Q05"",""Q06"",""Q07"",""Q08"",""Q09"",""Q10"",""Q11"",""Q12"",""Q13"",""Q13"",""Q14"",""Q15"",""Q16"",""Q17"",""Q18"",""Q19"",""Q19"",""Q19"",""Q20"",""Q18"",""Q21""]","[5954.10000000149,7930.5,12722.19999999553,15994.29999999702,19794.60000000149,24970.19999999553,27562.29999999702,31129.89999999851,34754.19999999553,38313.79999999702,43426.39999999851,46491.29999999702,47994.69999999553,51218.39999999851,57282.69999999553,62321.79999999702,65818.5,68299.10000000149,76826.5,86922.5,89131,90570.5,97698.60000000149,102026.89999999851,106410.29999999702]","[]","[3.7999999970197678,5954.10000000149,7930.5,10386.19999999553,12722.19999999553,15994.29999999702,19794.60000000149,24970.19999999553,27562.29999999702,31129.89999999851,34754.19999999553,38313.79999999702,43426.39999999851,46491.29999999702,47994.69999999553,51218.39999999851,57282.69999999553,62321.79999999702,65818.5,68299.10000000149,76826.5,86922.5,89131,90570.5,97698.60000000149,102026.89999999851,106410.29999999702,108307]","0.2857142857142857","0.3","0","","","","","","","","","","","","","","","","","","","","","","","","","","","","",""
"19591.39999999851","","","","survey-template","18","1275529","0.0-7.0-8.0","62","1","2025-07-02 10:18:58","80fe4187154257d5fb01684ea91b68b9","41.76.96.194","Mozilla/5.0 (Windows NT 10.0; Win64; x64) AppleWebKit/537.36 (KHTML, like Gecko) Chrome/137.0.0.0 Safari/537.36","WebKit","Chrome","137.0.0.0","Windows","10.0","https://app.prolific.com/","en-ZA,en-GB;q=0.9,en-US;q=0.8,en;q=0.7","612d86a981a81014cd1cb48f","683db6dfa200031b80f2a654","6865078a5400bdc6c835830c","612d86a981a81014cd1cb48f","2025-07-02T10:40:19.398Z","","","","","","stress","{""Q01"":""3"",""Q02"":""2"",""Q03"":""4""}","[0,1,2]","[""Q01"",""Q02"",""Q03""]","[7541.89999999851,12518.39999999851,18294.10000000149]","[]","[7541.89999999851,12518.39999999851,18294.10000000149,19589.89999999851]","0.6666666666666666","0.5","0","","","","","","","","","","","","","","","","","","","","","","","","","","","","",""
"226662","","","","instructions","19","1502193","0.0-8.0-0.0","62","1","2025-07-02 10:18:58","80fe4187154257d5fb01684ea91b68b9","41.76.96.194","Mozilla/5.0 (Windows NT 10.0; Win64; x64) AppleWebKit/537.36 (KHTML, like Gecko) Chrome/137.0.0.0 Safari/537.36","WebKit","Chrome","137.0.0.0","Windows","10.0","https://app.prolific.com/","en-ZA,en-GB;q=0.9,en-US;q=0.8,en;q=0.7","612d86a981a81014cd1cb48f","683db6dfa200031b80f2a654","6865078a5400bdc6c835830c","612d86a981a81014cd1cb48f","","[{""page_index"":0,""viewing_time"":74851},{""page_index"":1,""viewing_time"":73954},{""page_index"":2,""viewing_time"":31351},{""page_index"":3,""viewing_time"":46504}]","","","","","","","","","","","","","","","","","","","","","","","","","","","","","","","","","","","","","","","","","","",""
"","","","","ctl-task-cpt","20","1553819","0.0-8.0-1.0","62","1","2025-07-02 10:18:58","80fe4187154257d5fb01684ea91b68b9","41.76.96.194","Mozilla/5.0 (Windows NT 10.0; Win64; x64) AppleWebKit/537.36 (KHTML, like Gecko) Chrome/137.0.0.0 Safari/537.36","WebKit","Chrome","137.0.0.0","Windows","10.0","https://app.prolific.com/","en-ZA,en-GB;q=0.9,en-US;q=0.8,en;q=0.7","612d86a981a81014cd1cb48f","683db6dfa200031b80f2a654","6865078a5400bdc6c835830c","612d86a981a81014cd1cb48f","","","","","","","","","","","","","","","","","win-only","0","g1:NW,g2:SE","1","0","1","1508162.4","23756.8","27762.7","48605.7","2","4","4","6","2","-4","-7","0","0","0","4005.9","4000","-3010","[""down"",""right""]","{""num_key_presses"":12,""num_perfect"":3,""num_errors"":3,""num_randdir"":0,""num_randdir_good_moves"":0,""num_whilered"":6,""num_whileblue"":0,""num_blue"":1,""num_good_moves"":3}","[294.22232142857143,294.12857142857143,5.2,294.22232142857143,294.12857142857143,105.7,294.22232142857143,294.12857142857143,209.3,294.22232142857143,294.12857142857143,310.3,294.22232142857143,294.12857142857143,417.1,294.22232142857143,294.12857142857143,518.7,294.22232142857143,294.12857142857143,619,294.22232142857143,294.12857142857143,719.1,294.22232142857143,294.12857142857143,819.3,294.22232142857143,294.12857142857143,925.5,294.22232142857143,294.12857142857143,1032.7,294.22232142857143,294.12857142857143,1132.9,294.22232142857143,294.12857142857143,1233.1,294.22232142857143,294.12857142857143,1333.7,294.22232142857143,294.12857142857143,1438.9,284.22232142857143,294.12857142857143,1549.6,278.22232142857143,287.12857142857143,1649.7,268.22232142857143,279.12857142857143,1753.8,266.22232142857143,277.12857142857143,1853.9,261.22232142857143,271.12857142857143,1958.8,257.22232142857143,265.12857142857143,2060.1,253.22232142857143,261.12857142857143,2166.3,253.22232142857143,261.12857142857143,2266.8,253.22232142857143,261.12857142857143,2369.5,253.22232142857143,261.12857142857143,2474.9,250.22232142857143,257.12857142857143,2575.1,246.22232142857143,251.12857142857143,2683.4,246.22232142857143,250.12857142857143,2785,246.22232142857143,250.12857142857143,2888.5,245.22232142857143,250.12857142857143,2989.3,245.22232142857143,250.12857142857143,3089.4,245.22232142857143,250.12857142857143,3189.4,245.22232142857143,250.12857142857143,3298.9,245.22232142857143,250.12857142857143,3398.9,245.22232142857143,250.12857142857143,3498.9,245.22232142857143,250.12857142857143,3603.7,245.22232142857143,250.12857142857143,3703.7,245.22232142857143,250.12857142857143,3803.7,245.22232142857143,250.12857142857143,3903.8]","[5325.3,5325.3,2072.1,2009.3,1243.9,""smooth"",""down"",""down"",""good_move"",6142.3,816.5,3103.1,5325.8,-2286.6,""error"",""-"",""-"",""no_move"",6292.2,149.2,3103.1,5325.8,-2136.7,""while_red"",""-"",""-"",""no_move"",6413.6,270.6,3103.1,5325.8,-2015.3,""while_red"",""-"",""-"",""no_move"",11223.3,5080.3,2787.3,7143.4,1292.6,""smooth"",""down"",""down"",""good_move"",11431.6,207.5,3106.6,11224.1,-2899.1,""error"",""-"",""-"",""no_move"",11601,169.2,3106.6,11224.1,-2729.7,""while_red"",""-"",""-"",""no_move"",11728.7,296.9,3106.6,11224.1,-2602,""while_red"",""-"",""-"",""no_move"",15828.4,4396.7,2544.2,12433.6,850.7,""smooth"",""down"",""down"",""good_move"",16317.8,489.1,2127.1,15828.7,-1638,""error"",""-"",""-"",""no_move"",16496.5,178.5,2127.1,15828.7,-1459.3,""while_red"",""-"",""-"",""no_move"",16635.6,317.6,2127.1,15828.7,-1320.2,""while_red"",""-"",""-"",""no_move""]","",""
"41590","","","","instructions","21","1595410","0.0-8.0-2.0","62","1","2025-07-02 10:18:58","80fe4187154257d5fb01684ea91b68b9","41.76.96.194","Mozilla/5.0 (Windows NT 10.0; Win64; x64) AppleWebKit/537.36 (KHTML, like Gecko) Chrome/137.0.0.0 Safari/537.36","WebKit","Chrome","137.0.0.0","Windows","10.0","https://app.prolific.com/","en-ZA,en-GB;q=0.9,en-US;q=0.8,en;q=0.7","612d86a981a81014cd1cb48f","683db6dfa200031b80f2a654","6865078a5400bdc6c835830c","612d86a981a81014cd1cb48f","","[{""page_index"":0,""viewing_time"":41589}]","","","","","","","","","","","","","","","","","","","","","","","","","","","","","","","","","","","","","","","","","","",""
"","","","","ctl-task-cpt","22","1619869","0.0-8.0-3.0","62","1","2025-07-02 10:18:58","80fe4187154257d5fb01684ea91b68b9","41.76.96.194","Mozilla/5.0 (Windows NT 10.0; Win64; x64) AppleWebKit/537.36 (KHTML, like Gecko) Chrome/137.0.0.0 Safari/537.36","WebKit","Chrome","137.0.0.0","Windows","10.0","https://app.prolific.com/","en-ZA,en-GB;q=0.9,en-US;q=0.8,en;q=0.7","612d86a981a81014cd1cb48f","683db6dfa200031b80f2a654","6865078a5400bdc6c835830c","612d86a981a81014cd1cb48f","","","","","","","","","","","","","","","","","win-only","0","g1:NW,g2:SE","0.35","0","3","1601371.7","2674.7","6676.6","21446.5","2","4","8","6","2","-8","-9","0","0","0","3727.4","4000","-3005","[""down"",""right""]","{""num_key_presses"":4,""num_perfect"":1,""num_errors"":1,""num_randdir"":2,""num_randdir_good_moves"":0,""num_whilered"":0,""num_whileblue"":0,""num_blue"":0,""num_good_moves"":1}","[292.22232142857143,298.12857142857143,0.1,292.22232142857143,298.12857142857143,100.7,292.22232142857143,298.12857142857143,206.6,292.22232142857143,298.12857142857143,306.6,292.22232142857143,298.12857142857143,410.7,292.22232142857143,298.12857142857143,511,292.22232142857143,298.12857142857143,616.5,292.22232142857143,298.12857142857143,720.9,291.22232142857143,292.12857142857143,821.7,284.22232142857143,275.12857142857143,921.9,278.22232142857143,266.12857142857143,1026.1,269.22232142857143,263.12857142857143,1126.5,262.22232142857143,261.12857142857143,1226.5,262.22232142857143,261.12857142857143,1330.7,261.22232142857143,261.12857142857143,1431.3,261.22232142857143,261.12857142857143,1535.8,261.22232142857143,261.12857142857143,1635.8,261.22232142857143,261.12857142857143,1740.9,261.22232142857143,262.12857142857143,1841.3,261.22232142857143,262.12857142857143,1946.4,261.22232142857143,262.12857142857143,2046.5,261.22232142857143,262.12857142857143,2151.6,261.22232142857143,262.12857142857143,2251.9,261.22232142857143,262.12857142857143,2356.1,261.22232142857143,262.12857142857143,2456.7,261.22232142857143,262.12857142857143,2561.1,261.22232142857143,262.12857142857143,2666.1,261.22232142857143,262.12857142857143,2766.4,261.22232142857143,262.12857142857143,2870.6,261.22232142857143,262.12857142857143,2971.1,261.22232142857143,262.12857142857143,3071.4,279.22232142857143,277.12857142857143,3176.1,414.22232142857143,376.12857142857143,3281.6,499.22232142857143,475.12857142857143,3386.7,517.2223214285714,511.12857142857143,3487.8,527.2223214285714,527.1285714285714,3591.3,527.2223214285714,529.1285714285714,3691.3,527.2223214285714,529.1285714285714,3796.5,527.2223214285714,529.1285714285714,3901.6]","[2916.7,2916.7,1000,0,1916.7,""oops"",""down"",""up"",""bad_move"",4247.7,1329,1812.6,2918.9,-483.8,""error"",""-"",""-"",""no_move"",8517.2,4269,2008.3,5248.9,1260,""oops"",""down"",""left"",""bad_move"",11942.6,3425.1,2668.5,8517.5,756.6,""smooth"",""right"",""right"",""good_move""]","",""
"108260","","","","instructions","23","1728129","0.0-8.0-4.0","62","1","2025-07-02 10:18:58","80fe4187154257d5fb01684ea91b68b9","41.76.96.194","Mozilla/5.0 (Windows NT 10.0; Win64; x64) AppleWebKit/537.36 (KHTML, like Gecko) Chrome/137.0.0.0 Safari/537.36","WebKit","Chrome","137.0.0.0","Windows","10.0","https://app.prolific.com/","en-ZA,en-GB;q=0.9,en-US;q=0.8,en;q=0.7","612d86a981a81014cd1cb48f","683db6dfa200031b80f2a654","6865078a5400bdc6c835830c","612d86a981a81014cd1cb48f","","[{""page_index"":0,""viewing_time"":23245},{""page_index"":1,""viewing_time"":85014}]","","","","","","","","","","","","","","","","","","","","","","","","","","","","","","","","","","","","","","","","","","",""
"46215","","","{""green_ball"":[""Ball always moves in the direction I press""]}","survey-multi-select","24","1774352","0.0-8.0-5.0-0.0","62","1","2025-07-02 10:18:58","80fe4187154257d5fb01684ea91b68b9","41.76.96.194","Mozilla/5.0 (Windows NT 10.0; Win64; x64) AppleWebKit/537.36 (KHTML, like Gecko) Chrome/137.0.0.0 Safari/537.36","WebKit","Chrome","137.0.0.0","Windows","10.0","https://app.prolific.com/","en-ZA,en-GB;q=0.9,en-US;q=0.8,en;q=0.7","612d86a981a81014cd1cb48f","683db6dfa200031b80f2a654","6865078a5400bdc6c835830c","612d86a981a81014cd1cb48f","","","[0]","","","","quiz","","","","","","","","","","","","","","","","","","","","","","","","","","","","","","","","","","","","","false",""
"8245","","<p align='center'><b>INCORRECT.</b> Usually the green ball moves in the indicated direction, but sometimes it shakes and moves randomly. </p>","0","html-button-response","25","1782604","0.0-8.0-5.0-1.0","62","1","2025-07-02 10:18:58","80fe4187154257d5fb01684ea91b68b9","41.76.96.194","Mozilla/5.0 (Windows NT 10.0; Win64; x64) AppleWebKit/537.36 (KHTML, like Gecko) Chrome/137.0.0.0 Safari/537.36","WebKit","Chrome","137.0.0.0","Windows","10.0","https://app.prolific.com/","en-ZA,en-GB;q=0.9,en-US;q=0.8,en;q=0.7","612d86a981a81014cd1cb48f","683db6dfa200031b80f2a654","6865078a5400bdc6c835830c","612d86a981a81014cd1cb48f","","","","","","","","","","","","","","","","","","","","","","","","","","","","","","","","","","","","","","","","","","","","",""
"7590","","","{""green_ball"":[""Ball sometimes shakes and moves in a random direction""]}","survey-multi-select","26","1790197","0.0-8.0-5.1-0.1","62","1","2025-07-02 10:18:58","80fe4187154257d5fb01684ea91b68b9","41.76.96.194","Mozilla/5.0 (Windows NT 10.0; Win64; x64) AppleWebKit/537.36 (KHTML, like Gecko) Chrome/137.0.0.0 Safari/537.36","WebKit","Chrome","137.0.0.0","Windows","10.0","https://app.prolific.com/","en-ZA,en-GB;q=0.9,en-US;q=0.8,en;q=0.7","612d86a981a81014cd1cb48f","683db6dfa200031b80f2a654","6865078a5400bdc6c835830c","612d86a981a81014cd1cb48f","","","[0]","","","","quiz","","","","","","","","","","","","","","","","","","","","","","","","","","","","","","","","","","","","","true",""
"5511","","<p align='center'><b>CORRECT!</b> Indeed, the green ball may sometimes shake and move in a random direction.</p>","0","html-button-response","27","1795709","0.0-8.0-5.1-1.1","62","1","2025-07-02 10:18:58","80fe4187154257d5fb01684ea91b68b9","41.76.96.194","Mozilla/5.0 (Windows NT 10.0; Win64; x64) AppleWebKit/537.36 (KHTML, like Gecko) Chrome/137.0.0.0 Safari/537.36","WebKit","Chrome","137.0.0.0","Windows","10.0","https://app.prolific.com/","en-ZA,en-GB;q=0.9,en-US;q=0.8,en;q=0.7","612d86a981a81014cd1cb48f","683db6dfa200031b80f2a654","6865078a5400bdc6c835830c","612d86a981a81014cd1cb48f","","","","","","","","","","","","","","","","","","","","","","","","","","","","","","","","","","","","","","","","","","","","",""
"38120","","","{""yellow_ball"":[""Ball doesn‘t move and I get -1 penalty point""]}","survey-multi-select","28","1833831","0.0-8.0-6.0-0.0","62","1","2025-07-02 10:18:58","80fe4187154257d5fb01684ea91b68b9","41.76.96.194","Mozilla/5.0 (Windows NT 10.0; Win64; x64) AppleWebKit/537.36 (KHTML, like Gecko) Chrome/137.0.0.0 Safari/537.36","WebKit","Chrome","137.0.0.0","Windows","10.0","https://app.prolific.com/","en-ZA,en-GB;q=0.9,en-US;q=0.8,en;q=0.7","612d86a981a81014cd1cb48f","683db6dfa200031b80f2a654","6865078a5400bdc6c835830c","612d86a981a81014cd1cb48f","","","[0]","","","","quiz","","","","","","","","","","","","","","","","","","","","","","","","","","","","","","","","","","","","","true",""
"1860","","<p align='center'><b>CORRECT!</b> Indeed, the yellow ball never moves and you receive a penalty.</p>","0","html-button-response","29","1835695","0.0-8.0-6.0-1.0","62","1","2025-07-02 10:18:58","80fe4187154257d5fb01684ea91b68b9","41.76.96.194","Mozilla/5.0 (Windows NT 10.0; Win64; x64) AppleWebKit/537.36 (KHTML, like Gecko) Chrome/137.0.0.0 Safari/537.36","WebKit","Chrome","137.0.0.0","Windows","10.0","https://app.prolific.com/","en-ZA,en-GB;q=0.9,en-US;q=0.8,en;q=0.7","612d86a981a81014cd1cb48f","683db6dfa200031b80f2a654","6865078a5400bdc6c835830c","612d86a981a81014cd1cb48f","","","","","","","","","","","","","","","","","","","","","","","","","","","","","","","","","","","","","","","","","","","","",""
"39180","","","{""blue_ball"":[""Ball always shakes and moves in a random direction""]}","survey-multi-select","30","1874878","0.0-8.0-7.0-0.0","62","1","2025-07-02 10:18:58","80fe4187154257d5fb01684ea91b68b9","41.76.96.194","Mozilla/5.0 (Windows NT 10.0; Win64; x64) AppleWebKit/537.36 (KHTML, like Gecko) Chrome/137.0.0.0 Safari/537.36","WebKit","Chrome","137.0.0.0","Windows","10.0","https://app.prolific.com/","en-ZA,en-GB;q=0.9,en-US;q=0.8,en;q=0.7","612d86a981a81014cd1cb48f","683db6dfa200031b80f2a654","6865078a5400bdc6c835830c","612d86a981a81014cd1cb48f","","","[0]","","","","quiz","","","","","","","","","","","","","","","","","","","","","","","","","","","","","","","","","","","","","true",""
"4996","","<p align='center'><b>CORRECT!</b> Indeed, the blue ball always shakes and moves in a random direction. Also there is a penalty of -1 point.</p>","0","html-button-response","31","1879876","0.0-8.0-7.0-1.0","62","1","2025-07-02 10:18:58","80fe4187154257d5fb01684ea91b68b9","41.76.96.194","Mozilla/5.0 (Windows NT 10.0; Win64; x64) AppleWebKit/537.36 (KHTML, like Gecko) Chrome/137.0.0.0 Safari/537.36","WebKit","Chrome","137.0.0.0","Windows","10.0","https://app.prolific.com/","en-ZA,en-GB;q=0.9,en-US;q=0.8,en;q=0.7","612d86a981a81014cd1cb48f","683db6dfa200031b80f2a654","6865078a5400bdc6c835830c","612d86a981a81014cd1cb48f","","","","","","","","","","","","","","","","","","","","","","","","","","","","","","","","","","","","","","","","","","","","",""
"9985","","","{""bonus"":[""When I reach 50% of points""]}","survey-multi-select","32","1889864","0.0-8.0-8.0-0.0","62","1","2025-07-02 10:18:58","80fe4187154257d5fb01684ea91b68b9","41.76.96.194","Mozilla/5.0 (Windows NT 10.0; Win64; x64) AppleWebKit/537.36 (KHTML, like Gecko) Chrome/137.0.0.0 Safari/537.36","WebKit","Chrome","137.0.0.0","Windows","10.0","https://app.prolific.com/","en-ZA,en-GB;q=0.9,en-US;q=0.8,en;q=0.7","612d86a981a81014cd1cb48f","683db6dfa200031b80f2a654","6865078a5400bdc6c835830c","612d86a981a81014cd1cb48f","","","[0]","","","","quiz","","","","","","","","","","","","","","","","","","","","","","","","","","","","","","","","","","","","","true",""
"2228","","<p align='center'><b>CORRECT!</b> Indeed, you receive 2 pounds extra when you reach 50% of points.</p>","0","html-button-response","33","1892094","0.0-8.0-8.0-1.0","62","1","2025-07-02 10:18:58","80fe4187154257d5fb01684ea91b68b9","41.76.96.194","Mozilla/5.0 (Windows NT 10.0; Win64; x64) AppleWebKit/537.36 (KHTML, like Gecko) Chrome/137.0.0.0 Safari/537.36","WebKit","Chrome","137.0.0.0","Windows","10.0","https://app.prolific.com/","en-ZA,en-GB;q=0.9,en-US;q=0.8,en;q=0.7","612d86a981a81014cd1cb48f","683db6dfa200031b80f2a654","6865078a5400bdc6c835830c","612d86a981a81014cd1cb48f","","","","","","","","","","","","","","","","","","","","","","","","","","","","","","","","","","","","","","","","","","","","",""
"12250","","","","instructions","34","1904345","0.0-8.0-9.0","62","1","2025-07-02 10:18:58","80fe4187154257d5fb01684ea91b68b9","41.76.96.194","Mozilla/5.0 (Windows NT 10.0; Win64; x64) AppleWebKit/537.36 (KHTML, like Gecko) Chrome/137.0.0.0 Safari/537.36","WebKit","Chrome","137.0.0.0","Windows","10.0","https://app.prolific.com/","en-ZA,en-GB;q=0.9,en-US;q=0.8,en;q=0.7","612d86a981a81014cd1cb48f","683db6dfa200031b80f2a654","6865078a5400bdc6c835830c","612d86a981a81014cd1cb48f","","[{""page_index"":0,""viewing_time"":12249}]","","","","","","","","","","","","","","","","","","","","","","","","","","","","","","","","","","","","","","","","","","",""
"26693","","<p>Before you start with this game please answer the following three questions yourself. </p>
  <p>Through this game, we measure several aspects of your cognitive performance, such as reaction times, multi-tasking capabilities </p>
  <p>and the ability to assess the situation you are in.</p>
  <p></p>
  <p><b>How good do you usually are in such tasks?</b></p>","86","html-slider-response","35","1931045","0.0-9.0-0.0","62","1","2025-07-02 10:18:58","80fe4187154257d5fb01684ea91b68b9","41.76.96.194","Mozilla/5.0 (Windows NT 10.0; Win64; x64) AppleWebKit/537.36 (KHTML, like Gecko) Chrome/137.0.0.0 Safari/537.36","WebKit","Chrome","137.0.0.0","Windows","10.0","https://app.prolific.com/","en-ZA,en-GB;q=0.9,en-US;q=0.8,en;q=0.7","612d86a981a81014cd1cb48f","683db6dfa200031b80f2a654","6865078a5400bdc6c835830c","612d86a981a81014cd1cb48f","2025-07-02T10:51:14.914Z","","","","","","PreSkillQ","","","","","","","","","","","","","","","","","","","","","","","","","","","","","","","","","","","","","","50"
"9621","","<div style=""width:500px;"">
  <p>How well do you think you will perform in this task compared to other participants?</p>
  </div>","82","html-slider-response","36","1940669","0.0-9.0-1.0","62","1","2025-07-02 10:18:58","80fe4187154257d5fb01684ea91b68b9","41.76.96.194","Mozilla/5.0 (Windows NT 10.0; Win64; x64) AppleWebKit/537.36 (KHTML, like Gecko) Chrome/137.0.0.0 Safari/537.36","WebKit","Chrome","137.0.0.0","Windows","10.0","https://app.prolific.com/","en-ZA,en-GB;q=0.9,en-US;q=0.8,en;q=0.7","612d86a981a81014cd1cb48f","683db6dfa200031b80f2a654","6865078a5400bdc6c835830c","612d86a981a81014cd1cb48f","2025-07-02T10:51:24.539Z","","","","","","PrePerfQ","","","","","","","","","","","","","","","","","","","","","","","","","","","","","","","","","","","","","","50"
"6806","","<div style=""width:500px;"">
  <p>What best describes how you currently feel?</p>
  </div>","98","html-slider-response","37","1947479","0.0-9.0-2.0","62","1","2025-07-02 10:18:58","80fe4187154257d5fb01684ea91b68b9","41.76.96.194","Mozilla/5.0 (Windows NT 10.0; Win64; x64) AppleWebKit/537.36 (KHTML, like Gecko) Chrome/137.0.0.0 Safari/537.36","WebKit","Chrome","137.0.0.0","Windows","10.0","https://app.prolific.com/","en-ZA,en-GB;q=0.9,en-US;q=0.8,en;q=0.7","612d86a981a81014cd1cb48f","683db6dfa200031b80f2a654","6865078a5400bdc6c835830c","612d86a981a81014cd1cb48f","2025-07-02T10:51:31.349Z","","","","","","PreMotivationQ","","","","","","","","","","","","","","","","","","","","","","","","","","","","","","","","","","","","","","50"
"","","","","ctl-task-cpt","38","1987680","0.0-10.0-0.0","62","1","2025-07-02 10:18:58","80fe4187154257d5fb01684ea91b68b9","41.76.96.194","Mozilla/5.0 (Windows NT 10.0; Win64; x64) AppleWebKit/537.36 (KHTML, like Gecko) Chrome/137.0.0.0 Safari/537.36","WebKit","Chrome","137.0.0.0","Windows","10.0","https://app.prolific.com/","en-ZA,en-GB;q=0.9,en-US;q=0.8,en;q=0.7","612d86a981a81014cd1cb48f","683db6dfa200031b80f2a654","6865078a5400bdc6c835830c","612d86a981a81014cd1cb48f","2025-07-02T10:52:11.549Z","","","","","","","","","","","","","","","","win-only","0","g1:NW,g2:SE","1","1","0","1953440.7","5606.3","10610.4","37176.1","1","4","8","6","1","1","0","0","0","0","2069.9","3000","665","[""left"",""up""]","{""num_key_presses"":5,""num_perfect"":4,""num_errors"":1,""num_randdir"":0,""num_randdir_good_moves"":0,""num_whilered"":0,""num_whileblue"":0,""num_blue"":4,""num_good_moves"":4}","[301.22232142857143,296.12857142857143,0.3,301.22232142857143,296.12857142857143,105.8,301.22232142857143,296.12857142857143,215.1,301.22232142857143,296.12857142857143,319.3,301.22232142857143,296.12857142857143,425.9,301.22232142857143,296.12857142857143,532.6,301.22232142857143,296.12857142857143,634.7,301.22232142857143,296.12857142857143,739.2,204.22232142857143,177.12857142857143,848.5,201.22232142857143,162.12857142857143,950.3,201.22232142857143,162.12857142857143,1054.4,157.22232142857143,146.12857142857143,1154.6,102.22232142857143,96.12857142857143,1265.3,102.22232142857143,96.12857142857143,1366,101.22232142857143,95.12857142857143,1469.2,78.22232142857143,77.12857142857143,1569.5,62.222321428571426,64.12857142857143,1674.4,55.222321428571426,59.128571428571426,1782.2,55.222321428571426,59.128571428571426,1882.7,55.222321428571426,59.128571428571426,1984.4,55.222321428571426,59.128571428571426,2084.8,55.222321428571426,59.128571428571426,2189.4,55.222321428571426,59.128571428571426,2298.6,55.222321428571426,59.128571428571426,2399.6,55.222321428571426,59.128571428571426,2499.7,55.222321428571426,59.128571428571426,2600.4,55.222321428571426,59.128571428571426,2704.1,55.222321428571426,59.128571428571426,2804.2,55.222321428571426,59.128571428571426,2904.4,55.222321428571426,59.128571428571426,3014.7,55.222321428571426,59.128571428571426,3119.5,55.222321428571426,59.128571428571426,3224.8,55.222321428571426,59.128571428571426,3331.4,55.222321428571426,59.128571428571426,3431.4,55.222321428571426,59.128571428571426,3531.5,55.222321428571426,59.128571428571426,3634.4,55.222321428571426,59.128571428571426,3739.1,55.222321428571426,59.128571428571426,3839.4,55.222321428571426,59.128571428571426,3939.5,55.222321428571426,59.128571428571426,4039.9,55.222321428571426,59.128571428571426,4147.5,55.222321428571426,59.128571428571426,4247.9,55.222321428571426,59.128571428571426,4348,55.222321428571426,59.128571428571426,4449.1,55.222321428571426,59.128571428571426,4549.5,55.222321428571426,59.128571428571426,4654.2,55.222321428571426,59.128571428571426,4754.7,55.222321428571426,59.128571428571426,4864.3,55.222321428571426,59.128571428571426,4964.5]","[5892.3,5892.3,2744.4,5580.2,-2432.3,""error"",""-"",""-"",""no_move"",13390.4,7497.1,2166.4,10750.6,473.4,""smooth"",""up"",""up"",""good_move"",19781.4,6390.4,2509.5,16601.8,670.1,""smooth"",""left"",""left"",""good_move"",22749.3,2967.6,2317,19781.7,650.6,""smooth"",""left"",""left"",""good_move"",26477.1,3727.6,3160.1,22749.5,567.5,""smooth"",""up"",""up"",""good_move""]","",""
"10017","","<div style=""width:500px;"">
  <p>What determined the result of this run?</p>
  </div>","100","html-slider-response","39","1997699","0.0-10.0-1.0","62","1","2025-07-02 10:18:58","80fe4187154257d5fb01684ea91b68b9","41.76.96.194","Mozilla/5.0 (Windows NT 10.0; Win64; x64) AppleWebKit/537.36 (KHTML, like Gecko) Chrome/137.0.0.0 Safari/537.36","WebKit","Chrome","137.0.0.0","Windows","10.0","https://app.prolific.com/","en-ZA,en-GB;q=0.9,en-US;q=0.8,en;q=0.7","612d86a981a81014cd1cb48f","683db6dfa200031b80f2a654","6865078a5400bdc6c835830c","612d86a981a81014cd1cb48f","2025-07-02T10:52:21.568Z","","","","","","AttribQ","","","","","","","","","","","","","","","","","","","","","","","","","","","","","","","","","","","","","","50"
"7311","","<div style=""width:500px;"">
  <p>How much control did you have over the ball?</p>
  </div>","86","html-slider-response","40","2005012","0.0-10.0-2.0","62","1","2025-07-02 10:18:58","80fe4187154257d5fb01684ea91b68b9","41.76.96.194","Mozilla/5.0 (Windows NT 10.0; Win64; x64) AppleWebKit/537.36 (KHTML, like Gecko) Chrome/137.0.0.0 Safari/537.36","WebKit","Chrome","137.0.0.0","Windows","10.0","https://app.prolific.com/","en-ZA,en-GB;q=0.9,en-US;q=0.8,en;q=0.7","612d86a981a81014cd1cb48f","683db6dfa200031b80f2a654","6865078a5400bdc6c835830c","612d86a981a81014cd1cb48f","2025-07-02T10:52:28.881Z","","","","","","ControlQ","","","","","","","","","","","","","","","","","","","","","","","","","","","","","","","","","","","","","","50"
"8156","","<div style=""width:500px;"">
  <p>How would you describe your current emotional state?</p>
  </div>","48","html-slider-response","41","2013170","0.0-10.0-3.0","62","1","2025-07-02 10:18:58","80fe4187154257d5fb01684ea91b68b9","41.76.96.194","Mozilla/5.0 (Windows NT 10.0; Win64; x64) AppleWebKit/537.36 (KHTML, like Gecko) Chrome/137.0.0.0 Safari/537.36","WebKit","Chrome","137.0.0.0","Windows","10.0","https://app.prolific.com/","en-ZA,en-GB;q=0.9,en-US;q=0.8,en;q=0.7","612d86a981a81014cd1cb48f","683db6dfa200031b80f2a654","6865078a5400bdc6c835830c","612d86a981a81014cd1cb48f","2025-07-02T10:52:37.039Z","","","","","","StressQ","","","","","","","","","","","","","","","","","","","","","","","","","","","","","","","","","","","","","","50"
"7541","","<div style=""width:500px;"">
  <p>What best describes how you currently feel?</p>
  </div>","78","html-slider-response","42","2020712","0.0-10.0-4.0","62","1","2025-07-02 10:18:58","80fe4187154257d5fb01684ea91b68b9","41.76.96.194","Mozilla/5.0 (Windows NT 10.0; Win64; x64) AppleWebKit/537.36 (KHTML, like Gecko) Chrome/137.0.0.0 Safari/537.36","WebKit","Chrome","137.0.0.0","Windows","10.0","https://app.prolific.com/","en-ZA,en-GB;q=0.9,en-US;q=0.8,en;q=0.7","612d86a981a81014cd1cb48f","683db6dfa200031b80f2a654","6865078a5400bdc6c835830c","612d86a981a81014cd1cb48f","2025-07-02T10:52:44.581Z","","","","","","MotivationQ","","","","","","","","","","","","","","","","","","","","","","","","","","","","","","","","","","","","","","50"
"","","","","ctl-task-cpt","43","2056416","0.0-10.0-0.1","62","1","2025-07-02 10:18:58","80fe4187154257d5fb01684ea91b68b9","41.76.96.194","Mozilla/5.0 (Windows NT 10.0; Win64; x64) AppleWebKit/537.36 (KHTML, like Gecko) Chrome/137.0.0.0 Safari/537.36","WebKit","Chrome","137.0.0.0","Windows","10.0","https://app.prolific.com/","en-ZA,en-GB;q=0.9,en-US;q=0.8,en;q=0.7","612d86a981a81014cd1cb48f","683db6dfa200031b80f2a654","6865078a5400bdc6c835830c","612d86a981a81014cd1cb48f","2025-07-02T10:53:20.285Z","","","","","","","","","","","","","","","","win-only","0","g1:NW,g2:SE","0.9","2","0","2026673","3732.4","8735.6","32684.2","1","4","4","6","2","4","4","4","0","0.030303030303030304","2558.8","3000","15","[""down"",""right""]","{""num_key_presses"":6,""num_perfect"":5,""num_errors"":0,""num_randdir"":1,""num_randdir_good_moves"":1,""num_whilered"":0,""num_whileblue"":0,""num_blue"":2,""num_good_moves"":6}","[290.22232142857143,291.12857142857143,0.2,290.22232142857143,291.12857142857143,104.1,290.22232142857143,291.12857142857143,204.9,290.22232142857143,291.12857142857143,305,290.22232142857143,291.12857142857143,405,290.22232142857143,291.12857142857143,508.5,290.22232142857143,291.12857142857143,613.7,290.22232142857143,291.12857142857143,719.8,290.22232142857143,291.12857142857143,819.9,290.22232142857143,291.12857142857143,920.1,290.22232142857143,291.12857142857143,1020.3,290.22232142857143,291.12857142857143,1121.2,290.22232142857143,291.12857142857143,1223.3,290.22232142857143,291.12857142857143,1329.3,290.22232142857143,291.12857142857143,1432.9,298.22232142857143,297.12857142857143,1535.6,576.2223214285714,434.12857142857143,1637.9,579.2223214285714,435.12857142857143,1738.4,579.2223214285714,435.12857142857143,1838.8,582.2223214285714,494.12857142857143,1939.2,570.2223214285714,525.1285714285714,2043,567.2223214285714,528.1285714285714,2149.3,565.2223214285714,530.1285714285714,2255.9,564.2223214285714,530.1285714285714,2358.5,564.2223214285714,530.1285714285714,2458.7,564.2223214285714,530.1285714285714,2571.1,564.2223214285714,530.1285714285714,2673.6,564.2223214285714,530.1285714285714,2778.6,564.2223214285714,530.1285714285714,2879.1,564.2223214285714,530.1285714285714,2979.6,564.2223214285714,530.1285714285714,3083.3,564.2223214285714,530.1285714285714,3183.4,564.2223214285714,530.1285714285714,3288.2,564.2223214285714,530.1285714285714,3393.6,564.2223214285714,530.1285714285714,3498.6,564.2223214285714,530.1285714285714,3599,564.2223214285714,530.1285714285714,3699.4,564.2223214285714,530.1285714285714,3802.3,564.2223214285714,530.1285714285714,3904.9,564.2223214285714,530.1285714285714,4008.7,564.2223214285714,530.1285714285714,4113,564.2223214285714,530.1285714285714,4213.2,564.2223214285714,530.1285714285714,4315.2,564.2223214285714,530.1285714285714,4418.5,564.2223214285714,530.1285714285714,4520.5,564.2223214285714,530.1285714285714,4620.8,564.2223214285714,530.1285714285714,4723.3,564.2223214285714,530.1285714285714,4823.5,564.2223214285714,530.1285714285714,4929.2]","[8101.9,8101.9,2129.3,5440.5,532.1,""smooth"",""down"",""down"",""good_move"",11487.5,3385.1,2890.5,8102.4,494.6,""smooth"",""down"",""down"",""good_move"",14684.3,3196.5,2699.4,11487.8,497.1,""smooth"",""down"",""down"",""good_move"",17884.3,3199.8,2739.5,14684.5,460.3,""smooth"",""right"",""right"",""good_move"",20521.3,2636.6,2168.7,17884.7,468,""smooth"",""right"",""right"",""good_move"",23853.6,3332.2,2771.3,20521.5,560.8,""oops"",""right"",""right"",""good_move""]","",""
"5571","","<div style=""width:500px;"">
  <p>What determined the result of this run?</p>
  </div>","100","html-slider-response","44","2061989","0.0-10.0-1.1","62","1","2025-07-02 10:18:58","80fe4187154257d5fb01684ea91b68b9","41.76.96.194","Mozilla/5.0 (Windows NT 10.0; Win64; x64) AppleWebKit/537.36 (KHTML, like Gecko) Chrome/137.0.0.0 Safari/537.36","WebKit","Chrome","137.0.0.0","Windows","10.0","https://app.prolific.com/","en-ZA,en-GB;q=0.9,en-US;q=0.8,en;q=0.7","612d86a981a81014cd1cb48f","683db6dfa200031b80f2a654","6865078a5400bdc6c835830c","612d86a981a81014cd1cb48f","2025-07-02T10:53:25.858Z","","","","","","AttribQ","","","","","","","","","","","","","","","","","","","","","","","","","","","","","","","","","","","","","","50"
"3962","","<div style=""width:500px;"">
  <p>How much control did you have over the ball?</p>
  </div>","99","html-slider-response","45","2065952","0.0-10.0-2.1","62","1","2025-07-02 10:18:58","80fe4187154257d5fb01684ea91b68b9","41.76.96.194","Mozilla/5.0 (Windows NT 10.0; Win64; x64) AppleWebKit/537.36 (KHTML, like Gecko) Chrome/137.0.0.0 Safari/537.36","WebKit","Chrome","137.0.0.0","Windows","10.0","https://app.prolific.com/","en-ZA,en-GB;q=0.9,en-US;q=0.8,en;q=0.7","612d86a981a81014cd1cb48f","683db6dfa200031b80f2a654","6865078a5400bdc6c835830c","612d86a981a81014cd1cb48f","2025-07-02T10:53:29.821Z","","","","","","ControlQ","","","","","","","","","","","","","","","","","","","","","","","","","","","","","","","","","","","","","","50"
"5986","","<div style=""width:500px;"">
  <p>How would you describe your current emotional state?</p>
  </div>","6","html-slider-response","46","2071940","0.0-10.0-3.1","62","1","2025-07-02 10:18:58","80fe4187154257d5fb01684ea91b68b9","41.76.96.194","Mozilla/5.0 (Windows NT 10.0; Win64; x64) AppleWebKit/537.36 (KHTML, like Gecko) Chrome/137.0.0.0 Safari/537.36","WebKit","Chrome","137.0.0.0","Windows","10.0","https://app.prolific.com/","en-ZA,en-GB;q=0.9,en-US;q=0.8,en;q=0.7","612d86a981a81014cd1cb48f","683db6dfa200031b80f2a654","6865078a5400bdc6c835830c","612d86a981a81014cd1cb48f","2025-07-02T10:53:35.809Z","","","","","","StressQ","","","","","","","","","","","","","","","","","","","","","","","","","","","","","","","","","","","","","","50"
"6001","","<div style=""width:500px;"">
  <p>What best describes how you currently feel?</p>
  </div>","100","html-slider-response","47","2077943","0.0-10.0-4.1","62","1","2025-07-02 10:18:58","80fe4187154257d5fb01684ea91b68b9","41.76.96.194","Mozilla/5.0 (Windows NT 10.0; Win64; x64) AppleWebKit/537.36 (KHTML, like Gecko) Chrome/137.0.0.0 Safari/537.36","WebKit","Chrome","137.0.0.0","Windows","10.0","https://app.prolific.com/","en-ZA,en-GB;q=0.9,en-US;q=0.8,en;q=0.7","612d86a981a81014cd1cb48f","683db6dfa200031b80f2a654","6865078a5400bdc6c835830c","612d86a981a81014cd1cb48f","2025-07-02T10:53:41.812Z","","","","","","MotivationQ","","","","","","","","","","","","","","","","","","","","","","","","","","","","","","","","","","","","","","50"
"","","","","ctl-task-cpt","48","2112067","0.0-10.0-0.2","62","1","2025-07-02 10:18:58","80fe4187154257d5fb01684ea91b68b9","41.76.96.194","Mozilla/5.0 (Windows NT 10.0; Win64; x64) AppleWebKit/537.36 (KHTML, like Gecko) Chrome/137.0.0.0 Safari/537.36","WebKit","Chrome","137.0.0.0","Windows","10.0","https://app.prolific.com/","en-ZA,en-GB;q=0.9,en-US;q=0.8,en;q=0.7","612d86a981a81014cd1cb48f","683db6dfa200031b80f2a654","6865078a5400bdc6c835830c","612d86a981a81014cd1cb48f","2025-07-02T10:54:15.936Z","","","","","","","","","","","","","","","","win-only","3","g1:SW,g2:NE","0.8","3","0","2083903.1","2363.2","7366.4","31105.9","1","4","4","6","2","-4","-4","0","4","0","2265.2","3000","-2985","[""up"",""right""]","{""num_key_presses"":6,""num_perfect"":5,""num_errors"":0,""num_randdir"":1,""num_randdir_good_moves"":0,""num_whilered"":0,""num_whileblue"":0,""num_blue"":1,""num_good_moves"":5}","[297.22232142857143,295.12857142857143,0.4,297.22232142857143,295.12857142857143,102.6,297.22232142857143,295.12857142857143,207.5,297.22232142857143,295.12857142857143,312.3,297.22232142857143,295.12857142857143,417,297.22232142857143,295.12857142857143,517.5,297.22232142857143,295.12857142857143,617.8,297.22232142857143,295.12857142857143,717.9,297.22232142857143,295.12857142857143,822.7,297.22232142857143,295.12857142857143,928.6,297.22232142857143,295.12857142857143,1031.8,361.22232142857143,212.12857142857143,1133,619.2223214285714,-46.871428571428574,1237.7,619.2223214285714,-46.871428571428574,1344.7,619.2223214285714,-46.871428571428574,1444.7,618.2223214285714,-34.871428571428574,1546,598.2223214285714,25.128571428571426,1646.6,585.2223214285714,43.128571428571426,1752.5,579.2223214285714,49.128571428571426,1858.3,566.2223214285714,51.128571428571426,1964.7,564.2223214285714,51.128571428571426,2066.5,564.2223214285714,51.128571428571426,2168.5,564.2223214285714,51.128571428571426,2273.1,564.2223214285714,51.128571428571426,2382.2,564.2223214285714,51.128571428571426,2482.4,564.2223214285714,51.128571428571426,2587.6,564.2223214285714,51.128571428571426,2687.6,564.2223214285714,51.128571428571426,2790.6,564.2223214285714,51.128571428571426,2892.4,564.2223214285714,51.128571428571426,2996.3,564.2223214285714,51.128571428571426,3099.3,564.2223214285714,51.128571428571426,3200.7,564.2223214285714,51.128571428571426,3302.4,564.2223214285714,51.128571428571426,3415,564.2223214285714,51.128571428571426,3517.4,564.2223214285714,51.128571428571426,3617.7,564.2223214285714,51.128571428571426,3719.1,564.2223214285714,51.128571428571426,3822.6,564.2223214285714,51.128571428571426,3932.4,564.2223214285714,51.128571428571426,4034.7,564.2223214285714,51.128571428571426,4139,564.2223214285714,51.128571428571426,4244.1,564.2223214285714,51.128571428571426,4344.4,564.2223214285714,51.128571428571426,4444.5,564.2223214285714,51.128571428571426,4548.7,564.2223214285714,51.128571428571426,4650.2,564.2223214285714,51.128571428571426,4752.2,564.2223214285714,51.128571428571426,4852.3,564.2223214285714,51.128571428571426,4952.7]","[1559.9,1560,1000,0,560,""smooth"",""up"",""up"",""good_move"",4706.2,3145.2,2608,1561.1,537.1,""smooth"",""up"",""up"",""good_move"",7835.5,3129,2716.4,4706.5,412.6,""oops"",""right"",""down"",""bad_move"",11125,3289.2,2636,7835.8,653.2,""smooth"",""right"",""right"",""good_move"",14122.9,2996.8,2596.6,11126.1,400.2,""smooth"",""right"",""right"",""good_move"",16755.6,2632.4,2188.7,14123.3,443.7,""smooth"",""up"",""up"",""good_move""]","",""
"5233","","<div style=""width:500px;"">
  <p>What determined the result of this run?</p>
  </div>","85","html-slider-response","49","2117301","0.0-10.0-1.2","62","1","2025-07-02 10:18:58","80fe4187154257d5fb01684ea91b68b9","41.76.96.194","Mozilla/5.0 (Windows NT 10.0; Win64; x64) AppleWebKit/537.36 (KHTML, like Gecko) Chrome/137.0.0.0 Safari/537.36","WebKit","Chrome","137.0.0.0","Windows","10.0","https://app.prolific.com/","en-ZA,en-GB;q=0.9,en-US;q=0.8,en;q=0.7","612d86a981a81014cd1cb48f","683db6dfa200031b80f2a654","6865078a5400bdc6c835830c","612d86a981a81014cd1cb48f","2025-07-02T10:54:21.170Z","","","","","","AttribQ","","","","","","","","","","","","","","","","","","","","","","","","","","","","","","","","","","","","","","50"
"5527","","<div style=""width:500px;"">
  <p>How much control did you have over the ball?</p>
  </div>","38","html-slider-response","50","2122828","0.0-10.0-2.2","62","1","2025-07-02 10:18:58","80fe4187154257d5fb01684ea91b68b9","41.76.96.194","Mozilla/5.0 (Windows NT 10.0; Win64; x64) AppleWebKit/537.36 (KHTML, like Gecko) Chrome/137.0.0.0 Safari/537.36","WebKit","Chrome","137.0.0.0","Windows","10.0","https://app.prolific.com/","en-ZA,en-GB;q=0.9,en-US;q=0.8,en;q=0.7","612d86a981a81014cd1cb48f","683db6dfa200031b80f2a654","6865078a5400bdc6c835830c","612d86a981a81014cd1cb48f","2025-07-02T10:54:26.698Z","","","","","","ControlQ","","","","","","","","","","","","","","","","","","","","","","","","","","","","","","","","","","","","","","50"
"4854","","<div style=""width:500px;"">
  <p>How would you describe your current emotional state?</p>
  </div>","61","html-slider-response","51","2127684","0.0-10.0-3.2","62","1","2025-07-02 10:18:58","80fe4187154257d5fb01684ea91b68b9","41.76.96.194","Mozilla/5.0 (Windows NT 10.0; Win64; x64) AppleWebKit/537.36 (KHTML, like Gecko) Chrome/137.0.0.0 Safari/537.36","WebKit","Chrome","137.0.0.0","Windows","10.0","https://app.prolific.com/","en-ZA,en-GB;q=0.9,en-US;q=0.8,en;q=0.7","612d86a981a81014cd1cb48f","683db6dfa200031b80f2a654","6865078a5400bdc6c835830c","612d86a981a81014cd1cb48f","2025-07-02T10:54:31.553Z","","","","","","StressQ","","","","","","","","","","","","","","","","","","","","","","","","","","","","","","","","","","","","","","50"
"3556","","<div style=""width:500px;"">
  <p>What best describes how you currently feel?</p>
  </div>","64","html-slider-response","52","2131242","0.0-10.0-4.2","62","1","2025-07-02 10:18:58","80fe4187154257d5fb01684ea91b68b9","41.76.96.194","Mozilla/5.0 (Windows NT 10.0; Win64; x64) AppleWebKit/537.36 (KHTML, like Gecko) Chrome/137.0.0.0 Safari/537.36","WebKit","Chrome","137.0.0.0","Windows","10.0","https://app.prolific.com/","en-ZA,en-GB;q=0.9,en-US;q=0.8,en;q=0.7","612d86a981a81014cd1cb48f","683db6dfa200031b80f2a654","6865078a5400bdc6c835830c","612d86a981a81014cd1cb48f","2025-07-02T10:54:35.111Z","","","","","","MotivationQ","","","","","","","","","","","","","","","","","","","","","","","","","","","","","","","","","","","","","","50"
"","","","","ctl-task-cpt","53","2173317","0.0-10.0-0.3","62","1","2025-07-02 10:18:58","80fe4187154257d5fb01684ea91b68b9","41.76.96.194","Mozilla/5.0 (Windows NT 10.0; Win64; x64) AppleWebKit/537.36 (KHTML, like Gecko) Chrome/137.0.0.0 Safari/537.36","WebKit","Chrome","137.0.0.0","Windows","10.0","https://app.prolific.com/","en-ZA,en-GB;q=0.9,en-US;q=0.8,en;q=0.7","612d86a981a81014cd1cb48f","683db6dfa200031b80f2a654","6865078a5400bdc6c835830c","612d86a981a81014cd1cb48f","2025-07-02T10:55:17.186Z","","","","","","","","","","","","","","","","win-only","3","g1:SW,g2:NE","0.7","4","0","2137203.2","4067.9","9070.8","39052.9","1","4","8","6","2","8","8","8","0","0.06060606060606061","2145.1","3000","75","[""up"",""right""]","{""num_key_presses"":8,""num_perfect"":5,""num_errors"":0,""num_randdir"":3,""num_randdir_good_moves"":2,""num_whilered"":0,""num_whileblue"":0,""num_blue"":2,""num_good_moves"":7}","[295.22232142857143,291.12857142857143,0.3,295.22232142857143,291.12857142857143,103.2,295.22232142857143,291.12857142857143,214.9,295.22232142857143,291.12857142857143,319,295.22232142857143,291.12857142857143,423,295.22232142857143,291.12857142857143,530.9,295.22232142857143,291.12857142857143,633.3,295.22232142857143,291.12857142857143,737.6,295.22232142857143,291.12857142857143,837.8,295.22232142857143,291.12857142857143,948.1,295.22232142857143,291.12857142857143,1052.5,295.22232142857143,291.12857142857143,1153.6,295.22232142857143,291.12857142857143,1259.7,359.22232142857143,219.12857142857143,1364.5,530.2223214285714,65.12857142857143,1468.6,530.2223214285714,65.12857142857143,1573.2,530.2223214285714,65.12857142857143,1680.6,530.2223214285714,64.12857142857143,1784.1,530.2223214285714,64.12857142857143,1884.6,530.2223214285714,64.12857142857143,1988.2,530.2223214285714,64.12857142857143,2089.3,530.2223214285714,64.12857142857143,2197.5,530.2223214285714,64.12857142857143,2299.3,530.2223214285714,64.12857142857143,2402.5,530.2223214285714,64.12857142857143,2503.6,530.2223214285714,64.12857142857143,2604.7,530.2223214285714,64.12857142857143,2714.1,530.2223214285714,64.12857142857143,2818,530.2223214285714,64.12857142857143,2918,530.2223214285714,64.12857142857143,3022.7,530.2223214285714,64.12857142857143,3124.4,530.2223214285714,64.12857142857143,3232,530.2223214285714,64.12857142857143,3333.7,530.2223214285714,64.12857142857143,3437.9,530.2223214285714,64.12857142857143,3547.5,530.2223214285714,64.12857142857143,3648.3,530.2223214285714,64.12857142857143,3753,530.2223214285714,64.12857142857143,3853.1,530.2223214285714,64.12857142857143,3953.1,530.2223214285714,64.12857142857143,4053.1,530.2223214285714,64.12857142857143,4160.8,530.2223214285714,64.12857142857143,4264.1,530.2223214285714,64.12857142857143,4368.6,530.2223214285714,64.12857142857143,4468.9,530.2223214285714,64.12857142857143,4569.7,530.2223214285714,64.12857142857143,4675.2,530.2223214285714,64.12857142857143,4781.7,530.2223214285714,64.12857142857143,4882,530.2223214285714,64.12857142857143,4982.1]","[1490.3,1490.3,1000,0,490.3,""smooth"",""right"",""right"",""good_move"",4893.4,3402.4,2967.3,1491.2,434.9,""smooth"",""right"",""right"",""good_move"",9976.1,5082,1733.2,7806,436.9,""oops"",""right"",""up"",""good_move"",13025.5,3049.1,2556.5,9976.4,492.6,""oops"",""up"",""right"",""good_move"",20271.4,7245.7,2931.9,17004.6,335,""oops"",""up"",""down"",""bad_move"",23090.4,2818.7,2399.8,20271.7,418.9,""smooth"",""up"",""up"",""good_move"",26704.1,3613.4,3207.4,23090.8,405.9,""smooth"",""up"",""up"",""good_move"",29873.1,3168.5,2814.4,26704.6,354.1,""smooth"",""up"",""up"",""good_move""]","",""
"4216","","<div style=""width:500px;"">
  <p>What determined the result of this run?</p>
  </div>","85","html-slider-response","54","2177535","0.0-10.0-1.3","62","1","2025-07-02 10:18:58","80fe4187154257d5fb01684ea91b68b9","41.76.96.194","Mozilla/5.0 (Windows NT 10.0; Win64; x64) AppleWebKit/537.36 (KHTML, like Gecko) Chrome/137.0.0.0 Safari/537.36","WebKit","Chrome","137.0.0.0","Windows","10.0","https://app.prolific.com/","en-ZA,en-GB;q=0.9,en-US;q=0.8,en;q=0.7","612d86a981a81014cd1cb48f","683db6dfa200031b80f2a654","6865078a5400bdc6c835830c","612d86a981a81014cd1cb48f","2025-07-02T10:55:21.404Z","","","","","","AttribQ","","","","","","","","","","","","","","","","","","","","","","","","","","","","","","","","","","","","","","50"
"4353","","<div style=""width:500px;"">
  <p>How much control did you have over the ball?</p>
  </div>","76","html-slider-response","55","2181890","0.0-10.0-2.3","62","1","2025-07-02 10:18:58","80fe4187154257d5fb01684ea91b68b9","41.76.96.194","Mozilla/5.0 (Windows NT 10.0; Win64; x64) AppleWebKit/537.36 (KHTML, like Gecko) Chrome/137.0.0.0 Safari/537.36","WebKit","Chrome","137.0.0.0","Windows","10.0","https://app.prolific.com/","en-ZA,en-GB;q=0.9,en-US;q=0.8,en;q=0.7","612d86a981a81014cd1cb48f","683db6dfa200031b80f2a654","6865078a5400bdc6c835830c","612d86a981a81014cd1cb48f","2025-07-02T10:55:25.759Z","","","","","","ControlQ","","","","","","","","","","","","","","","","","","","","","","","","","","","","","","","","","","","","","","50"
"4255","","<div style=""width:500px;"">
  <p>How would you describe your current emotional state?</p>
  </div>","22","html-slider-response","56","2186147","0.0-10.0-3.3","62","1","2025-07-02 10:18:58","80fe4187154257d5fb01684ea91b68b9","41.76.96.194","Mozilla/5.0 (Windows NT 10.0; Win64; x64) AppleWebKit/537.36 (KHTML, like Gecko) Chrome/137.0.0.0 Safari/537.36","WebKit","Chrome","137.0.0.0","Windows","10.0","https://app.prolific.com/","en-ZA,en-GB;q=0.9,en-US;q=0.8,en;q=0.7","612d86a981a81014cd1cb48f","683db6dfa200031b80f2a654","6865078a5400bdc6c835830c","612d86a981a81014cd1cb48f","2025-07-02T10:55:30.016Z","","","","","","StressQ","","","","","","","","","","","","","","","","","","","","","","","","","","","","","","","","","","","","","","50"
"4053","","<div style=""width:500px;"">
  <p>What best describes how you currently feel?</p>
  </div>","81","html-slider-response","57","2190202","0.0-10.0-4.3","62","1","2025-07-02 10:18:58","80fe4187154257d5fb01684ea91b68b9","41.76.96.194","Mozilla/5.0 (Windows NT 10.0; Win64; x64) AppleWebKit/537.36 (KHTML, like Gecko) Chrome/137.0.0.0 Safari/537.36","WebKit","Chrome","137.0.0.0","Windows","10.0","https://app.prolific.com/","en-ZA,en-GB;q=0.9,en-US;q=0.8,en;q=0.7","612d86a981a81014cd1cb48f","683db6dfa200031b80f2a654","6865078a5400bdc6c835830c","612d86a981a81014cd1cb48f","2025-07-02T10:55:34.071Z","","","","","","MotivationQ","","","","","","","","","","","","","","","","","","","","","","","","","","","","","","","","","","","","","","50"
"","","","","ctl-task-cpt","58","2216011","0.0-10.0-0.4","62","1","2025-07-02 10:18:58","80fe4187154257d5fb01684ea91b68b9","41.76.96.194","Mozilla/5.0 (Windows NT 10.0; Win64; x64) AppleWebKit/537.36 (KHTML, like Gecko) Chrome/137.0.0.0 Safari/537.36","WebKit","Chrome","137.0.0.0","Windows","10.0","https://app.prolific.com/","en-ZA,en-GB;q=0.9,en-US;q=0.8,en;q=0.7","612d86a981a81014cd1cb48f","683db6dfa200031b80f2a654","6865078a5400bdc6c835830c","612d86a981a81014cd1cb48f","2025-07-02T10:55:59.880Z","","","","","","","","","","","","","","","","win-only","1","g1:NE,g2:SW","0.6","5","0","2196162.4","2366.3","7371.8","22790.7","1","4","8","6","1","1","1","9","8","0.06818181818181818","3143.4","3000","845","[""up"",""right""]","{""num_key_presses"":6,""num_perfect"":4,""num_errors"":0,""num_randdir"":2,""num_randdir_good_moves"":1,""num_whilered"":0,""num_whileblue"":0,""num_blue"":0,""num_good_moves"":5}","[294.22232142857143,298.12857142857143,0.5,294.22232142857143,298.12857142857143,100,294.22232142857143,298.12857142857143,209.3,294.22232142857143,298.12857142857143,310,294.22232142857143,298.12857142857143,412.5,294.22232142857143,298.12857142857143,514.4,294.22232142857143,298.12857142857143,614.6,294.22232142857143,298.12857142857143,723.4,294.22232142857143,298.12857142857143,825.4,294.22232142857143,298.12857142857143,929.7,275.22232142857143,320.12857142857143,1037,153.22232142857143,440.12857142857143,1145.8,143.22232142857143,451.12857142857143,1249.9,143.22232142857143,451.12857142857143,1350,120.22232142857143,467.12857142857143,1451,87.22232142857143,489.12857142857143,1559.5,85.22232142857143,489.12857142857143,1659.5,166.22232142857143,411.12857142857143,1759.5,454.22232142857143,-46.871428571428574,1859.6,459.22232142857143,-56.871428571428574,1960.8,459.22232142857143,-56.871428571428574,2064.8,502.22232142857143,-77.87142857142857,2175,502.22232142857143,-77.87142857142857,2277,502.22232142857143,-77.87142857142857,2380.5,606.2223214285714,-50.871428571428574,2484.2,588.2223214285714,0.12857142857142634,2584.2,582.2223214285714,12.128571428571426,2685.2,572.2223214285714,26.128571428571426,2790.2,564.2223214285714,34.128571428571426,2891.7,564.2223214285714,34.128571428571426,2994.6,564.2223214285714,34.128571428571426,3095.8,564.2223214285714,34.128571428571426,3200.1,564.2223214285714,34.128571428571426,3305.1,564.2223214285714,34.128571428571426,3409.9,564.2223214285714,34.128571428571426,3514.3,564.2223214285714,34.128571428571426,3614.6,564.2223214285714,34.128571428571426,3723.5,564.2223214285714,34.128571428571426,3824.4,564.2223214285714,34.128571428571426,3930.2,564.2223214285714,34.128571428571426,4037.8,564.2223214285714,34.128571428571426,4139.4,564.2223214285714,34.128571428571426,4239.4,564.2223214285714,34.128571428571426,4340,564.2223214285714,34.128571428571426,4444.4,564.2223214285714,34.128571428571426,4544.7,564.2223214285714,34.128571428571426,4651.7,564.2223214285714,34.128571428571426,4754.1,564.2223214285714,34.128571428571426,4860.7,564.2223214285714,34.128571428571426,4964.7]","[1518.9,1518.9,1000,0,518.9,""smooth"",""up"",""up"",""good_move"",3858.6,2339.3,1890.3,1519.3,449,""oops"",""right"",""up"",""good_move"",7114.1,3255.2,2867.8,3858.9,387.4,""oops"",""right"",""left"",""bad_move"",9846.6,2732.2,2274.2,7114.5,457.9,""smooth"",""right"",""right"",""good_move"",12783.3,2936.3,2600.7,9847,335.6,""smooth"",""right"",""right"",""good_move"",15309.8,2525.7,2132.8,12784.1,392.9,""smooth"",""right"",""right"",""good_move""]","",""
"4878","","<div style=""width:500px;"">
  <p>What determined the result of this run?</p>
  </div>","91","html-slider-response","59","2220890","0.0-10.0-1.4","62","1","2025-07-02 10:18:58","80fe4187154257d5fb01684ea91b68b9","41.76.96.194","Mozilla/5.0 (Windows NT 10.0; Win64; x64) AppleWebKit/537.36 (KHTML, like Gecko) Chrome/137.0.0.0 Safari/537.36","WebKit","Chrome","137.0.0.0","Windows","10.0","https://app.prolific.com/","en-ZA,en-GB;q=0.9,en-US;q=0.8,en;q=0.7","612d86a981a81014cd1cb48f","683db6dfa200031b80f2a654","6865078a5400bdc6c835830c","612d86a981a81014cd1cb48f","2025-07-02T10:56:04.759Z","","","","","","AttribQ","","","","","","","","","","","","","","","","","","","","","","","","","","","","","","","","","","","","","","50"
"4016","","<div style=""width:500px;"">
  <p>How much control did you have over the ball?</p>
  </div>","91","html-slider-response","60","2224909","0.0-10.0-2.4","62","1","2025-07-02 10:18:58","80fe4187154257d5fb01684ea91b68b9","41.76.96.194","Mozilla/5.0 (Windows NT 10.0; Win64; x64) AppleWebKit/537.36 (KHTML, like Gecko) Chrome/137.0.0.0 Safari/537.36","WebKit","Chrome","137.0.0.0","Windows","10.0","https://app.prolific.com/","en-ZA,en-GB;q=0.9,en-US;q=0.8,en;q=0.7","612d86a981a81014cd1cb48f","683db6dfa200031b80f2a654","6865078a5400bdc6c835830c","612d86a981a81014cd1cb48f","2025-07-02T10:56:08.778Z","","","","","","ControlQ","","","","","","","","","","","","","","","","","","","","","","","","","","","","","","","","","","","","","","50"
"3866","","<div style=""width:500px;"">
  <p>How would you describe your current emotional state?</p>
  </div>","40","html-slider-response","61","2228781","0.0-10.0-3.4","62","1","2025-07-02 10:18:58","80fe4187154257d5fb01684ea91b68b9","41.76.96.194","Mozilla/5.0 (Windows NT 10.0; Win64; x64) AppleWebKit/537.36 (KHTML, like Gecko) Chrome/137.0.0.0 Safari/537.36","WebKit","Chrome","137.0.0.0","Windows","10.0","https://app.prolific.com/","en-ZA,en-GB;q=0.9,en-US;q=0.8,en;q=0.7","612d86a981a81014cd1cb48f","683db6dfa200031b80f2a654","6865078a5400bdc6c835830c","612d86a981a81014cd1cb48f","2025-07-02T10:56:12.650Z","","","","","","StressQ","","","","","","","","","","","","","","","","","","","","","","","","","","","","","","","","","","","","","","50"
"3713","","<div style=""width:500px;"">
  <p>What best describes how you currently feel?</p>
  </div>","88","html-slider-response","62","2232499","0.0-10.0-4.4","62","1","2025-07-02 10:18:58","80fe4187154257d5fb01684ea91b68b9","41.76.96.194","Mozilla/5.0 (Windows NT 10.0; Win64; x64) AppleWebKit/537.36 (KHTML, like Gecko) Chrome/137.0.0.0 Safari/537.36","WebKit","Chrome","137.0.0.0","Windows","10.0","https://app.prolific.com/","en-ZA,en-GB;q=0.9,en-US;q=0.8,en;q=0.7","612d86a981a81014cd1cb48f","683db6dfa200031b80f2a654","6865078a5400bdc6c835830c","612d86a981a81014cd1cb48f","2025-07-02T10:56:16.369Z","","","","","","MotivationQ","","","","","","","","","","","","","","","","","","","","","","","","","","","","","","","","","","","","","","50"
"","","","","ctl-task-cpt","63","2270894","0.0-10.0-0.5","62","1","2025-07-02 10:18:58","80fe4187154257d5fb01684ea91b68b9","41.76.96.194","Mozilla/5.0 (Windows NT 10.0; Win64; x64) AppleWebKit/537.36 (KHTML, like Gecko) Chrome/137.0.0.0 Safari/537.36","WebKit","Chrome","137.0.0.0","Windows","10.0","https://app.prolific.com/","en-ZA,en-GB;q=0.9,en-US;q=0.8,en;q=0.7","612d86a981a81014cd1cb48f","683db6dfa200031b80f2a654","6865078a5400bdc6c835830c","612d86a981a81014cd1cb48f","2025-07-02T10:56:54.763Z","","","","","","","","","","","","","","","","win-only","0","g1:NW,g2:SE","0.5","6","0","2238464.8","2391.9","7394.6","35370.9","1","4","4","6","2","-4","-4","5","9","0.03787878787878788","2060.8","3000","-2400","[""down"",""right""]","{""num_key_presses"":9,""num_perfect"":5,""num_errors"":0,""num_randdir"":4,""num_randdir_good_moves"":2,""num_whilered"":0,""num_whileblue"":0,""num_blue"":0,""num_good_moves"":7}","[293.22232142857143,297.12857142857143,0.4,293.22232142857143,297.12857142857143,104.5,293.22232142857143,297.12857142857143,208.9,293.22232142857143,297.12857142857143,308.9,293.22232142857143,297.12857142857143,421.3,293.22232142857143,297.12857142857143,524.1,293.22232142857143,297.12857142857143,624.4,293.22232142857143,297.12857142857143,737.1,293.22232142857143,297.12857142857143,839.4,293.22232142857143,297.12857142857143,944.3,293.22232142857143,297.12857142857143,1053.8,379.22232142857143,323.12857142857143,1156.6,619.2223214285714,502.12857142857143,1258.8,619.2223214285714,502.12857142857143,1359.4,619.2223214285714,530.1285714285714,1471.7,594.2223214285714,559.1285714285714,1571.7,576.2223214285714,556.1285714285714,1672.1,568.2223214285714,549.1285714285714,1774.3,566.2223214285714,548.1285714285714,1875.3,566.2223214285714,548.1285714285714,1987.9,566.2223214285714,548.1285714285714,2090.7,566.2223214285714,548.1285714285714,2191.4,566.2223214285714,548.1285714285714,2293.8,566.2223214285714,548.1285714285714,2400.3,566.2223214285714,548.1285714285714,2504.3,486.22232142857143,556.1285714285714,2608.9,397.22232142857143,536.1285714285714,2709.4,351.22232142857143,523.1285714285714,2820.2,330.22232142857143,509.12857142857143,2921,329.22232142857143,508.12857142857143,3025.9,329.22232142857143,508.12857142857143,3136.4,329.22232142857143,508.12857142857143,3237.1,329.22232142857143,508.12857142857143,3339.5,329.22232142857143,508.12857142857143,3443.8,329.22232142857143,508.12857142857143,3544,329.22232142857143,508.12857142857143,3651.2,329.22232142857143,508.12857142857143,3756.5,329.22232142857143,508.12857142857143,3859.6,329.22232142857143,508.12857142857143,3964.1,329.22232142857143,508.12857142857143,4072,329.22232142857143,508.12857142857143,4175.2,329.22232142857143,508.12857142857143,4286.3,329.22232142857143,508.12857142857143,4388.7,329.22232142857143,508.12857142857143,4489.1,329.22232142857143,508.12857142857143,4589.2,329.22232142857143,508.12857142857143,4689.7,329.22232142857143,508.12857142857143,4802.3,329.22232142857143,508.12857142857143,4904.3]","[1434.7,1434.7,1000,0,434.7,""oops"",""right"",""up"",""bad_move"",4898.8,3463.6,2946.5,1435.2,517.1,""oops"",""right"",""left"",""bad_move"",8100.2,3200.9,2797.9,4899.3,403,""smooth"",""down"",""down"",""good_move"",11336,3234.5,2801.9,8101.5,432.6,""smooth"",""down"",""down"",""good_move"",13846.6,2510,2099.8,11336.6,410.2,""smooth"",""right"",""right"",""good_move"",16627.4,2779.4,2382.4,13848,397,""oops"",""down"",""down"",""good_move"",19611.7,2984.1,2502.3,16627.6,481.8,""oops"",""down"",""down"",""good_move"",23448.3,3836.4,3473.9,19611.9,362.5,""smooth"",""right"",""right"",""good_move"",25824.3,2375.8,2074.4,23448.5,301.4,""smooth"",""right"",""right"",""good_move""]","",""
"6894","","<div style=""width:500px;"">
  <p>What determined the result of this run?</p>
  </div>","52","html-slider-response","64","2277791","0.0-10.0-1.5","62","1","2025-07-02 10:18:58","80fe4187154257d5fb01684ea91b68b9","41.76.96.194","Mozilla/5.0 (Windows NT 10.0; Win64; x64) AppleWebKit/537.36 (KHTML, like Gecko) Chrome/137.0.0.0 Safari/537.36","WebKit","Chrome","137.0.0.0","Windows","10.0","https://app.prolific.com/","en-ZA,en-GB;q=0.9,en-US;q=0.8,en;q=0.7","612d86a981a81014cd1cb48f","683db6dfa200031b80f2a654","6865078a5400bdc6c835830c","612d86a981a81014cd1cb48f","2025-07-02T10:57:01.661Z","","","","","","AttribQ","","","","","","","","","","","","","","","","","","","","","","","","","","","","","","","","","","","","","","50"
"7901","","<div style=""width:500px;"">
  <p>How much control did you have over the ball?</p>
  </div>","75","html-slider-response","65","2285695","0.0-10.0-2.5","62","1","2025-07-02 10:18:58","80fe4187154257d5fb01684ea91b68b9","41.76.96.194","Mozilla/5.0 (Windows NT 10.0; Win64; x64) AppleWebKit/537.36 (KHTML, like Gecko) Chrome/137.0.0.0 Safari/537.36","WebKit","Chrome","137.0.0.0","Windows","10.0","https://app.prolific.com/","en-ZA,en-GB;q=0.9,en-US;q=0.8,en;q=0.7","612d86a981a81014cd1cb48f","683db6dfa200031b80f2a654","6865078a5400bdc6c835830c","612d86a981a81014cd1cb48f","2025-07-02T10:57:09.564Z","","","","","","ControlQ","","","","","","","","","","","","","","","","","","","","","","","","","","","","","","","","","","","","","","50"
"5208","","<div style=""width:500px;"">
  <p>How would you describe your current emotional state?</p>
  </div>","63","html-slider-response","66","2290909","0.0-10.0-3.5","62","1","2025-07-02 10:18:58","80fe4187154257d5fb01684ea91b68b9","41.76.96.194","Mozilla/5.0 (Windows NT 10.0; Win64; x64) AppleWebKit/537.36 (KHTML, like Gecko) Chrome/137.0.0.0 Safari/537.36","WebKit","Chrome","137.0.0.0","Windows","10.0","https://app.prolific.com/","en-ZA,en-GB;q=0.9,en-US;q=0.8,en;q=0.7","612d86a981a81014cd1cb48f","683db6dfa200031b80f2a654","6865078a5400bdc6c835830c","612d86a981a81014cd1cb48f","2025-07-02T10:57:14.778Z","","","","","","StressQ","","","","","","","","","","","","","","","","","","","","","","","","","","","","","","","","","","","","","","50"
"6154","","<div style=""width:500px;"">
  <p>What best describes how you currently feel?</p>
  </div>","73","html-slider-response","67","2297067","0.0-10.0-4.5","62","1","2025-07-02 10:18:58","80fe4187154257d5fb01684ea91b68b9","41.76.96.194","Mozilla/5.0 (Windows NT 10.0; Win64; x64) AppleWebKit/537.36 (KHTML, like Gecko) Chrome/137.0.0.0 Safari/537.36","WebKit","Chrome","137.0.0.0","Windows","10.0","https://app.prolific.com/","en-ZA,en-GB;q=0.9,en-US;q=0.8,en;q=0.7","612d86a981a81014cd1cb48f","683db6dfa200031b80f2a654","6865078a5400bdc6c835830c","612d86a981a81014cd1cb48f","2025-07-02T10:57:20.936Z","","","","","","MotivationQ","","","","","","","","","","","","","","","","","","","","","","","","","","","","","","","","","","","","","","50"
"","","","","ctl-task-cpt","68","2322052","0.0-10.0-0.6","62","1","2025-07-02 10:18:58","80fe4187154257d5fb01684ea91b68b9","41.76.96.194","Mozilla/5.0 (Windows NT 10.0; Win64; x64) AppleWebKit/537.36 (KHTML, like Gecko) Chrome/137.0.0.0 Safari/537.36","WebKit","Chrome","137.0.0.0","Windows","10.0","https://app.prolific.com/","en-ZA,en-GB;q=0.9,en-US;q=0.8,en;q=0.7","612d86a981a81014cd1cb48f","683db6dfa200031b80f2a654","6865078a5400bdc6c835830c","612d86a981a81014cd1cb48f","2025-07-02T10:57:45.921Z","","","","","","","","","","","","","","","","win-only","3","g1:SW,g2:NE","0.4","7","0","2303031.6","2593.3","7596.3","21960.8","1","4","8","6","1","1","0","5","5","0.03787878787878788","2473.8","3000","1090","[""down"",""left""]","{""num_key_presses"":6,""num_perfect"":3,""num_errors"":1,""num_randdir"":2,""num_randdir_good_moves"":1,""num_whilered"":0,""num_whileblue"":1,""num_blue"":1,""num_good_moves"":5}","[296.22232142857143,293.12857142857143,0.2,296.22232142857143,293.12857142857143,105.5,296.22232142857143,293.12857142857143,211.2,296.22232142857143,293.12857142857143,320.4,296.22232142857143,293.12857142857143,422.7,296.22232142857143,293.12857142857143,527.6,296.22232142857143,293.12857142857143,639.2,296.22232142857143,293.12857142857143,739.3,296.22232142857143,293.12857142857143,841.4,296.22232142857143,293.12857142857143,948.8,296.22232142857143,293.12857142857143,1055.9,296.22232142857143,293.12857142857143,1160.1,296.22232142857143,293.12857142857143,1270.7,263.22232142857143,317.12857142857143,1376.5,182.22232142857143,373.12857142857143,1488.2,158.22232142857143,394.12857142857143,1597,106.22232142857143,508.12857142857143,1699.5,96.22232142857143,543.1285714285714,1805.7,96.22232142857143,543.1285714285714,1907.7,96.22232142857143,545.1285714285714,2011.7,95.22232142857143,545.1285714285714,2119.3,87.22232142857143,542.1285714285714,2223.1,87.22232142857143,542.1285714285714,2327.7,87.22232142857143,542.1285714285714,2439.2,87.22232142857143,542.1285714285714,2539.6,87.22232142857143,542.1285714285714,2643.5,87.22232142857143,542.1285714285714,2744.1,87.22232142857143,542.1285714285714,2853.6,87.22232142857143,542.1285714285714,2959.6,87.22232142857143,542.1285714285714,3062.6,87.22232142857143,542.1285714285714,3170.5,87.22232142857143,542.1285714285714,3273.2,87.22232142857143,542.1285714285714,3377.5,87.22232142857143,542.1285714285714,3481.9,87.22232142857143,542.1285714285714,3591.2,87.22232142857143,542.1285714285714,3694,87.22232142857143,542.1285714285714,3800.1,87.22232142857143,542.1285714285714,3904.7,87.22232142857143,542.1285714285714,4006.9,87.22232142857143,542.1285714285714,4107.8,87.22232142857143,542.1285714285714,4212.5,87.22232142857143,542.1285714285714,4318.7,87.22232142857143,542.1285714285714,4423.8,87.22232142857143,542.1285714285714,4531.5,87.22232142857143,542.1285714285714,4634.1,87.22232142857143,542.1285714285714,4737,87.22232142857143,542.1285714285714,4838.2,87.22232142857143,542.1285714285714,4938.5]","[1464.3,1464.3,1000,0,464.3,""smooth"",""down"",""down"",""good_move"",3614.6,2148.8,1699.4,1465.8,449.4,""smooth"",""down"",""down"",""good_move"",5903.7,2288.9,1902.1,3614.8,386.8,""smooth"",""left"",""left"",""good_move"",8278.3,2371.5,1986,5906.8,385.5,""oops"",""left"",""right"",""bad_move"",10882.4,2603.6,2286.4,8278.8,317.2,""while_blue"",""left"",""left"",""good_move"",14247.8,3365,2738.8,10882.8,626.2,""oops"",""left"",""left"",""good_move""]","",""
"3914","","<div style=""width:500px;"">
  <p>What determined the result of this run?</p>
  </div>","73","html-slider-response","69","2325967","0.0-10.0-1.6","62","1","2025-07-02 10:18:58","80fe4187154257d5fb01684ea91b68b9","41.76.96.194","Mozilla/5.0 (Windows NT 10.0; Win64; x64) AppleWebKit/537.36 (KHTML, like Gecko) Chrome/137.0.0.0 Safari/537.36","WebKit","Chrome","137.0.0.0","Windows","10.0","https://app.prolific.com/","en-ZA,en-GB;q=0.9,en-US;q=0.8,en;q=0.7","612d86a981a81014cd1cb48f","683db6dfa200031b80f2a654","6865078a5400bdc6c835830c","612d86a981a81014cd1cb48f","2025-07-02T10:57:49.836Z","","","","","","AttribQ","","","","","","","","","","","","","","","","","","","","","","","","","","","","","","","","","","","","","","50"
"4491","","<div style=""width:500px;"">
  <p>How much control did you have over the ball?</p>
  </div>","52","html-slider-response","70","2330460","0.0-10.0-2.6","62","1","2025-07-02 10:18:58","80fe4187154257d5fb01684ea91b68b9","41.76.96.194","Mozilla/5.0 (Windows NT 10.0; Win64; x64) AppleWebKit/537.36 (KHTML, like Gecko) Chrome/137.0.0.0 Safari/537.36","WebKit","Chrome","137.0.0.0","Windows","10.0","https://app.prolific.com/","en-ZA,en-GB;q=0.9,en-US;q=0.8,en;q=0.7","612d86a981a81014cd1cb48f","683db6dfa200031b80f2a654","6865078a5400bdc6c835830c","612d86a981a81014cd1cb48f","2025-07-02T10:57:54.332Z","","","","","","ControlQ","","","","","","","","","","","","","","","","","","","","","","","","","","","","","","","","","","","","","","50"
"4097","","<div style=""width:500px;"">
  <p>How would you describe your current emotional state?</p>
  </div>","75","html-slider-response","71","2334562","0.0-10.0-3.6","62","1","2025-07-02 10:18:58","80fe4187154257d5fb01684ea91b68b9","41.76.96.194","Mozilla/5.0 (Windows NT 10.0; Win64; x64) AppleWebKit/537.36 (KHTML, like Gecko) Chrome/137.0.0.0 Safari/537.36","WebKit","Chrome","137.0.0.0","Windows","10.0","https://app.prolific.com/","en-ZA,en-GB;q=0.9,en-US;q=0.8,en;q=0.7","612d86a981a81014cd1cb48f","683db6dfa200031b80f2a654","6865078a5400bdc6c835830c","612d86a981a81014cd1cb48f","2025-07-02T10:57:58.431Z","","","","","","StressQ","","","","","","","","","","","","","","","","","","","","","","","","","","","","","","","","","","","","","","50"
"3673","","<div style=""width:500px;"">
  <p>What best describes how you currently feel?</p>
  </div>","73","html-slider-response","72","2338236","0.0-10.0-4.6","62","1","2025-07-02 10:18:58","80fe4187154257d5fb01684ea91b68b9","41.76.96.194","Mozilla/5.0 (Windows NT 10.0; Win64; x64) AppleWebKit/537.36 (KHTML, like Gecko) Chrome/137.0.0.0 Safari/537.36","WebKit","Chrome","137.0.0.0","Windows","10.0","https://app.prolific.com/","en-ZA,en-GB;q=0.9,en-US;q=0.8,en;q=0.7","612d86a981a81014cd1cb48f","683db6dfa200031b80f2a654","6865078a5400bdc6c835830c","612d86a981a81014cd1cb48f","2025-07-02T10:58:02.105Z","","","","","","MotivationQ","","","","","","","","","","","","","","","","","","","","","","","","","","","","","","","","","","","","","","50"
"","","","","ctl-task-cpt","73","2385886","0.0-10.0-0.7","62","1","2025-07-02 10:18:58","80fe4187154257d5fb01684ea91b68b9","41.76.96.194","Mozilla/5.0 (Windows NT 10.0; Win64; x64) AppleWebKit/537.36 (KHTML, like Gecko) Chrome/137.0.0.0 Safari/537.36","WebKit","Chrome","137.0.0.0","Windows","10.0","https://app.prolific.com/","en-ZA,en-GB;q=0.9,en-US;q=0.8,en;q=0.7","612d86a981a81014cd1cb48f","683db6dfa200031b80f2a654","6865078a5400bdc6c835830c","612d86a981a81014cd1cb48f","2025-07-02T10:58:49.755Z","","","","","","","","","","","","","","","","win-only","3","g1:SW,g2:NE","0.3","8","0","2344197.4","2013.9","7023.2","44630.5","1","4","4","6","2","-4","-5","0","5","0","1847.4","3000","-2265","[""up"",""right""]","{""num_key_presses"":10,""num_perfect"":3,""num_errors"":1,""num_randdir"":6,""num_randdir_good_moves"":3,""num_whilered"":0,""num_whileblue"":0,""num_blue"":2,""num_good_moves"":6}","[297.22232142857143,301.12857142857143,1.1,297.22232142857143,301.12857142857143,106.3,297.22232142857143,301.12857142857143,211,297.22232142857143,301.12857142857143,313.8,297.22232142857143,301.12857142857143,425.6,339.22232142857143,272.12857142857143,529.2,573.2223214285714,20.128571428571426,632.2,583.2223214285714,7.128571428571426,732.9,583.2223214285714,7.128571428571426,833,586.2223214285714,2.1285714285714263,937.2,599.2223214285714,-24.871428571428574,1042.9,601.2223214285714,-26.871428571428574,1145.1,601.2223214285714,-26.871428571428574,1246.2,582.2223214285714,-7.871428571428574,1346.5,571.2223214285714,5.128571428571426,1452.2,566.2223214285714,12.128571428571426,1552.2,566.2223214285714,12.128571428571426,1659.5,566.2223214285714,12.128571428571426,1763.3,566.2223214285714,12.128571428571426,1864,566.2223214285714,12.128571428571426,1967.3,566.2223214285714,12.128571428571426,2069.1,566.2223214285714,12.128571428571426,2173,566.2223214285714,12.128571428571426,2275.3,566.2223214285714,12.128571428571426,2377.2,566.2223214285714,12.128571428571426,2477.2,566.2223214285714,12.128571428571426,2585.6,566.2223214285714,12.128571428571426,2689.7,566.2223214285714,12.128571428571426,2789.7,566.2223214285714,12.128571428571426,2890,566.2223214285714,12.128571428571426,2992.6,566.2223214285714,12.128571428571426,3096.5,566.2223214285714,12.128571428571426,3197.4,566.2223214285714,12.128571428571426,3303,566.2223214285714,12.128571428571426,3403.6,566.2223214285714,12.128571428571426,3503.8,566.2223214285714,12.128571428571426,3607.5,566.2223214285714,12.128571428571426,3713.5,566.2223214285714,12.128571428571426,3819.7,566.2223214285714,12.128571428571426,3923.6,566.2223214285714,12.128571428571426,4027.5,566.2223214285714,12.128571428571426,4139.5,566.2223214285714,12.128571428571426,4241,566.2223214285714,12.128571428571426,4343.9,566.2223214285714,12.128571428571426,4449.9,566.2223214285714,12.128571428571426,4556.2,566.2223214285714,12.128571428571426,4657.9,566.2223214285714,12.128571428571426,4759,566.2223214285714,12.128571428571426,4866.1,566.2223214285714,12.128571428571426,4966.4]","[369.6,369.6,1000,0,-630.4,""error"",""-"",""-"",""no_move"",4044.7,3674,2185.5,1377.7,481.5,""oops"",""right"",""up"",""good_move"",6694.7,2649.5,2182.1,4045.2,467.4,""smooth"",""up"",""up"",""good_move"",10230.8,3535.8,3159.9,6695.1,375.9,""oops"",""right"",""up"",""good_move"",16793.4,6562.4,2385.2,13994,414.2,""oops"",""right"",""right"",""good_move"",23191.3,6397.5,2134.6,20627.8,428.9,""oops"",""right"",""left"",""bad_move"",26494.7,3303,2687.6,23191.7,615.4,""smooth"",""right"",""right"",""good_move"",29242.6,2747.4,2339.2,26495.2,408.2,""oops"",""right"",""down"",""bad_move"",31842.4,2598.8,2170.1,29243.6,428.7,""smooth"",""right"",""right"",""good_move"",34617.1,2774.4,2364.1,31842.7,410.3,""oops"",""right"",""down"",""bad_move""]","",""
"5000","","<div style=""width:500px;"">
  <p>What determined the result of this run?</p>
  </div>","31","html-slider-response","74","2390887","0.0-10.0-1.7","62","1","2025-07-02 10:18:58","80fe4187154257d5fb01684ea91b68b9","41.76.96.194","Mozilla/5.0 (Windows NT 10.0; Win64; x64) AppleWebKit/537.36 (KHTML, like Gecko) Chrome/137.0.0.0 Safari/537.36","WebKit","Chrome","137.0.0.0","Windows","10.0","https://app.prolific.com/","en-ZA,en-GB;q=0.9,en-US;q=0.8,en;q=0.7","612d86a981a81014cd1cb48f","683db6dfa200031b80f2a654","6865078a5400bdc6c835830c","612d86a981a81014cd1cb48f","2025-07-02T10:58:54.756Z","","","","","","AttribQ","","","","","","","","","","","","","","","","","","","","","","","","","","","","","","","","","","","","","","50"
"5274","","<div style=""width:500px;"">
  <p>How much control did you have over the ball?</p>
  </div>","68","html-slider-response","75","2396166","0.0-10.0-2.7","62","1","2025-07-02 10:18:58","80fe4187154257d5fb01684ea91b68b9","41.76.96.194","Mozilla/5.0 (Windows NT 10.0; Win64; x64) AppleWebKit/537.36 (KHTML, like Gecko) Chrome/137.0.0.0 Safari/537.36","WebKit","Chrome","137.0.0.0","Windows","10.0","https://app.prolific.com/","en-ZA,en-GB;q=0.9,en-US;q=0.8,en;q=0.7","612d86a981a81014cd1cb48f","683db6dfa200031b80f2a654","6865078a5400bdc6c835830c","612d86a981a81014cd1cb48f","2025-07-02T10:59:00.035Z","","","","","","ControlQ","","","","","","","","","","","","","","","","","","","","","","","","","","","","","","","","","","","","","","50"
"6934","","<div style=""width:500px;"">
  <p>How would you describe your current emotional state?</p>
  </div>","91","html-slider-response","76","2403106","0.0-10.0-3.7","62","1","2025-07-02 10:18:58","80fe4187154257d5fb01684ea91b68b9","41.76.96.194","Mozilla/5.0 (Windows NT 10.0; Win64; x64) AppleWebKit/537.36 (KHTML, like Gecko) Chrome/137.0.0.0 Safari/537.36","WebKit","Chrome","137.0.0.0","Windows","10.0","https://app.prolific.com/","en-ZA,en-GB;q=0.9,en-US;q=0.8,en;q=0.7","612d86a981a81014cd1cb48f","683db6dfa200031b80f2a654","6865078a5400bdc6c835830c","612d86a981a81014cd1cb48f","2025-07-02T10:59:06.975Z","","","","","","StressQ","","","","","","","","","","","","","","","","","","","","","","","","","","","","","","","","","","","","","","50"
"6213","","<div style=""width:500px;"">
  <p>What best describes how you currently feel?</p>
  </div>","37","html-slider-response","77","2409322","0.0-10.0-4.7","62","1","2025-07-02 10:18:58","80fe4187154257d5fb01684ea91b68b9","41.76.96.194","Mozilla/5.0 (Windows NT 10.0; Win64; x64) AppleWebKit/537.36 (KHTML, like Gecko) Chrome/137.0.0.0 Safari/537.36","WebKit","Chrome","137.0.0.0","Windows","10.0","https://app.prolific.com/","en-ZA,en-GB;q=0.9,en-US;q=0.8,en;q=0.7","612d86a981a81014cd1cb48f","683db6dfa200031b80f2a654","6865078a5400bdc6c835830c","612d86a981a81014cd1cb48f","2025-07-02T10:59:13.191Z","","","","","","MotivationQ","","","","","","","","","","","","","","","","","","","","","","","","","","","","","","","","","","","","","","50"
"","","","","ctl-task-cpt","78","2464408","0.0-10.0-0.8","62","1","2025-07-02 10:18:58","80fe4187154257d5fb01684ea91b68b9","41.76.96.194","Mozilla/5.0 (Windows NT 10.0; Win64; x64) AppleWebKit/537.36 (KHTML, like Gecko) Chrome/137.0.0.0 Safari/537.36","WebKit","Chrome","137.0.0.0","Windows","10.0","https://app.prolific.com/","en-ZA,en-GB;q=0.9,en-US;q=0.8,en;q=0.7","612d86a981a81014cd1cb48f","683db6dfa200031b80f2a654","6865078a5400bdc6c835830c","612d86a981a81014cd1cb48f","2025-07-02T11:00:08.277Z","","","","","","","","","","","","","","","","win-only","1","g1:NE,g2:SW","0.4","9","0","2415283.1","2704.1","7720","52067.6","1","4","4","6","2","-4","-5","0","0","0","2223.9","3000","-1195","[""down"",""left""]","{""num_key_presses"":12,""num_perfect"":4,""num_errors"":1,""num_randdir"":7,""num_randdir_good_moves"":1,""num_whilered"":0,""num_whileblue"":0,""num_blue"":2,""num_good_moves"":5}","[299.22232142857143,294.12857142857143,0.2,299.22232142857143,294.12857142857143,111.9,299.22232142857143,294.12857142857143,220.9,299.22232142857143,294.12857142857143,331.8,299.22232142857143,294.12857142857143,439.5,299.22232142857143,294.12857142857143,551.9,299.22232142857143,294.12857142857143,662,299.22232142857143,294.12857142857143,763.8,299.22232142857143,294.12857142857143,874.2,223.22232142857143,328.12857142857143,988,140.22232142857143,406.12857142857143,1101.9,140.22232142857143,408.12857142857143,1211.2,138.22232142857143,417.12857142857143,1312.5,119.22232142857143,501.12857142857143,1423.7,101.22232142857143,542.1285714285714,1535.2,94.22232142857143,547.1285714285714,1636.1,75.22232142857143,541.1285714285714,1744.3,61.222321428571426,537.1285714285714,1859,57.222321428571426,537.1285714285714,1967.8,57.222321428571426,537.1285714285714,2082.8,57.222321428571426,537.1285714285714,2192.4,57.222321428571426,537.1285714285714,2302.7,57.222321428571426,537.1285714285714,2403.3,57.222321428571426,537.1285714285714,2506.1,57.222321428571426,537.1285714285714,2613.2,57.222321428571426,537.1285714285714,2728.8,57.222321428571426,537.1285714285714,2839.9,57.222321428571426,537.1285714285714,2951.3,57.222321428571426,537.1285714285714,3060.1,57.222321428571426,537.1285714285714,3163.6,57.222321428571426,537.1285714285714,3274,57.222321428571426,537.1285714285714,3386.4,57.222321428571426,537.1285714285714,3491.8,57.222321428571426,537.1285714285714,3603.3,57.222321428571426,537.1285714285714,3714.9,57.222321428571426,537.1285714285714,3816.6,57.222321428571426,537.1285714285714,3918.9,57.222321428571426,537.1285714285714,4034.5,57.222321428571426,537.1285714285714,4149.2,57.222321428571426,537.1285714285714,4249.9,57.222321428571426,537.1285714285714,4350.7,57.222321428571426,537.1285714285714,4462.6,57.222321428571426,537.1285714285714,4571.9,57.222321428571426,537.1285714285714,4685.6,57.222321428571426,537.1285714285714,4797.8,57.222321428571426,537.1285714285714,4899.1,57.222321428571426,537.1285714285714,4999.8]","[415.1,415.1,1000,0,-584.9,""error"",""-"",""-"",""no_move"",4651.6,4236.4,2735.5,1432.5,483.6,""smooth"",""down"",""down"",""good_move"",7416.9,2765.1,2318.5,4651.8,446.6,""oops"",""down"",""up"",""bad_move"",9932.6,2511.1,2160.9,7421.5,350.2,""smooth"",""left"",""left"",""good_move"",13803.1,3870.2,3462.3,9932.9,407.9,""oops"",""down"",""down"",""good_move"",16571.9,2768.6,2353.4,13803.3,415.2,""smooth"",""down"",""down"",""good_move"",19493.3,2920.6,2515.9,16572.7,404.7,""smooth"",""left"",""left"",""good_move"",22341.9,2848.3,2427.1,19493.6,421.2,""oops"",""left"",""right"",""bad_move"",25021.8,2679.6,2270.3,22342.2,409.3,""oops"",""down"",""right"",""bad_move"",28108.6,3085.5,2715.4,25023.4,369.8,""oops"",""left"",""right"",""bad_move"",39151.9,11043.2,2649.9,36091.8,410.2,""oops"",""down"",""right"",""bad_move"",41947.3,2794.9,2232,39152.4,562.9,""oops"",""down"",""up"",""bad_move""]","",""
"4486","","<div style=""width:500px;"">
  <p>What determined the result of this run?</p>
  </div>","18","html-slider-response","79","2468896","0.0-10.0-1.8","62","1","2025-07-02 10:18:58","80fe4187154257d5fb01684ea91b68b9","41.76.96.194","Mozilla/5.0 (Windows NT 10.0; Win64; x64) AppleWebKit/537.36 (KHTML, like Gecko) Chrome/137.0.0.0 Safari/537.36","WebKit","Chrome","137.0.0.0","Windows","10.0","https://app.prolific.com/","en-ZA,en-GB;q=0.9,en-US;q=0.8,en;q=0.7","612d86a981a81014cd1cb48f","683db6dfa200031b80f2a654","6865078a5400bdc6c835830c","612d86a981a81014cd1cb48f","2025-07-02T11:00:12.765Z","","","","","","AttribQ","","","","","","","","","","","","","","","","","","","","","","","","","","","","","","","","","","","","","","50"
"5313","","<div style=""width:500px;"">
  <p>How much control did you have over the ball?</p>
  </div>","0","html-slider-response","80","2474211","0.0-10.0-2.8","62","1","2025-07-02 10:18:58","80fe4187154257d5fb01684ea91b68b9","41.76.96.194","Mozilla/5.0 (Windows NT 10.0; Win64; x64) AppleWebKit/537.36 (KHTML, like Gecko) Chrome/137.0.0.0 Safari/537.36","WebKit","Chrome","137.0.0.0","Windows","10.0","https://app.prolific.com/","en-ZA,en-GB;q=0.9,en-US;q=0.8,en;q=0.7","612d86a981a81014cd1cb48f","683db6dfa200031b80f2a654","6865078a5400bdc6c835830c","612d86a981a81014cd1cb48f","2025-07-02T11:00:18.081Z","","","","","","ControlQ","","","","","","","","","","","","","","","","","","","","","","","","","","","","","","","","","","","","","","50"
"8562","","<div style=""width:500px;"">
  <p>How would you describe your current emotional state?</p>
  </div>","67","html-slider-response","81","2482777","0.0-10.0-3.8","62","1","2025-07-02 10:18:58","80fe4187154257d5fb01684ea91b68b9","41.76.96.194","Mozilla/5.0 (Windows NT 10.0; Win64; x64) AppleWebKit/537.36 (KHTML, like Gecko) Chrome/137.0.0.0 Safari/537.36","WebKit","Chrome","137.0.0.0","Windows","10.0","https://app.prolific.com/","en-ZA,en-GB;q=0.9,en-US;q=0.8,en;q=0.7","612d86a981a81014cd1cb48f","683db6dfa200031b80f2a654","6865078a5400bdc6c835830c","612d86a981a81014cd1cb48f","2025-07-02T11:00:26.646Z","","","","","","StressQ","","","","","","","","","","","","","","","","","","","","","","","","","","","","","","","","","","","","","","50"
"29996","","<div style=""width:500px;"">
  <p>What best describes how you currently feel?</p>
  </div>","30","html-slider-response","82","2512777","0.0-10.0-4.8","62","1","2025-07-02 10:18:58","80fe4187154257d5fb01684ea91b68b9","41.76.96.194","Mozilla/5.0 (Windows NT 10.0; Win64; x64) AppleWebKit/537.36 (KHTML, like Gecko) Chrome/137.0.0.0 Safari/537.36","WebKit","Chrome","137.0.0.0","Windows","10.0","https://app.prolific.com/","en-ZA,en-GB;q=0.9,en-US;q=0.8,en;q=0.7","612d86a981a81014cd1cb48f","683db6dfa200031b80f2a654","6865078a5400bdc6c835830c","612d86a981a81014cd1cb48f","2025-07-02T11:00:56.646Z","","","","","","MotivationQ","","","","","","","","","","","","","","","","","","","","","","","","","","","","","","","","","","","","","","50"
