"rt","response_timestamp","stimulus","response","trial_type","trial_index","time_elapsed","internal_node_id","run_id","condition","recorded_at","source_code_version","ip","user_agent","device","browser","browser_version","platform","platform_version","referer","accept_language","PROLIFIC_PID","STUDY_ID","SESSION_ID","prolific_id","realtime","view_history","question_order","consent","success","question_id","eventType","responses","item_order","radio_event_ids","radio_event_times","key_event_times","mouse_event_times","straightlining","zigzagging","honeypot","which_type","canvas_config","goals_layout","control_level","trial_number","tutorial_trial_number","trial_start_time","phase1_start_time","phase2_start_time","phase3_start_time","goal_1_value","goal_1_distance","goal_2_value","goal_2_distance","goal_selected","outcome","outcome_total","participant_final_score","participant_initial_score","participant_final_score_prop","goal_choice_rt","allocated_time","allocated_time_remaining","goal_direction","counts","mouse_movements","key_presses","correct","slider_start"
"22508","1751451571984","<p style='font-size:40px;line-height:1.25'><strong>Welcome to the experiment!</strong></p><p style='font-size:1.1em;line-height:1.25'>Thank you for your interest in our experiment! Before you begin, it is important that we obtain your informed consent to participate in the study.</p><p style='font-size:1.1em;line-height:1.25'>On the next screen will be an <strong>information sheet</strong> for you to read. To participate in the study we need you to read this information sheet and the following consent form carefully. If you agree with all the statements, please click the <strong>I agree</strong> button.</p><p style='font-size:1.1em;line-height:1.25'>Press <strong>Next</strong> to read the information sheet.</p>","0","custom-html-button-response","0","22510","0.0-0.0","84","1","2025-07-02 10:19:08","80fe4187154257d5fb01684ea91b68b9","93.108.112.26","Mozilla/5.0 (Windows NT 10.0; Win64; x64) AppleWebKit/537.36 (KHTML, like Gecko) Chrome/138.0.0.0 Safari/537.36","WebKit","Chrome","138.0.0.0","Windows","10.0","https://app.prolific.com/","en-US,en;q=0.9","6140ef8d27499e70e8740918","683db6dfa200031b80f2a654","68650786c99c1739a69aaaa7","6140ef8d27499e70e8740918","2025-07-02T10:19:31.985Z","","","","","","","","","","","","","","","","","","","","","","","","","","","","","","","","","","","","","","","","","","","",""
"115776","","","","instructions","1","138316","0.0-1.0","84","1","2025-07-02 10:19:08","80fe4187154257d5fb01684ea91b68b9","93.108.112.26","Mozilla/5.0 (Windows NT 10.0; Win64; x64) AppleWebKit/537.36 (KHTML, like Gecko) Chrome/138.0.0.0 Safari/537.36","WebKit","Chrome","138.0.0.0","Windows","10.0","https://app.prolific.com/","en-US,en;q=0.9","6140ef8d27499e70e8740918","683db6dfa200031b80f2a654","68650786c99c1739a69aaaa7","6140ef8d27499e70e8740918","","[{""page_index"":0,""viewing_time"":92691},{""page_index"":1,""viewing_time"":23085}]","","","","","","","","","","","","","","","","","","","","","","","","","","","","","","","","","","","","","","","","","","",""
"7461","","","{""Q0"":"""",""Q1"":"""",""Q2"":"""",""Q3"":"""",""Q4"":"""",""Q5"":"""",""Q6"":""I agree""}","survey-multi-choice","2","145778","0.0-2.0","84","1","2025-07-02 10:19:08","80fe4187154257d5fb01684ea91b68b9","93.108.112.26","Mozilla/5.0 (Windows NT 10.0; Win64; x64) AppleWebKit/537.36 (KHTML, like Gecko) Chrome/138.0.0.0 Safari/537.36","WebKit","Chrome","138.0.0.0","Windows","10.0","https://app.prolific.com/","en-US,en;q=0.9","6140ef8d27499e70e8740918","683db6dfa200031b80f2a654","68650786c99c1739a69aaaa7","6140ef8d27499e70e8740918","","","[0,1,2,3,4,5,6]","true","","","","","","","","","","","","","","","","","","","","","","","","","","","","","","","","","","","","","","","","",""
"22387","","","","fullscreen","3","169183","0.0-4.0","84","1","2025-07-02 10:19:08","80fe4187154257d5fb01684ea91b68b9","93.108.112.26","Mozilla/5.0 (Windows NT 10.0; Win64; x64) AppleWebKit/537.36 (KHTML, like Gecko) Chrome/138.0.0.0 Safari/537.36","WebKit","Chrome","138.0.0.0","Windows","10.0","https://app.prolific.com/","en-US,en;q=0.9","6140ef8d27499e70e8740918","683db6dfa200031b80f2a654","68650786c99c1739a69aaaa7","6140ef8d27499e70e8740918","","","","","true","","","","","","","","","","","","","","","","","","","","","","","","","","","","","","","","","","","","","","","",""
"8958","1751451727617"," <p style='font-size:1.1em;line-height:1.25'>Thank you for completing the consent form and closing all other tabs.</p><p style='font-size:1.1em;line-height:1.25'>We will now invite you to fill in some demographic information and questionnaires, before starting the game.<br>This will take about 5 minutes.<br></p><p style='font-size:1.1em;line-height:1.25'>Press the <strong>Next</strong> button to continue.</p>","0","custom-html-button-response","4","178142","0.0-5.0","84","1","2025-07-02 10:19:08","80fe4187154257d5fb01684ea91b68b9","93.108.112.26","Mozilla/5.0 (Windows NT 10.0; Win64; x64) AppleWebKit/537.36 (KHTML, like Gecko) Chrome/138.0.0.0 Safari/537.36","WebKit","Chrome","138.0.0.0","Windows","10.0","https://app.prolific.com/","en-US,en;q=0.9","6140ef8d27499e70e8740918","683db6dfa200031b80f2a654","68650786c99c1739a69aaaa7","6140ef8d27499e70e8740918","2025-07-02T10:22:07.617Z","","","","","","","","","","","","","","","","","","","","","","","","","","","","","","","","","","","","","","","","","","","",""
"2170","","","{""age"":""24""}","survey-text","5","180315","0.0-6.0-0.0","84","1","2025-07-02 10:19:08","80fe4187154257d5fb01684ea91b68b9","93.108.112.26","Mozilla/5.0 (Windows NT 10.0; Win64; x64) AppleWebKit/537.36 (KHTML, like Gecko) Chrome/138.0.0.0 Safari/537.36","WebKit","Chrome","138.0.0.0","Windows","10.0","https://app.prolific.com/","en-US,en;q=0.9","6140ef8d27499e70e8740918","683db6dfa200031b80f2a654","68650786c99c1739a69aaaa7","6140ef8d27499e70e8740918","","","","","","0","demographics","","","","","","","","","","","","","","","","","","","","","","","","","","","","","","","","","","","","","",""
"2888","","","{""gender_identity"":""female/woman""}","survey-multi-choice","6","183204","0.0-6.0-1.0","84","1","2025-07-02 10:19:08","80fe4187154257d5fb01684ea91b68b9","93.108.112.26","Mozilla/5.0 (Windows NT 10.0; Win64; x64) AppleWebKit/537.36 (KHTML, like Gecko) Chrome/138.0.0.0 Safari/537.36","WebKit","Chrome","138.0.0.0","Windows","10.0","https://app.prolific.com/","en-US,en;q=0.9","6140ef8d27499e70e8740918","683db6dfa200031b80f2a654","68650786c99c1739a69aaaa7","6140ef8d27499e70e8740918","","","[0]","","","1","demographics","","","","","","","","","","","","","","","","","","","","","","","","","","","","","","","","","","","","","",""
"2718","","","{""assigned_sex"":""female""}","survey-multi-choice","7","185923","0.0-6.0-2.0","84","1","2025-07-02 10:19:08","80fe4187154257d5fb01684ea91b68b9","93.108.112.26","Mozilla/5.0 (Windows NT 10.0; Win64; x64) AppleWebKit/537.36 (KHTML, like Gecko) Chrome/138.0.0.0 Safari/537.36","WebKit","Chrome","138.0.0.0","Windows","10.0","https://app.prolific.com/","en-US,en;q=0.9","6140ef8d27499e70e8740918","683db6dfa200031b80f2a654","68650786c99c1739a69aaaa7","6140ef8d27499e70e8740918","","","[0]","","","2","demographics","","","","","","","","","","","","","","","","","","","","","","","","","","","","","","","","","","","","","",""
"4322","","","{""menstrual_cycle"":""Yes""}","survey-multi-choice","8","190245","0.0-6.0-3.0","84","1","2025-07-02 10:19:08","80fe4187154257d5fb01684ea91b68b9","93.108.112.26","Mozilla/5.0 (Windows NT 10.0; Win64; x64) AppleWebKit/537.36 (KHTML, like Gecko) Chrome/138.0.0.0 Safari/537.36","WebKit","Chrome","138.0.0.0","Windows","10.0","https://app.prolific.com/","en-US,en;q=0.9","6140ef8d27499e70e8740918","683db6dfa200031b80f2a654","68650786c99c1739a69aaaa7","6140ef8d27499e70e8740918","","","[0]","","","4","demographics","","","","","","","","","","","","","","","","","","","","","","","","","","","","","","","","","","","","","",""
"23854","","","{""education"":""Vocational Qualifications (e.g. City & Guilds)""}","survey-multi-choice","9","214100","0.0-6.0-4.0","84","1","2025-07-02 10:19:08","80fe4187154257d5fb01684ea91b68b9","93.108.112.26","Mozilla/5.0 (Windows NT 10.0; Win64; x64) AppleWebKit/537.36 (KHTML, like Gecko) Chrome/138.0.0.0 Safari/537.36","WebKit","Chrome","138.0.0.0","Windows","10.0","https://app.prolific.com/","en-US,en;q=0.9","6140ef8d27499e70e8740918","683db6dfa200031b80f2a654","68650786c99c1739a69aaaa7","6140ef8d27499e70e8740918","","","[0]","","","5","demographics","","","","","","","","","","","","","","","","","","","","","","","","","","","","","","","","","","","","","",""
"13034","","","{""education"":""GCSE/Standard Grades""}","survey-multi-choice","10","227135","0.0-6.0-5.0","84","1","2025-07-02 10:19:08","80fe4187154257d5fb01684ea91b68b9","93.108.112.26","Mozilla/5.0 (Windows NT 10.0; Win64; x64) AppleWebKit/537.36 (KHTML, like Gecko) Chrome/138.0.0.0 Safari/537.36","WebKit","Chrome","138.0.0.0","Windows","10.0","https://app.prolific.com/","en-US,en;q=0.9","6140ef8d27499e70e8740918","683db6dfa200031b80f2a654","68650786c99c1739a69aaaa7","6140ef8d27499e70e8740918","2025-07-02T10:22:56.610Z","","[0]","","","6","demographics","","","","","","","","","","","","","","","","","","","","","","","","","","","","","","","","","","","","","",""
"30082","","","{""mental_health_condition"":""I don't have any mental health conditions."",""mental_health_treatment"":""I am not."",""psychiatric_medication"":""I am not.""}","survey-text","11","257218","0.0-7.0-0.0","84","1","2025-07-02 10:19:08","80fe4187154257d5fb01684ea91b68b9","93.108.112.26","Mozilla/5.0 (Windows NT 10.0; Win64; x64) AppleWebKit/537.36 (KHTML, like Gecko) Chrome/138.0.0.0 Safari/537.36","WebKit","Chrome","138.0.0.0","Windows","10.0","https://app.prolific.com/","en-US,en;q=0.9","6140ef8d27499e70e8740918","683db6dfa200031b80f2a654","68650786c99c1739a69aaaa7","6140ef8d27499e70e8740918","2025-07-02T10:23:26.693Z","","","","","1","mental_health","","","","","","","","","","","","","","","","","","","","","","","","","","","","","","","","","","","","","",""
"10741","","","{""depression_history"":[""Yes""]}","survey-multi-select","12","267973","0.0-7.0-1.0","84","1","2025-07-02 10:19:08","80fe4187154257d5fb01684ea91b68b9","93.108.112.26","Mozilla/5.0 (Windows NT 10.0; Win64; x64) AppleWebKit/537.36 (KHTML, like Gecko) Chrome/138.0.0.0 Safari/537.36","WebKit","Chrome","138.0.0.0","Windows","10.0","https://app.prolific.com/","en-US,en;q=0.9","6140ef8d27499e70e8740918","683db6dfa200031b80f2a654","68650786c99c1739a69aaaa7","6140ef8d27499e70e8740918","","","[0]","","","","mental_health","","","","","","","","","","","","","","","","","","","","","","","","","","","","","","","","","","","","","",""
"11934","","","{""depression_episodes"":""more than 5"",""depression_recent"":""More than 1 year ago""}","survey-multi-choice","13","279907","0.0-7.0-2.0-0.0","84","1","2025-07-02 10:19:08","80fe4187154257d5fb01684ea91b68b9","93.108.112.26","Mozilla/5.0 (Windows NT 10.0; Win64; x64) AppleWebKit/537.36 (KHTML, like Gecko) Chrome/138.0.0.0 Safari/537.36","WebKit","Chrome","138.0.0.0","Windows","10.0","https://app.prolific.com/","en-US,en;q=0.9","6140ef8d27499e70e8740918","683db6dfa200031b80f2a654","68650786c99c1739a69aaaa7","6140ef8d27499e70e8740918","2025-07-02T10:23:49.382Z","","[0,1]","","","3","mental_health","","","","","","","","","","","","","","","","","","","","","","","","","","","","","","","","","","","","","",""
"59817.60000002384","","","","survey-template","14","339727","0.0-7.0-3.0","84","1","2025-07-02 10:19:08","80fe4187154257d5fb01684ea91b68b9","93.108.112.26","Mozilla/5.0 (Windows NT 10.0; Win64; x64) AppleWebKit/537.36 (KHTML, like Gecko) Chrome/138.0.0.0 Safari/537.36","WebKit","Chrome","138.0.0.0","Windows","10.0","https://app.prolific.com/","en-US,en;q=0.9","6140ef8d27499e70e8740918","683db6dfa200031b80f2a654","68650786c99c1739a69aaaa7","6140ef8d27499e70e8740918","2025-07-02T10:24:49.202Z","","","","","","ius","{""Q01"":""2"",""Q02"":""1"",""Q03"":""2"",""Q04"":""4"",""Q05"":""2"",""Q06"":""2"",""Q07"":""3"",""Q08"":""0"",""Q09"":""4"",""Q10"":""3"",""Q11"":""2"",""Q12"":""4"",""Q13"":""3""}","[0,1,2,3,4,5,6,7,8,9,10,11,12]","[""Q01"",""Q02"",""Q03"",""Q04"",""Q05"",""Q06"",""Q07"",""Q08"",""Q09"",""Q10"",""Q11"",""Q12"",""Q13""]","[6935.299999952316,11906.200000047684,18609.100000023842,23026.100000023842,29771.100000023842,33940.10000002384,36743,39663.200000047684,44356.89999997616,47428.10000002384,50818.89999997616,54346.89999997616,58863.10000002384]","[]","[6935.299999952316,11906.200000047684,18609.100000023842,23026.100000023842,29771.100000023842,33940.10000002384,36743,39663.200000047684,44356.89999997616,47428.10000002384,50818.89999997616,54346.89999997616,58863.10000002384,59816]","0.38461538461538464","0.5833333333333334","0","","","","","","","","","","","","","","","","","","","","","","","","","","","","",""
"4404","1751451893607","<p style='font-size:1.1em;line-height:1.25'>In the following, we will ask you a few questions relating to your experiences over the past month.<br></p><p style='font-size:1.1em;line-height:1.25'>Press the <strong>Next</strong> button to continue.</p>","0","custom-html-button-response","15","344132","0.0-7.0-4.0","84","1","2025-07-02 10:19:08","80fe4187154257d5fb01684ea91b68b9","93.108.112.26","Mozilla/5.0 (Windows NT 10.0; Win64; x64) AppleWebKit/537.36 (KHTML, like Gecko) Chrome/138.0.0.0 Safari/537.36","WebKit","Chrome","138.0.0.0","Windows","10.0","https://app.prolific.com/","en-US,en;q=0.9","6140ef8d27499e70e8740918","683db6dfa200031b80f2a654","68650786c99c1739a69aaaa7","6140ef8d27499e70e8740918","2025-07-02T10:24:53.607Z","","","","","","","","","","","","","","","","","","","","","","","","","","","","","","","","","","","","","","","","","","","",""
"58175.39999997616","","","","survey-template","16","402309","0.0-7.0-5.0","84","1","2025-07-02 10:19:08","80fe4187154257d5fb01684ea91b68b9","93.108.112.26","Mozilla/5.0 (Windows NT 10.0; Win64; x64) AppleWebKit/537.36 (KHTML, like Gecko) Chrome/138.0.0.0 Safari/537.36","WebKit","Chrome","138.0.0.0","Windows","10.0","https://app.prolific.com/","en-US,en;q=0.9","6140ef8d27499e70e8740918","683db6dfa200031b80f2a654","68650786c99c1739a69aaaa7","6140ef8d27499e70e8740918","2025-07-02T10:25:51.784Z","","","","","","pss","{""Q01"":""1"",""Q02"":""2"",""Q03"":""2"",""Q04"":""1"",""Q05"":""2"",""Q06"":""3"",""Q07"":""0"",""Q08"":""2"",""Q09"":""0"",""Q10"":""2""}","[0,1,2,3,4,5,6,7,8,9]","[""Q01"",""Q02"",""Q03"",""Q04"",""Q05"",""Q06"",""Q07"",""Q08"",""Q09"",""Q10""]","[10506.100000023842,18825.799999952316,23513.899999976158,29000.600000023842,35208.89999997616,40634.699999928474,44638.799999952316,48958.60000002384,52647.299999952316,57316.89999997616]","[]","[0.10000002384185791,10506.100000023842,18825.799999952316,23513.899999976158,29000.600000023842,35208.89999997616,40634.699999928474,44638.799999952316,48958.60000002384,52647.299999952316,57316.89999997616,58173.799999952316]","0.5","0.5555555555555556","0","","","","","","","","","","","","","","","","","","","","","","","","","","","","",""
"3496","1751451955281","<p style='font-size:1.1em;line-height:1.25'>Thank you for your answers! Now we will ask you a few more questions relating to your feelings in the last 24 hours.<br></p><p style='font-size:1.1em;line-height:1.25'>Press the <strong>Next</strong> button to continue.</p>","0","custom-html-button-response","17","405806","0.0-7.0-6.0","84","1","2025-07-02 10:19:08","80fe4187154257d5fb01684ea91b68b9","93.108.112.26","Mozilla/5.0 (Windows NT 10.0; Win64; x64) AppleWebKit/537.36 (KHTML, like Gecko) Chrome/138.0.0.0 Safari/537.36","WebKit","Chrome","138.0.0.0","Windows","10.0","https://app.prolific.com/","en-US,en;q=0.9","6140ef8d27499e70e8740918","683db6dfa200031b80f2a654","68650786c99c1739a69aaaa7","6140ef8d27499e70e8740918","2025-07-02T10:25:55.281Z","","","","","","","","","","","","","","","","","","","","","","","","","","","","","","","","","","","","","","","","","","","",""
"89877.89999997616","","","","survey-template","18","495686","0.0-7.0-7.0","84","1","2025-07-02 10:19:08","80fe4187154257d5fb01684ea91b68b9","93.108.112.26","Mozilla/5.0 (Windows NT 10.0; Win64; x64) AppleWebKit/537.36 (KHTML, like Gecko) Chrome/138.0.0.0 Safari/537.36","WebKit","Chrome","138.0.0.0","Windows","10.0","https://app.prolific.com/","en-US,en;q=0.9","6140ef8d27499e70e8740918","683db6dfa200031b80f2a654","68650786c99c1739a69aaaa7","6140ef8d27499e70e8740918","2025-07-02T10:27:25.161Z","","","","","","drsp","{""Q01"":""1"",""Q02"":""1"",""Q03"":""1"",""Q04"":""2"",""Q05"":""2"",""Q06"":""2"",""Q07"":""0"",""Q08"":""0"",""Q09"":""3"",""Q10"":""3"",""Q11"":""4"",""Q12"":""1"",""Q13"":""2"",""Q14"":""0"",""Q15"":""4"",""Q16"":""2"",""Q17"":""0"",""Q18"":""4"",""Q19"":""5"",""Q20"":""4"",""Q21"":""3""}","[0,1,2,3,4,5,6,7,8,9,10,11,12,13,14,15,16,17,18,19,20]","[""Q01"",""Q02"",""Q03"",""Q04"",""Q05"",""Q06"",""Q07"",""Q08"",""Q09"",""Q10"",""Q11"",""Q12"",""Q13"",""Q12"",""Q14"",""Q15"",""Q16"",""Q17"",""Q18"",""Q19"",""Q20"",""Q21""]","[3791.7999999523163,4909.899999976158,5773.899999976158,7342.899999976158,11463,13208.799999952316,15088.600000023842,16776,19889.699999928474,22801.799999952316,26443.899999976158,30357.699999928474,40641,42240.799999952316,45326.60000002384,53234.699999928474,62181.60000002384,65827.5,72583.60000002384,79095.5,84524.5,88779.60000002384]","[]","[0.10000002384185791,3791.7999999523163,4909.899999976158,5773.899999976158,7342.899999976158,9734.899999976158,11463,13208.799999952316,15088.600000023842,16776,19889.699999928474,22801.799999952316,26443.899999976158,30357.699999928474,40641,41262,41836.60000002384,42240.799999952316,45326.60000002384,53234.699999928474,61059.699999928474,62181.60000002384,65827.5,72583.60000002384,79095.5,84524.5,88779.60000002384,89875.69999992847]","0.23809523809523808","0.3","0","","","","","","","","","","","","","","","","","","","","","","","","","","","","",""
"26064.699999928474","","","","survey-template","19","521752","0.0-7.0-8.0","84","1","2025-07-02 10:19:08","80fe4187154257d5fb01684ea91b68b9","93.108.112.26","Mozilla/5.0 (Windows NT 10.0; Win64; x64) AppleWebKit/537.36 (KHTML, like Gecko) Chrome/138.0.0.0 Safari/537.36","WebKit","Chrome","138.0.0.0","Windows","10.0","https://app.prolific.com/","en-US,en;q=0.9","6140ef8d27499e70e8740918","683db6dfa200031b80f2a654","68650786c99c1739a69aaaa7","6140ef8d27499e70e8740918","2025-07-02T10:27:51.227Z","","","","","","stress","{""Q01"":""1"",""Q02"":""3"",""Q03"":""4""}","[0,1,2]","[""Q01"",""Q02"",""Q03"",""Q03"",""Q02""]","[9154.100000023842,14241,18892.199999928474,22299,24808]","[]","[9154.100000023842,13700.100000023842,14241,18892.199999928474,22299,24808,26064.100000023842]","0.3333333333333333","0.5","0","","","","","","","","","","","","","","","","","","","","","","","","","","","","",""
"451125","","","","instructions","20","972878","0.0-8.0-0.0","84","1","2025-07-02 10:19:08","80fe4187154257d5fb01684ea91b68b9","93.108.112.26","Mozilla/5.0 (Windows NT 10.0; Win64; x64) AppleWebKit/537.36 (KHTML, like Gecko) Chrome/138.0.0.0 Safari/537.36","WebKit","Chrome","138.0.0.0","Windows","10.0","https://app.prolific.com/","en-US,en;q=0.9","6140ef8d27499e70e8740918","683db6dfa200031b80f2a654","68650786c99c1739a69aaaa7","6140ef8d27499e70e8740918","","[{""page_index"":0,""viewing_time"":27655},{""page_index"":1,""viewing_time"":387472},{""page_index"":2,""viewing_time"":15012},{""page_index"":3,""viewing_time"":20985}]","","","","","","","","","","","","","","","","","","","","","","","","","","","","","","","","","","","","","","","","","","",""
"","","","","ctl-task-cpt","21","1002205","0.0-8.0-1.0","84","1","2025-07-02 10:19:08","80fe4187154257d5fb01684ea91b68b9","93.108.112.26","Mozilla/5.0 (Windows NT 10.0; Win64; x64) AppleWebKit/537.36 (KHTML, like Gecko) Chrome/138.0.0.0 Safari/537.36","WebKit","Chrome","138.0.0.0","Windows","10.0","https://app.prolific.com/","en-US,en;q=0.9","6140ef8d27499e70e8740918","683db6dfa200031b80f2a654","68650786c99c1739a69aaaa7","6140ef8d27499e70e8740918","","","","","","","","","","","","","","","","","win-only","0","g1:NW,g2:SE","1","0","1","974020.1","4411","8416.7","26306.9","2","4","4","6","2","4","3","3","0","0.022727272727272728","1554.2","4000","1915","[""down"",""right""]","{""num_key_presses"":7,""num_perfect"":6,""num_errors"":1,""num_randdir"":0,""num_randdir_good_moves"":0,""num_whilered"":0,""num_whileblue"":0,""num_blue"":0,""num_good_moves"":6}","[413.57142857142856,419.47767857142856,0.2,413.57142857142856,419.47767857142856,100.1,413.57142857142856,419.47767857142856,200.9,413.57142857142856,419.47767857142856,305.7,413.57142857142856,419.47767857142856,409.3,413.57142857142856,419.47767857142856,509.6,413.57142857142856,419.47767857142856,610.6,413.57142857142856,419.47767857142856,714.3,413.57142857142856,419.47767857142856,820.5,413.57142857142856,419.47767857142856,924.3,414.57142857142856,420.47767857142856,1024.4,470.57142857142856,478.47767857142856,1125.1,622.5714285714286,614.4776785714286,1225.4,737.5714285714286,712.4776785714286,1325.4,766.5714285714286,756.4776785714286,1430.8,780.5714285714286,769.4776785714286,1536,780.5714285714286,769.4776785714286,1639.9,780.5714285714286,769.4776785714286,1745.5,796.5714285714286,762.4776785714286,1849.5,846.5714285714286,741.4776785714286,1949.8,891.5714285714286,710.4776785714286,2055.3,896.5714285714286,701.4776785714286,2160.4,897.5714285714286,700.4776785714286,2264.6,897.5714285714286,700.4776785714286,2364.7,897.5714285714286,700.4776785714286,2469.3,897.5714285714286,699.4776785714286,2570.5,897.5714285714286,699.4776785714286,2674.4,897.5714285714286,699.4776785714286,2774.6,897.5714285714286,699.4776785714286,2881,897.5714285714286,699.4776785714286,2984.4,897.5714285714286,699.4776785714286,3085,895.5714285714286,693.4776785714286,3189.6,894.5714285714286,690.4776785714286,3289.7,894.5714285714286,690.4776785714286,3394.4,894.5714285714286,690.4776785714286,3495.2,894.5714285714286,690.4776785714286,3595.2,894.5714285714286,690.4776785714286,3695.2,894.5714285714286,690.4776785714286,3800.2,894.5714285714286,690.4776785714286,3900.9]","[1567.4,1567.4,1000,0,567.4,""smooth"",""down"",""down"",""good_move"",1935.5,367.8,1858.2,1567.8,-1490.5,""error"",""-"",""-"",""no_move"",5775.5,3839.7,2422.7,2938.7,414.1,""smooth"",""down"",""down"",""good_move"",9047.4,3271.7,2914.6,5775.7,357.1,""smooth"",""down"",""down"",""good_move"",12367.3,3319.9,3075.3,9047.5,244.6,""smooth"",""right"",""right"",""good_move"",15183.1,2815.5,2507,12367.6,308.5,""smooth"",""right"",""right"",""good_move"",17799.4,2616.1,2354.6,15183.3,261.5,""smooth"",""right"",""right"",""good_move""]","",""
"17907","","","","instructions","22","1020113","0.0-8.0-2.0","84","1","2025-07-02 10:19:08","80fe4187154257d5fb01684ea91b68b9","93.108.112.26","Mozilla/5.0 (Windows NT 10.0; Win64; x64) AppleWebKit/537.36 (KHTML, like Gecko) Chrome/138.0.0.0 Safari/537.36","WebKit","Chrome","138.0.0.0","Windows","10.0","https://app.prolific.com/","en-US,en;q=0.9","6140ef8d27499e70e8740918","683db6dfa200031b80f2a654","68650786c99c1739a69aaaa7","6140ef8d27499e70e8740918","","[{""page_index"":0,""viewing_time"":17907}]","","","","","","","","","","","","","","","","","","","","","","","","","","","","","","","","","","","","","","","","","","",""
"","","","","ctl-task-cpt","23","1074547","0.0-8.0-3.0","84","1","2025-07-02 10:19:08","80fe4187154257d5fb01684ea91b68b9","93.108.112.26","Mozilla/5.0 (Windows NT 10.0; Win64; x64) AppleWebKit/537.36 (KHTML, like Gecko) Chrome/138.0.0.0 Safari/537.36","WebKit","Chrome","138.0.0.0","Windows","10.0","https://app.prolific.com/","en-US,en;q=0.9","6140ef8d27499e70e8740918","683db6dfa200031b80f2a654","68650786c99c1739a69aaaa7","6140ef8d27499e70e8740918","","","","","","","","","","","","","","","","","win-only","0","g1:NW,g2:SE","0.35","0","3","1021240.9","1072.5","5075.5","51415.6","2","4","8","6","2","-8","-8","0","0","0","1834","4000","-3015","[""down"",""right""]","{""num_key_presses"":12,""num_perfect"":5,""num_errors"":0,""num_randdir"":7,""num_randdir_good_moves"":3,""num_whilered"":0,""num_whileblue"":0,""num_blue"":3,""num_good_moves"":8}","[415.57142857142856,412.47767857142856,0.2,415.57142857142856,412.47767857142856,102.8,415.57142857142856,412.47767857142856,202.9,415.57142857142856,412.47767857142856,303.3,415.57142857142856,412.47767857142856,403.5,415.57142857142856,412.47767857142856,507.8,415.57142857142856,412.47767857142856,608.7,415.57142857142856,412.47767857142856,713.1,476.57142857142856,498.47767857142856,813.2,600.5714285714286,610.4776785714286,914.6,709.5714285714286,713.4776785714286,1018.4,760.5714285714286,760.4776785714286,1123.2,761.5714285714286,761.4776785714286,1228.1,761.5714285714286,761.4776785714286,1328.3,761.5714285714286,761.4776785714286,1432.7,761.5714285714286,761.4776785714286,1533.9,761.5714285714286,761.4776785714286,1638,761.5714285714286,761.4776785714286,1738.1,761.5714285714286,761.4776785714286,1838.1,761.5714285714286,761.4776785714286,1943.1,761.5714285714286,761.4776785714286,2043.1,761.5714285714286,761.4776785714286,2143.1,761.5714285714286,761.4776785714286,2248.2,763.5714285714286,759.4776785714286,2353.3,792.5714285714286,736.4776785714286,2453.3,846.5714285714286,697.4776785714286,2553.3,913.5714285714286,668.4776785714286,2657.7,941.5714285714286,661.4776785714286,2757.8,941.5714285714286,661.4776785714286,2858.7,941.5714285714286,661.4776785714286,2963.9,941.5714285714286,661.4776785714286,3068.2,941.5714285714286,661.4776785714286,3172.9,941.5714285714286,661.4776785714286,3273,941.5714285714286,661.4776785714286,3377.6,941.5714285714286,661.4776785714286,3477.9,941.5714285714286,661.4776785714286,3577.9,941.5714285714286,661.4776785714286,3677.9,941.5714285714286,661.4776785714286,3782.9,941.5714285714286,661.4776785714286,3883.7,941.5714285714286,661.4776785714286,3987.9]","[5543.4,5543.4,3228.6,2005.7,309.1,""oops"",""down"",""left"",""bad_move"",8439.3,2895.7,2358.9,5543.6,536.8,""smooth"",""down"",""down"",""good_move"",11199.3,2759.8,2509.8,8439.5,250,""oops"",""down"",""right"",""good_move"",14167.3,2967.9,2710.9,11199.4,257,""oops"",""down"",""right"",""good_move"",16839.5,2672,2385.8,14167.5,286.2,""smooth"",""down"",""down"",""good_move"",26471.2,9631.6,1968.2,24085.2,417.8,""oops"",""down"",""up"",""bad_move"",29783.1,3311.7,2942.8,26471.4,368.9,""smooth"",""down"",""down"",""good_move"",31647.4,1864.2,1479.5,29783.3,384.7,""smooth"",""down"",""down"",""good_move"",34743,3095.4,2704,31647.6,391.4,""oops"",""right"",""right"",""good_move"",37527.1,2784,2454.5,34743.1,329.5,""oops"",""right"",""left"",""bad_move"",40222.9,2695.6,2441.8,37527.3,253.8,""oops"",""right"",""left"",""bad_move"",43239.4,3016.3,2773,40223.1,243.3,""smooth"",""right"",""right"",""good_move""]","",""
"42584","","","","instructions","24","1117131","0.0-8.0-4.0","84","1","2025-07-02 10:19:08","80fe4187154257d5fb01684ea91b68b9","93.108.112.26","Mozilla/5.0 (Windows NT 10.0; Win64; x64) AppleWebKit/537.36 (KHTML, like Gecko) Chrome/138.0.0.0 Safari/537.36","WebKit","Chrome","138.0.0.0","Windows","10.0","https://app.prolific.com/","en-US,en;q=0.9","6140ef8d27499e70e8740918","683db6dfa200031b80f2a654","68650786c99c1739a69aaaa7","6140ef8d27499e70e8740918","","[{""page_index"":0,""viewing_time"":13759},{""page_index"":1,""viewing_time"":28825}]","","","","","","","","","","","","","","","","","","","","","","","","","","","","","","","","","","","","","","","","","","",""
"14600","","","{""green_ball"":[""Ball sometimes shakes and moves in a random direction""]}","survey-multi-select","25","1131746","0.0-8.0-5.0-0.0","84","1","2025-07-02 10:19:08","80fe4187154257d5fb01684ea91b68b9","93.108.112.26","Mozilla/5.0 (Windows NT 10.0; Win64; x64) AppleWebKit/537.36 (KHTML, like Gecko) Chrome/138.0.0.0 Safari/537.36","WebKit","Chrome","138.0.0.0","Windows","10.0","https://app.prolific.com/","en-US,en;q=0.9","6140ef8d27499e70e8740918","683db6dfa200031b80f2a654","68650786c99c1739a69aaaa7","6140ef8d27499e70e8740918","","","[0]","","","","quiz","","","","","","","","","","","","","","","","","","","","","","","","","","","","","","","","","","","","","true",""
"38043","","<p align='center'><b>CORRECT!</b> Indeed, the green ball may sometimes shake and move in a random direction.</p>","0","html-button-response","26","1169816","0.0-8.0-5.0-1.0","84","1","2025-07-02 10:19:08","80fe4187154257d5fb01684ea91b68b9","93.108.112.26","Mozilla/5.0 (Windows NT 10.0; Win64; x64) AppleWebKit/537.36 (KHTML, like Gecko) Chrome/138.0.0.0 Safari/537.36","WebKit","Chrome","138.0.0.0","Windows","10.0","https://app.prolific.com/","en-US,en;q=0.9","6140ef8d27499e70e8740918","683db6dfa200031b80f2a654","68650786c99c1739a69aaaa7","6140ef8d27499e70e8740918","","","","","","","","","","","","","","","","","","","","","","","","","","","","","","","","","","","","","","","","","","","","",""
"17892","","","{""yellow_ball"":[""Ball doesn‘t move and I get -1 penalty point""]}","survey-multi-select","27","1187709","0.0-8.0-6.0-0.0","84","1","2025-07-02 10:19:08","80fe4187154257d5fb01684ea91b68b9","93.108.112.26","Mozilla/5.0 (Windows NT 10.0; Win64; x64) AppleWebKit/537.36 (KHTML, like Gecko) Chrome/138.0.0.0 Safari/537.36","WebKit","Chrome","138.0.0.0","Windows","10.0","https://app.prolific.com/","en-US,en;q=0.9","6140ef8d27499e70e8740918","683db6dfa200031b80f2a654","68650786c99c1739a69aaaa7","6140ef8d27499e70e8740918","","","[0]","","","","quiz","","","","","","","","","","","","","","","","","","","","","","","","","","","","","","","","","","","","","true",""
"2072","","<p align='center'><b>CORRECT!</b> Indeed, the yellow ball never moves and you receive a penalty.</p>","0","html-button-response","28","1189782","0.0-8.0-6.0-1.0","84","1","2025-07-02 10:19:08","80fe4187154257d5fb01684ea91b68b9","93.108.112.26","Mozilla/5.0 (Windows NT 10.0; Win64; x64) AppleWebKit/537.36 (KHTML, like Gecko) Chrome/138.0.0.0 Safari/537.36","WebKit","Chrome","138.0.0.0","Windows","10.0","https://app.prolific.com/","en-US,en;q=0.9","6140ef8d27499e70e8740918","683db6dfa200031b80f2a654","68650786c99c1739a69aaaa7","6140ef8d27499e70e8740918","","","","","","","","","","","","","","","","","","","","","","","","","","","","","","","","","","","","","","","","","","","","",""
"16178","","","{""blue_ball"":[""Ball always shakes and moves in a random direction""]}","survey-multi-select","29","1205961","0.0-8.0-7.0-0.0","84","1","2025-07-02 10:19:08","80fe4187154257d5fb01684ea91b68b9","93.108.112.26","Mozilla/5.0 (Windows NT 10.0; Win64; x64) AppleWebKit/537.36 (KHTML, like Gecko) Chrome/138.0.0.0 Safari/537.36","WebKit","Chrome","138.0.0.0","Windows","10.0","https://app.prolific.com/","en-US,en;q=0.9","6140ef8d27499e70e8740918","683db6dfa200031b80f2a654","68650786c99c1739a69aaaa7","6140ef8d27499e70e8740918","","","[0]","","","","quiz","","","","","","","","","","","","","","","","","","","","","","","","","","","","","","","","","","","","","true",""
"5581","","<p align='center'><b>CORRECT!</b> Indeed, the blue ball always shakes and moves in a random direction. Also there is a penalty of -1 point.</p>","0","html-button-response","30","1211543","0.0-8.0-7.0-1.0","84","1","2025-07-02 10:19:08","80fe4187154257d5fb01684ea91b68b9","93.108.112.26","Mozilla/5.0 (Windows NT 10.0; Win64; x64) AppleWebKit/537.36 (KHTML, like Gecko) Chrome/138.0.0.0 Safari/537.36","WebKit","Chrome","138.0.0.0","Windows","10.0","https://app.prolific.com/","en-US,en;q=0.9","6140ef8d27499e70e8740918","683db6dfa200031b80f2a654","68650786c99c1739a69aaaa7","6140ef8d27499e70e8740918","","","","","","","","","","","","","","","","","","","","","","","","","","","","","","","","","","","","","","","","","","","","",""
"10149","","","{""bonus"":[""When I reach 50% of points""]}","survey-multi-select","31","1221693","0.0-8.0-8.0-0.0","84","1","2025-07-02 10:19:08","80fe4187154257d5fb01684ea91b68b9","93.108.112.26","Mozilla/5.0 (Windows NT 10.0; Win64; x64) AppleWebKit/537.36 (KHTML, like Gecko) Chrome/138.0.0.0 Safari/537.36","WebKit","Chrome","138.0.0.0","Windows","10.0","https://app.prolific.com/","en-US,en;q=0.9","6140ef8d27499e70e8740918","683db6dfa200031b80f2a654","68650786c99c1739a69aaaa7","6140ef8d27499e70e8740918","","","[0]","","","","quiz","","","","","","","","","","","","","","","","","","","","","","","","","","","","","","","","","","","","","true",""
"3287","","<p align='center'><b>CORRECT!</b> Indeed, you receive 2 pounds extra when you reach 50% of points.</p>","0","html-button-response","32","1224980","0.0-8.0-8.0-1.0","84","1","2025-07-02 10:19:08","80fe4187154257d5fb01684ea91b68b9","93.108.112.26","Mozilla/5.0 (Windows NT 10.0; Win64; x64) AppleWebKit/537.36 (KHTML, like Gecko) Chrome/138.0.0.0 Safari/537.36","WebKit","Chrome","138.0.0.0","Windows","10.0","https://app.prolific.com/","en-US,en;q=0.9","6140ef8d27499e70e8740918","683db6dfa200031b80f2a654","68650786c99c1739a69aaaa7","6140ef8d27499e70e8740918","","","","","","","","","","","","","","","","","","","","","","","","","","","","","","","","","","","","","","","","","","","","",""
"19442","","","","instructions","33","1244422","0.0-8.0-9.0","84","1","2025-07-02 10:19:08","80fe4187154257d5fb01684ea91b68b9","93.108.112.26","Mozilla/5.0 (Windows NT 10.0; Win64; x64) AppleWebKit/537.36 (KHTML, like Gecko) Chrome/138.0.0.0 Safari/537.36","WebKit","Chrome","138.0.0.0","Windows","10.0","https://app.prolific.com/","en-US,en;q=0.9","6140ef8d27499e70e8740918","683db6dfa200031b80f2a654","68650786c99c1739a69aaaa7","6140ef8d27499e70e8740918","","[{""page_index"":0,""viewing_time"":19441}]","","","","","","","","","","","","","","","","","","","","","","","","","","","","","","","","","","","","","","","","","","",""
"12152","","<p>Before you start with this game please answer the following three questions yourself. </p>
  <p>Through this game, we measure several aspects of your cognitive performance, such as reaction times, multi-tasking capabilities </p>
  <p>and the ability to assess the situation you are in.</p>
  <p></p>
  <p><b>How good do you usually are in such tasks?</b></p>","79","html-slider-response","34","1256576","0.0-9.0-0.0","84","1","2025-07-02 10:19:08","80fe4187154257d5fb01684ea91b68b9","93.108.112.26","Mozilla/5.0 (Windows NT 10.0; Win64; x64) AppleWebKit/537.36 (KHTML, like Gecko) Chrome/138.0.0.0 Safari/537.36","WebKit","Chrome","138.0.0.0","Windows","10.0","https://app.prolific.com/","en-US,en;q=0.9","6140ef8d27499e70e8740918","683db6dfa200031b80f2a654","68650786c99c1739a69aaaa7","6140ef8d27499e70e8740918","2025-07-02T10:40:06.051Z","","","","","","PreSkillQ","","","","","","","","","","","","","","","","","","","","","","","","","","","","","","","","","","","","","","50"
"5093","","<div style=""width:500px;"">
  <p>How well do you think you will perform in this task compared to other participants?</p>
  </div>","64","html-slider-response","35","1261669","0.0-9.0-1.0","84","1","2025-07-02 10:19:08","80fe4187154257d5fb01684ea91b68b9","93.108.112.26","Mozilla/5.0 (Windows NT 10.0; Win64; x64) AppleWebKit/537.36 (KHTML, like Gecko) Chrome/138.0.0.0 Safari/537.36","WebKit","Chrome","138.0.0.0","Windows","10.0","https://app.prolific.com/","en-US,en;q=0.9","6140ef8d27499e70e8740918","683db6dfa200031b80f2a654","68650786c99c1739a69aaaa7","6140ef8d27499e70e8740918","2025-07-02T10:40:11.144Z","","","","","","PrePerfQ","","","","","","","","","","","","","","","","","","","","","","","","","","","","","","","","","","","","","","50"
"4697","","<div style=""width:500px;"">
  <p>What best describes how you currently feel?</p>
  </div>","72","html-slider-response","36","1266367","0.0-9.0-2.0","84","1","2025-07-02 10:19:08","80fe4187154257d5fb01684ea91b68b9","93.108.112.26","Mozilla/5.0 (Windows NT 10.0; Win64; x64) AppleWebKit/537.36 (KHTML, like Gecko) Chrome/138.0.0.0 Safari/537.36","WebKit","Chrome","138.0.0.0","Windows","10.0","https://app.prolific.com/","en-US,en;q=0.9","6140ef8d27499e70e8740918","683db6dfa200031b80f2a654","68650786c99c1739a69aaaa7","6140ef8d27499e70e8740918","2025-07-02T10:40:15.842Z","","","","","","PreMotivationQ","","","","","","","","","","","","","","","","","","","","","","","","","","","","","","","","","","","","","","50"
"","","","","ctl-task-cpt","37","1290035","0.0-10.0-0.0","84","1","2025-07-02 10:19:08","80fe4187154257d5fb01684ea91b68b9","93.108.112.26","Mozilla/5.0 (Windows NT 10.0; Win64; x64) AppleWebKit/537.36 (KHTML, like Gecko) Chrome/138.0.0.0 Safari/537.36","WebKit","Chrome","138.0.0.0","Windows","10.0","https://app.prolific.com/","en-US,en;q=0.9","6140ef8d27499e70e8740918","683db6dfa200031b80f2a654","68650786c99c1739a69aaaa7","6140ef8d27499e70e8740918","2025-07-02T10:40:39.510Z","","","","","","","","","","","","","","","","win-only","1","g1:NE,g2:SW","1","1","0","1267494.8","1951.9","6956.1","20650.3","1","4","4","6","2","4","4","4","0","0.030303030303030304","1317.1","3000","925","[""down"",""left""]","{""num_key_presses"":6,""num_perfect"":6,""num_errors"":0,""num_randdir"":0,""num_randdir_good_moves"":0,""num_whilered"":0,""num_whileblue"":0,""num_blue"":0,""num_good_moves"":6}","[417.57142857142856,422.47767857142856,0.2,417.57142857142856,422.47767857142856,103.8,417.57142857142856,422.47767857142856,210.1,417.57142857142856,422.47767857142856,315.1,417.57142857142856,422.47767857142856,419.4,388.57142857142856,440.47767857142856,523.7,201.57142857142856,564.4776785714286,623.9,124.57142857142857,667.4776785714286,728.6,83.57142857142857,726.4776785714286,835.1,76.57142857142857,751.4776785714286,939.7,75.57142857142857,755.4776785714286,1044.5,75.57142857142857,755.4776785714286,1148.4,75.57142857142857,755.4776785714286,1248.4,75.57142857142857,755.4776785714286,1348.5,75.57142857142857,755.4776785714286,1449.2,99.57142857142857,755.4776785714286,1553.7,241.57142857142856,747.4776785714286,1659.1,499.57142857142856,696.4776785714286,1759.5,710.5714285714286,654.4776785714286,1864.1,790.5714285714286,647.4776785714286,1969.1,870.5714285714286,632.4776785714286,2069.6,878.5714285714286,628.4776785714286,2173.4,878.5714285714286,628.4776785714286,2280.1,878.5714285714286,628.4776785714286,2380.1,885.5714285714286,626.4776785714286,2485.4,907.5714285714286,618.4776785714286,2589,923.5714285714286,621.4776785714286,2693.9,922.5714285714286,627.4776785714286,2794.3,922.5714285714286,627.4776785714286,2898.6,922.5714285714286,627.4776785714286,2998.7,897.5714285714286,629.4776785714286,3098.7,887.5714285714286,630.4776785714286,3204.1,887.5714285714286,630.4776785714286,3309.1,887.5714285714286,630.4776785714286,3409.2,887.5714285714286,630.4776785714286,3510.1,887.5714285714286,632.4776785714286,3615.1,887.5714285714286,632.4776785714286,3720.3,887.5714285714286,636.4776785714286,3823.5,887.5714285714286,636.4776785714286,3929.1,887.5714285714286,636.4776785714286,4035.8,887.5714285714286,636.4776785714286,4139.3,887.5714285714286,636.4776785714286,4240.1,887.5714285714286,636.4776785714286,4343.7,887.5714285714286,636.4776785714286,4444.2,893.5714285714286,636.4776785714286,4544.4,942.5714285714286,639.4776785714286,4648.6,950.5714285714286,641.4776785714286,4755.2,950.5714285714286,641.4776785714286,4858.4,950.5714285714286,641.4776785714286,4959.1]","[1414.6,1414.6,1000,0,414.6,""smooth"",""down"",""down"",""good_move"",3791,2376.1,2026.9,1414.9,349.2,""smooth"",""down"",""down"",""good_move"",5830.3,2039.2,1709.1,3791.1,330.1,""smooth"",""down"",""down"",""good_move"",7998.4,2167.9,1852.2,5830.5,315.7,""smooth"",""left"",""left"",""good_move"",10822.3,2823.7,2475.3,7998.6,348.4,""smooth"",""left"",""left"",""good_move"",13606.2,2783.6,2432.7,10822.6,350.9,""smooth"",""left"",""left"",""good_move""]","",""
"6918","","<div style=""width:500px;"">
  <p>What determined the result of this run?</p>
  </div>","100","html-slider-response","38","1296954","0.0-10.0-1.0","84","1","2025-07-02 10:19:08","80fe4187154257d5fb01684ea91b68b9","93.108.112.26","Mozilla/5.0 (Windows NT 10.0; Win64; x64) AppleWebKit/537.36 (KHTML, like Gecko) Chrome/138.0.0.0 Safari/537.36","WebKit","Chrome","138.0.0.0","Windows","10.0","https://app.prolific.com/","en-US,en;q=0.9","6140ef8d27499e70e8740918","683db6dfa200031b80f2a654","68650786c99c1739a69aaaa7","6140ef8d27499e70e8740918","2025-07-02T10:40:46.429Z","","","","","","AttribQ","","","","","","","","","","","","","","","","","","","","","","","","","","","","","","","","","","","","","","50"
"3556","","<div style=""width:500px;"">
  <p>How much control did you have over the ball?</p>
  </div>","100","html-slider-response","39","1300511","0.0-10.0-2.0","84","1","2025-07-02 10:19:08","80fe4187154257d5fb01684ea91b68b9","93.108.112.26","Mozilla/5.0 (Windows NT 10.0; Win64; x64) AppleWebKit/537.36 (KHTML, like Gecko) Chrome/138.0.0.0 Safari/537.36","WebKit","Chrome","138.0.0.0","Windows","10.0","https://app.prolific.com/","en-US,en;q=0.9","6140ef8d27499e70e8740918","683db6dfa200031b80f2a654","68650786c99c1739a69aaaa7","6140ef8d27499e70e8740918","2025-07-02T10:40:49.986Z","","","","","","ControlQ","","","","","","","","","","","","","","","","","","","","","","","","","","","","","","","","","","","","","","50"
"4202","","<div style=""width:500px;"">
  <p>How would you describe your current emotional state?</p>
  </div>","18","html-slider-response","40","1304714","0.0-10.0-3.0","84","1","2025-07-02 10:19:08","80fe4187154257d5fb01684ea91b68b9","93.108.112.26","Mozilla/5.0 (Windows NT 10.0; Win64; x64) AppleWebKit/537.36 (KHTML, like Gecko) Chrome/138.0.0.0 Safari/537.36","WebKit","Chrome","138.0.0.0","Windows","10.0","https://app.prolific.com/","en-US,en;q=0.9","6140ef8d27499e70e8740918","683db6dfa200031b80f2a654","68650786c99c1739a69aaaa7","6140ef8d27499e70e8740918","2025-07-02T10:40:54.189Z","","","","","","StressQ","","","","","","","","","","","","","","","","","","","","","","","","","","","","","","","","","","","","","","50"
"4531","","<div style=""width:500px;"">
  <p>What best describes how you currently feel?</p>
  </div>","89","html-slider-response","41","1309247","0.0-10.0-4.0","84","1","2025-07-02 10:19:08","80fe4187154257d5fb01684ea91b68b9","93.108.112.26","Mozilla/5.0 (Windows NT 10.0; Win64; x64) AppleWebKit/537.36 (KHTML, like Gecko) Chrome/138.0.0.0 Safari/537.36","WebKit","Chrome","138.0.0.0","Windows","10.0","https://app.prolific.com/","en-US,en;q=0.9","6140ef8d27499e70e8740918","683db6dfa200031b80f2a654","68650786c99c1739a69aaaa7","6140ef8d27499e70e8740918","2025-07-02T10:40:58.722Z","","","","","","MotivationQ","","","","","","","","","","","","","","","","","","","","","","","","","","","","","","","","","","","","","","50"
"","","","","ctl-task-cpt","42","1353410","0.0-10.0-0.1","84","1","2025-07-02 10:19:08","80fe4187154257d5fb01684ea91b68b9","93.108.112.26","Mozilla/5.0 (Windows NT 10.0; Win64; x64) AppleWebKit/537.36 (KHTML, like Gecko) Chrome/138.0.0.0 Safari/537.36","WebKit","Chrome","138.0.0.0","Windows","10.0","https://app.prolific.com/","en-US,en;q=0.9","6140ef8d27499e70e8740918","683db6dfa200031b80f2a654","68650786c99c1739a69aaaa7","6140ef8d27499e70e8740918","2025-07-02T10:41:42.885Z","","","","","","","","","","","","","","","","win-only","1","g1:NE,g2:SW","0.9","2","0","1310374","1621.6","6625.9","41145.5","1","4","8","6","2","8","7","11","4","0.08333333333333333","1115.1","3000","300","[""down"",""left""]","{""num_key_presses"":8,""num_perfect"":7,""num_errors"":1,""num_randdir"":0,""num_randdir_good_moves"":0,""num_whilered"":0,""num_whileblue"":1,""num_blue"":4,""num_good_moves"":7}","[415.57142857142856,413.47767857142856,0,415.57142857142856,413.47767857142856,103.6,429.57142857142856,430.47767857142856,203.8,582.5714285714286,520.4776785714286,308.6,840.5714285714286,588.4776785714286,408.6,948.5714285714286,633.4776785714286,510.8,951.5714285714286,634.4776785714286,614.1,810.5714285714286,594.4776785714286,714.4,285.57142857142856,688.4776785714286,814.9,130.57142857142856,793.4776785714286,918.7,118.57142857142857,801.4776785714286,1020.4,84.57142857142857,757.4776785714286,1123.8,92.57142857142857,755.4776785714286,1224.5,247.57142857142856,771.4776785714286,1328.8,562.5714285714286,769.4776785714286,1428.8,766.5714285714286,725.4776785714286,1534.6,783.5714285714286,718.4776785714286,1639.8,844.5714285714286,703.4776785714286,1745.6,864.5714285714286,700.4776785714286,1848.8,864.5714285714286,700.4776785714286,1950.3,864.5714285714286,700.4776785714286,2053.6,864.5714285714286,700.4776785714286,2153.7,864.5714285714286,700.4776785714286,2259.1,864.5714285714286,700.4776785714286,2359.2,864.5714285714286,700.4776785714286,2465,864.5714285714286,700.4776785714286,2569,864.5714285714286,700.4776785714286,2669.3,864.5714285714286,700.4776785714286,2770.1,864.5714285714286,700.4776785714286,2870.1,864.5714285714286,700.4776785714286,2975.1,864.5714285714286,700.4776785714286,3078.7,864.5714285714286,700.4776785714286,3185,864.5714285714286,700.4776785714286,3288.8,864.5714285714286,700.4776785714286,3390.1,864.5714285714286,700.4776785714286,3493.8,864.5714285714286,700.4776785714286,3595.1,864.5714285714286,700.4776785714286,3698.9,864.5714285714286,700.4776785714286,3799,864.5714285714286,700.4776785714286,3899.4,864.5714285714286,700.4776785714286,4003.6,864.5714285714286,700.4776785714286,4103.6,864.5714285714286,700.4776785714286,4203.6,864.5714285714286,700.4776785714286,4303.7,864.5714285714286,700.4776785714286,4404,864.5714285714286,700.4776785714286,4510.2,864.5714285714286,700.4776785714286,4610.4,864.5714285714286,700.4776785714286,4710.8,864.5714285714286,700.4776785714286,4815.2,864.5714285714286,700.4776785714286,4920]","[8681.2,8681.2,2584.2,5714.3,382.7,""smooth"",""down"",""down"",""good_move"",12265.1,3583.7,3206,8681.4,377.7,""smooth"",""down"",""down"",""good_move"",15265.1,2999.8,2617.3,12265.3,382.5,""smooth"",""down"",""down"",""good_move"",18280.7,3015.4,2690.1,15265.3,325.3,""smooth"",""left"",""left"",""good_move"",20872.9,2591.9,2298.8,18281,293.1,""while_blue"",""left"",""up"",""bad_move"",28216.6,7330.2,3176.4,24669.7,370.5,""smooth"",""left"",""left"",""good_move"",31048.7,2832,2402.8,28216.7,429.3,""smooth"",""left"",""left"",""good_move"",34432.7,3383.8,2910.8,31048.9,473,""smooth"",""down"",""down"",""good_move""]","",""
"3289","","<div style=""width:500px;"">
  <p>What determined the result of this run?</p>
  </div>","100","html-slider-response","43","1356699","0.0-10.0-1.1","84","1","2025-07-02 10:19:08","80fe4187154257d5fb01684ea91b68b9","93.108.112.26","Mozilla/5.0 (Windows NT 10.0; Win64; x64) AppleWebKit/537.36 (KHTML, like Gecko) Chrome/138.0.0.0 Safari/537.36","WebKit","Chrome","138.0.0.0","Windows","10.0","https://app.prolific.com/","en-US,en;q=0.9","6140ef8d27499e70e8740918","683db6dfa200031b80f2a654","68650786c99c1739a69aaaa7","6140ef8d27499e70e8740918","2025-07-02T10:41:46.174Z","","","","","","AttribQ","","","","","","","","","","","","","","","","","","","","","","","","","","","","","","","","","","","","","","50"
"3297","","<div style=""width:500px;"">
  <p>How much control did you have over the ball?</p>
  </div>","100","html-slider-response","44","1359997","0.0-10.0-2.1","84","1","2025-07-02 10:19:08","80fe4187154257d5fb01684ea91b68b9","93.108.112.26","Mozilla/5.0 (Windows NT 10.0; Win64; x64) AppleWebKit/537.36 (KHTML, like Gecko) Chrome/138.0.0.0 Safari/537.36","WebKit","Chrome","138.0.0.0","Windows","10.0","https://app.prolific.com/","en-US,en;q=0.9","6140ef8d27499e70e8740918","683db6dfa200031b80f2a654","68650786c99c1739a69aaaa7","6140ef8d27499e70e8740918","2025-07-02T10:41:49.472Z","","","","","","ControlQ","","","","","","","","","","","","","","","","","","","","","","","","","","","","","","","","","","","","","","50"
"2902","","<div style=""width:500px;"">
  <p>How would you describe your current emotional state?</p>
  </div>","24","html-slider-response","45","1362900","0.0-10.0-3.1","84","1","2025-07-02 10:19:08","80fe4187154257d5fb01684ea91b68b9","93.108.112.26","Mozilla/5.0 (Windows NT 10.0; Win64; x64) AppleWebKit/537.36 (KHTML, like Gecko) Chrome/138.0.0.0 Safari/537.36","WebKit","Chrome","138.0.0.0","Windows","10.0","https://app.prolific.com/","en-US,en;q=0.9","6140ef8d27499e70e8740918","683db6dfa200031b80f2a654","68650786c99c1739a69aaaa7","6140ef8d27499e70e8740918","2025-07-02T10:41:52.375Z","","","","","","StressQ","","","","","","","","","","","","","","","","","","","","","","","","","","","","","","","","","","","","","","50"
"3096","","<div style=""width:500px;"">
  <p>What best describes how you currently feel?</p>
  </div>","92","html-slider-response","46","1365996","0.0-10.0-4.1","84","1","2025-07-02 10:19:08","80fe4187154257d5fb01684ea91b68b9","93.108.112.26","Mozilla/5.0 (Windows NT 10.0; Win64; x64) AppleWebKit/537.36 (KHTML, like Gecko) Chrome/138.0.0.0 Safari/537.36","WebKit","Chrome","138.0.0.0","Windows","10.0","https://app.prolific.com/","en-US,en;q=0.9","6140ef8d27499e70e8740918","683db6dfa200031b80f2a654","68650786c99c1739a69aaaa7","6140ef8d27499e70e8740918","2025-07-02T10:41:55.471Z","","","","","","MotivationQ","","","","","","","","","","","","","","","","","","","","","","","","","","","","","","","","","","","","","","50"
"","","","","ctl-task-cpt","47","1403105","0.0-10.0-0.2","84","1","2025-07-02 10:19:08","80fe4187154257d5fb01684ea91b68b9","93.108.112.26","Mozilla/5.0 (Windows NT 10.0; Win64; x64) AppleWebKit/537.36 (KHTML, like Gecko) Chrome/138.0.0.0 Safari/537.36","WebKit","Chrome","138.0.0.0","Windows","10.0","https://app.prolific.com/","en-US,en;q=0.9","6140ef8d27499e70e8740918","683db6dfa200031b80f2a654","68650786c99c1739a69aaaa7","6140ef8d27499e70e8740918","2025-07-02T10:42:32.580Z","","","","","","","","","","","","","","","","win-only","2","g1:SE,g2:NW","0.8","3","0","1367123.7","3280","8282","34090.5","1","4","4","6","2","4","4","15","11","0.11363636363636363","1348.9","3000","330","[""left"",""up""]","{""num_key_presses"":8,""num_perfect"":6,""num_errors"":0,""num_randdir"":2,""num_randdir_good_moves"":1,""num_whilered"":0,""num_whileblue"":0,""num_blue"":1,""num_good_moves"":7}","[414.57142857142856,423.47767857142856,0.1,414.57142857142856,423.47767857142856,100.2,414.57142857142856,423.47767857142856,201.8,414.57142857142856,423.47767857142856,306.5,414.57142857142856,423.47767857142856,412,403.57142857142856,422.47767857142856,515.7,394.57142857142856,418.47767857142856,616.5,385.57142857142856,395.47767857142856,720.4,190.57142857142856,251.47767857142856,820.5,102.57142857142857,160.47767857142856,925.4,86.57142857142857,142.47767857142856,1025.9,80.57142857142857,130.47767857142856,1130.9,82.57142857142857,103.47767857142857,1231.5,87.57142857142857,87.47767857142857,1335.9,88.57142857142857,87.47767857142857,1435.9,93.57142857142857,102.47767857142857,1536.3,140.57142857142856,163.47767857142856,1637.1,329.57142857142856,303.47767857142856,1741.8,579.5714285714286,453.47767857142856,1845.9,749.5714285714286,559.4776785714286,1945.9,902.5714285714286,602.4776785714286,2050.4,915.5714285714286,606.4776785714286,2152,915.5714285714286,608.4776785714286,2256.9,916.5714285714286,622.4776785714286,2361.8,924.5714285714286,640.4776785714286,2461.9,924.5714285714286,641.4776785714286,2566.1,925.5714285714286,646.4776785714286,2670.5,925.5714285714286,645.4776785714286,2770.5,926.5714285714286,644.4776785714286,2870.5,926.5714285714286,644.4776785714286,2976.7,925.5714285714286,643.4776785714286,3076.9,925.5714285714286,642.4776785714286,3181.8,925.5714285714286,642.4776785714286,3281.8,925.5714285714286,642.4776785714286,3382,925.5714285714286,642.4776785714286,3482.5,925.5714285714286,642.4776785714286,3586.8,925.5714285714286,642.4776785714286,3686.9,925.5714285714286,642.4776785714286,3787.1,925.5714285714286,642.4776785714286,3891.2,925.5714285714286,642.4776785714286,3995.4,925.5714285714286,642.4776785714286,4095.4,925.5714285714286,642.4776785714286,4195.4,925.5714285714286,642.4776785714286,4301.8,925.5714285714286,642.4776785714286,4405.3,925.5714285714286,642.4776785714286,4507,925.5714285714286,642.4776785714286,4611,925.5714285714286,639.4776785714286,4716.2,925.5714285714286,639.4776785714286,4816.2,925.5714285714286,639.4776785714286,4916.2]","[1362.6,1362.6,1000,0,362.6,""smooth"",""up"",""up"",""good_move"",4450.5,3087.7,2788,1362.8,299.7,""smooth"",""up"",""up"",""good_move"",6826.7,2376,2036.8,4450.7,339.2,""smooth"",""up"",""up"",""good_move"",9730.6,2903.8,2625.4,6826.8,278.4,""oops"",""left"",""down"",""bad_move"",16298.8,6567.8,3085,12918.3,295.5,""smooth"",""left"",""left"",""good_move"",18890.4,2591.4,2123.7,16299.1,467.7,""smooth"",""left"",""left"",""good_move"",22346.4,3455.8,3111.6,18890.6,344.2,""oops"",""left"",""up"",""good_move"",25722.3,3375.5,3060.8,22346.8,314.7,""smooth"",""left"",""left"",""good_move""]","",""
"4954","","<div style=""width:500px;"">
  <p>What determined the result of this run?</p>
  </div>","82","html-slider-response","48","1408059","0.0-10.0-1.2","84","1","2025-07-02 10:19:08","80fe4187154257d5fb01684ea91b68b9","93.108.112.26","Mozilla/5.0 (Windows NT 10.0; Win64; x64) AppleWebKit/537.36 (KHTML, like Gecko) Chrome/138.0.0.0 Safari/537.36","WebKit","Chrome","138.0.0.0","Windows","10.0","https://app.prolific.com/","en-US,en;q=0.9","6140ef8d27499e70e8740918","683db6dfa200031b80f2a654","68650786c99c1739a69aaaa7","6140ef8d27499e70e8740918","2025-07-02T10:42:37.534Z","","","","","","AttribQ","","","","","","","","","","","","","","","","","","","","","","","","","","","","","","","","","","","","","","50"
"5121","","<div style=""width:500px;"">
  <p>How much control did you have over the ball?</p>
  </div>","70","html-slider-response","49","1413181","0.0-10.0-2.2","84","1","2025-07-02 10:19:08","80fe4187154257d5fb01684ea91b68b9","93.108.112.26","Mozilla/5.0 (Windows NT 10.0; Win64; x64) AppleWebKit/537.36 (KHTML, like Gecko) Chrome/138.0.0.0 Safari/537.36","WebKit","Chrome","138.0.0.0","Windows","10.0","https://app.prolific.com/","en-US,en;q=0.9","6140ef8d27499e70e8740918","683db6dfa200031b80f2a654","68650786c99c1739a69aaaa7","6140ef8d27499e70e8740918","2025-07-02T10:42:42.656Z","","","","","","ControlQ","","","","","","","","","","","","","","","","","","","","","","","","","","","","","","","","","","","","","","50"
"3125","","<div style=""width:500px;"">
  <p>How would you describe your current emotional state?</p>
  </div>","16","html-slider-response","50","1416307","0.0-10.0-3.2","84","1","2025-07-02 10:19:08","80fe4187154257d5fb01684ea91b68b9","93.108.112.26","Mozilla/5.0 (Windows NT 10.0; Win64; x64) AppleWebKit/537.36 (KHTML, like Gecko) Chrome/138.0.0.0 Safari/537.36","WebKit","Chrome","138.0.0.0","Windows","10.0","https://app.prolific.com/","en-US,en;q=0.9","6140ef8d27499e70e8740918","683db6dfa200031b80f2a654","68650786c99c1739a69aaaa7","6140ef8d27499e70e8740918","2025-07-02T10:42:45.782Z","","","","","","StressQ","","","","","","","","","","","","","","","","","","","","","","","","","","","","","","","","","","","","","","50"
"3732","","<div style=""width:500px;"">
  <p>What best describes how you currently feel?</p>
  </div>","93","html-slider-response","51","1420040","0.0-10.0-4.2","84","1","2025-07-02 10:19:08","80fe4187154257d5fb01684ea91b68b9","93.108.112.26","Mozilla/5.0 (Windows NT 10.0; Win64; x64) AppleWebKit/537.36 (KHTML, like Gecko) Chrome/138.0.0.0 Safari/537.36","WebKit","Chrome","138.0.0.0","Windows","10.0","https://app.prolific.com/","en-US,en;q=0.9","6140ef8d27499e70e8740918","683db6dfa200031b80f2a654","68650786c99c1739a69aaaa7","6140ef8d27499e70e8740918","2025-07-02T10:42:49.515Z","","","","","","MotivationQ","","","","","","","","","","","","","","","","","","","","","","","","","","","","","","","","","","","","","","50"
"","","","","ctl-task-cpt","52","1466510","0.0-10.0-0.3","84","1","2025-07-02 10:19:08","80fe4187154257d5fb01684ea91b68b9","93.108.112.26","Mozilla/5.0 (Windows NT 10.0; Win64; x64) AppleWebKit/537.36 (KHTML, like Gecko) Chrome/138.0.0.0 Safari/537.36","WebKit","Chrome","138.0.0.0","Windows","10.0","https://app.prolific.com/","en-US,en;q=0.9","6140ef8d27499e70e8740918","683db6dfa200031b80f2a654","68650786c99c1739a69aaaa7","6140ef8d27499e70e8740918","2025-07-02T10:43:35.985Z","","","","","","","","","","","","","","","","win-only","0","g1:NW,g2:SE","0.7","4","0","1421167.7","1351.6","6355.9","43450.7","1","4","8","6","2","-8","-9","6","15","0.045454545454545456","972.9","3000","-3015","[""down"",""right""]","{""num_key_presses"":9,""num_perfect"":6,""num_errors"":1,""num_randdir"":2,""num_randdir_good_moves"":1,""num_whilered"":0,""num_whileblue"":1,""num_blue"":4,""num_good_moves"":7}","[417.57142857142856,415.47767857142856,0.1,424.57142857142856,419.47767857142856,100.3,644.5714285714286,524.4776785714286,203.7,821.5714285714286,589.4776785714286,304.6,653.5714285714286,501.47767857142856,408.9,592.5714285714286,481.47767857142856,514.8,642.5714285714286,663.4776785714286,619.4,761.5714285714286,791.4776785714286,724,776.5714285714286,792.4776785714286,824.4,778.5714285714286,790.4776785714286,929,777.5714285714286,785.4776785714286,1029.8,802.5714285714286,773.4776785714286,1130.1,969.5714285714286,717.4776785714286,1234.2,1011.5714285714286,701.4776785714286,1338.6,1011.5714285714286,701.4776785714286,1440.1,1011.5714285714286,701.4776785714286,1540.1,1011.5714285714286,701.4776785714286,1644.1,1011.5714285714286,701.4776785714286,1749,1011.5714285714286,701.4776785714286,1850.1,1011.5714285714286,701.4776785714286,1955.2,1011.5714285714286,701.4776785714286,2058.9,1011.5714285714286,701.4776785714286,2163.8,1011.5714285714286,701.4776785714286,2265.2,1011.5714285714286,701.4776785714286,2369.4,1011.5714285714286,701.4776785714286,2469.7,1011.5714285714286,701.4776785714286,2569.7,1011.5714285714286,701.4776785714286,2669.7,1011.5714285714286,701.4776785714286,2774.1,1011.5714285714286,701.4776785714286,2874.2,1011.5714285714286,701.4776785714286,2979.7,1011.5714285714286,701.4776785714286,3080.5,1011.5714285714286,701.4776785714286,3183.9,1011.5714285714286,701.4776785714286,3283.9,1011.5714285714286,701.4776785714286,3384,1011.5714285714286,701.4776785714286,3484.1,1011.5714285714286,701.4776785714286,3588.6,1011.5714285714286,701.4776785714286,3694,1011.5714285714286,701.4776785714286,3794,1011.5714285714286,701.4776785714286,3894,1011.5714285714286,701.4776785714286,3994.3,1011.5714285714286,701.4776785714286,4099.3,1011.5714285714286,701.4776785714286,4203.8,1011.5714285714286,701.4776785714286,4303.9,1011.5714285714286,701.4776785714286,4404.1,1011.5714285714286,701.4776785714286,4508.7,1011.5714285714286,701.4776785714286,4608.8,1011.5714285714286,701.4776785714286,4709.8,1011.5714285714286,701.4776785714286,4814.9,1011.5714285714286,701.4776785714286,4919.3]","[1388.9,1388.9,1000,0,388.9,""smooth"",""down"",""down"",""good_move"",4540.7,3151.5,2852.1,1389.2,299.4,""oops"",""down"",""up"",""bad_move"",7940.4,3399.3,2975.9,4541.1,423.4,""smooth"",""right"",""right"",""good_move"",14700.4,6759.6,3088.5,11354.5,257.4,""smooth"",""down"",""down"",""good_move"",19908.2,5207.5,2075.6,17564.8,267.8,""while_blue"",""right"",""left"",""bad_move"",22580.3,2671.9,2315.5,19908.4,356.4,""smooth"",""down"",""down"",""good_move"",25221.6,2641.3,2250.3,22580.3,391,""smooth"",""right"",""right"",""good_move"",27684,2462.1,2039.1,25221.9,423,""oops"",""down"",""down"",""good_move"",30667.8,2983.6,2674.9,27684.2,308.7,""smooth"",""right"",""right"",""good_move""]","",""
"4388","","<div style=""width:500px;"">
  <p>What determined the result of this run?</p>
  </div>","43","html-slider-response","53","1470898","0.0-10.0-1.3","84","1","2025-07-02 10:19:08","80fe4187154257d5fb01684ea91b68b9","93.108.112.26","Mozilla/5.0 (Windows NT 10.0; Win64; x64) AppleWebKit/537.36 (KHTML, like Gecko) Chrome/138.0.0.0 Safari/537.36","WebKit","Chrome","138.0.0.0","Windows","10.0","https://app.prolific.com/","en-US,en;q=0.9","6140ef8d27499e70e8740918","683db6dfa200031b80f2a654","68650786c99c1739a69aaaa7","6140ef8d27499e70e8740918","2025-07-02T10:43:40.374Z","","","","","","AttribQ","","","","","","","","","","","","","","","","","","","","","","","","","","","","","","","","","","","","","","50"
"4190","","<div style=""width:500px;"">
  <p>How much control did you have over the ball?</p>
  </div>","60","html-slider-response","54","1475089","0.0-10.0-2.3","84","1","2025-07-02 10:19:08","80fe4187154257d5fb01684ea91b68b9","93.108.112.26","Mozilla/5.0 (Windows NT 10.0; Win64; x64) AppleWebKit/537.36 (KHTML, like Gecko) Chrome/138.0.0.0 Safari/537.36","WebKit","Chrome","138.0.0.0","Windows","10.0","https://app.prolific.com/","en-US,en;q=0.9","6140ef8d27499e70e8740918","683db6dfa200031b80f2a654","68650786c99c1739a69aaaa7","6140ef8d27499e70e8740918","2025-07-02T10:43:44.564Z","","","","","","ControlQ","","","","","","","","","","","","","","","","","","","","","","","","","","","","","","","","","","","","","","50"
"2143","","<div style=""width:500px;"">
  <p>How would you describe your current emotional state?</p>
  </div>","30","html-slider-response","55","1477232","0.0-10.0-3.3","84","1","2025-07-02 10:19:08","80fe4187154257d5fb01684ea91b68b9","93.108.112.26","Mozilla/5.0 (Windows NT 10.0; Win64; x64) AppleWebKit/537.36 (KHTML, like Gecko) Chrome/138.0.0.0 Safari/537.36","WebKit","Chrome","138.0.0.0","Windows","10.0","https://app.prolific.com/","en-US,en;q=0.9","6140ef8d27499e70e8740918","683db6dfa200031b80f2a654","68650786c99c1739a69aaaa7","6140ef8d27499e70e8740918","2025-07-02T10:43:46.708Z","","","","","","StressQ","","","","","","","","","","","","","","","","","","","","","","","","","","","","","","","","","","","","","","50"
"2738","","<div style=""width:500px;"">
  <p>What best describes how you currently feel?</p>
  </div>","100","html-slider-response","56","1479971","0.0-10.0-4.3","84","1","2025-07-02 10:19:08","80fe4187154257d5fb01684ea91b68b9","93.108.112.26","Mozilla/5.0 (Windows NT 10.0; Win64; x64) AppleWebKit/537.36 (KHTML, like Gecko) Chrome/138.0.0.0 Safari/537.36","WebKit","Chrome","138.0.0.0","Windows","10.0","https://app.prolific.com/","en-US,en;q=0.9","6140ef8d27499e70e8740918","683db6dfa200031b80f2a654","68650786c99c1739a69aaaa7","6140ef8d27499e70e8740918","2025-07-02T10:43:49.446Z","","","","","","MotivationQ","","","","","","","","","","","","","","","","","","","","","","","","","","","","","","","","","","","","","","50"
"","","","","ctl-task-cpt","57","1512069","0.0-10.0-0.4","84","1","2025-07-02 10:19:08","80fe4187154257d5fb01684ea91b68b9","93.108.112.26","Mozilla/5.0 (Windows NT 10.0; Win64; x64) AppleWebKit/537.36 (KHTML, like Gecko) Chrome/138.0.0.0 Safari/537.36","WebKit","Chrome","138.0.0.0","Windows","10.0","https://app.prolific.com/","en-US,en;q=0.9","6140ef8d27499e70e8740918","683db6dfa200031b80f2a654","68650786c99c1739a69aaaa7","6140ef8d27499e70e8740918","2025-07-02T10:44:21.544Z","","","","","","","","","","","","","","","","win-only","1","g1:NE,g2:SW","0.6","5","0","1481097.3","3905","8905.3","29075.7","1","4","4","6","2","4","4","10","6","0.07575757575757576","997","3000","825","[""down"",""left""]","{""num_key_presses"":6,""num_perfect"":4,""num_errors"":0,""num_randdir"":2,""num_randdir_good_moves"":2,""num_whilered"":0,""num_whileblue"":0,""num_blue"":1,""num_good_moves"":6}","[408.57142857142856,417.47767857142856,0.1,408.57142857142856,417.47767857142856,100.6,408.57142857142856,417.47767857142856,200.6,422.57142857142856,427.47767857142856,300.7,422.57142857142856,427.47767857142856,400.9,391.57142857142856,471.47767857142856,505.1,114.57142857142857,729.4776785714286,605.6,42.57142857142857,779.4776785714286,710.8,38.57142857142857,783.4776785714286,811.1,39.57142857142857,779.4776785714286,916.2,48.57142857142857,772.4776785714286,1020.2,56.57142857142857,768.4776785714286,1121.6,256.57142857142856,764.4776785714286,1225.2,653.5714285714286,737.4776785714286,1325.8,912.5714285714286,698.4776785714286,1430.6,964.5714285714286,689.4776785714286,1531.7,978.5714285714286,683.4776785714286,1632,978.5714285714286,683.4776785714286,1736.7,978.5714285714286,683.4776785714286,1836.7,978.5714285714286,683.4776785714286,1937,978.5714285714286,683.4776785714286,2040.7,978.5714285714286,683.4776785714286,2141,978.5714285714286,683.4776785714286,2245.2,978.5714285714286,683.4776785714286,2345.7,978.5714285714286,683.4776785714286,2450.7,978.5714285714286,683.4776785714286,2550.7,978.5714285714286,683.4776785714286,2650.7,978.5714285714286,683.4776785714286,2751.1,978.5714285714286,683.4776785714286,2856.3,978.5714285714286,683.4776785714286,2957,978.5714285714286,683.4776785714286,3060.9,978.5714285714286,683.4776785714286,3161,978.5714285714286,683.4776785714286,3265.2,978.5714285714286,683.4776785714286,3366.9,978.5714285714286,683.4776785714286,3471,978.5714285714286,683.4776785714286,3575.7,978.5714285714286,683.4776785714286,3675.9,978.5714285714286,683.4776785714286,3781,978.5714285714286,683.4776785714286,3885.7,978.5714285714286,683.4776785714286,3986.8,978.5714285714286,683.4776785714286,4090.8,978.5714285714286,683.4776785714286,4195.5,978.5714285714286,683.4776785714286,4296.1,978.5714285714286,683.4776785714286,4400.7,978.5714285714286,683.4776785714286,4501,978.5714285714286,683.4776785714286,4607.5,978.5714285714286,683.4776785714286,4710.6,978.5714285714286,683.4776785714286,4811.1,978.5714285714286,683.4776785714286,4911.2]","[1629,1629,1000,0,629,""smooth"",""down"",""down"",""good_move"",4564.6,2935.3,2649.8,1629.3,285.5,""oops"",""left"",""down"",""good_move"",7548.6,2983.8,2715.2,4564.8,268.6,""smooth"",""left"",""left"",""good_move"",14060.5,6511.7,2754,11010.8,295.7,""oops"",""down"",""down"",""good_move"",17452.5,3391.8,3021,14060.7,370.8,""smooth"",""left"",""left"",""good_move"",20084.4,2631.6,2272.5,17452.8,359.2,""smooth"",""left"",""left"",""good_move""]","",""
"3428","","<div style=""width:500px;"">
  <p>What determined the result of this run?</p>
  </div>","67","html-slider-response","58","1515497","0.0-10.0-1.4","84","1","2025-07-02 10:19:08","80fe4187154257d5fb01684ea91b68b9","93.108.112.26","Mozilla/5.0 (Windows NT 10.0; Win64; x64) AppleWebKit/537.36 (KHTML, like Gecko) Chrome/138.0.0.0 Safari/537.36","WebKit","Chrome","138.0.0.0","Windows","10.0","https://app.prolific.com/","en-US,en;q=0.9","6140ef8d27499e70e8740918","683db6dfa200031b80f2a654","68650786c99c1739a69aaaa7","6140ef8d27499e70e8740918","2025-07-02T10:44:24.972Z","","","","","","AttribQ","","","","","","","","","","","","","","","","","","","","","","","","","","","","","","","","","","","","","","50"
"2528","","<div style=""width:500px;"">
  <p>How much control did you have over the ball?</p>
  </div>","69","html-slider-response","59","1518026","0.0-10.0-2.4","84","1","2025-07-02 10:19:08","80fe4187154257d5fb01684ea91b68b9","93.108.112.26","Mozilla/5.0 (Windows NT 10.0; Win64; x64) AppleWebKit/537.36 (KHTML, like Gecko) Chrome/138.0.0.0 Safari/537.36","WebKit","Chrome","138.0.0.0","Windows","10.0","https://app.prolific.com/","en-US,en;q=0.9","6140ef8d27499e70e8740918","683db6dfa200031b80f2a654","68650786c99c1739a69aaaa7","6140ef8d27499e70e8740918","2025-07-02T10:44:27.501Z","","","","","","ControlQ","","","","","","","","","","","","","","","","","","","","","","","","","","","","","","","","","","","","","","50"
"2721","","<div style=""width:500px;"">
  <p>How would you describe your current emotional state?</p>
  </div>","5","html-slider-response","60","1520748","0.0-10.0-3.4","84","1","2025-07-02 10:19:08","80fe4187154257d5fb01684ea91b68b9","93.108.112.26","Mozilla/5.0 (Windows NT 10.0; Win64; x64) AppleWebKit/537.36 (KHTML, like Gecko) Chrome/138.0.0.0 Safari/537.36","WebKit","Chrome","138.0.0.0","Windows","10.0","https://app.prolific.com/","en-US,en;q=0.9","6140ef8d27499e70e8740918","683db6dfa200031b80f2a654","68650786c99c1739a69aaaa7","6140ef8d27499e70e8740918","2025-07-02T10:44:30.223Z","","","","","","StressQ","","","","","","","","","","","","","","","","","","","","","","","","","","","","","","","","","","","","","","50"
"2150","","<div style=""width:500px;"">
  <p>What best describes how you currently feel?</p>
  </div>","100","html-slider-response","61","1522899","0.0-10.0-4.4","84","1","2025-07-02 10:19:08","80fe4187154257d5fb01684ea91b68b9","93.108.112.26","Mozilla/5.0 (Windows NT 10.0; Win64; x64) AppleWebKit/537.36 (KHTML, like Gecko) Chrome/138.0.0.0 Safari/537.36","WebKit","Chrome","138.0.0.0","Windows","10.0","https://app.prolific.com/","en-US,en;q=0.9","6140ef8d27499e70e8740918","683db6dfa200031b80f2a654","68650786c99c1739a69aaaa7","6140ef8d27499e70e8740918","2025-07-02T10:44:32.374Z","","","","","","MotivationQ","","","","","","","","","","","","","","","","","","","","","","","","","","","","","","","","","","","","","","50"
"","","","","ctl-task-cpt","62","1563401","0.0-10.0-0.5","84","1","2025-07-02 10:19:08","80fe4187154257d5fb01684ea91b68b9","93.108.112.26","Mozilla/5.0 (Windows NT 10.0; Win64; x64) AppleWebKit/537.36 (KHTML, like Gecko) Chrome/138.0.0.0 Safari/537.36","WebKit","Chrome","138.0.0.0","Windows","10.0","https://app.prolific.com/","en-US,en;q=0.9","6140ef8d27499e70e8740918","683db6dfa200031b80f2a654","68650786c99c1739a69aaaa7","6140ef8d27499e70e8740918","2025-07-02T10:45:12.876Z","","","","","","","","","","","","","","","","win-only","3","g1:SW,g2:NE","0.5","6","0","1524022.2","1039","6041.1","37480.2","1","4","8","6","2","8","8","18","10","0.13636363636363635","1437.1","3000","255","[""up"",""right""]","{""num_key_presses"":8,""num_perfect"":5,""num_errors"":0,""num_randdir"":3,""num_randdir_good_moves"":2,""num_whilered"":0,""num_whileblue"":0,""num_blue"":3,""num_good_moves"":7}","[405.57142857142856,413.47767857142856,0.2,405.57142857142856,413.47767857142856,102.1,427.57142857142856,440.47767857142856,202.1,566.5714285714286,522.4776785714286,302.2,759.5714285714286,572.4776785714286,402.2,873.5714285714286,595.4776785714286,502.2,884.5714285714286,601.4776785714286,606.9,855.5714285714286,587.4776785714286,711.9,663.5714285714286,414.47767857142856,812,629.5714285714286,316.47767857142856,916.2,674.5714285714286,189.47767857142856,1016.6,710.5714285714286,115.47767857142857,1117.1,738.5714285714286,86.47767857142857,1221.4,741.5714285714286,84.47767857142857,1322.1,741.5714285714286,84.47767857142857,1427.4,741.5714285714286,87.47767857142857,1531.7,745.5714285714286,122.47767857142857,1637.8,781.5714285714286,237.47767857142856,1742,901.5714285714286,501.47767857142856,1842.1,946.5714285714286,561.4776785714286,1946.6,952.5714285714286,580.4776785714286,2052.3,960.5714285714286,586.4776785714286,2157.7,970.5714285714286,605.4776785714286,2257.9,940.5714285714286,657.4776785714286,2362.1,940.5714285714286,657.4776785714286,2462.5,928.5714285714286,637.4776785714286,2562.6,920.5714285714286,633.4776785714286,2666.8,920.5714285714286,633.4776785714286,2771.8,920.5714285714286,632.4776785714286,2872.7,920.5714285714286,631.4776785714286,2977,918.5714285714286,631.4776785714286,3081.4,916.5714285714286,632.4776785714286,3181.4,916.5714285714286,632.4776785714286,3283,916.5714285714286,632.4776785714286,3386.2,916.5714285714286,632.4776785714286,3487.5,916.5714285714286,632.4776785714286,3591.7,916.5714285714286,632.4776785714286,3691.7,915.5714285714286,632.4776785714286,3796.3,915.5714285714286,632.4776785714286,3896.4,915.5714285714286,632.4776785714286,3997.6,915.5714285714286,632.4776785714286,4102.1,915.5714285714286,632.4776785714286,4206.9,915.5714285714286,632.4776785714286,4307.1,907.5714285714286,632.4776785714286,4407.2,899.5714285714286,631.4776785714286,4511.2,899.5714285714286,631.4776785714286,4612.1,899.5714285714286,631.4776785714286,4716.7,899.5714285714286,631.4776785714286,4822.3,899.5714285714286,631.4776785714286,4927.7]","[1455.7,1455.7,1000,0,455.7,""smooth"",""up"",""up"",""good_move"",3935.8,2479.8,2156.6,1456,323.2,""oops"",""right"",""down"",""bad_move"",6719.4,2783.4,2498,3936,285.4,""oops"",""up"",""right"",""good_move"",9919.3,3199.7,2881.5,6719.6,318.2,""oops"",""up"",""right"",""good_move"",12959.4,3039.9,2729.1,9919.5,310.8,""smooth"",""up"",""up"",""good_move"",25183.4,12223.8,2535.5,22250.9,397,""smooth"",""up"",""up"",""good_move"",27951.3,2767.7,2398.3,25183.6,369.4,""smooth"",""up"",""up"",""good_move"",31351.4,3400,3076.5,27951.4,323.5,""smooth"",""right"",""right"",""good_move""]","",""
"4710","","<div style=""width:500px;"">
  <p>What determined the result of this run?</p>
  </div>","87","html-slider-response","63","1568111","0.0-10.0-1.5","84","1","2025-07-02 10:19:08","80fe4187154257d5fb01684ea91b68b9","93.108.112.26","Mozilla/5.0 (Windows NT 10.0; Win64; x64) AppleWebKit/537.36 (KHTML, like Gecko) Chrome/138.0.0.0 Safari/537.36","WebKit","Chrome","138.0.0.0","Windows","10.0","https://app.prolific.com/","en-US,en;q=0.9","6140ef8d27499e70e8740918","683db6dfa200031b80f2a654","68650786c99c1739a69aaaa7","6140ef8d27499e70e8740918","2025-07-02T10:45:17.586Z","","","","","","AttribQ","","","","","","","","","","","","","","","","","","","","","","","","","","","","","","","","","","","","","","50"
"3192","","<div style=""width:500px;"">
  <p>How much control did you have over the ball?</p>
  </div>","85","html-slider-response","64","1571304","0.0-10.0-2.5","84","1","2025-07-02 10:19:08","80fe4187154257d5fb01684ea91b68b9","93.108.112.26","Mozilla/5.0 (Windows NT 10.0; Win64; x64) AppleWebKit/537.36 (KHTML, like Gecko) Chrome/138.0.0.0 Safari/537.36","WebKit","Chrome","138.0.0.0","Windows","10.0","https://app.prolific.com/","en-US,en;q=0.9","6140ef8d27499e70e8740918","683db6dfa200031b80f2a654","68650786c99c1739a69aaaa7","6140ef8d27499e70e8740918","2025-07-02T10:45:20.779Z","","","","","","ControlQ","","","","","","","","","","","","","","","","","","","","","","","","","","","","","","","","","","","","","","50"
"2558","","<div style=""width:500px;"">
  <p>How would you describe your current emotional state?</p>
  </div>","11","html-slider-response","65","1573863","0.0-10.0-3.5","84","1","2025-07-02 10:19:08","80fe4187154257d5fb01684ea91b68b9","93.108.112.26","Mozilla/5.0 (Windows NT 10.0; Win64; x64) AppleWebKit/537.36 (KHTML, like Gecko) Chrome/138.0.0.0 Safari/537.36","WebKit","Chrome","138.0.0.0","Windows","10.0","https://app.prolific.com/","en-US,en;q=0.9","6140ef8d27499e70e8740918","683db6dfa200031b80f2a654","68650786c99c1739a69aaaa7","6140ef8d27499e70e8740918","2025-07-02T10:45:23.338Z","","","","","","StressQ","","","","","","","","","","","","","","","","","","","","","","","","","","","","","","","","","","","","","","50"
"5991","","<div style=""width:500px;"">
  <p>What best describes how you currently feel?</p>
  </div>","100","html-slider-response","66","1579854","0.0-10.0-4.5","84","1","2025-07-02 10:19:08","80fe4187154257d5fb01684ea91b68b9","93.108.112.26","Mozilla/5.0 (Windows NT 10.0; Win64; x64) AppleWebKit/537.36 (KHTML, like Gecko) Chrome/138.0.0.0 Safari/537.36","WebKit","Chrome","138.0.0.0","Windows","10.0","https://app.prolific.com/","en-US,en;q=0.9","6140ef8d27499e70e8740918","683db6dfa200031b80f2a654","68650786c99c1739a69aaaa7","6140ef8d27499e70e8740918","2025-07-02T10:45:29.330Z","","","","","","MotivationQ","","","","","","","","","","","","","","","","","","","","","","","","","","","","","","","","","","","","","","50"
"","","","","ctl-task-cpt","67","1638804","0.0-10.0-0.6","84","1","2025-07-02 10:19:08","80fe4187154257d5fb01684ea91b68b9","93.108.112.26","Mozilla/5.0 (Windows NT 10.0; Win64; x64) AppleWebKit/537.36 (KHTML, like Gecko) Chrome/138.0.0.0 Safari/537.36","WebKit","Chrome","138.0.0.0","Windows","10.0","https://app.prolific.com/","en-US,en;q=0.9","6140ef8d27499e70e8740918","683db6dfa200031b80f2a654","68650786c99c1739a69aaaa7","6140ef8d27499e70e8740918","2025-07-02T10:46:28.279Z","","","","","","","","","","","","","","","","win-only","3","g1:SW,g2:NE","0.4","7","0","1580974.6","20351.4","25355.4","55927.2","1","4","8","6","2","-8","-8","10","18","0.07575757575757576","998.8","3000","-3015","[""up"",""right""]","{""num_key_presses"":8,""num_perfect"":4,""num_errors"":0,""num_randdir"":4,""num_randdir_good_moves"":2,""num_whilered"":0,""num_whileblue"":0,""num_blue"":2,""num_good_moves"":6}","[419.57142857142856,413.47767857142856,0.3,419.57142857142856,413.47767857142856,100.1,419.57142857142856,413.47767857142856,204.3,419.57142857142856,413.47767857142856,305.2,480.57142857142856,438.47767857142856,409.8,585.5714285714286,531.4776785714286,514.2,578.5714285714286,564.4776785714286,614.4,722.5714285714286,297.47767857142856,714.4,754.5714285714286,183.47767857142856,814.4,740.5714285714286,125.47767857142857,919,754.5714285714286,106.47767857142857,1020.3,754.5714285714286,107.47767857142857,1125,794.5714285714286,203.47767857142856,1225.3,887.5714285714286,381.47767857142856,1329.7,931.5714285714286,502.47767857142856,1435.2,950.5714285714286,533.4776785714286,1539.4,957.5714285714286,544.4776785714286,1639.4,957.5714285714286,547.4776785714286,1744.9,957.5714285714286,547.4776785714286,1845.1,957.5714285714286,547.4776785714286,1948.9,957.5714285714286,547.4776785714286,2049.5,957.5714285714286,547.4776785714286,2154.2,957.5714285714286,547.4776785714286,2254.5,957.5714285714286,547.4776785714286,2355.1,957.5714285714286,547.4776785714286,2459,957.5714285714286,547.4776785714286,2559.2,957.5714285714286,547.4776785714286,2659.2,957.5714285714286,547.4776785714286,2759.4,957.5714285714286,547.4776785714286,2859.4,957.5714285714286,547.4776785714286,2960,957.5714285714286,547.4776785714286,3064.4,957.5714285714286,547.4776785714286,3168.8,957.5714285714286,547.4776785714286,3268.8,957.5714285714286,547.4776785714286,3368.8,957.5714285714286,547.4776785714286,3469.5,957.5714285714286,547.4776785714286,3575.9,957.5714285714286,547.4776785714286,3680.2,957.5714285714286,547.4776785714286,3784.2,957.5714285714286,547.4776785714286,3885.1,957.5714285714286,547.4776785714286,3989.7,957.5714285714286,547.4776785714286,4093.7,957.5714285714286,547.4776785714286,4194.8,957.5714285714286,547.4776785714286,4295.9,957.5714285714286,547.4776785714286,4399.3,957.5714285714286,547.4776785714286,4505,957.5714285714286,547.4776785714286,4609,957.5714285714286,547.4776785714286,4709.7,957.5714285714286,547.4776785714286,4814.7,957.5714285714286,547.4776785714286,4918.8]","[1420.3,1420.3,1000,0,420.3,""smooth"",""right"",""right"",""good_move"",4172.1,2751.5,2416.5,1420.6,335,""smooth"",""right"",""right"",""good_move"",6772.2,2599.9,2246.6,4172.3,353.3,""smooth"",""up"",""up"",""good_move"",9948.1,3175.8,2838.5,6772.4,337.3,""oops"",""up"",""up"",""good_move"",15844.1,5895.8,2139.7,13391,313.4,""smooth"",""up"",""up"",""good_move"",22907.9,7063.6,3346.1,19121.2,440.6,""oops"",""right"",""left"",""bad_move"",25644.3,2736.1,2209.6,22908.2,526.5,""oops"",""right"",""right"",""good_move"",28772,3127.4,2845.9,25644.6,281.5,""oops"",""right"",""down"",""bad_move""]","",""
"2904","","<div style=""width:500px;"">
  <p>What determined the result of this run?</p>
  </div>","0","html-slider-response","68","1641708","0.0-10.0-1.6","84","1","2025-07-02 10:19:08","80fe4187154257d5fb01684ea91b68b9","93.108.112.26","Mozilla/5.0 (Windows NT 10.0; Win64; x64) AppleWebKit/537.36 (KHTML, like Gecko) Chrome/138.0.0.0 Safari/537.36","WebKit","Chrome","138.0.0.0","Windows","10.0","https://app.prolific.com/","en-US,en;q=0.9","6140ef8d27499e70e8740918","683db6dfa200031b80f2a654","68650786c99c1739a69aaaa7","6140ef8d27499e70e8740918","2025-07-02T10:46:31.183Z","","","","","","AttribQ","","","","","","","","","","","","","","","","","","","","","","","","","","","","","","","","","","","","","","50"
"2517","","<div style=""width:500px;"">
  <p>How much control did you have over the ball?</p>
  </div>","22","html-slider-response","69","1644226","0.0-10.0-2.6","84","1","2025-07-02 10:19:08","80fe4187154257d5fb01684ea91b68b9","93.108.112.26","Mozilla/5.0 (Windows NT 10.0; Win64; x64) AppleWebKit/537.36 (KHTML, like Gecko) Chrome/138.0.0.0 Safari/537.36","WebKit","Chrome","138.0.0.0","Windows","10.0","https://app.prolific.com/","en-US,en;q=0.9","6140ef8d27499e70e8740918","683db6dfa200031b80f2a654","68650786c99c1739a69aaaa7","6140ef8d27499e70e8740918","2025-07-02T10:46:33.701Z","","","","","","ControlQ","","","","","","","","","","","","","","","","","","","","","","","","","","","","","","","","","","","","","","50"
"4955","","<div style=""width:500px;"">
  <p>How would you describe your current emotional state?</p>
  </div>","36","html-slider-response","70","1649182","0.0-10.0-3.6","84","1","2025-07-02 10:19:08","80fe4187154257d5fb01684ea91b68b9","93.108.112.26","Mozilla/5.0 (Windows NT 10.0; Win64; x64) AppleWebKit/537.36 (KHTML, like Gecko) Chrome/138.0.0.0 Safari/537.36","WebKit","Chrome","138.0.0.0","Windows","10.0","https://app.prolific.com/","en-US,en;q=0.9","6140ef8d27499e70e8740918","683db6dfa200031b80f2a654","68650786c99c1739a69aaaa7","6140ef8d27499e70e8740918","2025-07-02T10:46:38.657Z","","","","","","StressQ","","","","","","","","","","","","","","","","","","","","","","","","","","","","","","","","","","","","","","50"
"2149","","<div style=""width:500px;"">
  <p>What best describes how you currently feel?</p>
  </div>","100","html-slider-response","71","1651332","0.0-10.0-4.6","84","1","2025-07-02 10:19:08","80fe4187154257d5fb01684ea91b68b9","93.108.112.26","Mozilla/5.0 (Windows NT 10.0; Win64; x64) AppleWebKit/537.36 (KHTML, like Gecko) Chrome/138.0.0.0 Safari/537.36","WebKit","Chrome","138.0.0.0","Windows","10.0","https://app.prolific.com/","en-US,en;q=0.9","6140ef8d27499e70e8740918","683db6dfa200031b80f2a654","68650786c99c1739a69aaaa7","6140ef8d27499e70e8740918","2025-07-02T10:46:40.807Z","","","","","","MotivationQ","","","","","","","","","","","","","","","","","","","","","","","","","","","","","","","","","","","","","","50"
"","","","","ctl-task-cpt","72","1684459","0.0-10.0-0.7","84","1","2025-07-02 10:19:08","80fe4187154257d5fb01684ea91b68b9","93.108.112.26","Mozilla/5.0 (Windows NT 10.0; Win64; x64) AppleWebKit/537.36 (KHTML, like Gecko) Chrome/138.0.0.0 Safari/537.36","WebKit","Chrome","138.0.0.0","Windows","10.0","https://app.prolific.com/","en-US,en;q=0.9","6140ef8d27499e70e8740918","683db6dfa200031b80f2a654","68650786c99c1739a69aaaa7","6140ef8d27499e70e8740918","2025-07-02T10:47:13.934Z","","","","","","","","","","","","","","","","win-only","0","g1:NW,g2:SE","0.3","8","0","1652448.9","2165.1","7165.3","30106.1","1","4","4","6","2","-4","-4","6","10","0.045454545454545456","931.3","3000","-3015","[""down"",""right""]","{""num_key_presses"":8,""num_perfect"":3,""num_errors"":0,""num_randdir"":5,""num_randdir_good_moves"":2,""num_whilered"":0,""num_whileblue"":0,""num_blue"":0,""num_good_moves"":5}","[420.57142857142856,420.47767857142856,0.1,420.57142857142856,420.47767857142856,100.6,420.57142857142856,420.47767857142856,205.2,420.57142857142856,420.47767857142856,305.3,420.57142857142856,432.47767857142856,405.4,521.5714285714286,559.4776785714286,505.7,683.5714285714286,703.4776785714286,610.5,731.5714285714286,754.4776785714286,710.5,743.5714285714286,763.4776785714286,811.2,743.5714285714286,763.4776785714286,916.1,751.5714285714286,764.4776785714286,1020.2,836.5714285714286,768.4776785714286,1121.1,877.5714285714286,757.4776785714286,1225.3,920.5714285714286,730.4776785714286,1326,928.5714285714286,725.4776785714286,1430.7,928.5714285714286,725.4776785714286,1532.9,928.5714285714286,725.4776785714286,1636,928.5714285714286,725.4776785714286,1736.9,928.5714285714286,725.4776785714286,1840.3,928.5714285714286,725.4776785714286,1941.4,928.5714285714286,725.4776785714286,2046.4,928.5714285714286,725.4776785714286,2151.4,928.5714285714286,725.4776785714286,2255.4,928.5714285714286,725.4776785714286,2355.4,928.5714285714286,725.4776785714286,2455.4,928.5714285714286,725.4776785714286,2555.4,928.5714285714286,725.4776785714286,2661.2,928.5714285714286,725.4776785714286,2765.3,928.5714285714286,725.4776785714286,2865.8,928.5714285714286,725.4776785714286,2966.3,928.5714285714286,725.4776785714286,3071,928.5714285714286,725.4776785714286,3175,928.5714285714286,725.4776785714286,3275.7,928.5714285714286,725.4776785714286,3380.4,928.5714285714286,725.4776785714286,3480.4,928.5714285714286,725.4776785714286,3580.4,928.5714285714286,725.4776785714286,3680.9,928.5714285714286,725.4776785714286,3785.2,928.5714285714286,725.4776785714286,3886.1,928.5714285714286,725.4776785714286,3991.5,928.5714285714286,725.4776785714286,4095.9,928.5714285714286,725.4776785714286,4200.2,928.5714285714286,725.4776785714286,4300.4,928.5714285714286,725.4776785714286,4400.5,928.5714285714286,725.4776785714286,4501.1,928.5714285714286,725.4776785714286,4601.3,928.5714285714286,725.4776785714286,4705.3,928.5714285714286,725.4776785714286,4805.4,928.5714285714286,725.4776785714286,4910]","[1367.5,1367.5,1000,0,367.5,""oops"",""down"",""down"",""good_move"",4511.3,3143.6,2795.2,1367.7,348.4,""smooth"",""down"",""down"",""good_move"",7455.9,2944.5,2598.2,4511.4,346.3,""oops"",""down"",""up"",""bad_move"",10175.3,2719.1,2343.7,7456.2,375.4,""oops"",""down"",""down"",""good_move"",12807.3,2631.7,2248.1,10175.6,383.6,""oops"",""down"",""up"",""bad_move"",15879.1,3071.7,2657.6,12807.4,414.1,""smooth"",""right"",""right"",""good_move"",17967.1,2087.7,1735.2,15879.4,352.5,""smooth"",""down"",""down"",""good_move"",20407.2,2439.9,2166.2,17967.3,273.7,""oops"",""right"",""up"",""bad_move""]","",""
"2129","","<div style=""width:500px;"">
  <p>What determined the result of this run?</p>
  </div>","0","html-slider-response","73","1686588","0.0-10.0-1.7","84","1","2025-07-02 10:19:08","80fe4187154257d5fb01684ea91b68b9","93.108.112.26","Mozilla/5.0 (Windows NT 10.0; Win64; x64) AppleWebKit/537.36 (KHTML, like Gecko) Chrome/138.0.0.0 Safari/537.36","WebKit","Chrome","138.0.0.0","Windows","10.0","https://app.prolific.com/","en-US,en;q=0.9","6140ef8d27499e70e8740918","683db6dfa200031b80f2a654","68650786c99c1739a69aaaa7","6140ef8d27499e70e8740918","2025-07-02T10:47:16.063Z","","","","","","AttribQ","","","","","","","","","","","","","","","","","","","","","","","","","","","","","","","","","","","","","","50"
"2195","","<div style=""width:500px;"">
  <p>How much control did you have over the ball?</p>
  </div>","9","html-slider-response","74","1688783","0.0-10.0-2.7","84","1","2025-07-02 10:19:08","80fe4187154257d5fb01684ea91b68b9","93.108.112.26","Mozilla/5.0 (Windows NT 10.0; Win64; x64) AppleWebKit/537.36 (KHTML, like Gecko) Chrome/138.0.0.0 Safari/537.36","WebKit","Chrome","138.0.0.0","Windows","10.0","https://app.prolific.com/","en-US,en;q=0.9","6140ef8d27499e70e8740918","683db6dfa200031b80f2a654","68650786c99c1739a69aaaa7","6140ef8d27499e70e8740918","2025-07-02T10:47:18.258Z","","","","","","ControlQ","","","","","","","","","","","","","","","","","","","","","","","","","","","","","","","","","","","","","","50"
"2246","","<div style=""width:500px;"">
  <p>How would you describe your current emotional state?</p>
  </div>","34","html-slider-response","75","1691030","0.0-10.0-3.7","84","1","2025-07-02 10:19:08","80fe4187154257d5fb01684ea91b68b9","93.108.112.26","Mozilla/5.0 (Windows NT 10.0; Win64; x64) AppleWebKit/537.36 (KHTML, like Gecko) Chrome/138.0.0.0 Safari/537.36","WebKit","Chrome","138.0.0.0","Windows","10.0","https://app.prolific.com/","en-US,en;q=0.9","6140ef8d27499e70e8740918","683db6dfa200031b80f2a654","68650786c99c1739a69aaaa7","6140ef8d27499e70e8740918","2025-07-02T10:47:20.505Z","","","","","","StressQ","","","","","","","","","","","","","","","","","","","","","","","","","","","","","","","","","","","","","","50"
"7052","","<div style=""width:500px;"">
  <p>What best describes how you currently feel?</p>
  </div>","100","html-slider-response","76","1698083","0.0-10.0-4.7","84","1","2025-07-02 10:19:08","80fe4187154257d5fb01684ea91b68b9","93.108.112.26","Mozilla/5.0 (Windows NT 10.0; Win64; x64) AppleWebKit/537.36 (KHTML, like Gecko) Chrome/138.0.0.0 Safari/537.36","WebKit","Chrome","138.0.0.0","Windows","10.0","https://app.prolific.com/","en-US,en;q=0.9","6140ef8d27499e70e8740918","683db6dfa200031b80f2a654","68650786c99c1739a69aaaa7","6140ef8d27499e70e8740918","2025-07-02T10:47:27.558Z","","","","","","MotivationQ","","","","","","","","","","","","","","","","","","","","","","","","","","","","","","","","","","","","","","50"
"","","","","ctl-task-cpt","77","1744934","0.0-10.0-0.8","84","1","2025-07-02 10:19:08","80fe4187154257d5fb01684ea91b68b9","93.108.112.26","Mozilla/5.0 (Windows NT 10.0; Win64; x64) AppleWebKit/537.36 (KHTML, like Gecko) Chrome/138.0.0.0 Safari/537.36","WebKit","Chrome","138.0.0.0","Windows","10.0","https://app.prolific.com/","en-US,en;q=0.9","6140ef8d27499e70e8740918","683db6dfa200031b80f2a654","68650786c99c1739a69aaaa7","6140ef8d27499e70e8740918","2025-07-02T10:48:14.409Z","","","","","","","","","","","","","","","","win-only","3","g1:SW,g2:NE","0.4","9","0","1699197.1","6449.1","11451.2","43830.4","1","4","4","6","2","4","4","10","6","0.07575757575757576","1050.9","3000","680","[""up"",""right""]","{""num_key_presses"":8,""num_perfect"":4,""num_errors"":0,""num_randdir"":4,""num_randdir_good_moves"":3,""num_whilered"":0,""num_whileblue"":0,""num_blue"":3,""num_good_moves"":7}","[417.57142857142856,415.47767857142856,0.2,417.57142857142856,415.47767857142856,102.2,417.57142857142856,415.47767857142856,206.3,417.57142857142856,415.47767857142856,306.3,417.57142857142856,416.47767857142856,411.9,427.57142857142856,409.47767857142856,516.4,653.5714285714286,184.47767857142856,622.4,732.5714285714286,49.47767857142857,727.4,737.5714285714286,36.47767857142857,831.5,753.5714285714286,61.47767857142857,936.8,765.5714285714286,77.47767857142857,1041.7,765.5714285714286,77.47767857142857,1146.4,765.5714285714286,92.47767857142857,1246.7,775.5714285714286,334.47767857142856,1351.4,783.5714285714286,473.47767857142856,1451.8,805.5714285714286,493.47767857142856,1551.9,840.5714285714286,522.4776785714286,1656.6,873.5714285714286,542.4776785714286,1761.2,880.5714285714286,543.4776785714286,1861.6,880.5714285714286,543.4776785714286,1961.6,886.5714285714286,545.4776785714286,2061.6,887.5714285714286,545.4776785714286,2161.7,887.5714285714286,545.4776785714286,2262.6,887.5714285714286,545.4776785714286,2367.4,887.5714285714286,545.4776785714286,2472.8,887.5714285714286,545.4776785714286,2572.9,887.5714285714286,545.4776785714286,2676.4,887.5714285714286,545.4776785714286,2776.4,887.5714285714286,545.4776785714286,2877,887.5714285714286,545.4776785714286,2981.3,887.5714285714286,545.4776785714286,3081.3,887.5714285714286,545.4776785714286,3181.4,887.5714285714286,545.4776785714286,3286.6,887.5714285714286,545.4776785714286,3387.9,887.5714285714286,545.4776785714286,3492.5,887.5714285714286,545.4776785714286,3592.7,887.5714285714286,545.4776785714286,3696.6,887.5714285714286,545.4776785714286,3796.7,887.5714285714286,545.4776785714286,3902.1,887.5714285714286,545.4776785714286,4006.3,887.5714285714286,545.4776785714286,4106.4,887.5714285714286,545.4776785714286,4211.7,887.5714285714286,545.4776785714286,4316.6,887.5714285714286,545.4776785714286,4416.6,887.5714285714286,545.4776785714286,4521.5,887.5714285714286,545.4776785714286,4625.9,887.5714285714286,545.4776785714286,4726.2,887.5714285714286,545.4776785714286,4827.6,887.5714285714286,545.4776785714286,4931.3]","[4588.8,4588.8,2270.1,2004.2,314.5,""oops"",""up"",""down"",""bad_move"",7340.7,2751.6,2416.8,4589.1,334.8,""oops"",""up"",""up"",""good_move"",10532.8,3191.9,2922.3,7340.9,269.6,""oops"",""right"",""up"",""good_move"",13468.6,2935.6,2627.9,10533,307.7,""smooth"",""right"",""right"",""good_move"",16500.8,3031.9,2767.4,13468.9,264.5,""oops"",""right"",""up"",""good_move"",22012.6,5511.7,2343.6,19424.3,244.7,""smooth"",""right"",""right"",""good_move"",24932.5,2919.7,2572.6,22012.8,347.1,""smooth"",""right"",""right"",""good_move"",32292.6,7359.8,2787.2,29224.9,280.5,""smooth"",""up"",""up"",""good_move""]","",""
"3950","","<div style=""width:500px;"">
  <p>What determined the result of this run?</p>
  </div>","74","html-slider-response","78","1748885","0.0-10.0-1.8","84","1","2025-07-02 10:19:08","80fe4187154257d5fb01684ea91b68b9","93.108.112.26","Mozilla/5.0 (Windows NT 10.0; Win64; x64) AppleWebKit/537.36 (KHTML, like Gecko) Chrome/138.0.0.0 Safari/537.36","WebKit","Chrome","138.0.0.0","Windows","10.0","https://app.prolific.com/","en-US,en;q=0.9","6140ef8d27499e70e8740918","683db6dfa200031b80f2a654","68650786c99c1739a69aaaa7","6140ef8d27499e70e8740918","2025-07-02T10:48:18.360Z","","","","","","AttribQ","","","","","","","","","","","","","","","","","","","","","","","","","","","","","","","","","","","","","","50"
"3371","","<div style=""width:500px;"">
  <p>How much control did you have over the ball?</p>
  </div>","74","html-slider-response","79","1752257","0.0-10.0-2.8","84","1","2025-07-02 10:19:08","80fe4187154257d5fb01684ea91b68b9","93.108.112.26","Mozilla/5.0 (Windows NT 10.0; Win64; x64) AppleWebKit/537.36 (KHTML, like Gecko) Chrome/138.0.0.0 Safari/537.36","WebKit","Chrome","138.0.0.0","Windows","10.0","https://app.prolific.com/","en-US,en;q=0.9","6140ef8d27499e70e8740918","683db6dfa200031b80f2a654","68650786c99c1739a69aaaa7","6140ef8d27499e70e8740918","2025-07-02T10:48:21.732Z","","","","","","ControlQ","","","","","","","","","","","","","","","","","","","","","","","","","","","","","","","","","","","","","","50"
"3312","","<div style=""width:500px;"">
  <p>How would you describe your current emotional state?</p>
  </div>","26","html-slider-response","80","1755570","0.0-10.0-3.8","84","1","2025-07-02 10:19:08","80fe4187154257d5fb01684ea91b68b9","93.108.112.26","Mozilla/5.0 (Windows NT 10.0; Win64; x64) AppleWebKit/537.36 (KHTML, like Gecko) Chrome/138.0.0.0 Safari/537.36","WebKit","Chrome","138.0.0.0","Windows","10.0","https://app.prolific.com/","en-US,en;q=0.9","6140ef8d27499e70e8740918","683db6dfa200031b80f2a654","68650786c99c1739a69aaaa7","6140ef8d27499e70e8740918","2025-07-02T10:48:25.045Z","","","","","","StressQ","","","","","","","","","","","","","","","","","","","","","","","","","","","","","","","","","","","","","","50"
"11941","","<div style=""width:500px;"">
  <p>What best describes how you currently feel?</p>
  </div>","100","html-slider-response","81","1767511","0.0-10.0-4.8","84","1","2025-07-02 10:19:08","80fe4187154257d5fb01684ea91b68b9","93.108.112.26","Mozilla/5.0 (Windows NT 10.0; Win64; x64) AppleWebKit/537.36 (KHTML, like Gecko) Chrome/138.0.0.0 Safari/537.36","WebKit","Chrome","138.0.0.0","Windows","10.0","https://app.prolific.com/","en-US,en;q=0.9","6140ef8d27499e70e8740918","683db6dfa200031b80f2a654","68650786c99c1739a69aaaa7","6140ef8d27499e70e8740918","2025-07-02T10:48:36.986Z","","","","","","MotivationQ","","","","","","","","","","","","","","","","","","","","","","","","","","","","","","","","","","","","","","50"
"","","","","ctl-task-cpt","82","1807886","0.0-10.0-0.9","84","1","2025-07-02 10:19:08","80fe4187154257d5fb01684ea91b68b9","93.108.112.26","Mozilla/5.0 (Windows NT 10.0; Win64; x64) AppleWebKit/537.36 (KHTML, like Gecko) Chrome/138.0.0.0 Safari/537.36","WebKit","Chrome","138.0.0.0","Windows","10.0","https://app.prolific.com/","en-US,en;q=0.9","6140ef8d27499e70e8740918","683db6dfa200031b80f2a654","68650786c99c1739a69aaaa7","6140ef8d27499e70e8740918","2025-07-02T10:49:17.361Z","","","","","","","","","","","","","","","","win-only","0","g1:NW,g2:SE","0.5","10","0","1768622","2043.8","7045.2","37355.3","1","4","8","6","2","-8","-8","2","10","0.015151515151515152","808.5","3000","-3015","[""down"",""right""]","{""num_key_presses"":9,""num_perfect"":5,""num_errors"":0,""num_randdir"":4,""num_randdir_good_moves"":2,""num_whilered"":0,""num_whileblue"":0,""num_blue"":1,""num_good_moves"":7}","[420.57142857142856,417.47767857142856,0.2,420.57142857142856,417.47767857142856,101.4,420.57142857142856,417.47767857142856,202.3,420.57142857142856,417.47767857142856,302.7,421.57142857142856,423.47767857142856,407,558.5714285714286,600.4776785714286,511.8,702.5714285714286,740.4776785714286,612,737.5714285714286,770.4776785714286,716.4,751.5714285714286,774.4776785714286,816.9,752.5714285714286,773.4776785714286,917.1,811.5714285714286,768.4776785714286,1021.5,897.5714285714286,734.4776785714286,1122.2,917.5714285714286,710.4776785714286,1226.9,919.5714285714286,703.4776785714286,1327.1,919.5714285714286,702.4776785714286,1431.8,919.5714285714286,702.4776785714286,1532.4,919.5714285714286,702.4776785714286,1632.6,919.5714285714286,702.4776785714286,1736.6,919.5714285714286,702.4776785714286,1836.6,919.5714285714286,702.4776785714286,1936.6,919.5714285714286,702.4776785714286,2036.6,919.5714285714286,702.4776785714286,2141.5,919.5714285714286,702.4776785714286,2247.1,919.5714285714286,702.4776785714286,2352.2,919.5714285714286,702.4776785714286,2457,919.5714285714286,702.4776785714286,2561.5,919.5714285714286,702.4776785714286,2661.5,919.5714285714286,702.4776785714286,2761.8,919.5714285714286,702.4776785714286,2867.7,919.5714285714286,702.4776785714286,2972.7,919.5714285714286,702.4776785714286,3076.7,919.5714285714286,702.4776785714286,3176.8,919.5714285714286,702.4776785714286,3277,919.5714285714286,702.4776785714286,3377,919.5714285714286,702.4776785714286,3477.1,919.5714285714286,702.4776785714286,3582.4,919.5714285714286,702.4776785714286,3686.6,919.5714285714286,702.4776785714286,3786.6,919.5714285714286,702.4776785714286,3887.1,919.5714285714286,702.4776785714286,3992.6,919.5714285714286,702.4776785714286,4096.9,919.5714285714286,702.4776785714286,4198.1,919.5714285714286,702.4776785714286,4302.7,919.5714285714286,702.4776785714286,4407,919.5714285714286,702.4776785714286,4507.3,919.5714285714286,702.4776785714286,4611.6,919.5714285714286,702.4776785714286,4716.7,919.5714285714286,702.4776785714286,4823.3,919.5714285714286,702.4776785714286,4927]","[1529.3,1529.3,1000,0,529.3,""smooth"",""down"",""down"",""good_move"",3969.2,2439.7,2129.3,1529.6,310.3,""smooth"",""down"",""down"",""good_move"",6737.4,2768,2474.3,3969.4,293.7,""oops"",""down"",""up"",""bad_move"",9257.2,2519.6,2228.9,6737.6,290.7,""smooth"",""right"",""right"",""good_move"",11785.3,2527.8,2226.5,9257.5,301.3,""smooth"",""right"",""right"",""good_move"",14921.1,3135.7,2828.1,11785.4,307.6,""oops"",""down"",""down"",""good_move"",20793.3,5871.9,1882.7,18595.4,315.2,""oops"",""right"",""left"",""bad_move"",23913.1,3119.5,2790.5,20793.6,329,""oops"",""down"",""down"",""good_move"",27001,3087.7,2798.1,23913.3,289.6,""smooth"",""right"",""right"",""good_move""]","",""
"1850","","<div style=""width:500px;"">
  <p>What determined the result of this run?</p>
  </div>","30","html-slider-response","83","1809737","0.0-10.0-1.9","84","1","2025-07-02 10:19:08","80fe4187154257d5fb01684ea91b68b9","93.108.112.26","Mozilla/5.0 (Windows NT 10.0; Win64; x64) AppleWebKit/537.36 (KHTML, like Gecko) Chrome/138.0.0.0 Safari/537.36","WebKit","Chrome","138.0.0.0","Windows","10.0","https://app.prolific.com/","en-US,en;q=0.9","6140ef8d27499e70e8740918","683db6dfa200031b80f2a654","68650786c99c1739a69aaaa7","6140ef8d27499e70e8740918","2025-07-02T10:49:19.212Z","","","","","","AttribQ","","","","","","","","","","","","","","","","","","","","","","","","","","","","","","","","","","","","","","50"
"3180","","<div style=""width:500px;"">
  <p>How much control did you have over the ball?</p>
