"rt","response_timestamp","stimulus","response","trial_type","trial_index","time_elapsed","internal_node_id","run_id","condition","recorded_at","source_code_version","ip","user_agent","device","browser","browser_version","platform","platform_version","referer","accept_language","PROLIFIC_PID","STUDY_ID","SESSION_ID","prolific_id","realtime","view_history","question_order","consent","success","question_id","eventType","responses","item_order","radio_event_ids","radio_event_times","key_event_times","mouse_event_times","straightlining","zigzagging","honeypot","which_type","canvas_config","goals_layout","control_level","trial_number","tutorial_trial_number","trial_start_time","phase1_start_time","phase2_start_time","phase3_start_time","goal_1_value","goal_1_distance","goal_2_value","goal_2_distance","goal_selected","outcome","outcome_total","participant_final_score","participant_initial_score","participant_final_score_prop","goal_choice_rt","allocated_time","allocated_time_remaining","goal_direction","counts","mouse_movements","key_presses","correct","slider_start"
"47790","1751451641420","<p style='font-size:40px;line-height:1.25'><strong>Welcome to the experiment!</strong></p><p style='font-size:1.1em;line-height:1.25'>Thank you for your interest in our experiment! Before you begin, it is important that we obtain your informed consent to participate in the study.</p><p style='font-size:1.1em;line-height:1.25'>On the next screen will be an <strong>information sheet</strong> for you to read. To participate in the study we need you to read this information sheet and the following consent form carefully. If you agree with all the statements, please click the <strong>I agree</strong> button.</p><p style='font-size:1.1em;line-height:1.25'>Press <strong>Next</strong> to read the information sheet.</p>","0","custom-html-button-response","0","47793","0.0-0.0","116","1","2025-07-02 10:19:50","80fe4187154257d5fb01684ea91b68b9","105.245.56.248","Mozilla/5.0 (Windows NT 10.0; Win64; x64) AppleWebKit/537.36 (KHTML, like Gecko) Chrome/138.0.0.0 Safari/537.36","WebKit","Chrome","138.0.0.0","Windows","10.0","https://app.prolific.com/","en-US,en;q=0.9","61464f886a630e8cf0fb4bb1","683db6dfa200031b80f2a654","6865076104d427e878393954","61464f886a630e8cf0fb4bb1","2025-07-02T10:20:41.421Z","","","","","","","","","","","","","","","","","","","","","","","","","","","","","","","","","","","","","","","","","","","",""
"163693","","","","instructions","1","211488","0.0-1.0","116","1","2025-07-02 10:19:50","80fe4187154257d5fb01684ea91b68b9","105.245.56.248","Mozilla/5.0 (Windows NT 10.0; Win64; x64) AppleWebKit/537.36 (KHTML, like Gecko) Chrome/138.0.0.0 Safari/537.36","WebKit","Chrome","138.0.0.0","Windows","10.0","https://app.prolific.com/","en-US,en;q=0.9","61464f886a630e8cf0fb4bb1","683db6dfa200031b80f2a654","6865076104d427e878393954","61464f886a630e8cf0fb4bb1","","[{""page_index"":0,""viewing_time"":115669},{""page_index"":1,""viewing_time"":48024}]","","","","","","","","","","","","","","","","","","","","","","","","","","","","","","","","","","","","","","","","","","",""
"15191","","","{""Q0"":"""",""Q1"":"""",""Q2"":"""",""Q3"":"""",""Q4"":"""",""Q5"":"""",""Q6"":""I agree""}","survey-multi-choice","2","226682","0.0-2.0","116","1","2025-07-02 10:19:50","80fe4187154257d5fb01684ea91b68b9","105.245.56.248","Mozilla/5.0 (Windows NT 10.0; Win64; x64) AppleWebKit/537.36 (KHTML, like Gecko) Chrome/138.0.0.0 Safari/537.36","WebKit","Chrome","138.0.0.0","Windows","10.0","https://app.prolific.com/","en-US,en;q=0.9","61464f886a630e8cf0fb4bb1","683db6dfa200031b80f2a654","6865076104d427e878393954","61464f886a630e8cf0fb4bb1","","","[0,1,2,3,4,5,6]","true","","","","","","","","","","","","","","","","","","","","","","","","","","","","","","","","","","","","","","","","",""
"21323","","","","fullscreen","3","249014","0.0-4.0","116","1","2025-07-02 10:19:50","80fe4187154257d5fb01684ea91b68b9","105.245.56.248","Mozilla/5.0 (Windows NT 10.0; Win64; x64) AppleWebKit/537.36 (KHTML, like Gecko) Chrome/138.0.0.0 Safari/537.36","WebKit","Chrome","138.0.0.0","Windows","10.0","https://app.prolific.com/","en-US,en;q=0.9","61464f886a630e8cf0fb4bb1","683db6dfa200031b80f2a654","6865076104d427e878393954","61464f886a630e8cf0fb4bb1","","","","","true","","","","","","","","","","","","","","","","","","","","","","","","","","","","","","","","","","","","","","","",""
"10360","1751451853003"," <p style='font-size:1.1em;line-height:1.25'>Thank you for completing the consent form and closing all other tabs.</p><p style='font-size:1.1em;line-height:1.25'>We will now invite you to fill in some demographic information and questionnaires, before starting the game.<br>This will take about 5 minutes.<br></p><p style='font-size:1.1em;line-height:1.25'>Press the <strong>Next</strong> button to continue.</p>","0","custom-html-button-response","4","259376","0.0-5.0","116","1","2025-07-02 10:19:50","80fe4187154257d5fb01684ea91b68b9","105.245.56.248","Mozilla/5.0 (Windows NT 10.0; Win64; x64) AppleWebKit/537.36 (KHTML, like Gecko) Chrome/138.0.0.0 Safari/537.36","WebKit","Chrome","138.0.0.0","Windows","10.0","https://app.prolific.com/","en-US,en;q=0.9","61464f886a630e8cf0fb4bb1","683db6dfa200031b80f2a654","6865076104d427e878393954","61464f886a630e8cf0fb4bb1","2025-07-02T10:24:13.004Z","","","","","","","","","","","","","","","","","","","","","","","","","","","","","","","","","","","","","","","","","","","",""
"3116","","","{""age"":""25""}","survey-text","5","262496","0.0-6.0-0.0","116","1","2025-07-02 10:19:50","80fe4187154257d5fb01684ea91b68b9","105.245.56.248","Mozilla/5.0 (Windows NT 10.0; Win64; x64) AppleWebKit/537.36 (KHTML, like Gecko) Chrome/138.0.0.0 Safari/537.36","WebKit","Chrome","138.0.0.0","Windows","10.0","https://app.prolific.com/","en-US,en;q=0.9","61464f886a630e8cf0fb4bb1","683db6dfa200031b80f2a654","6865076104d427e878393954","61464f886a630e8cf0fb4bb1","","","","","","0","demographics","","","","","","","","","","","","","","","","","","","","","","","","","","","","","","","","","","","","","",""
"3719","","","{""gender_identity"":""female/woman""}","survey-multi-choice","6","266216","0.0-6.0-1.0","116","1","2025-07-02 10:19:50","80fe4187154257d5fb01684ea91b68b9","105.245.56.248","Mozilla/5.0 (Windows NT 10.0; Win64; x64) AppleWebKit/537.36 (KHTML, like Gecko) Chrome/138.0.0.0 Safari/537.36","WebKit","Chrome","138.0.0.0","Windows","10.0","https://app.prolific.com/","en-US,en;q=0.9","61464f886a630e8cf0fb4bb1","683db6dfa200031b80f2a654","6865076104d427e878393954","61464f886a630e8cf0fb4bb1","","","[0]","","","1","demographics","","","","","","","","","","","","","","","","","","","","","","","","","","","","","","","","","","","","","",""
"3110","","","{""assigned_sex"":""female""}","survey-multi-choice","7","269328","0.0-6.0-2.0","116","1","2025-07-02 10:19:50","80fe4187154257d5fb01684ea91b68b9","105.245.56.248","Mozilla/5.0 (Windows NT 10.0; Win64; x64) AppleWebKit/537.36 (KHTML, like Gecko) Chrome/138.0.0.0 Safari/537.36","WebKit","Chrome","138.0.0.0","Windows","10.0","https://app.prolific.com/","en-US,en;q=0.9","61464f886a630e8cf0fb4bb1","683db6dfa200031b80f2a654","6865076104d427e878393954","61464f886a630e8cf0fb4bb1","","","[0]","","","2","demographics","","","","","","","","","","","","","","","","","","","","","","","","","","","","","","","","","","","","","",""
"5999","","","{""menstrual_cycle"":""Yes""}","survey-multi-choice","8","275328","0.0-6.0-3.0","116","1","2025-07-02 10:19:50","80fe4187154257d5fb01684ea91b68b9","105.245.56.248","Mozilla/5.0 (Windows NT 10.0; Win64; x64) AppleWebKit/537.36 (KHTML, like Gecko) Chrome/138.0.0.0 Safari/537.36","WebKit","Chrome","138.0.0.0","Windows","10.0","https://app.prolific.com/","en-US,en;q=0.9","61464f886a630e8cf0fb4bb1","683db6dfa200031b80f2a654","6865076104d427e878393954","61464f886a630e8cf0fb4bb1","","","[0]","","","4","demographics","","","","","","","","","","","","","","","","","","","","","","","","","","","","","","","","","","","","","",""
"5535","","","{""education"":""Bachelor's Degree (e.g., BA)""}","survey-multi-choice","9","280865","0.0-6.0-4.0","116","1","2025-07-02 10:19:50","80fe4187154257d5fb01684ea91b68b9","105.245.56.248","Mozilla/5.0 (Windows NT 10.0; Win64; x64) AppleWebKit/537.36 (KHTML, like Gecko) Chrome/138.0.0.0 Safari/537.36","WebKit","Chrome","138.0.0.0","Windows","10.0","https://app.prolific.com/","en-US,en;q=0.9","61464f886a630e8cf0fb4bb1","683db6dfa200031b80f2a654","6865076104d427e878393954","61464f886a630e8cf0fb4bb1","","","[0]","","","5","demographics","","","","","","","","","","","","","","","","","","","","","","","","","","","","","","","","","","","","","",""
"9406","","","{""education"":""Higher National Diploma""}","survey-multi-choice","10","290273","0.0-6.0-5.0","116","1","2025-07-02 10:19:50","80fe4187154257d5fb01684ea91b68b9","105.245.56.248","Mozilla/5.0 (Windows NT 10.0; Win64; x64) AppleWebKit/537.36 (KHTML, like Gecko) Chrome/138.0.0.0 Safari/537.36","WebKit","Chrome","138.0.0.0","Windows","10.0","https://app.prolific.com/","en-US,en;q=0.9","61464f886a630e8cf0fb4bb1","683db6dfa200031b80f2a654","6865076104d427e878393954","61464f886a630e8cf0fb4bb1","2025-07-02T10:24:43.901Z","","[0]","","","6","demographics","","","","","","","","","","","","","","","","","","","","","","","","","","","","","","","","","","","","","",""
"14421","","","{""mental_health_condition"":""no"",""mental_health_treatment"":""no"",""psychiatric_medication"":""no""}","survey-text","11","304696","0.0-7.0-0.0","116","1","2025-07-02 10:19:50","80fe4187154257d5fb01684ea91b68b9","105.245.56.248","Mozilla/5.0 (Windows NT 10.0; Win64; x64) AppleWebKit/537.36 (KHTML, like Gecko) Chrome/138.0.0.0 Safari/537.36","WebKit","Chrome","138.0.0.0","Windows","10.0","https://app.prolific.com/","en-US,en;q=0.9","61464f886a630e8cf0fb4bb1","683db6dfa200031b80f2a654","6865076104d427e878393954","61464f886a630e8cf0fb4bb1","2025-07-02T10:24:58.324Z","","","","","1","mental_health","","","","","","","","","","","","","","","","","","","","","","","","","","","","","","","","","","","","","",""
"9693","","","{""depression_history"":[""Yes""]}","survey-multi-select","12","314393","0.0-7.0-1.0","116","1","2025-07-02 10:19:50","80fe4187154257d5fb01684ea91b68b9","105.245.56.248","Mozilla/5.0 (Windows NT 10.0; Win64; x64) AppleWebKit/537.36 (KHTML, like Gecko) Chrome/138.0.0.0 Safari/537.36","WebKit","Chrome","138.0.0.0","Windows","10.0","https://app.prolific.com/","en-US,en;q=0.9","61464f886a630e8cf0fb4bb1","683db6dfa200031b80f2a654","6865076104d427e878393954","61464f886a630e8cf0fb4bb1","","","[0]","","","","mental_health","","","","","","","","","","","","","","","","","","","","","","","","","","","","","","","","","","","","","",""
"16047","","","{""depression_episodes"":""1-2"",""depression_recent"":""Within the past year""}","survey-multi-choice","13","330441","0.0-7.0-2.0-0.0","116","1","2025-07-02 10:19:50","80fe4187154257d5fb01684ea91b68b9","105.245.56.248","Mozilla/5.0 (Windows NT 10.0; Win64; x64) AppleWebKit/537.36 (KHTML, like Gecko) Chrome/138.0.0.0 Safari/537.36","WebKit","Chrome","138.0.0.0","Windows","10.0","https://app.prolific.com/","en-US,en;q=0.9","61464f886a630e8cf0fb4bb1","683db6dfa200031b80f2a654","6865076104d427e878393954","61464f886a630e8cf0fb4bb1","2025-07-02T10:25:24.069Z","","[0,1]","","","3","mental_health","","","","","","","","","","","","","","","","","","","","","","","","","","","","","","","","","","","","","",""
"67568.09999999963","","","","survey-template","14","398014","0.0-7.0-3.0","116","1","2025-07-02 10:19:50","80fe4187154257d5fb01684ea91b68b9","105.245.56.248","Mozilla/5.0 (Windows NT 10.0; Win64; x64) AppleWebKit/537.36 (KHTML, like Gecko) Chrome/138.0.0.0 Safari/537.36","WebKit","Chrome","138.0.0.0","Windows","10.0","https://app.prolific.com/","en-US,en;q=0.9","61464f886a630e8cf0fb4bb1","683db6dfa200031b80f2a654","6865076104d427e878393954","61464f886a630e8cf0fb4bb1","2025-07-02T10:26:31.642Z","","","","","","ius","{""Q01"":""2"",""Q02"":""4"",""Q03"":""0"",""Q04"":""2"",""Q05"":""1"",""Q06"":""0"",""Q07"":""2"",""Q08"":""0"",""Q09"":""2"",""Q10"":""1"",""Q11"":""1"",""Q12"":""3"",""Q13"":""3""}","[0,1,2,3,4,5,6,7,8,9,10,11,12]","[""Q01"",""Q02"",""Q03"",""Q04"",""Q05"",""Q06"",""Q07"",""Q08"",""Q09"",""Q10"",""Q11"",""Q12"",""Q13""]","[6619.700000001118,10683.200000001118,19307.400000000373,25475.400000000373,27947.5,31803.5,36451,42203.40000000037,49883.40000000037,54083.09999999963,59851.40000000037,63419.5,66779]","[]","[6619.700000001118,10683.200000001118,19307.400000000373,25475.400000000373,27947.5,31803.5,36451,42203.40000000037,49883.40000000037,54083.09999999963,59851.40000000037,63419.5,66779,67563.20000000112]","0.3076923076923077","0.3333333333333333","0","","","","","","","","","","","","","","","","","","","","","","","","","","","","",""
"2432","1751451994075","<p style='font-size:1.1em;line-height:1.25'>In the following, we will ask you a few questions relating to your experiences over the past month.<br></p><p style='font-size:1.1em;line-height:1.25'>Press the <strong>Next</strong> button to continue.</p>","0","custom-html-button-response","15","400448","0.0-7.0-4.0","116","1","2025-07-02 10:19:50","80fe4187154257d5fb01684ea91b68b9","105.245.56.248","Mozilla/5.0 (Windows NT 10.0; Win64; x64) AppleWebKit/537.36 (KHTML, like Gecko) Chrome/138.0.0.0 Safari/537.36","WebKit","Chrome","138.0.0.0","Windows","10.0","https://app.prolific.com/","en-US,en;q=0.9","61464f886a630e8cf0fb4bb1","683db6dfa200031b80f2a654","6865076104d427e878393954","61464f886a630e8cf0fb4bb1","2025-07-02T10:26:34.076Z","","","","","","","","","","","","","","","","","","","","","","","","","","","","","","","","","","","","","","","","","","","",""
"81730.20000000112","","","","survey-template","16","482181","0.0-7.0-5.0","116","1","2025-07-02 10:19:50","80fe4187154257d5fb01684ea91b68b9","105.245.56.248","Mozilla/5.0 (Windows NT 10.0; Win64; x64) AppleWebKit/537.36 (KHTML, like Gecko) Chrome/138.0.0.0 Safari/537.36","WebKit","Chrome","138.0.0.0","Windows","10.0","https://app.prolific.com/","en-US,en;q=0.9","61464f886a630e8cf0fb4bb1","683db6dfa200031b80f2a654","6865076104d427e878393954","61464f886a630e8cf0fb4bb1","2025-07-02T10:27:55.809Z","","","","","","pss","{""Q01"":""2"",""Q02"":""2"",""Q03"":""3"",""Q04"":""2"",""Q05"":""0"",""Q06"":""4"",""Q07"":""1"",""Q08"":""3"",""Q09"":""3"",""Q10"":""4""}","[0,1,2,3,4,5,6,7,8,9]","[""Q01"",""Q02"",""Q03"",""Q04"",""Q05"",""Q06"",""Q07"",""Q08"",""Q09"",""Q10""]","[25622,35125.800000000745,40917.800000000745,48397.70000000112,53398,58765.70000000112,64333.70000000112,70781.90000000037,76317.80000000075,80885.80000000075]","[]","[0,25622,35125.800000000745,40917.800000000745,48397.70000000112,53398,58765.70000000112,64333.70000000112,70245.90000000037,70781.90000000037,76317.80000000075,80885.80000000075,81725.90000000037]","0.3","0.4444444444444444","0","","","","","","","","","","","","","","","","","","","","","","","","","","","","",""
"3018","1751452078827","<p style='font-size:1.1em;line-height:1.25'>Thank you for your answers! Now we will ask you a few more questions relating to your feelings in the last 24 hours.<br></p><p style='font-size:1.1em;line-height:1.25'>Press the <strong>Next</strong> button to continue.</p>","0","custom-html-button-response","17","485199","0.0-7.0-6.0","116","1","2025-07-02 10:19:50","80fe4187154257d5fb01684ea91b68b9","105.245.56.248","Mozilla/5.0 (Windows NT 10.0; Win64; x64) AppleWebKit/537.36 (KHTML, like Gecko) Chrome/138.0.0.0 Safari/537.36","WebKit","Chrome","138.0.0.0","Windows","10.0","https://app.prolific.com/","en-US,en;q=0.9","61464f886a630e8cf0fb4bb1","683db6dfa200031b80f2a654","6865076104d427e878393954","61464f886a630e8cf0fb4bb1","2025-07-02T10:27:58.827Z","","","","","","","","","","","","","","","","","","","","","","","","","","","","","","","","","","","","","","","","","","","",""
"87652.10000000149","","","","survey-template","18","572854","0.0-7.0-7.0","116","1","2025-07-02 10:19:50","80fe4187154257d5fb01684ea91b68b9","105.245.56.248","Mozilla/5.0 (Windows NT 10.0; Win64; x64) AppleWebKit/537.36 (KHTML, like Gecko) Chrome/138.0.0.0 Safari/537.36","WebKit","Chrome","138.0.0.0","Windows","10.0","https://app.prolific.com/","en-US,en;q=0.9","61464f886a630e8cf0fb4bb1","683db6dfa200031b80f2a654","6865076104d427e878393954","61464f886a630e8cf0fb4bb1","2025-07-02T10:29:26.482Z","","","","","","drsp","{""Q01"":""1"",""Q02"":""3"",""Q03"":""0"",""Q04"":""0"",""Q05"":""1"",""Q06"":""2"",""Q07"":""2"",""Q08"":""4"",""Q09"":""1"",""Q10"":""2"",""Q11"":""0"",""Q12"":""0"",""Q13"":""0"",""Q14"":""4"",""Q15"":""0"",""Q16"":""0"",""Q17"":""0"",""Q18"":""5"",""Q19"":""1"",""Q20"":""1"",""Q21"":""0""}","[0,1,2,3,4,5,6,7,8,9,10,11,12,13,14,15,16,17,18,19,20]","[""Q01"",""Q01"",""Q02"",""Q03"",""Q04"",""Q05"",""Q06"",""Q07"",""Q08"",""Q09"",""Q10"",""Q10"",""Q11"",""Q12"",""Q13"",""Q14"",""Q15"",""Q16"",""Q17"",""Q18"",""Q19"",""Q20"",""Q21""]","[11182,12966.400000000373,17222.400000000373,21046.400000000373,22862,24894.300000000745,28766.200000001118,31150.200000001118,33798.20000000112,38414.20000000112,40638.20000000112,43526,46558.300000000745,48422,50653.800000000745,55926,60662.10000000149,62533.60000000149,64021.800000000745,70413.90000000037,77085.5,82254.30000000075,86598]","[]","[0,11182,12966.400000000373,17222.400000000373,21046.400000000373,22862,24894.300000000745,28766.200000001118,31150.200000001118,33798.20000000112,38414.20000000112,40638.20000000112,43526,46558.300000000745,48422,50653.800000000745,55926,60662.10000000149,62533.60000000149,64021.800000000745,70413.90000000037,77085.5,82254.30000000075,86598,87646.40000000037]","0.42857142857142855","0.25","0","","","","","","","","","","","","","","","","","","","","","","","","","","","","",""
"13225.400000000373","","","","survey-template","19","586081","0.0-7.0-8.0","116","1","2025-07-02 10:19:50","80fe4187154257d5fb01684ea91b68b9","105.245.56.248","Mozilla/5.0 (Windows NT 10.0; Win64; x64) AppleWebKit/537.36 (KHTML, like Gecko) Chrome/138.0.0.0 Safari/537.36","WebKit","Chrome","138.0.0.0","Windows","10.0","https://app.prolific.com/","en-US,en;q=0.9","61464f886a630e8cf0fb4bb1","683db6dfa200031b80f2a654","6865076104d427e878393954","61464f886a630e8cf0fb4bb1","2025-07-02T10:29:39.709Z","","","","","","stress","{""Q01"":""0"",""Q02"":""3"",""Q03"":""0""}","[0,1,2]","[""Q01"",""Q02"",""Q03""]","[5296.0999999996275,9143.900000000373,11999.900000000373]","[]","[5296.0999999996275,9143.900000000373,11999.900000000373,13223.900000000373]","0.6666666666666666","0","0","","","","","","","","","","","","","","","","","","","","","","","","","","","","",""
"89421","","","","instructions","20","675504","0.0-8.0-0.0","116","1","2025-07-02 10:19:50","80fe4187154257d5fb01684ea91b68b9","105.245.56.248","Mozilla/5.0 (Windows NT 10.0; Win64; x64) AppleWebKit/537.36 (KHTML, like Gecko) Chrome/138.0.0.0 Safari/537.36","WebKit","Chrome","138.0.0.0","Windows","10.0","https://app.prolific.com/","en-US,en;q=0.9","61464f886a630e8cf0fb4bb1","683db6dfa200031b80f2a654","6865076104d427e878393954","61464f886a630e8cf0fb4bb1","","[{""page_index"":0,""viewing_time"":23245},{""page_index"":1,""viewing_time"":14532},{""page_index"":0,""viewing_time"":9086},{""page_index"":1,""viewing_time"":7672},{""page_index"":2,""viewing_time"":12997},{""page_index"":3,""viewing_time"":21888}]","","","","","","","","","","","","","","","","","","","","","","","","","","","","","","","","","","","","","","","","","","",""
"","","","","ctl-task-cpt","21","700385","0.0-8.0-1.0","116","1","2025-07-02 10:19:50","80fe4187154257d5fb01684ea91b68b9","105.245.56.248","Mozilla/5.0 (Windows NT 10.0; Win64; x64) AppleWebKit/537.36 (KHTML, like Gecko) Chrome/138.0.0.0 Safari/537.36","WebKit","Chrome","138.0.0.0","Windows","10.0","https://app.prolific.com/","en-US,en;q=0.9","61464f886a630e8cf0fb4bb1","683db6dfa200031b80f2a654","6865076104d427e878393954","61464f886a630e8cf0fb4bb1","","","","","","","","","","","","","","","","","win-only","2","g1:SE,g2:NW","1","0","1","679261","2170.8","6175.7","21873.1","2","4","4","6","1","2","0","0","0","0","4004.9","4000","730","[""down"",""right""]","{""num_key_presses"":6,""num_perfect"":4,""num_errors"":2,""num_randdir"":0,""num_randdir_good_moves"":0,""num_whilered"":0,""num_whileblue"":0,""num_blue"":0,""num_good_moves"":4}","[232.03973214285713,228.44598214285713,0.2,232.03973214285713,228.44598214285713,100.7,232.03973214285713,228.44598214285713,201.3,232.03973214285713,228.44598214285713,309,232.03973214285713,227.44598214285713,409.3,232.03973214285713,227.44598214285713,510,232.03973214285713,227.44598214285713,610.3,232.03973214285713,227.44598214285713,710.6,230.03973214285713,226.44598214285713,815.6,230.03973214285713,226.44598214285713,924.8,230.03973214285713,226.44598214285713,1029.6,230.03973214285713,226.44598214285713,1130.6,230.03973214285713,226.44598214285713,1230.6,230.03973214285713,226.44598214285713,1335.4,230.03973214285713,226.44598214285713,1440.8,230.03973214285713,226.44598214285713,1540.8,230.03973214285713,226.44598214285713,1640.9,230.03973214285713,226.44598214285713,1745.3,230.03973214285713,226.44598214285713,1845.3,230.03973214285713,226.44598214285713,1950.3,230.03973214285713,226.44598214285713,2056.9,230.03973214285713,226.44598214285713,2159.9,230.03973214285713,226.44598214285713,2260.3,248.03973214285713,242.44598214285713,2364.9,254.03973214285713,248.44598214285713,2465,260.03973214285713,256.44598214285713,2565.4,265.03973214285713,273.44598214285713,2673,266.03973214285713,274.44598214285713,2774.6,266.03973214285713,274.44598214285713,2875.1,266.03973214285713,274.44598214285713,2975.7,266.03973214285713,274.44598214285713,3079.5,266.03973214285713,274.44598214285713,3180.1,266.03973214285713,274.44598214285713,3288.8,266.03973214285713,274.44598214285713,3389.4,266.03973214285713,274.44598214285713,3490.7,266.03973214285713,274.44598214285713,3594.9,266.03973214285713,274.44598214285713,3695.2,266.03973214285713,274.44598214285713,3796.1,266.03973214285713,274.44598214285713,3896.1]","[1714.6,1714.6,1000,0,714.6,""smooth"",""right"",""right"",""good_move"",2317,602.1,2678.3,1715,-2076.3,""error"",""-"",""-"",""no_move"",7499.5,5182.2,2820,3319.9,1359.6,""smooth"",""right"",""right"",""good_move"",8561.4,1061.8,3041.4,7499.6,-1979.6,""error"",""-"",""-"",""no_move"",12259.1,3697.6,1630.1,9565.3,1063.7,""smooth"",""down"",""down"",""good_move"",15599.6,3340.2,2806,12259.4,534.2,""smooth"",""down"",""down"",""good_move""]","",""
"17105","","","","instructions","22","717490","0.0-8.0-2.0","116","1","2025-07-02 10:19:50","80fe4187154257d5fb01684ea91b68b9","105.245.56.248","Mozilla/5.0 (Windows NT 10.0; Win64; x64) AppleWebKit/537.36 (KHTML, like Gecko) Chrome/138.0.0.0 Safari/537.36","WebKit","Chrome","138.0.0.0","Windows","10.0","https://app.prolific.com/","en-US,en;q=0.9","61464f886a630e8cf0fb4bb1","683db6dfa200031b80f2a654","6865076104d427e878393954","61464f886a630e8cf0fb4bb1","","[{""page_index"":0,""viewing_time"":17105}]","","","","","","","","","","","","","","","","","","","","","","","","","","","","","","","","","","","","","","","","","","",""
"","","","","ctl-task-cpt","23","746764","0.0-8.0-3.0","116","1","2025-07-02 10:19:50","80fe4187154257d5fb01684ea91b68b9","105.245.56.248","Mozilla/5.0 (Windows NT 10.0; Win64; x64) AppleWebKit/537.36 (KHTML, like Gecko) Chrome/138.0.0.0 Safari/537.36","WebKit","Chrome","138.0.0.0","Windows","10.0","https://app.prolific.com/","en-US,en;q=0.9","61464f886a630e8cf0fb4bb1","683db6dfa200031b80f2a654","6865076104d427e878393954","61464f886a630e8cf0fb4bb1","","","","","","","","","","","","","","","","","win-only","2","g1:SE,g2:NW","0.35","0","3","721244.4","1751.1","5755.8","26265.9","2","4","8","6","1","2","1","1","0","0.007575757575757576","4004.7","4000","1920","[""down"",""right""]","{""num_key_presses"":5,""num_perfect"":1,""num_errors"":1,""num_randdir"":3,""num_randdir_good_moves"":3,""num_whilered"":0,""num_whileblue"":0,""num_blue"":2,""num_good_moves"":4}","[232.03973214285713,232.44598214285713,0.2,232.03973214285713,232.44598214285713,100.4,232.03973214285713,232.44598214285713,204.6,232.03973214285713,232.44598214285713,305.6,232.03973214285713,232.44598214285713,410,232.03973214285713,232.44598214285713,516.9,232.03973214285713,232.44598214285713,620.2,232.03973214285713,232.44598214285713,724.8,232.03973214285713,232.44598214285713,832.5,232.03973214285713,232.44598214285713,932.5,232.03973214285713,232.44598214285713,1035.3,232.03973214285713,232.44598214285713,1139.6,232.03973214285713,232.44598214285713,1239.8,232.03973214285713,232.44598214285713,1339.9,234.03973214285713,232.44598214285713,1448.7,262.03973214285713,257.44598214285713,1548.8,284.03973214285713,273.44598214285713,1650.2,283.03973214285713,278.44598214285713,1755.2,279.03973214285713,281.44598214285713,1864.9,277.03973214285713,281.44598214285713,1970.1,277.03973214285713,280.44598214285713,2070.1,277.03973214285713,279.44598214285713,2175.3,277.03973214285713,277.44598214285713,2281.5,277.03973214285713,277.44598214285713,2384.8,277.03973214285713,277.44598214285713,2485.1,277.03973214285713,277.44598214285713,2589.6,277.03973214285713,277.44598214285713,2689.6,277.03973214285713,277.44598214285713,2789.6,277.03973214285713,277.44598214285713,2897.1,277.03973214285713,277.44598214285713,2997.2,277.03973214285713,277.44598214285713,3099.7,277.03973214285713,277.44598214285713,3199.7,277.03973214285713,277.44598214285713,3305.2,277.03973214285713,277.44598214285713,3413.3,276.03973214285713,277.44598214285713,3514.9,276.03973214285713,277.44598214285713,3619.7,276.03973214285713,277.44598214285713,3719.7,275.03973214285713,276.44598214285713,3820.2,275.03973214285713,276.44598214285713,3929.2]","[1943,1943.1,1000,0,943.1,""smooth"",""right"",""right"",""good_move"",9100,7156.7,2866.3,5790,443.7,""oops"",""right"",""down"",""good_move"",10063,962.8,2149.8,9100.2,-1187,""error"",""-"",""-"",""no_move"",14064.7,4001.5,2437.6,11065.6,561.5,""oops"",""right"",""right"",""good_move"",20418.2,6353.3,2514.6,17510.4,393.2,""oops"",""down"",""down"",""good_move""]","",""
"31363","","","","instructions","24","778127","0.0-8.0-4.0","116","1","2025-07-02 10:19:50","80fe4187154257d5fb01684ea91b68b9","105.245.56.248","Mozilla/5.0 (Windows NT 10.0; Win64; x64) AppleWebKit/537.36 (KHTML, like Gecko) Chrome/138.0.0.0 Safari/537.36","WebKit","Chrome","138.0.0.0","Windows","10.0","https://app.prolific.com/","en-US,en;q=0.9","61464f886a630e8cf0fb4bb1","683db6dfa200031b80f2a654","6865076104d427e878393954","61464f886a630e8cf0fb4bb1","","[{""page_index"":0,""viewing_time"":10627},{""page_index"":1,""viewing_time"":20736}]","","","","","","","","","","","","","","","","","","","","","","","","","","","","","","","","","","","","","","","","","","",""
"13583","","","{""green_ball"":[""Ball always moves in the direction I press""]}","survey-multi-select","25","791713","0.0-8.0-5.0-0.0","116","1","2025-07-02 10:19:50","80fe4187154257d5fb01684ea91b68b9","105.245.56.248","Mozilla/5.0 (Windows NT 10.0; Win64; x64) AppleWebKit/537.36 (KHTML, like Gecko) Chrome/138.0.0.0 Safari/537.36","WebKit","Chrome","138.0.0.0","Windows","10.0","https://app.prolific.com/","en-US,en;q=0.9","61464f886a630e8cf0fb4bb1","683db6dfa200031b80f2a654","6865076104d427e878393954","61464f886a630e8cf0fb4bb1","","","[0]","","","","quiz","","","","","","","","","","","","","","","","","","","","","","","","","","","","","","","","","","","","","false",""
"5454","","<p align='center'><b>INCORRECT.</b> Usually the green ball moves in the indicated direction, but sometimes it shakes and moves randomly. </p>","0","html-button-response","26","797168","0.0-8.0-5.0-1.0","116","1","2025-07-02 10:19:50","80fe4187154257d5fb01684ea91b68b9","105.245.56.248","Mozilla/5.0 (Windows NT 10.0; Win64; x64) AppleWebKit/537.36 (KHTML, like Gecko) Chrome/138.0.0.0 Safari/537.36","WebKit","Chrome","138.0.0.0","Windows","10.0","https://app.prolific.com/","en-US,en;q=0.9","61464f886a630e8cf0fb4bb1","683db6dfa200031b80f2a654","6865076104d427e878393954","61464f886a630e8cf0fb4bb1","","","","","","","","","","","","","","","","","","","","","","","","","","","","","","","","","","","","","","","","","","","","",""
"15565","","","{""green_ball"":[""Ball sometimes shakes and moves in a random direction""]}","survey-multi-select","27","812736","0.0-8.0-5.1-0.1","116","1","2025-07-02 10:19:50","80fe4187154257d5fb01684ea91b68b9","105.245.56.248","Mozilla/5.0 (Windows NT 10.0; Win64; x64) AppleWebKit/537.36 (KHTML, like Gecko) Chrome/138.0.0.0 Safari/537.36","WebKit","Chrome","138.0.0.0","Windows","10.0","https://app.prolific.com/","en-US,en;q=0.9","61464f886a630e8cf0fb4bb1","683db6dfa200031b80f2a654","6865076104d427e878393954","61464f886a630e8cf0fb4bb1","","","[0]","","","","quiz","","","","","","","","","","","","","","","","","","","","","","","","","","","","","","","","","","","","","true",""
"5007","","<p align='center'><b>CORRECT!</b> Indeed, the green ball may sometimes shake and move in a random direction.</p>","0","html-button-response","28","817744","0.0-8.0-5.1-1.1","116","1","2025-07-02 10:19:50","80fe4187154257d5fb01684ea91b68b9","105.245.56.248","Mozilla/5.0 (Windows NT 10.0; Win64; x64) AppleWebKit/537.36 (KHTML, like Gecko) Chrome/138.0.0.0 Safari/537.36","WebKit","Chrome","138.0.0.0","Windows","10.0","https://app.prolific.com/","en-US,en;q=0.9","61464f886a630e8cf0fb4bb1","683db6dfa200031b80f2a654","6865076104d427e878393954","61464f886a630e8cf0fb4bb1","","","","","","","","","","","","","","","","","","","","","","","","","","","","","","","","","","","","","","","","","","","","",""
"7198","","","{""yellow_ball"":[""Ball doesn‘t move and I get -1 penalty point""]}","survey-multi-select","29","824944","0.0-8.0-6.0-0.0","116","1","2025-07-02 10:19:50","80fe4187154257d5fb01684ea91b68b9","105.245.56.248","Mozilla/5.0 (Windows NT 10.0; Win64; x64) AppleWebKit/537.36 (KHTML, like Gecko) Chrome/138.0.0.0 Safari/537.36","WebKit","Chrome","138.0.0.0","Windows","10.0","https://app.prolific.com/","en-US,en;q=0.9","61464f886a630e8cf0fb4bb1","683db6dfa200031b80f2a654","6865076104d427e878393954","61464f886a630e8cf0fb4bb1","","","[0]","","","","quiz","","","","","","","","","","","","","","","","","","","","","","","","","","","","","","","","","","","","","true",""
"1279","","<p align='center'><b>CORRECT!</b> Indeed, the yellow ball never moves and you receive a penalty.</p>","0","html-button-response","30","826224","0.0-8.0-6.0-1.0","116","1","2025-07-02 10:19:50","80fe4187154257d5fb01684ea91b68b9","105.245.56.248","Mozilla/5.0 (Windows NT 10.0; Win64; x64) AppleWebKit/537.36 (KHTML, like Gecko) Chrome/138.0.0.0 Safari/537.36","WebKit","Chrome","138.0.0.0","Windows","10.0","https://app.prolific.com/","en-US,en;q=0.9","61464f886a630e8cf0fb4bb1","683db6dfa200031b80f2a654","6865076104d427e878393954","61464f886a630e8cf0fb4bb1","","","","","","","","","","","","","","","","","","","","","","","","","","","","","","","","","","","","","","","","","","","","",""
"6630","","","{""blue_ball"":[""Ball doesn‘t move and I get -1 penalty point""]}","survey-multi-select","31","832856","0.0-8.0-7.0-0.0","116","1","2025-07-02 10:19:50","80fe4187154257d5fb01684ea91b68b9","105.245.56.248","Mozilla/5.0 (Windows NT 10.0; Win64; x64) AppleWebKit/537.36 (KHTML, like Gecko) Chrome/138.0.0.0 Safari/537.36","WebKit","Chrome","138.0.0.0","Windows","10.0","https://app.prolific.com/","en-US,en;q=0.9","61464f886a630e8cf0fb4bb1","683db6dfa200031b80f2a654","6865076104d427e878393954","61464f886a630e8cf0fb4bb1","","","[0]","","","","quiz","","","","","","","","","","","","","","","","","","","","","","","","","","","","","","","","","","","","","false",""
"2894","","<p align='center'><b>INCORRECT.</b> The blue ball always shakes and moves randomly.</p>","0","html-button-response","32","835752","0.0-8.0-7.0-1.0","116","1","2025-07-02 10:19:50","80fe4187154257d5fb01684ea91b68b9","105.245.56.248","Mozilla/5.0 (Windows NT 10.0; Win64; x64) AppleWebKit/537.36 (KHTML, like Gecko) Chrome/138.0.0.0 Safari/537.36","WebKit","Chrome","138.0.0.0","Windows","10.0","https://app.prolific.com/","en-US,en;q=0.9","61464f886a630e8cf0fb4bb1","683db6dfa200031b80f2a654","6865076104d427e878393954","61464f886a630e8cf0fb4bb1","","","","","","","","","","","","","","","","","","","","","","","","","","","","","","","","","","","","","","","","","","","","",""
"4303","","","{""blue_ball"":[""Ball always shakes and moves in a random direction""]}","survey-multi-select","33","840057","0.0-8.0-7.1-0.1","116","1","2025-07-02 10:19:50","80fe4187154257d5fb01684ea91b68b9","105.245.56.248","Mozilla/5.0 (Windows NT 10.0; Win64; x64) AppleWebKit/537.36 (KHTML, like Gecko) Chrome/138.0.0.0 Safari/537.36","WebKit","Chrome","138.0.0.0","Windows","10.0","https://app.prolific.com/","en-US,en;q=0.9","61464f886a630e8cf0fb4bb1","683db6dfa200031b80f2a654","6865076104d427e878393954","61464f886a630e8cf0fb4bb1","","","[0]","","","","quiz","","","","","","","","","","","","","","","","","","","","","","","","","","","","","","","","","","","","","true",""
"1757","","<p align='center'><b>CORRECT!</b> Indeed, the blue ball always shakes and moves in a random direction. Also there is a penalty of -1 point.</p>","0","html-button-response","34","841815","0.0-8.0-7.1-1.1","116","1","2025-07-02 10:19:50","80fe4187154257d5fb01684ea91b68b9","105.245.56.248","Mozilla/5.0 (Windows NT 10.0; Win64; x64) AppleWebKit/537.36 (KHTML, like Gecko) Chrome/138.0.0.0 Safari/537.36","WebKit","Chrome","138.0.0.0","Windows","10.0","https://app.prolific.com/","en-US,en;q=0.9","61464f886a630e8cf0fb4bb1","683db6dfa200031b80f2a654","6865076104d427e878393954","61464f886a630e8cf0fb4bb1","","","","","","","","","","","","","","","","","","","","","","","","","","","","","","","","","","","","","","","","","","","","",""
"5352","","","{""bonus"":[""When I reach 50% of points""]}","survey-multi-select","35","847168","0.0-8.0-8.0-0.0","116","1","2025-07-02 10:19:50","80fe4187154257d5fb01684ea91b68b9","105.245.56.248","Mozilla/5.0 (Windows NT 10.0; Win64; x64) AppleWebKit/537.36 (KHTML, like Gecko) Chrome/138.0.0.0 Safari/537.36","WebKit","Chrome","138.0.0.0","Windows","10.0","https://app.prolific.com/","en-US,en;q=0.9","61464f886a630e8cf0fb4bb1","683db6dfa200031b80f2a654","6865076104d427e878393954","61464f886a630e8cf0fb4bb1","","","[0]","","","","quiz","","","","","","","","","","","","","","","","","","","","","","","","","","","","","","","","","","","","","true",""
"1382","","<p align='center'><b>CORRECT!</b> Indeed, you receive 2 pounds extra when you reach 50% of points.</p>","0","html-button-response","36","848552","0.0-8.0-8.0-1.0","116","1","2025-07-02 10:19:50","80fe4187154257d5fb01684ea91b68b9","105.245.56.248","Mozilla/5.0 (Windows NT 10.0; Win64; x64) AppleWebKit/537.36 (KHTML, like Gecko) Chrome/138.0.0.0 Safari/537.36","WebKit","Chrome","138.0.0.0","Windows","10.0","https://app.prolific.com/","en-US,en;q=0.9","61464f886a630e8cf0fb4bb1","683db6dfa200031b80f2a654","6865076104d427e878393954","61464f886a630e8cf0fb4bb1","","","","","","","","","","","","","","","","","","","","","","","","","","","","","","","","","","","","","","","","","","","","",""
"6847","","","","instructions","37","855400","0.0-8.0-9.0","116","1","2025-07-02 10:19:50","80fe4187154257d5fb01684ea91b68b9","105.245.56.248","Mozilla/5.0 (Windows NT 10.0; Win64; x64) AppleWebKit/537.36 (KHTML, like Gecko) Chrome/138.0.0.0 Safari/537.36","WebKit","Chrome","138.0.0.0","Windows","10.0","https://app.prolific.com/","en-US,en;q=0.9","61464f886a630e8cf0fb4bb1","683db6dfa200031b80f2a654","6865076104d427e878393954","61464f886a630e8cf0fb4bb1","","[{""page_index"":0,""viewing_time"":6847}]","","","","","","","","","","","","","","","","","","","","","","","","","","","","","","","","","","","","","","","","","","",""
"17134","","<p>Before you start with this game please answer the following three questions yourself. </p>
  <p>Through this game, we measure several aspects of your cognitive performance, such as reaction times, multi-tasking capabilities </p>
  <p>and the ability to assess the situation you are in.</p>
  <p></p>
  <p><b>How good do you usually are in such tasks?</b></p>","100","html-slider-response","38","872536","0.0-9.0-0.0","116","1","2025-07-02 10:19:50","80fe4187154257d5fb01684ea91b68b9","105.245.56.248","Mozilla/5.0 (Windows NT 10.0; Win64; x64) AppleWebKit/537.36 (KHTML, like Gecko) Chrome/138.0.0.0 Safari/537.36","WebKit","Chrome","138.0.0.0","Windows","10.0","https://app.prolific.com/","en-US,en;q=0.9","61464f886a630e8cf0fb4bb1","683db6dfa200031b80f2a654","6865076104d427e878393954","61464f886a630e8cf0fb4bb1","2025-07-02T10:34:26.164Z","","","","","","PreSkillQ","","","","","","","","","","","","","","","","","","","","","","","","","","","","","","","","","","","","","","50"
"5774","","<div style=""width:500px;"">
  <p>How well do you think you will perform in this task compared to other participants?</p>
  </div>","100","html-slider-response","39","878312","0.0-9.0-1.0","116","1","2025-07-02 10:19:50","80fe4187154257d5fb01684ea91b68b9","105.245.56.248","Mozilla/5.0 (Windows NT 10.0; Win64; x64) AppleWebKit/537.36 (KHTML, like Gecko) Chrome/138.0.0.0 Safari/537.36","WebKit","Chrome","138.0.0.0","Windows","10.0","https://app.prolific.com/","en-US,en;q=0.9","61464f886a630e8cf0fb4bb1","683db6dfa200031b80f2a654","6865076104d427e878393954","61464f886a630e8cf0fb4bb1","2025-07-02T10:34:31.940Z","","","","","","PrePerfQ","","","","","","","","","","","","","","","","","","","","","","","","","","","","","","","","","","","","","","50"
"7254","","<div style=""width:500px;"">
  <p>What best describes how you currently feel?</p>
  </div>","70","html-slider-response","40","885568","0.0-9.0-2.0","116","1","2025-07-02 10:19:50","80fe4187154257d5fb01684ea91b68b9","105.245.56.248","Mozilla/5.0 (Windows NT 10.0; Win64; x64) AppleWebKit/537.36 (KHTML, like Gecko) Chrome/138.0.0.0 Safari/537.36","WebKit","Chrome","138.0.0.0","Windows","10.0","https://app.prolific.com/","en-US,en;q=0.9","61464f886a630e8cf0fb4bb1","683db6dfa200031b80f2a654","6865076104d427e878393954","61464f886a630e8cf0fb4bb1","2025-07-02T10:34:39.196Z","","","","","","PreMotivationQ","","","","","","","","","","","","","","","","","","","","","","","","","","","","","","","","","","","","","","50"
"","","","","ctl-task-cpt","41","903391","0.0-10.0-0.0","116","1","2025-07-02 10:19:50","80fe4187154257d5fb01684ea91b68b9","105.245.56.248","Mozilla/5.0 (Windows NT 10.0; Win64; x64) AppleWebKit/537.36 (KHTML, like Gecko) Chrome/138.0.0.0 Safari/537.36","WebKit","Chrome","138.0.0.0","Windows","10.0","https://app.prolific.com/","en-US,en;q=0.9","61464f886a630e8cf0fb4bb1","683db6dfa200031b80f2a654","6865076104d427e878393954","61464f886a630e8cf0fb4bb1","2025-07-02T10:34:57.019Z","","","","","","","","","","","","","","","","win-only","2","g1:SE,g2:NW","1","1","0","889323.3","2228.3","7232.3","14816.3","1","4","4","6","2","-4","-4","0","0","0","5003.9","3000","-2705","[""left"",""up""]","{""num_key_presses"":1,""num_perfect"":1,""num_errors"":0,""num_randdir"":0,""num_randdir_good_moves"":0,""num_whilered"":0,""num_whileblue"":0,""num_blue"":0,""num_good_moves"":0}","[229.03973214285713,229.44598214285713,0.2,229.03973214285713,229.44598214285713,102.5,229.03973214285713,229.44598214285713,202.7,229.03973214285713,229.44598214285713,303,229.03973214285713,229.44598214285713,403.8,229.03973214285713,229.44598214285713,509,229.03973214285713,229.44598214285713,613.6,228.03973214285713,233.44598214285713,718.5,275.03973214285713,267.44598214285713,825.4,275.03973214285713,267.44598214285713,927.9,275.03973214285713,267.44598214285713,1028.2,275.03973214285713,267.44598214285713,1132.9,258.03973214285713,240.44598214285713,1233.6,258.03973214285713,237.44598214285713,1341.1,257.03973214285713,250.44598214285713,1441.2,265.03973214285713,278.44598214285713,1541.2,271.03973214285713,289.44598214285713,1641.6,271.03973214285713,289.44598214285713,1743.6,270.03973214285713,277.44598214285713,1847.5,270.03973214285713,277.44598214285713,1948,270.03973214285713,277.44598214285713,2048.1,270.03973214285713,277.44598214285713,2157.2,270.03973214285713,277.44598214285713,2257.3,270.03973214285713,277.44598214285713,2357.3,270.03973214285713,276.44598214285713,2463.5,270.03973214285713,276.44598214285713,2572.9,270.03973214285713,276.44598214285713,2672.9,270.03973214285713,276.44598214285713,2777.2,270.03973214285713,276.44598214285713,2877.3,270.03973214285713,276.44598214285713,2977.6,270.03973214285713,276.44598214285713,3082.7,270.03973214285713,276.44598214285713,3183,270.03973214285713,276.44598214285713,3283.8,270.03973214285713,276.44598214285713,3389.2,270.03973214285713,276.44598214285713,3492.7,270.03973214285713,276.44598214285713,3597.5,270.03973214285713,275.44598214285713,3705.4,270.03973214285713,275.44598214285713,3807.9,270.03973214285713,275.44598214285713,3913,270.03973214285713,275.44598214285713,4021.9,270.03973214285713,275.44598214285713,4121.9,270.03973214285713,275.44598214285713,4223.4,270.03973214285713,275.44598214285713,4328,270.03973214285713,275.44598214285713,4437.4,270.03973214285713,275.44598214285713,4537.6,270.03973214285713,275.44598214285713,4637.8,270.03973214285713,275.44598214285713,4742.2,270.03973214285713,275.44598214285713,4848.1,270.03973214285713,275.44598214285713,4954.4]","[2413,2413,1000,0,1413,""smooth"",""right"",""right"",""bad_move""]","",""
"5927","","<div style=""width:500px;"">
  <p>What determined the result of this run?</p>
  </div>","100","html-slider-response","42","909319","0.0-10.0-1.0","116","1","2025-07-02 10:19:50","80fe4187154257d5fb01684ea91b68b9","105.245.56.248","Mozilla/5.0 (Windows NT 10.0; Win64; x64) AppleWebKit/537.36 (KHTML, like Gecko) Chrome/138.0.0.0 Safari/537.36","WebKit","Chrome","138.0.0.0","Windows","10.0","https://app.prolific.com/","en-US,en;q=0.9","61464f886a630e8cf0fb4bb1","683db6dfa200031b80f2a654","6865076104d427e878393954","61464f886a630e8cf0fb4bb1","2025-07-02T10:35:02.947Z","","","","","","AttribQ","","","","","","","","","","","","","","","","","","","","","","","","","","","","","","","","","","","","","","50"
"8631","","<div style=""width:500px;"">
  <p>How much control did you have over the ball?</p>
  </div>","26","html-slider-response","43","917951","0.0-10.0-2.0","116","1","2025-07-02 10:19:50","80fe4187154257d5fb01684ea91b68b9","105.245.56.248","Mozilla/5.0 (Windows NT 10.0; Win64; x64) AppleWebKit/537.36 (KHTML, like Gecko) Chrome/138.0.0.0 Safari/537.36","WebKit","Chrome","138.0.0.0","Windows","10.0","https://app.prolific.com/","en-US,en;q=0.9","61464f886a630e8cf0fb4bb1","683db6dfa200031b80f2a654","6865076104d427e878393954","61464f886a630e8cf0fb4bb1","2025-07-02T10:35:11.580Z","","","","","","ControlQ","","","","","","","","","","","","","","","","","","","","","","","","","","","","","","","","","","","","","","50"
"6063","","<div style=""width:500px;"">
  <p>How would you describe your current emotional state?</p>
  </div>","100","html-slider-response","44","924015","0.0-10.0-3.0","116","1","2025-07-02 10:19:50","80fe4187154257d5fb01684ea91b68b9","105.245.56.248","Mozilla/5.0 (Windows NT 10.0; Win64; x64) AppleWebKit/537.36 (KHTML, like Gecko) Chrome/138.0.0.0 Safari/537.36","WebKit","Chrome","138.0.0.0","Windows","10.0","https://app.prolific.com/","en-US,en;q=0.9","61464f886a630e8cf0fb4bb1","683db6dfa200031b80f2a654","6865076104d427e878393954","61464f886a630e8cf0fb4bb1","2025-07-02T10:35:17.644Z","","","","","","StressQ","","","","","","","","","","","","","","","","","","","","","","","","","","","","","","","","","","","","","","50"
"4199","","<div style=""width:500px;"">
  <p>What best describes how you currently feel?</p>
  </div>","100","html-slider-response","45","928215","0.0-10.0-4.0","116","1","2025-07-02 10:19:50","80fe4187154257d5fb01684ea91b68b9","105.245.56.248","Mozilla/5.0 (Windows NT 10.0; Win64; x64) AppleWebKit/537.36 (KHTML, like Gecko) Chrome/138.0.0.0 Safari/537.36","WebKit","Chrome","138.0.0.0","Windows","10.0","https://app.prolific.com/","en-US,en;q=0.9","61464f886a630e8cf0fb4bb1","683db6dfa200031b80f2a654","6865076104d427e878393954","61464f886a630e8cf0fb4bb1","2025-07-02T10:35:21.843Z","","","","","","MotivationQ","","","","","","","","","","","","","","","","","","","","","","","","","","","","","","","","","","","","","","50"
"","","","","ctl-task-cpt","46","961454","0.0-10.0-0.1","116","1","2025-07-02 10:19:50","80fe4187154257d5fb01684ea91b68b9","105.245.56.248","Mozilla/5.0 (Windows NT 10.0; Win64; x64) AppleWebKit/537.36 (KHTML, like Gecko) Chrome/138.0.0.0 Safari/537.36","WebKit","Chrome","138.0.0.0","Windows","10.0","https://app.prolific.com/","en-US,en;q=0.9","61464f886a630e8cf0fb4bb1","683db6dfa200031b80f2a654","6865076104d427e878393954","61464f886a630e8cf0fb4bb1","2025-07-02T10:35:55.082Z","","","","","","","","","","","","","","","","win-only","2","g1:SE,g2:NW","0.9","2","0","931970","2013.5","7016","30221.2","1","4","8","6","2","-8","-9","0","0","0","5002.5","3000","-2995","[""left"",""up""]","{""num_key_presses"":7,""num_perfect"":5,""num_errors"":1,""num_randdir"":1,""num_randdir_good_moves"":1,""num_whilered"":0,""num_whileblue"":1,""num_blue"":1,""num_good_moves"":6}","[228.03973214285713,228.44598214285713,0.2,228.03973214285713,228.44598214285713,105.3,228.03973214285713,228.44598214285713,207.9,228.03973214285713,228.44598214285713,315.3,228.03973214285713,228.44598214285713,415.9,228.03973214285713,228.44598214285713,517.2,228.03973214285713,228.44598214285713,617.2,228.03973214285713,228.44598214285713,717.5,228.03973214285713,228.44598214285713,823,228.03973214285713,228.44598214285713,931,228.03973214285713,228.44598214285713,1032.1,228.03973214285713,228.44598214285713,1132.2,228.03973214285713,228.44598214285713,1233.8,228.03973214285713,228.44598214285713,1336.9,209.03973214285713,188.44598214285713,1437.5,179.03973214285713,117.44598214285713,1546.7,172.03973214285713,97.44598214285713,1649.2,171.03973214285713,95.44598214285713,1752.1,171.03973214285713,95.44598214285713,1862.6,171.03973214285713,95.44598214285713,1967.1,189.03973214285713,92.44598214285713,2071.8,214.03973214285713,91.44598214285713,2171.8,232.03973214285713,91.44598214285713,2272.1,249.03973214285713,91.44598214285713,2373.1,265.03973214285713,131.44598214285713,2479.5,275.03973214285713,195.44598214285713,2579.8,275.03973214285713,225.44598214285713,2680.9,273.03973214285713,261.44598214285713,2781.9,273.03973214285713,263.44598214285713,2882.7,273.03973214285713,263.44598214285713,2988,273.03973214285713,266.44598214285713,3095,273.03973214285713,266.44598214285713,3196,273.03973214285713,266.44598214285713,3296,273.03973214285713,266.44598214285713,3397.4,273.03973214285713,266.44598214285713,3503.3,273.03973214285713,266.44598214285713,3607,273.03973214285713,266.44598214285713,3711.7,273.03973214285713,266.44598214285713,3812.9,273.03973214285713,266.44598214285713,3913,273.03973214285713,266.44598214285713,4013,273.03973214285713,266.44598214285713,4116.8,273.03973214285713,266.44598214285713,4216.8,273.03973214285713,266.44598214285713,4316.8,273.03973214285713,266.44598214285713,4417.7,273.03973214285713,266.44598214285713,4518,273.03973214285713,266.44598214285713,4623.3,273.03973214285713,266.44598214285713,4726.9,273.03973214285713,266.44598214285713,4827.5,273.03973214285713,266.44598214285713,4928]","[1587.3,1587.3,1000,0,587.3,""smooth"",""left"",""left"",""good_move"",5503.1,3915.4,3458.6,1587.7,456.8,""smooth"",""left"",""left"",""good_move"",8387.4,2884.1,2300.1,5503.3,584,""smooth"",""left"",""left"",""good_move"",11297.5,2909.9,2484.5,8387.6,425.4,""oops"",""up"",""up"",""good_move"",14438.5,3140.8,2741.3,11297.7,399.5,""smooth"",""up"",""up"",""good_move"",17235.9,2797.2,2385.6,14438.8,411.6,""while_blue"",""up"",""down"",""bad_move"",20175.6,2939.4,2529.8,17236.2,409.6,""smooth"",""up"",""up"",""good_move""]","",""
"4928","","<div style=""width:500px;"">
  <p>What determined the result of this run?</p>
  </div>","81","html-slider-response","47","966384","0.0-10.0-1.1","116","1","2025-07-02 10:19:50","80fe4187154257d5fb01684ea91b68b9","105.245.56.248","Mozilla/5.0 (Windows NT 10.0; Win64; x64) AppleWebKit/537.36 (KHTML, like Gecko) Chrome/138.0.0.0 Safari/537.36","WebKit","Chrome","138.0.0.0","Windows","10.0","https://app.prolific.com/","en-US,en;q=0.9","61464f886a630e8cf0fb4bb1","683db6dfa200031b80f2a654","6865076104d427e878393954","61464f886a630e8cf0fb4bb1","2025-07-02T10:36:00.012Z","","","","","","AttribQ","","","","","","","","","","","","","","","","","","","","","","","","","","","","","","","","","","","","","","50"
"3871","","<div style=""width:500px;"">
  <p>How much control did you have over the ball?</p>
  </div>","100","html-slider-response","48","970255","0.0-10.0-2.1","116","1","2025-07-02 10:19:50","80fe4187154257d5fb01684ea91b68b9","105.245.56.248","Mozilla/5.0 (Windows NT 10.0; Win64; x64) AppleWebKit/537.36 (KHTML, like Gecko) Chrome/138.0.0.0 Safari/537.36","WebKit","Chrome","138.0.0.0","Windows","10.0","https://app.prolific.com/","en-US,en;q=0.9","61464f886a630e8cf0fb4bb1","683db6dfa200031b80f2a654","6865076104d427e878393954","61464f886a630e8cf0fb4bb1","2025-07-02T10:36:03.884Z","","","","","","ControlQ","","","","","","","","","","","","","","","","","","","","","","","","","","","","","","","","","","","","","","50"
"4735","","<div style=""width:500px;"">
  <p>How would you describe your current emotional state?</p>
  </div>","100","html-slider-response","49","974991","0.0-10.0-3.1","116","1","2025-07-02 10:19:50","80fe4187154257d5fb01684ea91b68b9","105.245.56.248","Mozilla/5.0 (Windows NT 10.0; Win64; x64) AppleWebKit/537.36 (KHTML, like Gecko) Chrome/138.0.0.0 Safari/537.36","WebKit","Chrome","138.0.0.0","Windows","10.0","https://app.prolific.com/","en-US,en;q=0.9","61464f886a630e8cf0fb4bb1","683db6dfa200031b80f2a654","6865076104d427e878393954","61464f886a630e8cf0fb4bb1","2025-07-02T10:36:08.619Z","","","","","","StressQ","","","","","","","","","","","","","","","","","","","","","","","","","","","","","","","","","","","","","","50"
"4129","","<div style=""width:500px;"">
  <p>What best describes how you currently feel?</p>
  </div>","100","html-slider-response","50","979121","0.0-10.0-4.1","116","1","2025-07-02 10:19:50","80fe4187154257d5fb01684ea91b68b9","105.245.56.248","Mozilla/5.0 (Windows NT 10.0; Win64; x64) AppleWebKit/537.36 (KHTML, like Gecko) Chrome/138.0.0.0 Safari/537.36","WebKit","Chrome","138.0.0.0","Windows","10.0","https://app.prolific.com/","en-US,en;q=0.9","61464f886a630e8cf0fb4bb1","683db6dfa200031b80f2a654","6865076104d427e878393954","61464f886a630e8cf0fb4bb1","2025-07-02T10:36:12.749Z","","","","","","MotivationQ","","","","","","","","","","","","","","","","","","","","","","","","","","","","","","","","","","","","","","50"
"","","","","ctl-task-cpt","51","1000103","0.0-10.0-0.2","116","1","2025-07-02 10:19:50","80fe4187154257d5fb01684ea91b68b9","105.245.56.248","Mozilla/5.0 (Windows NT 10.0; Win64; x64) AppleWebKit/537.36 (KHTML, like Gecko) Chrome/138.0.0.0 Safari/537.36","WebKit","Chrome","138.0.0.0","Windows","10.0","https://app.prolific.com/","en-US,en;q=0.9","61464f886a630e8cf0fb4bb1","683db6dfa200031b80f2a654","6865076104d427e878393954","61464f886a630e8cf0fb4bb1","2025-07-02T10:36:33.731Z","","","","","","","","","","","","","","","","win-only","0","g1:NW,g2:SE","0.8","3","0","982875.4","1340.4","6346.7","17975.4","1","4","8","6","1","1","1","1","0","0.007575757575757576","5006.3","3000","890","[""left"",""up""]","{""num_key_presses"":4,""num_perfect"":4,""num_errors"":0,""num_randdir"":0,""num_randdir_good_moves"":0,""num_whilered"":0,""num_whileblue"":0,""num_blue"":0,""num_good_moves"":4}","[234.03973214285713,232.44598214285713,0.2,234.03973214285713,232.44598214285713,100.5,234.03973214285713,232.44598214285713,205.6,234.03973214285713,232.44598214285713,311.4,234.03973214285713,232.44598214285713,411.6,234.03973214285713,232.44598214285713,515.5,234.03973214285713,232.44598214285713,615.7,234.03973214285713,232.44598214285713,720,234.03973214285713,232.44598214285713,820.1,234.03973214285713,231.44598214285713,920.2,234.03973214285713,231.44598214285713,1020.6,234.03973214285713,231.44598214285713,1127.1,234.03973214285713,231.44598214285713,1230.6,234.03973214285713,231.44598214285713,1330.9,234.03973214285713,231.44598214285713,1430.9,234.03973214285713,231.44598214285713,1534.9,234.03973214285713,231.44598214285713,1635.1,234.03973214285713,231.44598214285713,1735.3,234.03973214285713,231.44598214285713,1835.3,234.03973214285713,231.44598214285713,1942.3,234.03973214285713,231.44598214285713,2042.5,234.03973214285713,231.44598214285713,2145.5,234.03973214285713,231.44598214285713,2246.4,234.03973214285713,231.44598214285713,2349.9,234.03973214285713,231.44598214285713,2450.7,234.03973214285713,231.44598214285713,2558.6,234.03973214285713,231.44598214285713,2658.7,231.03973214285713,231.44598214285713,2760.4,231.03973214285713,231.44598214285713,2865.8,231.03973214285713,231.44598214285713,2974.8,231.03973214285713,231.44598214285713,3075,231.03973214285713,231.44598214285713,3179.9,230.03973214285713,231.44598214285713,3280.4,230.03973214285713,231.44598214285713,3390.3,230.03973214285713,231.44598214285713,3495.3,230.03973214285713,231.44598214285713,3596.1,230.03973214285713,231.44598214285713,3699.8,230.03973214285713,231.44598214285713,3800.3,230.03973214285713,231.44598214285713,3907.1,230.03973214285713,231.44598214285713,4010.1,230.03973214285713,231.44598214285713,4115.8,230.03973214285713,231.44598214285713,4215.9,230.03973214285713,231.44598214285713,4323.2,230.03973214285713,231.44598214285713,4427,230.03973214285713,231.44598214285713,4530.3,230.03973214285713,231.44598214285713,4630.8,230.03973214285713,231.44598214285713,4734.8,215.03973214285713,217.44598214285713,4839.7,213.03973214285713,216.44598214285713,4939.7]","[1687.2,1687.2,1000,0,687.2,""smooth"",""left"",""left"",""good_move"",5243.2,3555.7,3080.6,1687.5,475.2,""smooth"",""left"",""left"",""good_move"",8522,3278.5,2699.2,5243.5,579.3,""smooth"",""up"",""up"",""good_move"",11527.6,3005.2,2376.2,8522.4,629,""smooth"",""up"",""up"",""good_move""]","",""
"2807","","<div style=""width:500px;"">
  <p>What determined the result of this run?</p>
  </div>","98","html-slider-response","52","1002911","0.0-10.0-1.2","116","1","2025-07-02 10:19:50","80fe4187154257d5fb01684ea91b68b9","105.245.56.248","Mozilla/5.0 (Windows NT 10.0; Win64; x64) AppleWebKit/537.36 (KHTML, like Gecko) Chrome/138.0.0.0 Safari/537.36","WebKit","Chrome","138.0.0.0","Windows","10.0","https://app.prolific.com/","en-US,en;q=0.9","61464f886a630e8cf0fb4bb1","683db6dfa200031b80f2a654","6865076104d427e878393954","61464f886a630e8cf0fb4bb1","2025-07-02T10:36:36.539Z","","","","","","AttribQ","","","","","","","","","","","","","","","","","","","","","","","","","","","","","","","","","","","","","","50"
"2543","","<div style=""width:500px;"">
  <p>How much control did you have over the ball?</p>
  </div>","100","html-slider-response","53","1005455","0.0-10.0-2.2","116","1","2025-07-02 10:19:50","80fe4187154257d5fb01684ea91b68b9","105.245.56.248","Mozilla/5.0 (Windows NT 10.0; Win64; x64) AppleWebKit/537.36 (KHTML, like Gecko) Chrome/138.0.0.0 Safari/537.36","WebKit","Chrome","138.0.0.0","Windows","10.0","https://app.prolific.com/","en-US,en;q=0.9","61464f886a630e8cf0fb4bb1","683db6dfa200031b80f2a654","6865076104d427e878393954","61464f886a630e8cf0fb4bb1","2025-07-02T10:36:39.083Z","","","","","","ControlQ","","","","","","","","","","","","","","","","","","","","","","","","","","","","","","","","","","","","","","50"
"3223","","<div style=""width:500px;"">
  <p>How would you describe your current emotional state?</p>
  </div>","8","html-slider-response","54","1008679","0.0-10.0-3.2","116","1","2025-07-02 10:19:50","80fe4187154257d5fb01684ea91b68b9","105.245.56.248","Mozilla/5.0 (Windows NT 10.0; Win64; x64) AppleWebKit/537.36 (KHTML, like Gecko) Chrome/138.0.0.0 Safari/537.36","WebKit","Chrome","138.0.0.0","Windows","10.0","https://app.prolific.com/","en-US,en;q=0.9","61464f886a630e8cf0fb4bb1","683db6dfa200031b80f2a654","6865076104d427e878393954","61464f886a630e8cf0fb4bb1","2025-07-02T10:36:42.307Z","","","","","","StressQ","","","","","","","","","","","","","","","","","","","","","","","","","","","","","","","","","","","","","","50"
"4431","","<div style=""width:500px;"">
  <p>What best describes how you currently feel?</p>
  </div>","100","html-slider-response","55","1013111","0.0-10.0-4.2","116","1","2025-07-02 10:19:50","80fe4187154257d5fb01684ea91b68b9","105.245.56.248","Mozilla/5.0 (Windows NT 10.0; Win64; x64) AppleWebKit/537.36 (KHTML, like Gecko) Chrome/138.0.0.0 Safari/537.36","WebKit","Chrome","138.0.0.0","Windows","10.0","https://app.prolific.com/","en-US,en;q=0.9","61464f886a630e8cf0fb4bb1","683db6dfa200031b80f2a654","6865076104d427e878393954","61464f886a630e8cf0fb4bb1","2025-07-02T10:36:46.739Z","","","","","","MotivationQ","","","","","","","","","","","","","","","","","","","","","","","","","","","","","","","","","","","","","","50"
"","","","","ctl-task-cpt","56","1029725","0.0-10.0-0.3","116","1","2025-07-02 10:19:50","80fe4187154257d5fb01684ea91b68b9","105.245.56.248","Mozilla/5.0 (Windows NT 10.0; Win64; x64) AppleWebKit/537.36 (KHTML, like Gecko) Chrome/138.0.0.0 Safari/537.36","WebKit","Chrome","138.0.0.0","Windows","10.0","https://app.prolific.com/","en-US,en;q=0.9","61464f886a630e8cf0fb4bb1","683db6dfa200031b80f2a654","6865076104d427e878393954","61464f886a630e8cf0fb4bb1","2025-07-02T10:37:03.353Z","","","","","","","","","","","","","","","","win-only","3","g1:SW,g2:NE","0.7","4","0","1016865.2","1423.5","6426.7","13595.2","1","4","4","6","1","-1","-1","0","1","0","5003.2","3000","-2720","[""down"",""left""]","{""num_key_presses"":1,""num_perfect"":0,""num_errors"":0,""num_randdir"":1,""num_randdir_good_moves"":0,""num_whilered"":0,""num_whileblue"":0,""num_blue"":0,""num_good_moves"":0}","[234.03973214285713,233.44598214285713,0.2,234.03973214285713,233.44598214285713,101.5,234.03973214285713,233.44598214285713,202.7,234.03973214285713,232.44598214285713,307.1,234.03973214285713,232.44598214285713,407.3,234.03973214285713,232.44598214285713,507.7,234.03973214285713,232.44598214285713,617.4,234.03973214285713,232.44598214285713,717.4,234.03973214285713,232.44598214285713,823,234.03973214285713,232.44598214285713,923.4,234.03973214285713,232.44598214285713,1033.6,234.03973214285713,232.44598214285713,1133.8,234.03973214285713,232.44598214285713,1236.8,234.03973214285713,232.44598214285713,1337.5,234.03973214285713,232.44598214285713,1437.9,234.03973214285713,232.44598214285713,1541.9,234.03973214285713,232.44598214285713,1642.1,234.03973214285713,232.44598214285713,1749.3,234.03973214285713,232.44598214285713,1849.5,234.03973214285713,232.44598214285713,1951.8,234.03973214285713,232.44598214285713,2052.5,234.03973214285713,232.44598214285713,2152.7,234.03973214285713,232.44598214285713,2257.5,234.03973214285713,232.44598214285713,2365.7,234.03973214285713,232.44598214285713,2467.2,234.03973214285713,232.44598214285713,2573.1,234.03973214285713,232.44598214285713,2681.6,234.03973214285713,232.44598214285713,2781.8,234.03973214285713,232.44598214285713,2887.9,234.03973214285713,232.44598214285713,2992.1,234.03973214285713,232.44598214285713,3097.8,234.03973214285713,232.44598214285713,3202.4,234.03973214285713,232.44598214285713,3302.6,234.03973214285713,232.44598214285713,3408.1,234.03973214285713,232.44598214285713,3514.1,234.03973214285713,232.44598214285713,3617.7,234.03973214285713,232.44598214285713,3723.1,234.03973214285713,232.44598214285713,3831,233.03973214285713,232.44598214285713,3932.1,233.03973214285713,235.44598214285713,4032.9,233.03973214285713,243.44598214285713,4137.3,233.03973214285713,246.44598214285713,4246.8,233.03973214285713,247.44598214285713,4352.7,233.03973214285713,252.44598214285713,4457.2,231.03973214285713,259.44598214285713,4557.4,231.03973214285713,263.44598214285713,4663.2,229.03973214285713,271.44598214285713,4767,229.03973214285713,271.44598214285713,4867.6,229.03973214285713,271.44598214285713,4973.1]","[4028.2,4028.2,1000,0,3028.2,""oops"",""left"",""right"",""bad_move""]","",""
"4089","","<div style=""width:500px;"">
  <p>What determined the result of this run?</p>
  </div>","0","html-slider-response","57","1033815","0.0-10.0-1.3","116","1","2025-07-02 10:19:50","80fe4187154257d5fb01684ea91b68b9","105.245.56.248","Mozilla/5.0 (Windows NT 10.0; Win64; x64) AppleWebKit/537.36 (KHTML, like Gecko) Chrome/138.0.0.0 Safari/537.36","WebKit","Chrome","138.0.0.0","Windows","10.0","https://app.prolific.com/","en-US,en;q=0.9","61464f886a630e8cf0fb4bb1","683db6dfa200031b80f2a654","6865076104d427e878393954","61464f886a630e8cf0fb4bb1","2025-07-02T10:37:07.443Z","","","","","","AttribQ","","","","","","","","","","","","","","","","","","","","","","","","","","","","","","","","","","","","","","50"
"2047","","<div style=""width:500px;"">
  <p>How much control did you have over the ball?</p>
  </div>","81","html-slider-response","58","1035864","0.0-10.0-2.3","116","1","2025-07-02 10:19:50","80fe4187154257d5fb01684ea91b68b9","105.245.56.248","Mozilla/5.0 (Windows NT 10.0; Win64; x64) AppleWebKit/537.36 (KHTML, like Gecko) Chrome/138.0.0.0 Safari/537.36","WebKit","Chrome","138.0.0.0","Windows","10.0","https://app.prolific.com/","en-US,en;q=0.9","61464f886a630e8cf0fb4bb1","683db6dfa200031b80f2a654","6865076104d427e878393954","61464f886a630e8cf0fb4bb1","2025-07-02T10:37:09.492Z","","","","","","ControlQ","","","","","","","","","","","","","","","","","","","","","","","","","","","","","","","","","","","","","","50"
"2687","","<div style=""width:500px;"">
  <p>How would you describe your current emotional state?</p>
  </div>","100","html-slider-response","59","1038551","0.0-10.0-3.3","116","1","2025-07-02 10:19:50","80fe4187154257d5fb01684ea91b68b9","105.245.56.248","Mozilla/5.0 (Windows NT 10.0; Win64; x64) AppleWebKit/537.36 (KHTML, like Gecko) Chrome/138.0.0.0 Safari/537.36","WebKit","Chrome","138.0.0.0","Windows","10.0","https://app.prolific.com/","en-US,en;q=0.9","61464f886a630e8cf0fb4bb1","683db6dfa200031b80f2a654","6865076104d427e878393954","61464f886a630e8cf0fb4bb1","2025-07-02T10:37:12.179Z","","","","","","StressQ","","","","","","","","","","","","","","","","","","","","","","","","","","","","","","","","","","","","","","50"
"2503","","<div style=""width:500px;"">
  <p>What best describes how you currently feel?</p>
  </div>","61","html-slider-response","60","1041055","0.0-10.0-4.3","116","1","2025-07-02 10:19:50","80fe4187154257d5fb01684ea91b68b9","105.245.56.248","Mozilla/5.0 (Windows NT 10.0; Win64; x64) AppleWebKit/537.36 (KHTML, like Gecko) Chrome/138.0.0.0 Safari/537.36","WebKit","Chrome","138.0.0.0","Windows","10.0","https://app.prolific.com/","en-US,en;q=0.9","61464f886a630e8cf0fb4bb1","683db6dfa200031b80f2a654","6865076104d427e878393954","61464f886a630e8cf0fb4bb1","2025-07-02T10:37:14.683Z","","","","","","MotivationQ","","","","","","","","","","","","","","","","","","","","","","","","","","","","","","","","","","","","","","50"
"","","","","ctl-task-cpt","61","1083562","0.0-10.0-0.4","116","1","2025-07-02 10:19:50","80fe4187154257d5fb01684ea91b68b9","105.245.56.248","Mozilla/5.0 (Windows NT 10.0; Win64; x64) AppleWebKit/537.36 (KHTML, like Gecko) Chrome/138.0.0.0 Safari/537.36","WebKit","Chrome","138.0.0.0","Windows","10.0","https://app.prolific.com/","en-US,en;q=0.9","61464f886a630e8cf0fb4bb1","683db6dfa200031b80f2a654","6865076104d427e878393954","61464f886a630e8cf0fb4bb1","2025-07-02T10:37:57.190Z","","","","","","","","","","","","","","","","win-only","2","g1:SE,g2:NW","0.6","5","0","1044809","974.2","5979.1","39501.1","1","4","4","6","2","4","2","2","0","0.015151515151515152","5004.9","3000","25","[""left"",""up""]","{""num_key_presses"":10,""num_perfect"":6,""num_errors"":2,""num_randdir"":2,""num_randdir_good_moves"":1,""num_whilered"":0,""num_whileblue"":0,""num_blue"":2,""num_good_moves"":7}","[229.03973214285713,230.44598214285713,0.2,229.03973214285713,230.44598214285713,101.6,229.03973214285713,230.44598214285713,201.9,229.03973214285713,230.44598214285713,312.5,229.03973214285713,230.44598214285713,416.3,229.03973214285713,230.44598214285713,516.6,229.03973214285713,230.44598214285713,616.8,229.03973214285713,230.44598214285713,725.9,229.03973214285713,230.44598214285713,825.9,229.03973214285713,230.44598214285713,926.1,229.03973214285713,230.44598214285713,1031.4,229.03973214285713,230.44598214285713,1131.5,229.03973214285713,230.44598214285713,1231.7,229.03973214285713,230.44598214285713,1341.8,229.03973214285713,230.44598214285713,1446.2,229.03973214285713,230.44598214285713,1546.8,229.03973214285713,230.44598214285713,1651.3,229.03973214285713,230.44598214285713,1751.6,229.03973214285713,230.44598214285713,1851.8,229.03973214285713,230.44598214285713,1959,229.03973214285713,230.44598214285713,2062,229.03973214285713,230.44598214285713,2166.7,229.03973214285713,230.44598214285713,2274.2,229.03973214285713,230.44598214285713,2374.3,229.03973214285713,230.44598214285713,2476.9,229.03973214285713,230.44598214285713,2576.9,229.03973214285713,230.44598214285713,2681.9,229.03973214285713,230.44598214285713,2790.2,229.03973214285713,230.44598214285713,2891.3,229.03973214285713,230.44598214285713,2991.8,229.03973214285713,230.44598214285713,3097.2,229.03973214285713,230.44598214285713,3206.9,229.03973214285713,230.44598214285713,3311,229.03973214285713,230.44598214285713,3412.2,229.03973214285713,230.44598214285713,3517.2,229.03973214285713,230.44598214285713,3623.8,231.03973214285713,229.44598214285713,3726.3,246.03973214285713,242.44598214285713,3826.4,257.03973214285713,246.44598214285713,3926.5,264.03973214285713,250.44598214285713,4032.8,270.03973214285713,265.44598214285713,4139.2,271.03973214285713,271.44598214285713,4239.9,271.03973214285713,272.44598214285713,4341.3,285.03973214285713,276.44598214285713,4441.7,328.03973214285713,279.44598214285713,4547.1,333.03973214285713,278.44598214285713,4647.1,333.03973214285713,278.44598214285713,4754.6,333.03973214285713,278.44598214285713,4854.8,333.03973214285713,278.44598214285713,4954.8]","[864.6,864.6,1000,0,-135.4,""error"",""-"",""-"",""no_move"",8405.7,7540.9,2583.6,5366.9,455.2,""smooth"",""left"",""left"",""good_move"",11887.6,3481.5,3009.5,8406.1,472,""oops"",""left"",""down"",""bad_move"",18029.9,6142,2770.3,14900.7,358.9,""smooth"",""left"",""left"",""good_move"",21611.2,3581.1,3166.9,18030.1,414.2,""smooth"",""left"",""left"",""good_move"",23839.4,2228,1749.4,21611.4,478.6,""smooth"",""up"",""up"",""good_move"",24706.9,867.2,2537.2,23839.7,-1670,""error"",""-"",""-"",""no_move"",27943.3,3236.3,1806.2,25711.9,425.2,""smooth"",""up"",""up"",""good_move"",30988.1,3044.7,2670.4,27943.4,374.3,""smooth"",""up"",""up"",""good_move"",33428.3,2440.2,2031.3,30988.2,408.9,""oops"",""up"",""up"",""good_move""]","",""
"3085","","<div style=""width:500px;"">
  <p>What determined the result of this run?</p>
  </div>","67","html-slider-response","62","1086647","0.0-10.0-1.4","116","1","2025-07-02 10:19:50","80fe4187154257d5fb01684ea91b68b9","105.245.56.248","Mozilla/5.0 (Windows NT 10.0; Win64; x64) AppleWebKit/537.36 (KHTML, like Gecko) Chrome/138.0.0.0 Safari/537.36","WebKit","Chrome","138.0.0.0","Windows","10.0","https://app.prolific.com/","en-US,en;q=0.9","61464f886a630e8cf0fb4bb1","683db6dfa200031b80f2a654","6865076104d427e878393954","61464f886a630e8cf0fb4bb1","2025-07-02T10:38:00.275Z","","","","","","AttribQ","","","","","","","","","","","","","","","","","","","","","","","","","","","","","","","","","","","","","","50"
"1791","","<div style=""width:500px;"">
  <p>How much control did you have over the ball?</p>
  </div>","66","html-slider-response","63","1088439","0.0-10.0-2.4","116","1","2025-07-02 10:19:50","80fe4187154257d5fb01684ea91b68b9","105.245.56.248","Mozilla/5.0 (Windows NT 10.0; Win64; x64) AppleWebKit/537.36 (KHTML, like Gecko) Chrome/138.0.0.0 Safari/537.36","WebKit","Chrome","138.0.0.0","Windows","10.0","https://app.prolific.com/","en-US,en;q=0.9","61464f886a630e8cf0fb4bb1","683db6dfa200031b80f2a654","6865076104d427e878393954","61464f886a630e8cf0fb4bb1","2025-07-02T10:38:02.067Z","","","","","","ControlQ","","","","","","","","","","","","","","","","","","","","","","","","","","","","","","","","","","","","","","50"
"1967","","<div style=""width:500px;"">
  <p>How would you describe your current emotional state?</p>
  </div>","64","html-slider-response","64","1090407","0.0-10.0-3.4","116","1","2025-07-02 10:19:50","80fe4187154257d5fb01684ea91b68b9","105.245.56.248","Mozilla/5.0 (Windows NT 10.0; Win64; x64) AppleWebKit/537.36 (KHTML, like Gecko) Chrome/138.0.0.0 Safari/537.36","WebKit","Chrome","138.0.0.0","Windows","10.0","https://app.prolific.com/","en-US,en;q=0.9","61464f886a630e8cf0fb4bb1","683db6dfa200031b80f2a654","6865076104d427e878393954","61464f886a630e8cf0fb4bb1","2025-07-02T10:38:04.035Z","","","","","","StressQ","","","","","","","","","","","","","","","","","","","","","","","","","","","","","","","","","","","","","","50"
"1535","","<div style=""width:500px;"">
  <p>What best describes how you currently feel?</p>
  </div>","65","html-slider-response","65","1091943","0.0-10.0-4.4","116","1","2025-07-02 10:19:50","80fe4187154257d5fb01684ea91b68b9","105.245.56.248","Mozilla/5.0 (Windows NT 10.0; Win64; x64) AppleWebKit/537.36 (KHTML, like Gecko) Chrome/138.0.0.0 Safari/537.36","WebKit","Chrome","138.0.0.0","Windows","10.0","https://app.prolific.com/","en-US,en;q=0.9","61464f886a630e8cf0fb4bb1","683db6dfa200031b80f2a654","6865076104d427e878393954","61464f886a630e8cf0fb4bb1","2025-07-02T10:38:05.571Z","","","","","","MotivationQ","","","","","","","","","","","","","","","","","","","","","","","","","","","","","","","","","","","","","","50"
"","","","","ctl-task-cpt","66","1121870","0.0-10.0-0.5","116","1","2025-07-02 10:19:50","80fe4187154257d5fb01684ea91b68b9","105.245.56.248","Mozilla/5.0 (Windows NT 10.0; Win64; x64) AppleWebKit/537.36 (KHTML, like Gecko) Chrome/138.0.0.0 Safari/537.36","WebKit","Chrome","138.0.0.0","Windows","10.0","https://app.prolific.com/","en-US,en;q=0.9","61464f886a630e8cf0fb4bb1","683db6dfa200031b80f2a654","6865076104d427e878393954","61464f886a630e8cf0fb4bb1","2025-07-02T10:38:35.498Z","","","","","","","","","","","","","","","","win-only","3","g1:SW,g2:NE","0.5","6","0","1095697","1230.7","6235.7","26915.3","1","4","8","6","1","-1","-2","0","2","0","5005","3000","-2680","[""down"",""left""]","{""num_key_presses"":7,""num_perfect"":3,""num_errors"":1,""num_randdir"":3,""num_randdir_good_moves"":1,""num_whilered"":0,""num_whileblue"":1,""num_blue"":1,""num_good_moves"":4}","[228.03973214285713,230.44598214285713,0.1,228.03973214285713,230.44598214285713,109.9,227.03973214285713,230.44598214285713,210.2,227.03973214285713,230.44598214285713,314.4,227.03973214285713,230.44598214285713,414.9,227.03973214285713,230.44598214285713,518.2,227.03973214285713,230.44598214285713,620,227.03973214285713,230.44598214285713,725.5,227.03973214285713,230.44598214285713,829.8,227.03973214285713,230.44598214285713,935,227.03973214285713,230.44598214285713,1035.6,227.03973214285713,231.44598214285713,1141.8,227.03973214285713,231.44598214285713,1243,227.03973214285713,231.44598214285713,1344.4,227.03973214285713,231.44598214285713,1444.9,227.03973214285713,231.44598214285713,1550.1,227.03973214285713,231.44598214285713,1658.7,226.03973214285713,231.44598214285713,1758.8,226.03973214285713,231.44598214285713,1859.6,226.03973214285713,231.44598214285713,1960.5,226.03973214285713,231.44598214285713,2064.5,226.03973214285713,231.44598214285713,2164.5,226.03973214285713,231.44598214285713,2264.5,226.03973214285713,231.44598214285713,2365.3,226.03973214285713,231.44598214285713,2474.7,226.03973214285713,233.44598214285713,2579.4,215.03973214285713,248.44598214285713,2679.8,202.03973214285713,256.44598214285713,2790.6,198.03973214285713,258.44598214285713,2894.8,198.03973214285713,258.44598214285713,2994.9,198.03973214285713,258.44598214285713,3096.4,198.03973214285713,258.44598214285713,3200.2,198.03973214285713,258.44598214285713,3300.4,198.03973214285713,258.44598214285713,3407.3,198.03973214285713,258.44598214285713,3509.4,198.03973214285713,258.44598214285713,3610,198.03973214285713,258.44598214285713,3710,198.03973214285713,258.44598214285713,3810.1,198.03973214285713,258.44598214285713,3915.1,196.03973214285713,258.44598214285713,4024,196.03973214285713,258.44598214285713,4125.5,196.03973214285713,258.44598214285713,4229.5,196.03973214285713,258.44598214285713,4329.7,196.03973214285713,258.44598214285713,4430.5,194.03973214285713,259.44598214285713,4539.2,194.03973214285713,259.44598214285713,4640,194.03973214285713,259.44598214285713,4740.3,194.03973214285713,259.44598214285713,4840.3,194.03973214285713,259.44598214285713,4944.7]","[1481,1481,1000,0,481,""oops"",""down"",""left"",""good_move"",4784.7,3303.3,2806.1,1481.4,497.3,""smooth"",""down"",""down"",""good_move"",7361.1,2575.8,2039.1,4785.3,536.7,""oops"",""down"",""up"",""bad_move"",10055.3,2693.9,1812.5,7361.5,881.4,""oops"",""down"",""up"",""bad_move"",12401.6,2345.9,1846.2,10055.7,499.7,""smooth"",""left"",""left"",""good_move"",15265.8,2863.9,2487.9,12401.9,376,""smooth"",""down"",""down"",""good_move"",17881.9,2615.8,2249.4,15266.1,366.4,""while_blue"",""down"",""right"",""bad_move""]","",""
"2984","","<div style=""width:500px;"">
  <p>What determined the result of this run?</p>
  </div>","0","html-slider-response","67","1124855","0.0-10.0-1.5","116","1","2025-07-02 10:19:50","80fe4187154257d5fb01684ea91b68b9","105.245.56.248","Mozilla/5.0 (Windows NT 10.0; Win64; x64) AppleWebKit/537.36 (KHTML, like Gecko) Chrome/138.0.0.0 Safari/537.36","WebKit","Chrome","138.0.0.0","Windows","10.0","https://app.prolific.com/","en-US,en;q=0.9","61464f886a630e8cf0fb4bb1","683db6dfa200031b80f2a654","6865076104d427e878393954","61464f886a630e8cf0fb4bb1","2025-07-02T10:38:38.483Z","","","","","","AttribQ","","","","","","","","","","","","","","","","","","","","","","","","","","","","","","","","","","","","","","50"
"3743","","<div style=""width:500px;"">
  <p>How much control did you have over the ball?</p>
  </div>","0","html-slider-response","68","1128599","0.0-10.0-2.5","116","1","2025-07-02 10:19:50","80fe4187154257d5fb01684ea91b68b9","105.245.56.248","Mozilla/5.0 (Windows NT 10.0; Win64; x64) AppleWebKit/537.36 (KHTML, like Gecko) Chrome/138.0.0.0 Safari/537.36","WebKit","Chrome","138.0.0.0","Windows","10.0","https://app.prolific.com/","en-US,en;q=0.9","61464f886a630e8cf0fb4bb1","683db6dfa200031b80f2a654","6865076104d427e878393954","61464f886a630e8cf0fb4bb1","2025-07-02T10:38:42.227Z","","","","","","ControlQ","","","","","","","","","","","","","","","","","","","","","","","","","","","","","","","","","","","","","","50"
"2519","","<div style=""width:500px;"">
  <p>How would you describe your current emotional state?</p>
  </div>","100","html-slider-response","69","1131119","0.0-10.0-3.5","116","1","2025-07-02 10:19:50","80fe4187154257d5fb01684ea91b68b9","105.245.56.248","Mozilla/5.0 (Windows NT 10.0; Win64; x64) AppleWebKit/537.36 (KHTML, like Gecko) Chrome/138.0.0.0 Safari/537.36","WebKit","Chrome","138.0.0.0","Windows","10.0","https://app.prolific.com/","en-US,en;q=0.9","61464f886a630e8cf0fb4bb1","683db6dfa200031b80f2a654","6865076104d427e878393954","61464f886a630e8cf0fb4bb1","2025-07-02T10:38:44.747Z","","","","","","StressQ","","","","","","","","","","","","","","","","","","","","","","","","","","","","","","","","","","","","","","50"
"2528","","<div style=""width:500px;"">
  <p>What best describes how you currently feel?</p>
  </div>","0","html-slider-response","70","1133648","0.0-10.0-4.5","116","1","2025-07-02 10:19:50","80fe4187154257d5fb01684ea91b68b9","105.245.56.248","Mozilla/5.0 (Windows NT 10.0; Win64; x64) AppleWebKit/537.36 (KHTML, like Gecko) Chrome/138.0.0.0 Safari/537.36","WebKit","Chrome","138.0.0.0","Windows","10.0","https://app.prolific.com/","en-US,en;q=0.9","61464f886a630e8cf0fb4bb1","683db6dfa200031b80f2a654","6865076104d427e878393954","61464f886a630e8cf0fb4bb1","2025-07-02T10:38:47.276Z","","","","","","MotivationQ","","","","","","","","","","","","","","","","","","","","","","","","","","","","","","","","","","","","","","50"
"","","","","ctl-task-cpt","71","1174751","0.0-10.0-0.6","116","1","2025-07-02 10:19:50","80fe4187154257d5fb01684ea91b68b9","105.245.56.248","Mozilla/5.0 (Windows NT 10.0; Win64; x64) AppleWebKit/537.36 (KHTML, like Gecko) Chrome/138.0.0.0 Safari/537.36","WebKit","Chrome","138.0.0.0","Windows","10.0","https://app.prolific.com/","en-US,en;q=0.9","61464f886a630e8cf0fb4bb1","683db6dfa200031b80f2a654","6865076104d427e878393954","61464f886a630e8cf0fb4bb1","2025-07-02T10:39:28.379Z","","","","","","","","","","","","","","","","win-only","2","g1:SE,g2:NW","0.4","7","0","1137401.7","8502.1","13506.7","38084.8","1","4","8","6","1","-1","-1","0","0","0","5004.6","3000","-2650","[""down"",""right""]","{""num_key_presses"":6,""num_perfect"":2,""num_errors"":0,""num_randdir"":4,""num_randdir_good_moves"":1,""num_whilered"":0,""num_whileblue"":0,""num_blue"":1,""num_good_moves"":3}","[230.03973214285713,230.44598214285713,0.1,230.03973214285713,230.44598214285713,103.1,230.03973214285713,230.44598214285713,203.7,230.03973214285713,230.44598214285713,309.4,230.03973214285713,230.44598214285713,413.3,230.03973214285713,230.44598214285713,513.6,230.03973214285713,230.44598214285713,618.5,230.03973214285713,238.44598214285713,718.6,227.03973214285713,245.44598214285713,819.3,227.03973214285713,248.44598214285713,924,227.03973214285713,248.44598214285713,1030.9,227.03973214285713,248.44598214285713,1133.2,227.03973214285713,248.44598214285713,1233.5,225.03973214285713,249.44598214285713,1333.6,224.03973214285713,249.44598214285713,1438.5,222.03973214285713,251.44598214285713,1538.6,222.03973214285713,251.44598214285713,1638.6,222.03973214285713,252.44598214285713,1745.8,222.03973214285713,252.44598214285713,1848.3,222.03973214285713,252.44598214285713,1953.9,222.03973214285713,252.44598214285713,2061.8,222.03973214285713,252.44598214285713,2162.5,222.03973214285713,252.44598214285713,2263.8,222.03973214285713,251.44598214285713,2368.3,222.03973214285713,251.44598214285713,2469.3,226.03973214285713,249.44598214285713,2574.8,229.03973214285713,249.44598214285713,2677.9,234.03973214285713,258.44598214285713,2778,235.03973214285713,259.44598214285713,2878.2,241.03973214285713,260.44598214285713,2978.4,248.03973214285713,262.44598214285713,3079.8,250.03973214285713,263.44598214285713,3183.9,250.03973214285713,263.44598214285713,3283.9,251.03973214285713,264.44598214285713,3384,251.03973214285713,264.44598214285713,3488.3,251.03973214285713,264.44598214285713,3592.9,251.03973214285713,264.44598214285713,3693.5,251.03973214285713,264.44598214285713,3798.9,251.03973214285713,264.44598214285713,3910.2,251.03973214285713,264.44598214285713,4014.4,251.03973214285713,264.44598214285713,4118.6,251.03973214285713,264.44598214285713,4228.6,251.03973214285713,264.44598214285713,4333.6,251.03973214285713,264.44598214285713,4434.3,251.03973214285713,264.44598214285713,4542.9,251.03973214285713,264.44598214285713,4648.8,251.03973214285713,264.44598214285713,4753.5,251.03973214285713,264.44598214285713,4853.7,251.03973214285713,264.44598214285713,4959.6]","[1566.7,1566.7,1000,0,566.7,""oops"",""down"",""down"",""good_move"",8145,6577.9,2410.8,5334.1,400.1,""oops"",""down"",""left"",""bad_move"",11533.4,3388.2,2397.3,8145.2,990.9,""smooth"",""down"",""down"",""good_move"",15004.7,3471,3048.8,11533.7,422.2,""smooth"",""right"",""right"",""good_move"",18288.4,3283.3,2852.1,15005.1,431.2,""oops"",""right"",""up"",""bad_move"",21483.1,3194.5,2708.8,18288.7,485.7,""oops"",""down"",""left"",""bad_move""]","",""
"3224","","<div style=""width:500px;"">
  <p>What determined the result of this run?</p>
  </div>","0","html-slider-response","72","1177975","0.0-10.0-1.6","116","1","2025-07-02 10:19:50","80fe4187154257d5fb01684ea91b68b9","105.245.56.248","Mozilla/5.0 (Windows NT 10.0; Win64; x64) AppleWebKit/537.36 (KHTML, like Gecko) Chrome/138.0.0.0 Safari/537.36","WebKit","Chrome","138.0.0.0","Windows","10.0","https://app.prolific.com/","en-US,en;q=0.9","61464f886a630e8cf0fb4bb1","683db6dfa200031b80f2a654","6865076104d427e878393954","61464f886a630e8cf0fb4bb1","2025-07-02T10:39:31.603Z","","","","","","AttribQ","","","","","","","","","","","","","","","","","","","","","","","","","","","","","","","","","","","","","","50"
"3016","","<div style=""width:500px;"">
  <p>How much control did you have over the ball?</p>
  </div>","0","html-slider-response","73","1180992","0.0-10.0-2.6","116","1","2025-07-02 10:19:50","80fe4187154257d5fb01684ea91b68b9","105.245.56.248","Mozilla/5.0 (Windows NT 10.0; Win64; x64) AppleWebKit/537.36 (KHTML, like Gecko) Chrome/138.0.0.0 Safari/537.36","WebKit","Chrome","138.0.0.0","Windows","10.0","https://app.prolific.com/","en-US,en;q=0.9","61464f886a630e8cf0fb4bb1","683db6dfa200031b80f2a654","6865076104d427e878393954","61464f886a630e8cf0fb4bb1","2025-07-02T10:39:34.620Z","","","","","","ControlQ","","","","","","","","","","","","","","","","","","","","","","","","","","","","","","","","","","","","","","50"
"2494","","<div style=""width:500px;"">
  <p>How would you describe your current emotional state?</p>
  </div>","100","html-slider-response","74","1183487","0.0-10.0-3.6","116","1","2025-07-02 10:19:50","80fe4187154257d5fb01684ea91b68b9","105.245.56.248","Mozilla/5.0 (Windows NT 10.0; Win64; x64) AppleWebKit/537.36 (KHTML, like Gecko) Chrome/138.0.0.0 Safari/537.36","WebKit","Chrome","138.0.0.0","Windows","10.0","https://app.prolific.com/","en-US,en;q=0.9","61464f886a630e8cf0fb4bb1","683db6dfa200031b80f2a654","6865076104d427e878393954","61464f886a630e8cf0fb4bb1","2025-07-02T10:39:37.115Z","","","","","","StressQ","","","","","","","","","","","","","","","","","","","","","","","","","","","","","","","","","","","","","","50"
"3183","","<div style=""width:500px;"">
  <p>What best describes how you currently feel?</p>
  </div>","0","html-slider-response","75","1186671","0.0-10.0-4.6","116","1","2025-07-02 10:19:50","80fe4187154257d5fb01684ea91b68b9","105.245.56.248","Mozilla/5.0 (Windows NT 10.0; Win64; x64) AppleWebKit/537.36 (KHTML, like Gecko) Chrome/138.0.0.0 Safari/537.36","WebKit","Chrome","138.0.0.0","Windows","10.0","https://app.prolific.com/","en-US,en;q=0.9","61464f886a630e8cf0fb4bb1","683db6dfa200031b80f2a654","6865076104d427e878393954","61464f886a630e8cf0fb4bb1","2025-07-02T10:39:40.299Z","","","","","","MotivationQ","","","","","","","","","","","","","","","","","","","","","","","","","","","","","","","","","","","","","","50"
"","","","","ctl-task-cpt","76","1226311","0.0-10.0-0.7","116","1","2025-07-02 10:19:50","80fe4187154257d5fb01684ea91b68b9","105.245.56.248","Mozilla/5.0 (Windows NT 10.0; Win64; x64) AppleWebKit/537.36 (KHTML, like Gecko) Chrome/138.0.0.0 Safari/537.36","WebKit","Chrome","138.0.0.0","Windows","10.0","https://app.prolific.com/","en-US,en;q=0.9","61464f886a630e8cf0fb4bb1","683db6dfa200031b80f2a654","6865076104d427e878393954","61464f886a630e8cf0fb4bb1","2025-07-02T10:40:19.939Z","","","","","","","","","","","","","","","","win-only","3","g1:SW,g2:NE","0.3","8","0","1190425.1","1324","6325.9","36621.6","1","4","4","6","2","-4","-7","0","0","0","5001.9","3000","-2610","[""up"",""right""]","{""num_key_presses"":12,""num_perfect"":1,""num_errors"":3,""num_randdir"":5,""num_randdir_good_moves"":1,""num_whilered"":3,""num_whileblue"":1,""num_blue"":2,""num_good_moves"":3}","[226.03973214285713,231.44598214285713,0.2,226.03973214285713,231.44598214285713,102.5,226.03973214285713,231.44598214285713,206.9,226.03973214285713,231.44598214285713,311.6,226.03973214285713,231.44598214285713,412.1,223.03973214285713,238.44598214285713,513.9,222.03973214285713,239.44598214285713,619.4,219.03973214285713,246.44598214285713,721.8,216.03973214285713,253.44598214285713,822.4,213.03973214285713,260.44598214285713,934.6,213.03973214285713,260.44598214285713,1036.9,213.03973214285713,260.44598214285713,1142.3,212.03973214285713,261.44598214285713,1251.1,212.03973214285713,261.44598214285713,1351.1,212.03973214285713,261.44598214285713,1451.2,212.03973214285713,261.44598214285713,1557.6,212.03973214285713,261.44598214285713,1667.6,212.03973214285713,261.44598214285713,1771.9,211.03973214285713,262.44598214285713,1872.3,211.03973214285713,262.44598214285713,1977.4,211.03973214285713,262.44598214285713,2084.1,211.03973214285713,262.44598214285713,2187.5,211.03973214285713,262.44598214285713,2292.7,211.03973214285713,262.44598214285713,2400.1,211.03973214285713,262.44598214285713,2502.3,211.03973214285713,262.44598214285713,2602.5,211.03973214285713,262.44598214285713,2707.1,211.03973214285713,262.44598214285713,2815.8,211.03973214285713,262.44598214285713,2917.2,211.03973214285713,262.44598214285713,3017.3,211.03973214285713,262.44598214285713,3121.3,210.03973214285713,263.44598214285713,3222.5,208.03973214285713,263.44598214285713,3331.2,207.03973214285713,264.44598214285713,3431.8,207.03973214285713,266.44598214285713,3532.1,207.03973214285713,266.44598214285713,3637.1,207.03973214285713,266.44598214285713,3737.3,207.03973214285713,266.44598214285713,3842,207.03973214285713,266.44598214285713,3948.5,207.03973214285713,266.44598214285713,4051.4,207.03973214285713,266.44598214285713,4157.1,207.03973214285713,266.44598214285713,4263.8,207.03973214285713,266.44598214285713,4367.6,207.03973214285713,266.44598214285713,4471.5,207.03973214285713,266.44598214285713,4580.3,207.03973214285713,266.44598214285713,4681.4,207.03973214285713,266.44598214285713,4784.6,207.03973214285713,266.44598214285713,4887.2,207.03973214285713,266.44598214285713,4996.9]","[1591.1,1591.1,1000,0,591.1,""oops"",""right"",""up"",""good_move"",4575.5,2984,2540.6,1591.5,443.4,""smooth"",""up"",""up"",""good_move"",7468.3,2892.6,2201.9,4575.7,690.7,""oops"",""up"",""down"",""bad_move"",10223.5,2754.8,2348.4,7468.8,406.3,""while_blue"",""up"",""up"",""good_move"",13461.1,3237.4,2736.8,10223.7,500.6,""oops"",""up"",""left"",""bad_move"",20487.4,7026,2879.1,17159.6,448.7,""oops"",""up"",""left"",""bad_move"",22917.7,2429.9,1951.7,20487.9,478.1,""oops"",""up"",""down"",""bad_move"",23964.6,1046.2,2329.3,22918.4,-1283.1,""error"",""-"",""-"",""no_move"",27234.8,3269.8,2575.6,24967.3,-308.1,""error"",""-"",""-"",""no_move"",27498.4,263.4,2575.6,24967.3,-44.5,""while_red"",""-"",""-"",""no_move"",27719.5,484.5,2575.6,24967.3,176.6,""while_red"",""-"",""-"",""no_move"",28200.9,965.9,2575.6,24967.3,658,""while_red"",""-"",""-"",""no_move""]","",""
"4568","","<div style=""width:500px;"">
  <p>What determined the result of this run?</p>
  </div>","0","html-slider-response","77","1230880","0.0-10.0-1.7","116","1","2025-07-02 10:19:50","80fe4187154257d5fb01684ea91b68b9","105.245.56.248","Mozilla/5.0 (Windows NT 10.0; Win64; x64) AppleWebKit/537.36 (KHTML, like Gecko) Chrome/138.0.0.0 Safari/537.36","WebKit","Chrome","138.0.0.0","Windows","10.0","https://app.prolific.com/","en-US,en;q=0.9","61464f886a630e8cf0fb4bb1","683db6dfa200031b80f2a654","6865076104d427e878393954","61464f886a630e8cf0fb4bb1","2025-07-02T10:40:24.508Z","","","","","","AttribQ","","","","","","","","","","","","","","","","","","","","","","","","","","","","","","","","","","","","","","50"
"9094","","<div style=""width:500px;"">
  <p>How much control did you have over the ball?</p>
  </div>","0","html-slider-response","78","1239975","0.0-10.0-2.7","116","1","2025-07-02 10:19:50","80fe4187154257d5fb01684ea91b68b9","105.245.56.248","Mozilla/5.0 (Windows NT 10.0; Win64; x64) AppleWebKit/537.36 (KHTML, like Gecko) Chrome/138.0.0.0 Safari/537.36","WebKit","Chrome","138.0.0.0","Windows","10.0","https://app.prolific.com/","en-US,en;q=0.9","61464f886a630e8cf0fb4bb1","683db6dfa200031b80f2a654","6865076104d427e878393954","61464f886a630e8cf0fb4bb1","2025-07-02T10:40:33.604Z","","","","","","ControlQ","","","","","","","","","","","","","","","","","","","","","","","","","","","","","","","","","","","","","","50"
"2503","","<div style=""width:500px;"">
  <p>How would you describe your current emotional state?</p>
  </div>","100","html-slider-response","79","1242480","0.0-10.0-3.7","116","1","2025-07-02 10:19:50","80fe4187154257d5fb01684ea91b68b9","105.245.56.248","Mozilla/5.0 (Windows NT 10.0; Win64; x64) AppleWebKit/537.36 (KHTML, like Gecko) Chrome/138.0.0.0 Safari/537.36","WebKit","Chrome","138.0.0.0","Windows","10.0","https://app.prolific.com/","en-US,en;q=0.9","61464f886a630e8cf0fb4bb1","683db6dfa200031b80f2a654","6865076104d427e878393954","61464f886a630e8cf0fb4bb1","2025-07-02T10:40:36.108Z","","","","","","StressQ","","","","","","","","","","","","","","","","","","","","","","","","","","","","","","","","","","","","","","50"
"3182","","<div style=""width:500px;"">
  <p>What best describes how you currently feel?</p>
  </div>","5","html-slider-response","80","1245663","0.0-10.0-4.7","116","1","2025-07-02 10:19:50","80fe4187154257d5fb01684ea91b68b9","105.245.56.248","Mozilla/5.0 (Windows NT 10.0; Win64; x64) AppleWebKit/537.36 (KHTML, like Gecko) Chrome/138.0.0.0 Safari/537.36","WebKit","Chrome","138.0.0.0","Windows","10.0","https://app.prolific.com/","en-US,en;q=0.9","61464f886a630e8cf0fb4bb1","683db6dfa200031b80f2a654","6865076104d427e878393954","61464f886a630e8cf0fb4bb1","2025-07-02T10:40:39.292Z","","","","","","MotivationQ","","","","","","","","","","","","","","","","","","","","","","","","","","","","","","","","","","","","","","50"
"","","","","ctl-task-cpt","81","1273440","0.0-10.0-0.8","116","1","2025-07-02 10:19:50","80fe4187154257d5fb01684ea91b68b9","105.245.56.248","Mozilla/5.0 (Windows NT 10.0; Win64; x64) AppleWebKit/537.36 (KHTML, like Gecko) Chrome/138.0.0.0 Safari/537.36","WebKit","Chrome","138.0.0.0","Windows","10.0","https://app.prolific.com/","en-US,en;q=0.9","61464f886a630e8cf0fb4bb1","683db6dfa200031b80f2a654","6865076104d427e878393954","61464f886a630e8cf0fb4bb1","2025-07-02T10:41:07.068Z","","","","","","","","","","","","","","","","win-only","0","g1:NW,g2:SE","0.4","9","0","1249417.7","1318.4","6321.2","24772","1","4","4","6","1","-1","-1","0","0","0","5002.8","3000","-2490","[""left"",""up""]","{""num_key_presses"":4,""num_perfect"":2,""num_errors"":0,""num_randdir"":2,""num_randdir_good_moves"":1,""num_whilered"":0,""num_whileblue"":0,""num_blue"":1,""num_good_moves"":3}","[232.03973214285713,230.44598214285713,0.3,232.03973214285713,230.44598214285713,102,232.03973214285713,230.44598214285713,202.7,232.03973214285713,230.44598214285713,307.4,226.03973214285713,234.44598214285713,412,226.03973214285713,234.44598214285713,512.4,226.03973214285713,234.44598214285713,617.3,226.03973214285713,233.44598214285713,717.3,229.03973214285713,232.44598214285713,817.9,229.03973214285713,232.44598214285713,922.4,229.03973214285713,232.44598214285713,1022.6,229.03973214285713,232.44598214285713,1122.9,229.03973214285713,232.44598214285713,1230.4,229.03973214285713,232.44598214285713,1330.5,229.03973214285713,232.44598214285713,1431.6,229.03973214285713,232.44598214285713,1532.5,229.03973214285713,232.44598214285713,1632.6,229.03973214285713,232.44598214285713,1732.7,229.03973214285713,232.44598214285713,1832.9,229.03973214285713,232.44598214285713,1937.6,229.03973214285713,232.44598214285713,2037.6,229.03973214285713,232.44598214285713,2142.1,229.03973214285713,232.44598214285713,2242.4,229.03973214285713,232.44598214285713,2342.6,229.03973214285713,232.44598214285713,2447.5,229.03973214285713,232.44598214285713,2552,229.03973214285713,232.44598214285713,2652.5,229.03973214285713,232.44598214285713,2758.3,229.03973214285713,232.44598214285713,2865.6,229.03973214285713,232.44598214285713,2967.6,229.03973214285713,232.44598214285713,3072.6,229.03973214285713,232.44598214285713,3177.2,229.03973214285713,232.44598214285713,3280.4,229.03973214285713,232.44598214285713,3382.4,229.03973214285713,232.44598214285713,3487,229.03973214285713,232.44598214285713,3588.9,227.03973214285713,193.44598214285713,3696.8,207.03973214285713,144.44598214285713,3797.9,197.03973214285713,135.44598214285713,3902.1,192.03973214285713,143.44598214285713,4009,186.03973214285713,170.44598214285713,4113.3,189.03973214285713,205.44598214285713,4216.9,264.03973214285713,272.44598214285713,4317.2,369.03973214285713,374.44598214285713,4422.7,378.03973214285713,383.44598214285713,4530.2,385.03973214285713,395.44598214285713,4630.8,401.03973214285713,399.44598214285713,4732.8,407.03973214285713,400.44598214285713,4832.8,371.03973214285713,384.44598214285713,4937.6]","[2139.6,2139.6,1000,0,1139.6,""oops"",""left"",""down"",""bad_move"",8531.1,6391,2289.8,5739.7,501.6,""smooth"",""left"",""left"",""good_move"",11669.9,3138.4,2535.6,8531.5,602.8,""oops"",""left"",""up"",""good_move"",15113.1,3442.8,3018.1,11670.3,424.7,""smooth"",""left"",""left"",""good_move""]","",""
"3310","","<div style=""width:500px;"">
  <p>What determined the result of this run?</p>
  </div>","1","html-slider-response","82","1276752","0.0-10.0-1.8","116","1","2025-07-02 10:19:50","80fe4187154257d5fb01684ea91b68b9","105.245.56.248","Mozilla/5.0 (Windows NT 10.0; Win64; x64) AppleWebKit/537.36 (KHTML, like Gecko) Chrome/138.0.0.0 Safari/537.36","WebKit","Chrome","138.0.0.0","Windows","10.0","https://app.prolific.com/","en-US,en;q=0.9","61464f886a630e8cf0fb4bb1","683db6dfa200031b80f2a654","6865076104d427e878393954","61464f886a630e8cf0fb4bb1","2025-07-02T10:41:10.380Z","","","","","","AttribQ","","","","","","","","","","","","","","","","","","","","","","","","","","","","","","","","","","","","","","50"
"3022","","<div style=""width:500px;"">
  <p>How much control did you have over the ball?</p>
  </div>","2","html-slider-response","83","1279775","0.0-10.0-2.8","116","1","2025-07-02 10:19:50","80fe4187154257d5fb01684ea91b68b9","105.245.56.248","Mozilla/5.0 (Windows NT 10.0; Win64; x64) AppleWebKit/537.36 (KHTML, like Gecko) Chrome/138.0.0.0 Safari/537.36","WebKit","Chrome","138.0.0.0","Windows","10.0","https://app.prolific.com/","en-US,en;q=0.9","61464f886a630e8cf0fb4bb1","683db6dfa200031b80f2a654","6865076104d427e878393954","61464f886a630e8cf0fb4bb1","2025-07-02T10:41:13.403Z","","","","","","ControlQ","","","","","","","","","","","","","","","","","","","","","","","","","","","","","","","","","","","","","","50"
"2439","","<div style=""width:500px;"">
  <p>How would you describe your current emotional state?</p>
  </div>","100","html-slider-response","84","1282215","0.0-10.0-3.8","116","1","2025-07-02 10:19:50","80fe4187154257d5fb01684ea91b68b9","105.245.56.248","Mozilla/5.0 (Windows NT 10.0; Win64; x64) AppleWebKit/537.36 (KHTML, like Gecko) Chrome/138.0.0.0 Safari/537.36","WebKit","Chrome","138.0.0.0","Windows","10.0","https://app.prolific.com/","en-US,en;q=0.9","61464f886a630e8cf0fb4bb1","683db6dfa200031b80f2a654","6865076104d427e878393954","61464f886a630e8cf0fb4bb1","2025-07-02T10:41:15.844Z","","","","","","StressQ","","","","","","","","","","","","","","","","","","","","","","","","","","","","","","","","","","","","","","50"
"2151","","<div style=""width:500px;"">
  <p>What best describes how you currently feel?</p>
  </div>","41","html-slider-response","85","1284368","0.0-10.0-4.8","116","1","2025-07-02 10:19:50","80fe4187154257d5fb01684ea91b68b9","105.245.56.248","Mozilla/5.0 (Windows NT 10.0; Win64; x64) AppleWebKit/537.36 (KHTML, like Gecko) Chrome/138.0.0.0 Safari/537.36","WebKit","Chrome","138.0.0.0","Windows","10.0","https://app.prolific.com/","en-US,en;q=0.9","61464f886a630e8cf0fb4bb1","683db6dfa200031b80f2a654","6865076104d427e878393954","61464f886a630e8cf0fb4bb1","2025-07-02T10:41:17.996Z","","","","","","MotivationQ","","","","","","","","","","","","","","","","","","","","","","","","","","","","","","","","","","","","","","50"
"","","","","ctl-task-cpt","86","1318276","0.0-10.0-0.9","116","1","2025-07-02 10:19:50","80fe4187154257d5fb01684ea91b68b9","105.245.56.248","Mozilla/5.0 (Windows NT 10.0; Win64; x64) AppleWebKit/537.36 (KHTML, like Gecko) Chrome/138.0.0.0 Safari/537.36","WebKit","Chrome","138.0.0.0","Windows","10.0","https://app.prolific.com/","en-US,en;q=0.9","61464f886a630e8cf0fb4bb1","683db6dfa200031b80f2a654","6865076104d427e878393954","61464f886a630e8cf0fb4bb1","2025-07-02T10:41:51.904Z","","","","","","","","","","","","","","","","win-only","2","g1:SE,g2:NW","0.5","10","0","1288121.7","1141.6","6146.4","30880.7","1","4","8","6","1","1","1","1","0","0.007575757575757576","1032.1","3000","130","[""down"",""right""]","{""num_key_presses"":8,""num_perfect"":5,""num_errors"":0,""num_randdir"":3,""num_randdir_good_moves"":1,""num_whilered"":0,""num_whileblue"":0,""num_blue"":1,""num_good_moves"":6}","[226.03973214285713,231.44598214285713,0.2,226.03973214285713,231.44598214285713,100.1,226.03973214285713,231.44598214285713,204.5,226.03973214285713,231.44598214285713,305,226.03973214285713,231.44598214285713,410.1,226.03973214285713,231.44598214285713,510.4,312.03973214285713,311.44598214285713,611.4,394.03973214285713,422.44598214285713,714.9,402.03973214285713,429.44598214285713,817.1,416.03973214285713,432.44598214285713,919.1,436.03973214285713,432.44598214285713,1020.1,437.03973214285713,432.44598214285713,1124.9,437.03973214285713,432.44598214285713,1231.6,437.03973214285713,432.44598214285713,1335.2,437.03973214285713,432.44598214285713,1435.2,437.03973214285713,432.44598214285713,1538.9,406.03973214285713,408.44598214285713,1639.8,365.03973214285713,365.44598214285713,1748.6,336.03973214285713,335.44598214285713,1850.2,334.03973214285713,292.44598214285713,1954.7,337.03973214285713,284.44598214285713,2054.7,337.03973214285713,284.44598214285713,2164.7,337.03973214285713,284.44598214285713,2265.3,337.03973214285713,284.44598214285713,2369.6,337.03973214285713,284.44598214285713,2469.6,337.03973214285713,284.44598214285713,2579.4,337.03973214285713,284.44598214285713,2679.6,337.03973214285713,284.44598214285713,2779.8,337.03973214285713,284.44598214285713,2883.9,337.03973214285713,284.44598214285713,2985.5,337.03973214285713,284.44598214285713,3090.1,337.03973214285713,284.44598214285713,3194.3,337.03973214285713,284.44598214285713,3295.2,337.03973214285713,284.44598214285713,3395.2,337.03973214285713,284.44598214285713,3499.7,337.03973214285713,284.44598214285713,3611.2,337.03973214285713,284.44598214285713,3712,337.03973214285713,284.44598214285713,3814.1,337.03973214285713,284.44598214285713,3928,337.03973214285713,284.44598214285713,4031.5,337.03973214285713,284.44598214285713,4135.6,338.03973214285713,285.44598214285713,4240.2,337.03973214285713,291.44598214285713,4343.8,334.03973214285713,294.44598214285713,4444.1,328.03973214285713,298.44598214285713,4544.5,325.03973214285713,299.44598214285713,4644.6,320.03973214285713,302.44598214285713,4748.7,294.03973214285713,315.44598214285713,4848.8,235.03973214285713,341.44598214285713,4949.8]","[1584.1,1584.1,1000,0,584.1,""oops"",""right"",""up"",""bad_move"",4505.5,2920.9,2393.7,1584.6,527.2,""smooth"",""right"",""right"",""good_move"",7579.4,3073.5,2619.3,4505.9,454.2,""smooth"",""right"",""right"",""good_move"",10676.4,3096.7,2712.2,7579.7,384.5,""smooth"",""down"",""down"",""good_move"",13487.6,2810.8,2295,10676.8,515.8,""oops"",""down"",""up"",""bad_move"",19797.8,6309.8,2871.1,16558.8,367.9,""smooth"",""down"",""down"",""good_move"",22044.9,2246.7,1765,19798.2,481.7,""smooth"",""down"",""down"",""good_move"",24626.8,2581.7,2260.6,22045.1,321.1,""oops"",""down"",""down"",""good_move""]","",""
"3077","","<div style=""width:500px;"">
  <p>What determined the result of this run?</p>
