"rt","response_timestamp","stimulus","response","trial_type","trial_index","time_elapsed","internal_node_id","run_id","condition","recorded_at","source_code_version","ip","user_agent","device","browser","browser_version","platform","platform_version","referer","accept_language","PROLIFIC_PID","STUDY_ID","SESSION_ID","prolific_id","realtime","view_history","question_order","consent","success","question_id","eventType","responses","item_order","radio_event_ids","radio_event_times","key_event_times","mouse_event_times","straightlining","zigzagging","honeypot","which_type","canvas_config","goals_layout","control_level","trial_number","tutorial_trial_number","trial_start_time","phase1_start_time","phase2_start_time","phase3_start_time","goal_1_value","goal_1_distance","goal_2_value","goal_2_distance","goal_selected","outcome","outcome_total","participant_final_score","participant_initial_score","participant_final_score_prop","goal_choice_rt","allocated_time","allocated_time_remaining","goal_direction","counts","mouse_movements","key_presses","correct","slider_start"
"9248","1751451562871","<p style='font-size:40px;line-height:1.25'><strong>Welcome to the experiment!</strong></p><p style='font-size:1.1em;line-height:1.25'>Thank you for your interest in our experiment! Before you begin, it is important that we obtain your informed consent to participate in the study.</p><p style='font-size:1.1em;line-height:1.25'>On the next screen will be an <strong>information sheet</strong> for you to read. To participate in the study we need you to read this information sheet and the following consent form carefully. If you agree with all the statements, please click the <strong>I agree</strong> button.</p><p style='font-size:1.1em;line-height:1.25'>Press <strong>Next</strong> to read the information sheet.</p>","0","custom-html-button-response","0","9251","0.0-0.0","87","1","2025-07-02 10:19:10","80fe4187154257d5fb01684ea91b68b9","85.72.175.84","Mozilla/5.0 (Windows NT 10.0; Win64; x64) AppleWebKit/537.36 (KHTML, like Gecko) Chrome/137.0.0.0 Safari/537.36","WebKit","Chrome","137.0.0.0","Windows","10.0","https://app.prolific.com/","en-GB,en;q=0.9,bg-BG;q=0.8,bg;q=0.7,en-US;q=0.6","615d8873c11a1982c8838b54","683db6dfa200031b80f2a654","686507804f65d03560461a84","615d8873c11a1982c8838b54","2025-07-02T10:19:22.872Z","","","","","","","","","","","","","","","","","","","","","","","","","","","","","","","","","","","","","","","","","","","",""
"248125","","","","instructions","1","257377","0.0-1.0","87","1","2025-07-02 10:19:10","80fe4187154257d5fb01684ea91b68b9","85.72.175.84","Mozilla/5.0 (Windows NT 10.0; Win64; x64) AppleWebKit/537.36 (KHTML, like Gecko) Chrome/137.0.0.0 Safari/537.36","WebKit","Chrome","137.0.0.0","Windows","10.0","https://app.prolific.com/","en-GB,en;q=0.9,bg-BG;q=0.8,bg;q=0.7,en-US;q=0.6","615d8873c11a1982c8838b54","683db6dfa200031b80f2a654","686507804f65d03560461a84","615d8873c11a1982c8838b54","","[{""page_index"":0,""viewing_time"":38096},{""page_index"":1,""viewing_time"":210028}]","","","","","","","","","","","","","","","","","","","","","","","","","","","","","","","","","","","","","","","","","","",""
"3608","","","{""Q0"":"""",""Q1"":"""",""Q2"":"""",""Q3"":"""",""Q4"":"""",""Q5"":"""",""Q6"":""I agree""}","survey-multi-choice","2","260988","0.0-2.0","87","1","2025-07-02 10:19:10","80fe4187154257d5fb01684ea91b68b9","85.72.175.84","Mozilla/5.0 (Windows NT 10.0; Win64; x64) AppleWebKit/537.36 (KHTML, like Gecko) Chrome/137.0.0.0 Safari/537.36","WebKit","Chrome","137.0.0.0","Windows","10.0","https://app.prolific.com/","en-GB,en;q=0.9,bg-BG;q=0.8,bg;q=0.7,en-US;q=0.6","615d8873c11a1982c8838b54","683db6dfa200031b80f2a654","686507804f65d03560461a84","615d8873c11a1982c8838b54","","","[0,1,2,3,4,5,6]","true","","","","","","","","","","","","","","","","","","","","","","","","","","","","","","","","","","","","","","","","",""
"29909","","","","fullscreen","3","291900","0.0-4.0","87","1","2025-07-02 10:19:10","80fe4187154257d5fb01684ea91b68b9","85.72.175.84","Mozilla/5.0 (Windows NT 10.0; Win64; x64) AppleWebKit/537.36 (KHTML, like Gecko) Chrome/137.0.0.0 Safari/537.36","WebKit","Chrome","137.0.0.0","Windows","10.0","https://app.prolific.com/","en-GB,en;q=0.9,bg-BG;q=0.8,bg;q=0.7,en-US;q=0.6","615d8873c11a1982c8838b54","683db6dfa200031b80f2a654","686507804f65d03560461a84","615d8873c11a1982c8838b54","","","","","true","","","","","","","","","","","","","","","","","","","","","","","","","","","","","","","","","","","","","","","",""
"4303","1751451849826"," <p style='font-size:1.1em;line-height:1.25'>Thank you for completing the consent form and closing all other tabs.</p><p style='font-size:1.1em;line-height:1.25'>We will now invite you to fill in some demographic information and questionnaires, before starting the game.<br>This will take about 5 minutes.<br></p><p style='font-size:1.1em;line-height:1.25'>Press the <strong>Next</strong> button to continue.</p>","0","custom-html-button-response","4","296205","0.0-5.0","87","1","2025-07-02 10:19:10","80fe4187154257d5fb01684ea91b68b9","85.72.175.84","Mozilla/5.0 (Windows NT 10.0; Win64; x64) AppleWebKit/537.36 (KHTML, like Gecko) Chrome/137.0.0.0 Safari/537.36","WebKit","Chrome","137.0.0.0","Windows","10.0","https://app.prolific.com/","en-GB,en;q=0.9,bg-BG;q=0.8,bg;q=0.7,en-US;q=0.6","615d8873c11a1982c8838b54","683db6dfa200031b80f2a654","686507804f65d03560461a84","615d8873c11a1982c8838b54","2025-07-02T10:24:09.826Z","","","","","","","","","","","","","","","","","","","","","","","","","","","","","","","","","","","","","","","","","","","",""
"2946","","","{""age"":""39""}","survey-text","5","299164","0.0-6.0-0.0","87","1","2025-07-02 10:19:10","80fe4187154257d5fb01684ea91b68b9","85.72.175.84","Mozilla/5.0 (Windows NT 10.0; Win64; x64) AppleWebKit/537.36 (KHTML, like Gecko) Chrome/137.0.0.0 Safari/537.36","WebKit","Chrome","137.0.0.0","Windows","10.0","https://app.prolific.com/","en-GB,en;q=0.9,bg-BG;q=0.8,bg;q=0.7,en-US;q=0.6","615d8873c11a1982c8838b54","683db6dfa200031b80f2a654","686507804f65d03560461a84","615d8873c11a1982c8838b54","","","","","","0","demographics","","","","","","","","","","","","","","","","","","","","","","","","","","","","","","","","","","","","","",""
"2254","","","{""gender_identity"":""female/woman""}","survey-multi-choice","6","301419","0.0-6.0-1.0","87","1","2025-07-02 10:19:10","80fe4187154257d5fb01684ea91b68b9","85.72.175.84","Mozilla/5.0 (Windows NT 10.0; Win64; x64) AppleWebKit/537.36 (KHTML, like Gecko) Chrome/137.0.0.0 Safari/537.36","WebKit","Chrome","137.0.0.0","Windows","10.0","https://app.prolific.com/","en-GB,en;q=0.9,bg-BG;q=0.8,bg;q=0.7,en-US;q=0.6","615d8873c11a1982c8838b54","683db6dfa200031b80f2a654","686507804f65d03560461a84","615d8873c11a1982c8838b54","","","[0]","","","1","demographics","","","","","","","","","","","","","","","","","","","","","","","","","","","","","","","","","","","","","",""
"3517","","","{""assigned_sex"":""female""}","survey-multi-choice","7","304937","0.0-6.0-2.0","87","1","2025-07-02 10:19:10","80fe4187154257d5fb01684ea91b68b9","85.72.175.84","Mozilla/5.0 (Windows NT 10.0; Win64; x64) AppleWebKit/537.36 (KHTML, like Gecko) Chrome/137.0.0.0 Safari/537.36","WebKit","Chrome","137.0.0.0","Windows","10.0","https://app.prolific.com/","en-GB,en;q=0.9,bg-BG;q=0.8,bg;q=0.7,en-US;q=0.6","615d8873c11a1982c8838b54","683db6dfa200031b80f2a654","686507804f65d03560461a84","615d8873c11a1982c8838b54","","","[0]","","","2","demographics","","","","","","","","","","","","","","","","","","","","","","","","","","","","","","","","","","","","","",""
"5456","","","{""menstrual_cycle"":""Yes""}","survey-multi-choice","8","310395","0.0-6.0-3.0","87","1","2025-07-02 10:19:10","80fe4187154257d5fb01684ea91b68b9","85.72.175.84","Mozilla/5.0 (Windows NT 10.0; Win64; x64) AppleWebKit/537.36 (KHTML, like Gecko) Chrome/137.0.0.0 Safari/537.36","WebKit","Chrome","137.0.0.0","Windows","10.0","https://app.prolific.com/","en-GB,en;q=0.9,bg-BG;q=0.8,bg;q=0.7,en-US;q=0.6","615d8873c11a1982c8838b54","683db6dfa200031b80f2a654","686507804f65d03560461a84","615d8873c11a1982c8838b54","","","[0]","","","4","demographics","","","","","","","","","","","","","","","","","","","","","","","","","","","","","","","","","","","","","",""
"20195","","","{""education"":""Master's Degree (e.g., MSc)""}","survey-multi-choice","9","330591","0.0-6.0-4.0","87","1","2025-07-02 10:19:10","80fe4187154257d5fb01684ea91b68b9","85.72.175.84","Mozilla/5.0 (Windows NT 10.0; Win64; x64) AppleWebKit/537.36 (KHTML, like Gecko) Chrome/137.0.0.0 Safari/537.36","WebKit","Chrome","137.0.0.0","Windows","10.0","https://app.prolific.com/","en-GB,en;q=0.9,bg-BG;q=0.8,bg;q=0.7,en-US;q=0.6","615d8873c11a1982c8838b54","683db6dfa200031b80f2a654","686507804f65d03560461a84","615d8873c11a1982c8838b54","","","[0]","","","5","demographics","","","","","","","","","","","","","","","","","","","","","","","","","","","","","","","","","","","","","",""
"7726","","","{""education"":""Master's Degree (e.g., MSc)""}","survey-multi-choice","10","338319","0.0-6.0-5.0","87","1","2025-07-02 10:19:10","80fe4187154257d5fb01684ea91b68b9","85.72.175.84","Mozilla/5.0 (Windows NT 10.0; Win64; x64) AppleWebKit/537.36 (KHTML, like Gecko) Chrome/137.0.0.0 Safari/537.36","WebKit","Chrome","137.0.0.0","Windows","10.0","https://app.prolific.com/","en-GB,en;q=0.9,bg-BG;q=0.8,bg;q=0.7,en-US;q=0.6","615d8873c11a1982c8838b54","683db6dfa200031b80f2a654","686507804f65d03560461a84","615d8873c11a1982c8838b54","2025-07-02T10:24:51.940Z","","[0]","","","6","demographics","","","","","","","","","","","","","","","","","","","","","","","","","","","","","","","","","","","","","",""
"16818","","","{""mental_health_condition"":""no"",""mental_health_treatment"":""no"",""psychiatric_medication"":""no""}","survey-text","11","355139","0.0-7.0-0.0","87","1","2025-07-02 10:19:10","80fe4187154257d5fb01684ea91b68b9","85.72.175.84","Mozilla/5.0 (Windows NT 10.0; Win64; x64) AppleWebKit/537.36 (KHTML, like Gecko) Chrome/137.0.0.0 Safari/537.36","WebKit","Chrome","137.0.0.0","Windows","10.0","https://app.prolific.com/","en-GB,en;q=0.9,bg-BG;q=0.8,bg;q=0.7,en-US;q=0.6","615d8873c11a1982c8838b54","683db6dfa200031b80f2a654","686507804f65d03560461a84","615d8873c11a1982c8838b54","2025-07-02T10:25:08.760Z","","","","","1","mental_health","","","","","","","","","","","","","","","","","","","","","","","","","","","","","","","","","","","","","",""
"11018","","","{""depression_history"":[""No""]}","survey-multi-select","12","366160","0.0-7.0-1.0","87","1","2025-07-02 10:19:10","80fe4187154257d5fb01684ea91b68b9","85.72.175.84","Mozilla/5.0 (Windows NT 10.0; Win64; x64) AppleWebKit/537.36 (KHTML, like Gecko) Chrome/137.0.0.0 Safari/537.36","WebKit","Chrome","137.0.0.0","Windows","10.0","https://app.prolific.com/","en-GB,en;q=0.9,bg-BG;q=0.8,bg;q=0.7,en-US;q=0.6","615d8873c11a1982c8838b54","683db6dfa200031b80f2a654","686507804f65d03560461a84","615d8873c11a1982c8838b54","","","[0]","","","","mental_health","","","","","","","","","","","","","","","","","","","","","","","","","","","","","","","","","","","","","",""
"174351.29999995232","","","","survey-template","13","540516","0.0-7.0-3.0","87","1","2025-07-02 10:19:10","80fe4187154257d5fb01684ea91b68b9","85.72.175.84","Mozilla/5.0 (Windows NT 10.0; Win64; x64) AppleWebKit/537.36 (KHTML, like Gecko) Chrome/137.0.0.0 Safari/537.36","WebKit","Chrome","137.0.0.0","Windows","10.0","https://app.prolific.com/","en-GB,en;q=0.9,bg-BG;q=0.8,bg;q=0.7,en-US;q=0.6","615d8873c11a1982c8838b54","683db6dfa200031b80f2a654","686507804f65d03560461a84","615d8873c11a1982c8838b54","2025-07-02T10:28:14.137Z","","","","","","ius","{""Q01"":""2"",""Q02"":""3"",""Q03"":""2"",""Q04"":""4"",""Q05"":""2"",""Q06"":""2"",""Q07"":""2"",""Q08"":""0"",""Q09"":""4"",""Q10"":""2"",""Q11"":""2"",""Q12"":""3"",""Q13"":""2""}","[0,1,2,3,4,5,6,7,8,9,10,11,12]","[""Q01"",""Q02"",""Q03"",""Q04"",""Q05"",""Q06"",""Q07"",""Q08"",""Q09"",""Q10"",""Q11"",""Q12"",""Q13""]","[13343.5,16688.5,21544.700000047684,27592.700000047684,40077.59999990463,44037.89999985695,50688.39999985695,54229.89999985695,60167.799999952316,64880.39999985695,68365,168676.39999985695,173532.29999995232]","[]","[13343.5,16688.5,21544.700000047684,27592.700000047684,40077.59999990463,44037.89999985695,50688.39999985695,54229.89999985695,60167.799999952316,64880.39999985695,67784.79999995232,68365,168676.39999985695,172538.79999995232,173532.29999995232,174350.20000004768]","0.6153846153846154","0.4166666666666667","0","","","","","","","","","","","","","","","","","","","","","","","","","","","","",""
"4525","1751452098662","<p style='font-size:1.1em;line-height:1.25'>In the following, we will ask you a few questions relating to your experiences over the past month.<br></p><p style='font-size:1.1em;line-height:1.25'>Press the <strong>Next</strong> button to continue.</p>","0","custom-html-button-response","14","545042","0.0-7.0-4.0","87","1","2025-07-02 10:19:10","80fe4187154257d5fb01684ea91b68b9","85.72.175.84","Mozilla/5.0 (Windows NT 10.0; Win64; x64) AppleWebKit/537.36 (KHTML, like Gecko) Chrome/137.0.0.0 Safari/537.36","WebKit","Chrome","137.0.0.0","Windows","10.0","https://app.prolific.com/","en-GB,en;q=0.9,bg-BG;q=0.8,bg;q=0.7,en-US;q=0.6","615d8873c11a1982c8838b54","683db6dfa200031b80f2a654","686507804f65d03560461a84","615d8873c11a1982c8838b54","2025-07-02T10:28:18.663Z","","","","","","","","","","","","","","","","","","","","","","","","","","","","","","","","","","","","","","","","","","","",""
"84625.80000019073","","","","survey-template","15","629671","0.0-7.0-5.0","87","1","2025-07-02 10:19:10","80fe4187154257d5fb01684ea91b68b9","85.72.175.84","Mozilla/5.0 (Windows NT 10.0; Win64; x64) AppleWebKit/537.36 (KHTML, like Gecko) Chrome/137.0.0.0 Safari/537.36","WebKit","Chrome","137.0.0.0","Windows","10.0","https://app.prolific.com/","en-GB,en;q=0.9,bg-BG;q=0.8,bg;q=0.7,en-US;q=0.6","615d8873c11a1982c8838b54","683db6dfa200031b80f2a654","686507804f65d03560461a84","615d8873c11a1982c8838b54","2025-07-02T10:29:43.292Z","","","","","","pss","{""Q01"":""2"",""Q02"":""2"",""Q03"":""2"",""Q04"":""1"",""Q05"":""1"",""Q06"":""2"",""Q07"":""2"",""Q08"":""2"",""Q09"":""2"",""Q10"":""1""}","[0,1,2,3,4,5,6,7,8,9]","[""Q01"",""Q02"",""Q03"",""Q04"",""Q05"",""Q06"",""Q07"",""Q08"",""Q09"",""Q10""]","[12590.600000143051,19178.60000014305,24824.400000095367,30732.800000190735,36328.700000047684,43053.10000014305,59499.300000190735,68208.60000014305,74944,82864]","[]","[0,12590.600000143051,19178.60000014305,24824.400000095367,30732.800000190735,36328.700000047684,43053.10000014305,59499.300000190735,68208.60000014305,74944,82864,84624.80000019073]","0.7","0.3333333333333333","0","","","","","","","","","","","","","","","","","","","","","","","","","","","","",""
"6228","1751452189522","<p style='font-size:1.1em;line-height:1.25'>Thank you for your answers! Now we will ask you a few more questions relating to your feelings in the last 24 hours.<br></p><p style='font-size:1.1em;line-height:1.25'>Press the <strong>Next</strong> button to continue.</p>","0","custom-html-button-response","16","635902","0.0-7.0-6.0","87","1","2025-07-02 10:19:10","80fe4187154257d5fb01684ea91b68b9","85.72.175.84","Mozilla/5.0 (Windows NT 10.0; Win64; x64) AppleWebKit/537.36 (KHTML, like Gecko) Chrome/137.0.0.0 Safari/537.36","WebKit","Chrome","137.0.0.0","Windows","10.0","https://app.prolific.com/","en-GB,en;q=0.9,bg-BG;q=0.8,bg;q=0.7,en-US;q=0.6","615d8873c11a1982c8838b54","683db6dfa200031b80f2a654","686507804f65d03560461a84","615d8873c11a1982c8838b54","2025-07-02T10:29:49.523Z","","","","","","","","","","","","","","","","","","","","","","","","","","","","","","","","","","","","","","","","","","","",""
"145442.20000004768","","","","survey-template","17","781348","0.0-7.0-7.0","87","1","2025-07-02 10:19:10","80fe4187154257d5fb01684ea91b68b9","85.72.175.84","Mozilla/5.0 (Windows NT 10.0; Win64; x64) AppleWebKit/537.36 (KHTML, like Gecko) Chrome/137.0.0.0 Safari/537.36","WebKit","Chrome","137.0.0.0","Windows","10.0","https://app.prolific.com/","en-GB,en;q=0.9,bg-BG;q=0.8,bg;q=0.7,en-US;q=0.6","615d8873c11a1982c8838b54","683db6dfa200031b80f2a654","686507804f65d03560461a84","615d8873c11a1982c8838b54","2025-07-02T10:32:14.969Z","","","","","","drsp","{""Q01"":""0"",""Q02"":""0"",""Q03"":""0"",""Q04"":""0"",""Q05"":""1"",""Q06"":""1"",""Q07"":""1"",""Q08"":""2"",""Q09"":""1"",""Q10"":""1"",""Q11"":""2"",""Q12"":""2"",""Q13"":""2"",""Q14"":""3"",""Q15"":""1"",""Q16"":""2"",""Q17"":""1"",""Q18"":""0"",""Q19"":""0"",""Q20"":""0"",""Q21"":""1""}","[0,1,2,3,4,5,6,7,8,9,10,11,12,13,14,15,16,17,18,19,20]","[""Q01"",""Q02"",""Q03"",""Q04"",""Q05"",""Q06"",""Q07"",""Q08"",""Q09"",""Q10"",""Q11"",""Q12"",""Q13"",""Q14"",""Q15"",""Q16"",""Q17"",""Q18"",""Q19"",""Q20"",""Q21""]","[3166.5,4767.900000095367,6264.100000143051,7822.700000047684,30657.10000014305,36116.40000009537,38336.799999952316,43553.299999952316,46746.700000047684,49326.60000014305,52077.299999952316,60154.299999952316,61897.299999952316,73071.40000009537,77897.10000014305,80007.60000014305,82757.60000014305,91811.10000014305,99065.29999995232,105297.29999995232,115610.5]","[]","[0,3166.5,4767.900000095367,6264.100000143051,7822.700000047684,30657.10000014305,36116.40000009537,38336.799999952316,43553.299999952316,46746.700000047684,49326.60000014305,52077.299999952316,60154.299999952316,61897.299999952316,73071.40000009537,77897.10000014305,80007.60000014305,82757.60000014305,91811.10000014305,98003.90000009537,99065.29999995232,105297.29999995232,115610.5,145440.40000009537]","0.38095238095238093","0.45","0","","","","","","","","","","","","","","","","","","","","","","","","","","","","",""
"15397.5","","","","survey-template","18","796748","0.0-7.0-8.0","87","1","2025-07-02 10:19:10","80fe4187154257d5fb01684ea91b68b9","85.72.175.84","Mozilla/5.0 (Windows NT 10.0; Win64; x64) AppleWebKit/537.36 (KHTML, like Gecko) Chrome/137.0.0.0 Safari/537.36","WebKit","Chrome","137.0.0.0","Windows","10.0","https://app.prolific.com/","en-GB,en;q=0.9,bg-BG;q=0.8,bg;q=0.7,en-US;q=0.6","615d8873c11a1982c8838b54","683db6dfa200031b80f2a654","686507804f65d03560461a84","615d8873c11a1982c8838b54","2025-07-02T10:32:30.369Z","","","","","","stress","{""Q01"":""1"",""Q02"":""2"",""Q03"":""0""}","[0,1,2]","[""Q01"",""Q02"",""Q03""]","[4595.200000047684,10089.399999856949,14635.899999856949]","[]","[4595.200000047684,10089.399999856949,14635.899999856949,15397]","0.3333333333333333","0","0","","","","","","","","","","","","","","","","","","","","","","","","","","","","",""
"109761","","","","instructions","19","906510","0.0-8.0-0.0","87","1","2025-07-02 10:19:10","80fe4187154257d5fb01684ea91b68b9","85.72.175.84","Mozilla/5.0 (Windows NT 10.0; Win64; x64) AppleWebKit/537.36 (KHTML, like Gecko) Chrome/137.0.0.0 Safari/537.36","WebKit","Chrome","137.0.0.0","Windows","10.0","https://app.prolific.com/","en-GB,en;q=0.9,bg-BG;q=0.8,bg;q=0.7,en-US;q=0.6","615d8873c11a1982c8838b54","683db6dfa200031b80f2a654","686507804f65d03560461a84","615d8873c11a1982c8838b54","","[{""page_index"":0,""viewing_time"":34695},{""page_index"":1,""viewing_time"":31420},{""page_index"":2,""viewing_time"":14132},{""page_index"":3,""viewing_time"":29514}]","","","","","","","","","","","","","","","","","","","","","","","","","","","","","","","","","","","","","","","","","","",""
"","","","","ctl-task-cpt","20","933925","0.0-8.0-1.0","87","1","2025-07-02 10:19:10","80fe4187154257d5fb01684ea91b68b9","85.72.175.84","Mozilla/5.0 (Windows NT 10.0; Win64; x64) AppleWebKit/537.36 (KHTML, like Gecko) Chrome/137.0.0.0 Safari/537.36","WebKit","Chrome","137.0.0.0","Windows","10.0","https://app.prolific.com/","en-GB,en;q=0.9,bg-BG;q=0.8,bg;q=0.7,en-US;q=0.6","615d8873c11a1982c8838b54","683db6dfa200031b80f2a654","686507804f65d03560461a84","615d8873c11a1982c8838b54","","","","","","","","","","","","","","","","","win-only","1","g1:NE,g2:SW","1","0","1","909489.6","5663","9666.4","24403.1","2","4","4","6","1","-2","-4","0","0","0","899.5","4000","-2665","[""up"",""right""]","{""num_key_presses"":4,""num_perfect"":2,""num_errors"":2,""num_randdir"":0,""num_randdir_good_moves"":0,""num_whilered"":0,""num_whileblue"":0,""num_blue"":0,""num_good_moves"":2}","[417.57142857142856,418.47767857142856,0.2,417.57142857142856,418.47767857142856,103.7,417.57142857142856,418.47767857142856,208,417.57142857142856,418.47767857142856,308,417.57142857142856,418.47767857142856,408,594.5714285714286,186.47767857142856,508,674.5714285714286,75.47767857142857,613.2,746.5714285714286,38.47767857142857,718.1,745.5714285714286,50.47767857142857,818.4,755.5714285714286,61.47767857142857,918.8,755.5714285714286,60.47767857142857,1018.8,753.5714285714286,62.47767857142857,1123.6,753.5714285714286,62.47767857142857,1223.6,753.5714285714286,63.47767857142857,1328,753.5714285714286,63.47767857142857,1428.1,753.5714285714286,63.47767857142857,1533.7,753.5714285714286,63.47767857142857,1633.9,753.5714285714286,63.47767857142857,1737.4,753.5714285714286,63.47767857142857,1838.2,753.5714285714286,63.47767857142857,1943.3,753.5714285714286,63.47767857142857,2048.1,753.5714285714286,63.47767857142857,2153.1,753.5714285714286,63.47767857142857,2257.4,753.5714285714286,63.47767857142857,2357.4,753.5714285714286,63.47767857142857,2458.4,753.5714285714286,63.47767857142857,2563.1,753.5714285714286,63.47767857142857,2663.2,753.5714285714286,63.47767857142857,2763.5,753.5714285714286,63.47767857142857,2867.3,753.5714285714286,63.47767857142857,2969,753.5714285714286,63.47767857142857,3072.7,753.5714285714286,63.47767857142857,3173.2,753.5714285714286,63.47767857142857,3277.4,753.5714285714286,63.47767857142857,3378.1,753.5714285714286,63.47767857142857,3482.2,753.5714285714286,63.47767857142857,3582.4,753.5714285714286,63.47767857142857,3688.1,753.5714285714286,63.47767857142857,3792.5,753.5714285714286,63.47767857142857,3892.7,753.5714285714286,63.47767857142857,3992.9]","[253.4,253.4,1000,0,-746.6,""error"",""-"",""-"",""no_move"",4369.5,4115.8,2626.9,1254.6,488,""smooth"",""right"",""right"",""good_move"",4766.4,396.5,2253.9,4369.9,-1857.4,""error"",""-"",""-"",""no_move"",8255.2,3488.6,2124.7,5767,363.5,""smooth"",""right"",""right"",""good_move""]","",""
"28459","","","","instructions","21","962384","0.0-8.0-2.0","87","1","2025-07-02 10:19:10","80fe4187154257d5fb01684ea91b68b9","85.72.175.84","Mozilla/5.0 (Windows NT 10.0; Win64; x64) AppleWebKit/537.36 (KHTML, like Gecko) Chrome/137.0.0.0 Safari/537.36","WebKit","Chrome","137.0.0.0","Windows","10.0","https://app.prolific.com/","en-GB,en;q=0.9,bg-BG;q=0.8,bg;q=0.7,en-US;q=0.6","615d8873c11a1982c8838b54","683db6dfa200031b80f2a654","686507804f65d03560461a84","615d8873c11a1982c8838b54","","[{""page_index"":0,""viewing_time"":28459}]","","","","","","","","","","","","","","","","","","","","","","","","","","","","","","","","","","","","","","","","","","",""
"","","","","ctl-task-cpt","22","1007904","0.0-8.0-3.0","87","1","2025-07-02 10:19:10","80fe4187154257d5fb01684ea91b68b9","85.72.175.84","Mozilla/5.0 (Windows NT 10.0; Win64; x64) AppleWebKit/537.36 (KHTML, like Gecko) Chrome/137.0.0.0 Safari/537.36","WebKit","Chrome","137.0.0.0","Windows","10.0","https://app.prolific.com/","en-GB,en;q=0.9,bg-BG;q=0.8,bg;q=0.7,en-US;q=0.6","615d8873c11a1982c8838b54","683db6dfa200031b80f2a654","686507804f65d03560461a84","615d8873c11a1982c8838b54","","","","","","","","","","","","","","","","","win-only","1","g1:NE,g2:SW","0.35","0","3","965363.7","1756.4","5760.9","42506.3","2","4","8","6","2","8","8","8","0","0.06060606060606061","716","4000","335","[""down"",""left""]","{""num_key_presses"":10,""num_perfect"":4,""num_errors"":0,""num_randdir"":6,""num_randdir_good_moves"":4,""num_whilered"":0,""num_whileblue"":0,""num_blue"":3,""num_good_moves"":8}","[416.57142857142856,411.47767857142856,0.2,416.57142857142856,411.47767857142856,103.9,416.57142857142856,411.47767857142856,204.8,306.57142857142856,632.4776785714286,309.9,165.57142857142856,838.4776785714286,413.7,132.57142857142856,841.4776785714286,513.9,104.57142857142857,777.4776785714286,614,91.57142857142857,757.4776785714286,714.9,91.57142857142857,757.4776785714286,819.6,91.57142857142857,757.4776785714286,924.4,93.57142857142857,758.4776785714286,1025.4,196.57142857142856,781.4776785714286,1129.4,604.5714285714286,745.4776785714286,1230.3,605.5714285714286,743.4776785714286,1334.4,605.5714285714286,743.4776785714286,1435.7,605.5714285714286,743.4776785714286,1540.3,605.5714285714286,743.4776785714286,1640.8,605.5714285714286,743.4776785714286,1744.5,605.5714285714286,743.4776785714286,1850.4,605.5714285714286,743.4776785714286,1955.8,605.5714285714286,743.4776785714286,2059.4,605.5714285714286,743.4776785714286,2159.7,605.5714285714286,743.4776785714286,2263.8,605.5714285714286,743.4776785714286,2363.9,605.5714285714286,743.4776785714286,2463.9,605.5714285714286,743.4776785714286,2563.9,605.5714285714286,743.4776785714286,2669,605.5714285714286,743.4776785714286,2769.3,605.5714285714286,743.4776785714286,2869.9,605.5714285714286,743.4776785714286,2974.9,605.5714285714286,743.4776785714286,3078.8,605.5714285714286,743.4776785714286,3179.4,605.5714285714286,743.4776785714286,3279.4,605.5714285714286,743.4776785714286,3379.8,605.5714285714286,743.4776785714286,3480,605.5714285714286,743.4776785714286,3584.7,605.5714285714286,743.4776785714286,3685.2,605.5714285714286,743.4776785714286,3789.3,605.5714285714286,743.4776785714286,3889.9,605.5714285714286,743.4776785714286,3995.1]","[1448.5,1448.5,1000,0,448.5,""oops"",""down"",""up"",""bad_move"",4308.5,2859.7,2530.2,1448.8,329.5,""smooth"",""left"",""left"",""good_move"",6163.7,1854.8,1419.1,4308.9,435.7,""smooth"",""down"",""down"",""good_move"",11859.7,5695.6,2266.7,9320.1,272.9,""oops"",""down"",""right"",""bad_move"",14507.4,2647.4,2279.4,11860.1,367.9,""oops"",""down"",""left"",""good_move"",16917.5,2409.9,1995,14507.6,414.9,""oops"",""down"",""down"",""good_move"",20303.7,3385.9,2940.2,16917.9,445.6,""smooth"",""down"",""down"",""good_move"",26281.5,5977.6,2255,23735.1,291.4,""oops"",""left"",""left"",""good_move"",33714.6,7432.9,3016.7,30325.9,372.1,""oops"",""left"",""left"",""good_move"",36660.4,2945.6,2603.7,33714.8,341.9,""smooth"",""down"",""down"",""good_move""]","",""
"33544","","","","instructions","23","1041448","0.0-8.0-4.0","87","1","2025-07-02 10:19:10","80fe4187154257d5fb01684ea91b68b9","85.72.175.84","Mozilla/5.0 (Windows NT 10.0; Win64; x64) AppleWebKit/537.36 (KHTML, like Gecko) Chrome/137.0.0.0 Safari/537.36","WebKit","Chrome","137.0.0.0","Windows","10.0","https://app.prolific.com/","en-GB,en;q=0.9,bg-BG;q=0.8,bg;q=0.7,en-US;q=0.6","615d8873c11a1982c8838b54","683db6dfa200031b80f2a654","686507804f65d03560461a84","615d8873c11a1982c8838b54","","[{""page_index"":0,""viewing_time"":18327},{""page_index"":1,""viewing_time"":15216}]","","","","","","","","","","","","","","","","","","","","","","","","","","","","","","","","","","","","","","","","","","",""
"41004","","","{""green_ball"":[""Ball always moves in the direction I press"",""Ball sometimes shakes and moves in a random direction""]}","survey-multi-select","24","1082454","0.0-8.0-5.0-0.0","87","1","2025-07-02 10:19:10","80fe4187154257d5fb01684ea91b68b9","85.72.175.84","Mozilla/5.0 (Windows NT 10.0; Win64; x64) AppleWebKit/537.36 (KHTML, like Gecko) Chrome/137.0.0.0 Safari/537.36","WebKit","Chrome","137.0.0.0","Windows","10.0","https://app.prolific.com/","en-GB,en;q=0.9,bg-BG;q=0.8,bg;q=0.7,en-US;q=0.6","615d8873c11a1982c8838b54","683db6dfa200031b80f2a654","686507804f65d03560461a84","615d8873c11a1982c8838b54","","","[0]","","","","quiz","","","","","","","","","","","","","","","","","","","","","","","","","","","","","","","","","","","","","false",""
"67173","","<p align='center'><b>INCORRECT.</b> Usually the green ball moves in the indicated direction, but sometimes it shakes and moves randomly. </p>","0","html-button-response","25","1149630","0.0-8.0-5.0-1.0","87","1","2025-07-02 10:19:10","80fe4187154257d5fb01684ea91b68b9","85.72.175.84","Mozilla/5.0 (Windows NT 10.0; Win64; x64) AppleWebKit/537.36 (KHTML, like Gecko) Chrome/137.0.0.0 Safari/537.36","WebKit","Chrome","137.0.0.0","Windows","10.0","https://app.prolific.com/","en-GB,en;q=0.9,bg-BG;q=0.8,bg;q=0.7,en-US;q=0.6","615d8873c11a1982c8838b54","683db6dfa200031b80f2a654","686507804f65d03560461a84","615d8873c11a1982c8838b54","","","","","","","","","","","","","","","","","","","","","","","","","","","","","","","","","","","","","","","","","","","","",""
"7268","","","{""green_ball"":[""Ball sometimes shakes and moves in a random direction""]}","survey-multi-select","26","1156900","0.0-8.0-5.1-0.1","87","1","2025-07-02 10:19:10","80fe4187154257d5fb01684ea91b68b9","85.72.175.84","Mozilla/5.0 (Windows NT 10.0; Win64; x64) AppleWebKit/537.36 (KHTML, like Gecko) Chrome/137.0.0.0 Safari/537.36","WebKit","Chrome","137.0.0.0","Windows","10.0","https://app.prolific.com/","en-GB,en;q=0.9,bg-BG;q=0.8,bg;q=0.7,en-US;q=0.6","615d8873c11a1982c8838b54","683db6dfa200031b80f2a654","686507804f65d03560461a84","615d8873c11a1982c8838b54","","","[0]","","","","quiz","","","","","","","","","","","","","","","","","","","","","","","","","","","","","","","","","","","","","true",""
"2816","","<p align='center'><b>CORRECT!</b> Indeed, the green ball may sometimes shake and move in a random direction.</p>","0","html-button-response","27","1159718","0.0-8.0-5.1-1.1","87","1","2025-07-02 10:19:10","80fe4187154257d5fb01684ea91b68b9","85.72.175.84","Mozilla/5.0 (Windows NT 10.0; Win64; x64) AppleWebKit/537.36 (KHTML, like Gecko) Chrome/137.0.0.0 Safari/537.36","WebKit","Chrome","137.0.0.0","Windows","10.0","https://app.prolific.com/","en-GB,en;q=0.9,bg-BG;q=0.8,bg;q=0.7,en-US;q=0.6","615d8873c11a1982c8838b54","683db6dfa200031b80f2a654","686507804f65d03560461a84","615d8873c11a1982c8838b54","","","","","","","","","","","","","","","","","","","","","","","","","","","","","","","","","","","","","","","","","","","","",""
"14493","","","{""yellow_ball"":[""Ball doesn‘t move and I get -1 penalty point""]}","survey-multi-select","28","1174213","0.0-8.0-6.0-0.0","87","1","2025-07-02 10:19:10","80fe4187154257d5fb01684ea91b68b9","85.72.175.84","Mozilla/5.0 (Windows NT 10.0; Win64; x64) AppleWebKit/537.36 (KHTML, like Gecko) Chrome/137.0.0.0 Safari/537.36","WebKit","Chrome","137.0.0.0","Windows","10.0","https://app.prolific.com/","en-GB,en;q=0.9,bg-BG;q=0.8,bg;q=0.7,en-US;q=0.6","615d8873c11a1982c8838b54","683db6dfa200031b80f2a654","686507804f65d03560461a84","615d8873c11a1982c8838b54","","","[0]","","","","quiz","","","","","","","","","","","","","","","","","","","","","","","","","","","","","","","","","","","","","true",""
"1228","","<p align='center'><b>CORRECT!</b> Indeed, the yellow ball never moves and you receive a penalty.</p>","0","html-button-response","29","1175443","0.0-8.0-6.0-1.0","87","1","2025-07-02 10:19:10","80fe4187154257d5fb01684ea91b68b9","85.72.175.84","Mozilla/5.0 (Windows NT 10.0; Win64; x64) AppleWebKit/537.36 (KHTML, like Gecko) Chrome/137.0.0.0 Safari/537.36","WebKit","Chrome","137.0.0.0","Windows","10.0","https://app.prolific.com/","en-GB,en;q=0.9,bg-BG;q=0.8,bg;q=0.7,en-US;q=0.6","615d8873c11a1982c8838b54","683db6dfa200031b80f2a654","686507804f65d03560461a84","615d8873c11a1982c8838b54","","","","","","","","","","","","","","","","","","","","","","","","","","","","","","","","","","","","","","","","","","","","",""
"3523","","","{""blue_ball"":[""Ball always shakes and moves in a random direction""]}","survey-multi-select","30","1178967","0.0-8.0-7.0-0.0","87","1","2025-07-02 10:19:10","80fe4187154257d5fb01684ea91b68b9","85.72.175.84","Mozilla/5.0 (Windows NT 10.0; Win64; x64) AppleWebKit/537.36 (KHTML, like Gecko) Chrome/137.0.0.0 Safari/537.36","WebKit","Chrome","137.0.0.0","Windows","10.0","https://app.prolific.com/","en-GB,en;q=0.9,bg-BG;q=0.8,bg;q=0.7,en-US;q=0.6","615d8873c11a1982c8838b54","683db6dfa200031b80f2a654","686507804f65d03560461a84","615d8873c11a1982c8838b54","","","[0]","","","","quiz","","","","","","","","","","","","","","","","","","","","","","","","","","","","","","","","","","","","","true",""
"2461","","<p align='center'><b>CORRECT!</b> Indeed, the blue ball always shakes and moves in a random direction. Also there is a penalty of -1 point.</p>","0","html-button-response","31","1181429","0.0-8.0-7.0-1.0","87","1","2025-07-02 10:19:10","80fe4187154257d5fb01684ea91b68b9","85.72.175.84","Mozilla/5.0 (Windows NT 10.0; Win64; x64) AppleWebKit/537.36 (KHTML, like Gecko) Chrome/137.0.0.0 Safari/537.36","WebKit","Chrome","137.0.0.0","Windows","10.0","https://app.prolific.com/","en-GB,en;q=0.9,bg-BG;q=0.8,bg;q=0.7,en-US;q=0.6","615d8873c11a1982c8838b54","683db6dfa200031b80f2a654","686507804f65d03560461a84","615d8873c11a1982c8838b54","","","","","","","","","","","","","","","","","","","","","","","","","","","","","","","","","","","","","","","","","","","","",""
"5787","","","{""bonus"":[""When I reach 50% of points""]}","survey-multi-select","32","1187219","0.0-8.0-8.0-0.0","87","1","2025-07-02 10:19:10","80fe4187154257d5fb01684ea91b68b9","85.72.175.84","Mozilla/5.0 (Windows NT 10.0; Win64; x64) AppleWebKit/537.36 (KHTML, like Gecko) Chrome/137.0.0.0 Safari/537.36","WebKit","Chrome","137.0.0.0","Windows","10.0","https://app.prolific.com/","en-GB,en;q=0.9,bg-BG;q=0.8,bg;q=0.7,en-US;q=0.6","615d8873c11a1982c8838b54","683db6dfa200031b80f2a654","686507804f65d03560461a84","615d8873c11a1982c8838b54","","","[0]","","","","quiz","","","","","","","","","","","","","","","","","","","","","","","","","","","","","","","","","","","","","true",""
"2054","","<p align='center'><b>CORRECT!</b> Indeed, you receive 2 pounds extra when you reach 50% of points.</p>","0","html-button-response","33","1189274","0.0-8.0-8.0-1.0","87","1","2025-07-02 10:19:10","80fe4187154257d5fb01684ea91b68b9","85.72.175.84","Mozilla/5.0 (Windows NT 10.0; Win64; x64) AppleWebKit/537.36 (KHTML, like Gecko) Chrome/137.0.0.0 Safari/537.36","WebKit","Chrome","137.0.0.0","Windows","10.0","https://app.prolific.com/","en-GB,en;q=0.9,bg-BG;q=0.8,bg;q=0.7,en-US;q=0.6","615d8873c11a1982c8838b54","683db6dfa200031b80f2a654","686507804f65d03560461a84","615d8873c11a1982c8838b54","","","","","","","","","","","","","","","","","","","","","","","","","","","","","","","","","","","","","","","","","","","","",""
"32037","","","","instructions","34","1221313","0.0-8.0-9.0","87","1","2025-07-02 10:19:10","80fe4187154257d5fb01684ea91b68b9","85.72.175.84","Mozilla/5.0 (Windows NT 10.0; Win64; x64) AppleWebKit/537.36 (KHTML, like Gecko) Chrome/137.0.0.0 Safari/537.36","WebKit","Chrome","137.0.0.0","Windows","10.0","https://app.prolific.com/","en-GB,en;q=0.9,bg-BG;q=0.8,bg;q=0.7,en-US;q=0.6","615d8873c11a1982c8838b54","683db6dfa200031b80f2a654","686507804f65d03560461a84","615d8873c11a1982c8838b54","","[{""page_index"":0,""viewing_time"":32037}]","","","","","","","","","","","","","","","","","","","","","","","","","","","","","","","","","","","","","","","","","","",""
"23791","","<p>Before you start with this game please answer the following three questions yourself. </p>
  <p>Through this game, we measure several aspects of your cognitive performance, such as reaction times, multi-tasking capabilities </p>
  <p>and the ability to assess the situation you are in.</p>
  <p></p>
  <p><b>How good do you usually are in such tasks?</b></p>","73","html-slider-response","35","1245106","0.0-9.0-0.0","87","1","2025-07-02 10:19:10","80fe4187154257d5fb01684ea91b68b9","85.72.175.84","Mozilla/5.0 (Windows NT 10.0; Win64; x64) AppleWebKit/537.36 (KHTML, like Gecko) Chrome/137.0.0.0 Safari/537.36","WebKit","Chrome","137.0.0.0","Windows","10.0","https://app.prolific.com/","en-GB,en;q=0.9,bg-BG;q=0.8,bg;q=0.7,en-US;q=0.6","615d8873c11a1982c8838b54","683db6dfa200031b80f2a654","686507804f65d03560461a84","615d8873c11a1982c8838b54","2025-07-02T10:39:58.727Z","","","","","","PreSkillQ","","","","","","","","","","","","","","","","","","","","","","","","","","","","","","","","","","","","","","50"
"8863","","<div style=""width:500px;"">
  <p>How well do you think you will perform in this task compared to other participants?</p>
  </div>","78","html-slider-response","36","1253971","0.0-9.0-1.0","87","1","2025-07-02 10:19:10","80fe4187154257d5fb01684ea91b68b9","85.72.175.84","Mozilla/5.0 (Windows NT 10.0; Win64; x64) AppleWebKit/537.36 (KHTML, like Gecko) Chrome/137.0.0.0 Safari/537.36","WebKit","Chrome","137.0.0.0","Windows","10.0","https://app.prolific.com/","en-GB,en;q=0.9,bg-BG;q=0.8,bg;q=0.7,en-US;q=0.6","615d8873c11a1982c8838b54","683db6dfa200031b80f2a654","686507804f65d03560461a84","615d8873c11a1982c8838b54","2025-07-02T10:40:07.592Z","","","","","","PrePerfQ","","","","","","","","","","","","","","","","","","","","","","","","","","","","","","","","","","","","","","50"
"5549","","<div style=""width:500px;"">
  <p>What best describes how you currently feel?</p>
  </div>","100","html-slider-response","37","1259521","0.0-9.0-2.0","87","1","2025-07-02 10:19:10","80fe4187154257d5fb01684ea91b68b9","85.72.175.84","Mozilla/5.0 (Windows NT 10.0; Win64; x64) AppleWebKit/537.36 (KHTML, like Gecko) Chrome/137.0.0.0 Safari/537.36","WebKit","Chrome","137.0.0.0","Windows","10.0","https://app.prolific.com/","en-GB,en;q=0.9,bg-BG;q=0.8,bg;q=0.7,en-US;q=0.6","615d8873c11a1982c8838b54","683db6dfa200031b80f2a654","686507804f65d03560461a84","615d8873c11a1982c8838b54","2025-07-02T10:40:13.143Z","","","","","","PreMotivationQ","","","","","","","","","","","","","","","","","","","","","","","","","","","","","","","","","","","","","","50"
"","","","","ctl-task-cpt","38","1280180","0.0-10.0-0.0","87","1","2025-07-02 10:19:10","80fe4187154257d5fb01684ea91b68b9","85.72.175.84","Mozilla/5.0 (Windows NT 10.0; Win64; x64) AppleWebKit/537.36 (KHTML, like Gecko) Chrome/137.0.0.0 Safari/537.36","WebKit","Chrome","137.0.0.0","Windows","10.0","https://app.prolific.com/","en-GB,en;q=0.9,bg-BG;q=0.8,bg;q=0.7,en-US;q=0.6","615d8873c11a1982c8838b54","683db6dfa200031b80f2a654","686507804f65d03560461a84","615d8873c11a1982c8838b54","2025-07-02T10:40:33.801Z","","","","","","","","","","","","","","","","win-only","1","g1:NE,g2:SW","1","1","0","1262500","3827.9","8830.5","17641","1","4","4","6","1","-1","-1","0","0","0","927.4","3000","-2665","[""up"",""right""]","{""num_key_presses"":2,""num_perfect"":2,""num_errors"":0,""num_randdir"":0,""num_randdir_good_moves"":0,""num_whilered"":0,""num_whileblue"":0,""num_blue"":0,""num_good_moves"":2}","[414.57142857142856,412.47767857142856,0.1,414.57142857142856,412.47767857142856,102.2,414.57142857142856,412.47767857142856,203.5,414.57142857142856,412.47767857142856,308,437.57142857142856,408.47767857142856,408.3,590.5714285714286,262.47767857142856,511.6,828.5714285714286,-20.52232142857143,612.9,824.5714285714286,-31.52232142857143,717.4,783.5714285714286,47.47767857142857,817.7,777.5714285714286,59.47767857142857,928.5,777.5714285714286,59.47767857142857,1032.9,777.5714285714286,59.47767857142857,1138.2,750.5714285714286,128.47767857142856,1238.2,704.5714285714286,301.47767857142856,1345.4,741.5714285714286,336.47767857142856,1446.1,919.5714285714286,382.47767857142856,1552.3,955.5714285714286,394.47767857142856,1653.7,956.5714285714286,394.47767857142856,1760.6,956.5714285714286,394.47767857142856,1863.1,956.5714285714286,394.47767857142856,1964,956.5714285714286,394.47767857142856,2068.2,956.5714285714286,394.47767857142856,2168.3,956.5714285714286,394.47767857142856,2278,956.5714285714286,394.47767857142856,2378.3,956.5714285714286,394.47767857142856,2482.6,956.5714285714286,394.47767857142856,2588.9,956.5714285714286,394.47767857142856,2694.5,956.5714285714286,394.47767857142856,2795.4,956.5714285714286,394.47767857142856,2897.3,956.5714285714286,394.47767857142856,2998.6,956.5714285714286,394.47767857142856,3102.6,956.5714285714286,394.47767857142856,3211.1,956.5714285714286,394.47767857142856,3312.7,956.5714285714286,394.47767857142856,3413.3,956.5714285714286,394.47767857142856,3517.9,956.5714285714286,394.47767857142856,3628.3,956.5714285714286,394.47767857142856,3732.4,956.5714285714286,394.47767857142856,3832.7,956.5714285714286,394.47767857142856,3932.8,956.5714285714286,394.47767857142856,4038.1,956.5714285714286,394.47767857142856,4142.4,956.5714285714286,394.47767857142856,4244.8,956.5714285714286,394.47767857142856,4347.7,956.5714285714286,394.47767857142856,4453.2,956.5714285714286,394.47767857142856,4557.2,956.5714285714286,394.47767857142856,4661.3,956.5714285714286,394.47767857142856,4767.4,956.5714285714286,394.47767857142856,4868.3,956.5714285714286,394.47767857142856,4972.8]","[1425.2,1425.2,1000,0,425.2,""smooth"",""right"",""right"",""good_move"",3728.4,2302.6,1897.2,1425.8,405.5,""smooth"",""right"",""right"",""good_move""]","",""
"7524","","<div style=""width:500px;"">
  <p>What determined the result of this run?</p>
  </div>","100","html-slider-response","39","1287704","0.0-10.0-1.0","87","1","2025-07-02 10:19:10","80fe4187154257d5fb01684ea91b68b9","85.72.175.84","Mozilla/5.0 (Windows NT 10.0; Win64; x64) AppleWebKit/537.36 (KHTML, like Gecko) Chrome/137.0.0.0 Safari/537.36","WebKit","Chrome","137.0.0.0","Windows","10.0","https://app.prolific.com/","en-GB,en;q=0.9,bg-BG;q=0.8,bg;q=0.7,en-US;q=0.6","615d8873c11a1982c8838b54","683db6dfa200031b80f2a654","686507804f65d03560461a84","615d8873c11a1982c8838b54","2025-07-02T10:40:41.325Z","","","","","","AttribQ","","","","","","","","","","","","","","","","","","","","","","","","","","","","","","","","","","","","","","50"
"5105","","<div style=""width:500px;"">
  <p>How much control did you have over the ball?</p>
  </div>","77","html-slider-response","40","1292811","0.0-10.0-2.0","87","1","2025-07-02 10:19:10","80fe4187154257d5fb01684ea91b68b9","85.72.175.84","Mozilla/5.0 (Windows NT 10.0; Win64; x64) AppleWebKit/537.36 (KHTML, like Gecko) Chrome/137.0.0.0 Safari/537.36","WebKit","Chrome","137.0.0.0","Windows","10.0","https://app.prolific.com/","en-GB,en;q=0.9,bg-BG;q=0.8,bg;q=0.7,en-US;q=0.6","615d8873c11a1982c8838b54","683db6dfa200031b80f2a654","686507804f65d03560461a84","615d8873c11a1982c8838b54","2025-07-02T10:40:46.432Z","","","","","","ControlQ","","","","","","","","","","","","","","","","","","","","","","","","","","","","","","","","","","","","","","50"
"5619","","<div style=""width:500px;"">
  <p>How would you describe your current emotional state?</p>
  </div>","0","html-slider-response","41","1298431","0.0-10.0-3.0","87","1","2025-07-02 10:19:10","80fe4187154257d5fb01684ea91b68b9","85.72.175.84","Mozilla/5.0 (Windows NT 10.0; Win64; x64) AppleWebKit/537.36 (KHTML, like Gecko) Chrome/137.0.0.0 Safari/537.36","WebKit","Chrome","137.0.0.0","Windows","10.0","https://app.prolific.com/","en-GB,en;q=0.9,bg-BG;q=0.8,bg;q=0.7,en-US;q=0.6","615d8873c11a1982c8838b54","683db6dfa200031b80f2a654","686507804f65d03560461a84","615d8873c11a1982c8838b54","2025-07-02T10:40:52.052Z","","","","","","StressQ","","","","","","","","","","","","","","","","","","","","","","","","","","","","","","","","","","","","","","50"
"6171","","<div style=""width:500px;"">
  <p>What best describes how you currently feel?</p>
  </div>","100","html-slider-response","42","1304603","0.0-10.0-4.0","87","1","2025-07-02 10:19:10","80fe4187154257d5fb01684ea91b68b9","85.72.175.84","Mozilla/5.0 (Windows NT 10.0; Win64; x64) AppleWebKit/537.36 (KHTML, like Gecko) Chrome/137.0.0.0 Safari/537.36","WebKit","Chrome","137.0.0.0","Windows","10.0","https://app.prolific.com/","en-GB,en;q=0.9,bg-BG;q=0.8,bg;q=0.7,en-US;q=0.6","615d8873c11a1982c8838b54","683db6dfa200031b80f2a654","686507804f65d03560461a84","615d8873c11a1982c8838b54","2025-07-02T10:40:58.224Z","","","","","","MotivationQ","","","","","","","","","","","","","","","","","","","","","","","","","","","","","","","","","","","","","","50"
"","","","","ctl-task-cpt","43","1331514","0.0-10.0-0.1","87","1","2025-07-02 10:19:10","80fe4187154257d5fb01684ea91b68b9","85.72.175.84","Mozilla/5.0 (Windows NT 10.0; Win64; x64) AppleWebKit/537.36 (KHTML, like Gecko) Chrome/137.0.0.0 Safari/537.36","WebKit","Chrome","137.0.0.0","Windows","10.0","https://app.prolific.com/","en-GB,en;q=0.9,bg-BG;q=0.8,bg;q=0.7,en-US;q=0.6","615d8873c11a1982c8838b54","683db6dfa200031b80f2a654","686507804f65d03560461a84","615d8873c11a1982c8838b54","2025-07-02T10:41:25.135Z","","","","","","","","","","","","","","","","win-only","1","g1:NE,g2:SW","0.9","2","0","1307581.6","1859.1","6861.8","23900.7","1","4","8","6","1","1","1","1","0","0.007575757575757576","1055.9","3000","1030","[""up"",""right""]","{""num_key_presses"":6,""num_perfect"":5,""num_errors"":0,""num_randdir"":1,""num_randdir_good_moves"":0,""num_whilered"":0,""num_whileblue"":0,""num_blue"":0,""num_good_moves"":5}","[417.57142857142856,413.47767857142856,0.3,417.57142857142856,413.47767857142856,101.7,417.57142857142856,413.47767857142856,202,417.57142857142856,413.47767857142856,306.9,417.57142857142856,413.47767857142856,406.9,417.57142857142856,413.47767857142856,515.5,445.57142857142856,368.47767857142856,615.8,637.5714285714286,88.47767857142857,716.2,640.5714285714286,44.47767857142857,821.9,711.5714285714286,109.47767857142857,932.1,778.5714285714286,98.47767857142857,1033.3,780.5714285714286,98.47767857142857,1133.8,780.5714285714286,98.47767857142857,1234.1,780.5714285714286,98.47767857142857,1336.3,780.5714285714286,98.47767857142857,1436.7,780.5714285714286,98.47767857142857,1541.3,780.5714285714286,98.47767857142857,1642.3,780.5714285714286,98.47767857142857,1749.8,780.5714285714286,98.47767857142857,1852,780.5714285714286,98.47767857142857,1952.3,780.5714285714286,98.47767857142857,2052.7,780.5714285714286,98.47767857142857,2156.5,780.5714285714286,98.47767857142857,2266.5,780.5714285714286,98.47767857142857,2372.3,780.5714285714286,98.47767857142857,2482.1,780.5714285714286,98.47767857142857,2584,780.5714285714286,98.47767857142857,2684.1,780.5714285714286,98.47767857142857,2787.2,780.5714285714286,98.47767857142857,2891.5,780.5714285714286,98.47767857142857,2991.6,780.5714285714286,98.47767857142857,3092,780.5714285714286,98.47767857142857,3192.3,780.5714285714286,98.47767857142857,3292.6,780.5714285714286,98.47767857142857,3400.5,780.5714285714286,98.47767857142857,3501,780.5714285714286,98.47767857142857,3607.2,780.5714285714286,98.47767857142857,3715.7,780.5714285714286,98.47767857142857,3817,780.5714285714286,98.47767857142857,3921.2,780.5714285714286,98.47767857142857,4022.8,780.5714285714286,98.47767857142857,4131.8,780.5714285714286,98.47767857142857,4232.5,780.5714285714286,98.47767857142857,4333.1,780.5714285714286,98.47767857142857,4437.6,780.5714285714286,98.47767857142857,4541.3,780.5714285714286,98.47767857142857,4641.7,780.5714285714286,98.47767857142857,4741.9,780.5714285714286,98.47767857142857,4849.1,780.5714285714286,98.47767857142857,4952.9]","[1386.6,1386.6,1000,0,386.6,""smooth"",""up"",""up"",""good_move"",4735.2,3348.3,2952,1386.9,396.3,""smooth"",""right"",""right"",""good_move"",8288.4,3553,3181.4,4735.4,371.6,""smooth"",""right"",""right"",""good_move"",11063.3,2774.7,2371.2,8288.6,403.5,""oops"",""up"",""left"",""bad_move"",13916,2852.4,2475.1,11063.6,377.3,""smooth"",""right"",""right"",""good_move"",16934.3,3018.3,2706.1,13916.1,312.1,""smooth"",""up"",""up"",""good_move""]","",""
"3974","","<div style=""width:500px;"">
  <p>What determined the result of this run?</p>
  </div>","100","html-slider-response","44","1335489","0.0-10.0-1.1","87","1","2025-07-02 10:19:10","80fe4187154257d5fb01684ea91b68b9","85.72.175.84","Mozilla/5.0 (Windows NT 10.0; Win64; x64) AppleWebKit/537.36 (KHTML, like Gecko) Chrome/137.0.0.0 Safari/537.36","WebKit","Chrome","137.0.0.0","Windows","10.0","https://app.prolific.com/","en-GB,en;q=0.9,bg-BG;q=0.8,bg;q=0.7,en-US;q=0.6","615d8873c11a1982c8838b54","683db6dfa200031b80f2a654","686507804f65d03560461a84","615d8873c11a1982c8838b54","2025-07-02T10:41:29.110Z","","","","","","AttribQ","","","","","","","","","","","","","","","","","","","","","","","","","","","","","","","","","","","","","","50"
"5493","","<div style=""width:500px;"">
  <p>How much control did you have over the ball?</p>
  </div>","78","html-slider-response","45","1340984","0.0-10.0-2.1","87","1","2025-07-02 10:19:10","80fe4187154257d5fb01684ea91b68b9","85.72.175.84","Mozilla/5.0 (Windows NT 10.0; Win64; x64) AppleWebKit/537.36 (KHTML, like Gecko) Chrome/137.0.0.0 Safari/537.36","WebKit","Chrome","137.0.0.0","Windows","10.0","https://app.prolific.com/","en-GB,en;q=0.9,bg-BG;q=0.8,bg;q=0.7,en-US;q=0.6","615d8873c11a1982c8838b54","683db6dfa200031b80f2a654","686507804f65d03560461a84","615d8873c11a1982c8838b54","2025-07-02T10:41:34.605Z","","","","","","ControlQ","","","","","","","","","","","","","","","","","","","","","","","","","","","","","","","","","","","","","","50"
"4146","","<div style=""width:500px;"">
  <p>How would you describe your current emotional state?</p>
  </div>","0","html-slider-response","46","1345132","0.0-10.0-3.1","87","1","2025-07-02 10:19:10","80fe4187154257d5fb01684ea91b68b9","85.72.175.84","Mozilla/5.0 (Windows NT 10.0; Win64; x64) AppleWebKit/537.36 (KHTML, like Gecko) Chrome/137.0.0.0 Safari/537.36","WebKit","Chrome","137.0.0.0","Windows","10.0","https://app.prolific.com/","en-GB,en;q=0.9,bg-BG;q=0.8,bg;q=0.7,en-US;q=0.6","615d8873c11a1982c8838b54","683db6dfa200031b80f2a654","686507804f65d03560461a84","615d8873c11a1982c8838b54","2025-07-02T10:41:38.753Z","","","","","","StressQ","","","","","","","","","","","","","","","","","","","","","","","","","","","","","","","","","","","","","","50"
"2715","","<div style=""width:500px;"">
  <p>What best describes how you currently feel?</p>
  </div>","100","html-slider-response","47","1347848","0.0-10.0-4.1","87","1","2025-07-02 10:19:10","80fe4187154257d5fb01684ea91b68b9","85.72.175.84","Mozilla/5.0 (Windows NT 10.0; Win64; x64) AppleWebKit/537.36 (KHTML, like Gecko) Chrome/137.0.0.0 Safari/537.36","WebKit","Chrome","137.0.0.0","Windows","10.0","https://app.prolific.com/","en-GB,en;q=0.9,bg-BG;q=0.8,bg;q=0.7,en-US;q=0.6","615d8873c11a1982c8838b54","683db6dfa200031b80f2a654","686507804f65d03560461a84","615d8873c11a1982c8838b54","2025-07-02T10:41:41.469Z","","","","","","MotivationQ","","","","","","","","","","","","","","","","","","","","","","","","","","","","","","","","","","","","","","50"
"","","","","ctl-task-cpt","48","1368342","0.0-10.0-0.2","87","1","2025-07-02 10:19:10","80fe4187154257d5fb01684ea91b68b9","85.72.175.84","Mozilla/5.0 (Windows NT 10.0; Win64; x64) AppleWebKit/537.36 (KHTML, like Gecko) Chrome/137.0.0.0 Safari/537.36","WebKit","Chrome","137.0.0.0","Windows","10.0","https://app.prolific.com/","en-GB,en;q=0.9,bg-BG;q=0.8,bg;q=0.7,en-US;q=0.6","615d8873c11a1982c8838b54","683db6dfa200031b80f2a654","686507804f65d03560461a84","615d8873c11a1982c8838b54","2025-07-02T10:42:01.963Z","","","","","","","","","","","","","","","","win-only","0","g1:NW,g2:SE","0.8","3","0","1350826.7","1530.9","6531.5","17480.5","1","4","8","6","1","1","1","2","1","0.015151515151515152","1104.3","3000","1845","[""left"",""up""]","{""num_key_presses"":4,""num_perfect"":2,""num_errors"":0,""num_randdir"":2,""num_randdir_good_moves"":2,""num_whilered"":0,""num_whileblue"":0,""num_blue"":0,""num_good_moves"":4}","[419.57142857142856,413.47767857142856,0.1,419.57142857142856,413.47767857142856,105.1,419.57142857142856,413.47767857142856,209.9,448.57142857142856,382.47767857142856,322.8,526.5714285714286,305.47767857142856,424.3,599.5714285714286,235.47767857142856,524.9,535.5714285714286,360.47767857142856,629.6,324.57142857142856,163.47767857142856,733.2,172.57142857142856,10.47767857142857,836.3,127.57142857142857,-6.522321428571431,936.3,100.57142857142857,55.47767857142857,1040.4,97.57142857142857,70.47767857142857,1149.6,97.57142857142857,70.47767857142857,1250.6,97.57142857142857,70.47767857142857,1351.4,97.57142857142857,70.47767857142857,1456.6,97.57142857142857,70.47767857142857,1566.2,97.57142857142857,70.47767857142857,1669.4,97.57142857142857,70.47767857142857,1769.5,97.57142857142857,70.47767857142857,1869.7,97.57142857142857,70.47767857142857,1970.2,97.57142857142857,70.47767857142857,2070.3,97.57142857142857,70.47767857142857,2176.2,97.57142857142857,70.47767857142857,2283.1,97.57142857142857,70.47767857142857,2383.4,97.57142857142857,70.47767857142857,2483.7,97.57142857142857,70.47767857142857,2585.5,97.57142857142857,70.47767857142857,2693.1,97.57142857142857,70.47767857142857,2800.2,97.57142857142857,70.47767857142857,2908,97.57142857142857,70.47767857142857,3010,97.57142857142857,70.47767857142857,3116.4,97.57142857142857,70.47767857142857,3216.7,97.57142857142857,70.47767857142857,3317,97.57142857142857,70.47767857142857,3417.4,97.57142857142857,70.47767857142857,3521.8,97.57142857142857,70.47767857142857,3624.4,97.57142857142857,70.47767857142857,3724.8,97.57142857142857,70.47767857142857,3824.8,97.57142857142857,70.47767857142857,3932.9,97.57142857142857,70.47767857142857,4034.5,97.57142857142857,70.47767857142857,4134.5,97.57142857142857,70.47767857142857,4240.4,97.57142857142857,70.47767857142857,4345.5,97.57142857142857,70.47767857142857,4449.6,97.57142857142857,70.47767857142857,4555,97.57142857142857,70.47767857142857,4661.4,97.57142857142857,70.47767857142857,4766.7,97.57142857142857,70.47767857142857,4870.3,97.57142857142857,70.47767857142857,4974.9]","[1350.1,1350.1,1000,0,350.1,""smooth"",""left"",""left"",""good_move"",4138.6,2788.3,2481.7,1350.3,306.6,""smooth"",""left"",""left"",""good_move"",7400.4,3261.6,2910.2,4138.8,351.4,""oops"",""up"",""up"",""good_move"",10850.8,3450.2,3102,7400.6,348.2,""oops"",""up"",""up"",""good_move""]","",""
"3265","","<div style=""width:500px;"">
  <p>What determined the result of this run?</p>
  </div>","100","html-slider-response","49","1371608","0.0-10.0-1.2","87","1","2025-07-02 10:19:10","80fe4187154257d5fb01684ea91b68b9","85.72.175.84","Mozilla/5.0 (Windows NT 10.0; Win64; x64) AppleWebKit/537.36 (KHTML, like Gecko) Chrome/137.0.0.0 Safari/537.36","WebKit","Chrome","137.0.0.0","Windows","10.0","https://app.prolific.com/","en-GB,en;q=0.9,bg-BG;q=0.8,bg;q=0.7,en-US;q=0.6","615d8873c11a1982c8838b54","683db6dfa200031b80f2a654","686507804f65d03560461a84","615d8873c11a1982c8838b54","2025-07-02T10:42:05.229Z","","","","","","AttribQ","","","","","","","","","","","","","","","","","","","","","","","","","","","","","","","","","","","","","","50"
"2225","","<div style=""width:500px;"">
  <p>How much control did you have over the ball?</p>
  </div>","100","html-slider-response","50","1373835","0.0-10.0-2.2","87","1","2025-07-02 10:19:10","80fe4187154257d5fb01684ea91b68b9","85.72.175.84","Mozilla/5.0 (Windows NT 10.0; Win64; x64) AppleWebKit/537.36 (KHTML, like Gecko) Chrome/137.0.0.0 Safari/537.36","WebKit","Chrome","137.0.0.0","Windows","10.0","https://app.prolific.com/","en-GB,en;q=0.9,bg-BG;q=0.8,bg;q=0.7,en-US;q=0.6","615d8873c11a1982c8838b54","683db6dfa200031b80f2a654","686507804f65d03560461a84","615d8873c11a1982c8838b54","2025-07-02T10:42:07.456Z","","","","","","ControlQ","","","","","","","","","","","","","","","","","","","","","","","","","","","","","","","","","","","","","","50"
"2287","","<div style=""width:500px;"">
  <p>How would you describe your current emotional state?</p>
  </div>","0","html-slider-response","51","1376123","0.0-10.0-3.2","87","1","2025-07-02 10:19:10","80fe4187154257d5fb01684ea91b68b9","85.72.175.84","Mozilla/5.0 (Windows NT 10.0; Win64; x64) AppleWebKit/537.36 (KHTML, like Gecko) Chrome/137.0.0.0 Safari/537.36","WebKit","Chrome","137.0.0.0","Windows","10.0","https://app.prolific.com/","en-GB,en;q=0.9,bg-BG;q=0.8,bg;q=0.7,en-US;q=0.6","615d8873c11a1982c8838b54","683db6dfa200031b80f2a654","686507804f65d03560461a84","615d8873c11a1982c8838b54","2025-07-02T10:42:09.744Z","","","","","","StressQ","","","","","","","","","","","","","","","","","","","","","","","","","","","","","","","","","","","","","","50"
"2504","","<div style=""width:500px;"">
  <p>What best describes how you currently feel?</p>
  </div>","100","html-slider-response","52","1378629","0.0-10.0-4.2","87","1","2025-07-02 10:19:10","80fe4187154257d5fb01684ea91b68b9","85.72.175.84","Mozilla/5.0 (Windows NT 10.0; Win64; x64) AppleWebKit/537.36 (KHTML, like Gecko) Chrome/137.0.0.0 Safari/537.36","WebKit","Chrome","137.0.0.0","Windows","10.0","https://app.prolific.com/","en-GB,en;q=0.9,bg-BG;q=0.8,bg;q=0.7,en-US;q=0.6","615d8873c11a1982c8838b54","683db6dfa200031b80f2a654","686507804f65d03560461a84","615d8873c11a1982c8838b54","2025-07-02T10:42:12.250Z","","","","","","MotivationQ","","","","","","","","","","","","","","","","","","","","","","","","","","","","","","","","","","","","","","50"
"","","","","ctl-task-cpt","53","1420015","0.0-10.0-0.3","87","1","2025-07-02 10:19:10","80fe4187154257d5fb01684ea91b68b9","85.72.175.84","Mozilla/5.0 (Windows NT 10.0; Win64; x64) AppleWebKit/537.36 (KHTML, like Gecko) Chrome/137.0.0.0 Safari/537.36","WebKit","Chrome","137.0.0.0","Windows","10.0","https://app.prolific.com/","en-GB,en;q=0.9,bg-BG;q=0.8,bg;q=0.7,en-US;q=0.6","615d8873c11a1982c8838b54","683db6dfa200031b80f2a654","686507804f65d03560461a84","615d8873c11a1982c8838b54","2025-07-02T10:42:53.636Z","","","","","","","","","","","","","","","","win-only","1","g1:NE,g2:SW","0.7","4","0","1381607.8","1490.5","6500.1","38365.9","1","4","4","6","1","1","0","2","2","0.015151515151515152","646.3","3000","950","[""up"",""right""]","{""num_key_presses"":8,""num_perfect"":6,""num_errors"":1,""num_randdir"":1,""num_randdir_good_moves"":0,""num_whilered"":0,""num_whileblue"":1,""num_blue"":3,""num_good_moves"":6}","[411.57142857142856,410.47767857142856,0.2,411.57142857142856,410.47767857142856,100.7,411.57142857142856,410.47767857142856,200.9,449.57142857142856,436.47767857142856,309.8,615.5714285714286,289.47767857142856,409.8,799.5714285714286,23.47767857142857,511.8,807.5714285714286,7.477678571428569,615.8,807.5714285714286,7.477678571428569,726.4,793.5714285714286,26.47767857142857,826.6,772.5714285714286,74.47767857142857,926.8,770.5714285714286,80.47767857142857,1029.9,771.5714285714286,82.47767857142857,1136.1,771.5714285714286,82.47767857142857,1243.2,771.5714285714286,82.47767857142857,1343.2,771.5714285714286,82.47767857142857,1443.7,771.5714285714286,82.47767857142857,1545.7,771.5714285714286,82.47767857142857,1646.2,771.5714285714286,82.47767857142857,1750.4,771.5714285714286,82.47767857142857,1861.7,771.5714285714286,82.47767857142857,1965.2,771.5714285714286,82.47767857142857,2065.7,771.5714285714286,82.47767857142857,2165.9,771.5714285714286,82.47767857142857,2269.9,771.5714285714286,82.47767857142857,2370.3,771.5714285714286,82.47767857142857,2477.3,771.5714285714286,82.47767857142857,2577.4,771.5714285714286,82.47767857142857,2680.6,771.5714285714286,82.47767857142857,2780.8,771.5714285714286,82.47767857142857,2884.2,771.5714285714286,82.47767857142857,2985.6,771.5714285714286,82.47767857142857,3086.8,771.5714285714286,82.47767857142857,3193.1,771.5714285714286,82.47767857142857,3293.8,771.5714285714286,82.47767857142857,3394.8,771.5714285714286,82.47767857142857,3495.2,771.5714285714286,82.47767857142857,3600.4,771.5714285714286,82.47767857142857,3700.5,771.5714285714286,82.47767857142857,3810,771.5714285714286,82.47767857142857,3918.4,771.5714285714286,82.47767857142857,4025.8,771.5714285714286,82.47767857142857,4132.1,771.5714285714286,82.47767857142857,4236.3,771.5714285714286,82.47767857142857,4339.8,771.5714285714286,82.47767857142857,4443.1,771.5714285714286,82.47767857142857,4545.1,771.5714285714286,82.47767857142857,4645.8,771.5714285714286,82.47767857142857,4750.5,771.5714285714286,82.47767857142857,4850.5,771.5714285714286,82.47767857142857,4959.3]","[1289.3,1289.3,1000,0,289.3,""oops"",""right"",""down"",""bad_move"",4351.1,3061.5,2745,1289.6,316.5,""smooth"",""right"",""right"",""good_move"",7775.2,3423.9,3072.5,4351.3,351.4,""smooth"",""up"",""up"",""good_move"",12116.4,4340.9,4004.8,7775.5,336.1,""smooth"",""up"",""up"",""good_move"",19318.4,7201.9,2913.4,16120.1,284.9,""while_blue"",""up"",""down"",""bad_move"",25203.2,5884.6,2188.9,22745.6,268.8,""smooth"",""up"",""up"",""good_move"",28736.7,3533.3,3195.6,25203.4,337.7,""smooth"",""up"",""up"",""good_move"",31773.9,3037,2623.7,28736.9,413.3,""smooth"",""right"",""right"",""good_move""]","",""
"4276","","<div style=""width:500px;"">
  <p>What determined the result of this run?</p>
  </div>","100","html-slider-response","54","1424293","0.0-10.0-1.3","87","1","2025-07-02 10:19:10","80fe4187154257d5fb01684ea91b68b9","85.72.175.84","Mozilla/5.0 (Windows NT 10.0; Win64; x64) AppleWebKit/537.36 (KHTML, like Gecko) Chrome/137.0.0.0 Safari/537.36","WebKit","Chrome","137.0.0.0","Windows","10.0","https://app.prolific.com/","en-GB,en;q=0.9,bg-BG;q=0.8,bg;q=0.7,en-US;q=0.6","615d8873c11a1982c8838b54","683db6dfa200031b80f2a654","686507804f65d03560461a84","615d8873c11a1982c8838b54","2025-07-02T10:42:57.914Z","","","","","","AttribQ","","","","","","","","","","","","","","","","","","","","","","","","","","","","","","","","","","","","","","50"
"2682","","<div style=""width:500px;"">
  <p>How much control did you have over the ball?</p>
  </div>","78","html-slider-response","55","1426976","0.0-10.0-2.3","87","1","2025-07-02 10:19:10","80fe4187154257d5fb01684ea91b68b9","85.72.175.84","Mozilla/5.0 (Windows NT 10.0; Win64; x64) AppleWebKit/537.36 (KHTML, like Gecko) Chrome/137.0.0.0 Safari/537.36","WebKit","Chrome","137.0.0.0","Windows","10.0","https://app.prolific.com/","en-GB,en;q=0.9,bg-BG;q=0.8,bg;q=0.7,en-US;q=0.6","615d8873c11a1982c8838b54","683db6dfa200031b80f2a654","686507804f65d03560461a84","615d8873c11a1982c8838b54","2025-07-02T10:43:00.597Z","","","","","","ControlQ","","","","","","","","","","","","","","","","","","","","","","","","","","","","","","","","","","","","","","50"
"2442","","<div style=""width:500px;"">
  <p>How would you describe your current emotional state?</p>
  </div>","0","html-slider-response","56","1429420","0.0-10.0-3.3","87","1","2025-07-02 10:19:10","80fe4187154257d5fb01684ea91b68b9","85.72.175.84","Mozilla/5.0 (Windows NT 10.0; Win64; x64) AppleWebKit/537.36 (KHTML, like Gecko) Chrome/137.0.0.0 Safari/537.36","WebKit","Chrome","137.0.0.0","Windows","10.0","https://app.prolific.com/","en-GB,en;q=0.9,bg-BG;q=0.8,bg;q=0.7,en-US;q=0.6","615d8873c11a1982c8838b54","683db6dfa200031b80f2a654","686507804f65d03560461a84","615d8873c11a1982c8838b54","2025-07-02T10:43:03.041Z","","","","","","StressQ","","","","","","","","","","","","","","","","","","","","","","","","","","","","","","","","","","","","","","50"
"2271","","<div style=""width:500px;"">
  <p>What best describes how you currently feel?</p>
  </div>","100","html-slider-response","57","1431692","0.0-10.0-4.3","87","1","2025-07-02 10:19:10","80fe4187154257d5fb01684ea91b68b9","85.72.175.84","Mozilla/5.0 (Windows NT 10.0; Win64; x64) AppleWebKit/537.36 (KHTML, like Gecko) Chrome/137.0.0.0 Safari/537.36","WebKit","Chrome","137.0.0.0","Windows","10.0","https://app.prolific.com/","en-GB,en;q=0.9,bg-BG;q=0.8,bg;q=0.7,en-US;q=0.6","615d8873c11a1982c8838b54","683db6dfa200031b80f2a654","686507804f65d03560461a84","615d8873c11a1982c8838b54","2025-07-02T10:43:05.313Z","","","","","","MotivationQ","","","","","","","","","","","","","","","","","","","","","","","","","","","","","","","","","","","","","","50"
"","","","","ctl-task-cpt","58","1476633","0.0-10.0-0.4","87","1","2025-07-02 10:19:10","80fe4187154257d5fb01684ea91b68b9","85.72.175.84","Mozilla/5.0 (Windows NT 10.0; Win64; x64) AppleWebKit/537.36 (KHTML, like Gecko) Chrome/137.0.0.0 Safari/537.36","WebKit","Chrome","137.0.0.0","Windows","10.0","https://app.prolific.com/","en-GB,en;q=0.9,bg-BG;q=0.8,bg;q=0.7,en-US;q=0.6","615d8873c11a1982c8838b54","683db6dfa200031b80f2a654","686507804f65d03560461a84","615d8873c11a1982c8838b54","2025-07-02T10:43:50.254Z","","","","","","","","","","","","","","","","win-only","3","g1:SW,g2:NE","0.6","5","0","1434670.2","1104","6105.8","41921.8","1","4","4","6","1","-1","-1","1","2","0.007575757575757576","1090.4","3000","-2980","[""down"",""left""]","{""num_key_presses"":8,""num_perfect"":4,""num_errors"":0,""num_randdir"":4,""num_randdir_good_moves"":1,""num_whilered"":0,""num_whileblue"":0,""num_blue"":3,""num_good_moves"":5}","[415.57142857142856,418.47767857142856,0.1,415.57142857142856,418.47767857142856,101.7,415.57142857142856,418.47767857142856,207.5,415.57142857142856,418.47767857142856,311.3,415.57142857142856,418.47767857142856,411.8,672.5714285714286,180.47767857142856,518.4,740.5714285714286,86.47767857142857,621.5,332.57142857142856,299.47767857142856,727,30.57142857142857,707.4776785714286,840,26.57142857142857,732.4776785714286,941.4,-1.4285714285714306,817.4776785714286,1047,46.57142857142857,761.4776785714286,1152.7,48.57142857142857,760.4776785714286,1256.3,48.57142857142857,760.4776785714286,1356.5,49.57142857142857,760.4776785714286,1456.7,49.57142857142857,760.4776785714286,1561.7,49.57142857142857,760.4776785714286,1662.5,49.57142857142857,760.4776785714286,1768.3,116.57142857142857,753.4776785714286,1870,198.57142857142856,738.4776785714286,1972.7,203.57142857142856,736.4776785714286,2076.9,203.57142857142856,736.4776785714286,2177,203.57142857142856,736.4776785714286,2285.8,203.57142857142856,736.4776785714286,2386.5,203.57142857142856,736.4776785714286,2491.3,203.57142857142856,736.4776785714286,2592.7,203.57142857142856,736.4776785714286,2701.2,203.57142857142856,736.4776785714286,2801.5,203.57142857142856,736.4776785714286,2906.4,203.57142857142856,736.4776785714286,3012.5,203.57142857142856,736.4776785714286,3112.9,203.57142857142856,736.4776785714286,3216.6,203.57142857142856,736.4776785714286,3317.9,203.57142857142856,736.4776785714286,3418.1,203.57142857142856,736.4776785714286,3521.3,203.57142857142856,736.4776785714286,3624.2,203.57142857142856,736.4776785714286,3727.8,203.57142857142856,736.4776785714286,3831.1,203.57142857142856,736.4776785714286,3931.3,203.57142857142856,736.4776785714286,4037.7,203.57142857142856,736.4776785714286,4141.1,203.57142857142856,736.4776785714286,4241.6,203.57142857142856,736.4776785714286,4347.4,203.57142857142856,736.4776785714286,4451.4,203.57142857142856,736.4776785714286,4552.4,203.57142857142856,736.4776785714286,4656.6,203.57142857142856,736.4776785714286,4762.5,203.57142857142856,736.4776785714286,4866.7,203.57142857142856,736.4776785714286,4971.4]","[5274.2,5274.2,2879.6,2004.8,389.8,""smooth"",""down"",""down"",""good_move"",8436.7,3162.1,2736.7,5274.7,425.3,""smooth"",""down"",""down"",""good_move"",10855.7,2418.8,1919.4,8436.9,499.4,""oops"",""left"",""right"",""bad_move"",13869.9,3013.9,2637.1,10856,376.8,""oops"",""left"",""left"",""good_move"",16666.1,2795.9,2434.7,13870.2,361.2,""oops"",""left"",""right"",""bad_move"",19406.7,2740.2,2364.4,16666.5,375.8,""smooth"",""left"",""left"",""good_move"",25780.4,6373.5,2812.8,22634.5,333.1,""oops"",""left"",""up"",""bad_move"",32830.3,7049.7,2995,29495.1,340.2,""smooth"",""left"",""left"",""good_move""]","",""
"4844","","<div style=""width:500px;"">
  <p>What determined the result of this run?</p>
  </div>","0","html-slider-response","59","1481478","0.0-10.0-1.4","87","1","2025-07-02 10:19:10","80fe4187154257d5fb01684ea91b68b9","85.72.175.84","Mozilla/5.0 (Windows NT 10.0; Win64; x64) AppleWebKit/537.36 (KHTML, like Gecko) Chrome/137.0.0.0 Safari/537.36","WebKit","Chrome","137.0.0.0","Windows","10.0","https://app.prolific.com/","en-GB,en;q=0.9,bg-BG;q=0.8,bg;q=0.7,en-US;q=0.6","615d8873c11a1982c8838b54","683db6dfa200031b80f2a654","686507804f65d03560461a84","615d8873c11a1982c8838b54","2025-07-02T10:43:55.099Z","","","","","","AttribQ","","","","","","","","","","","","","","","","","","","","","","","","","","","","","","","","","","","","","","50"
"3235","","<div style=""width:500px;"">
  <p>How much control did you have over the ball?</p>
  </div>","20","html-slider-response","60","1484717","0.0-10.0-2.4","87","1","2025-07-02 10:19:10","80fe4187154257d5fb01684ea91b68b9","85.72.175.84","Mozilla/5.0 (Windows NT 10.0; Win64; x64) AppleWebKit/537.36 (KHTML, like Gecko) Chrome/137.0.0.0 Safari/537.36","WebKit","Chrome","137.0.0.0","Windows","10.0","https://app.prolific.com/","en-GB,en;q=0.9,bg-BG;q=0.8,bg;q=0.7,en-US;q=0.6","615d8873c11a1982c8838b54","683db6dfa200031b80f2a654","686507804f65d03560461a84","615d8873c11a1982c8838b54","2025-07-02T10:43:58.338Z","","","","","","ControlQ","","","","","","","","","","","","","","","","","","","","","","","","","","","","","","","","","","","","","","50"
"2223","","<div style=""width:500px;"">
  <p>How would you describe your current emotional state?</p>
  </div>","0","html-slider-response","61","1486941","0.0-10.0-3.4","87","1","2025-07-02 10:19:10","80fe4187154257d5fb01684ea91b68b9","85.72.175.84","Mozilla/5.0 (Windows NT 10.0; Win64; x64) AppleWebKit/537.36 (KHTML, like Gecko) Chrome/137.0.0.0 Safari/537.36","WebKit","Chrome","137.0.0.0","Windows","10.0","https://app.prolific.com/","en-GB,en;q=0.9,bg-BG;q=0.8,bg;q=0.7,en-US;q=0.6","615d8873c11a1982c8838b54","683db6dfa200031b80f2a654","686507804f65d03560461a84","615d8873c11a1982c8838b54","2025-07-02T10:44:00.563Z","","","","","","StressQ","","","","","","","","","","","","","","","","","","","","","","","","","","","","","","","","","","","","","","50"
"1983","","<div style=""width:500px;"">
  <p>What best describes how you currently feel?</p>
  </div>","100","html-slider-response","62","1488925","0.0-10.0-4.4","87","1","2025-07-02 10:19:10","80fe4187154257d5fb01684ea91b68b9","85.72.175.84","Mozilla/5.0 (Windows NT 10.0; Win64; x64) AppleWebKit/537.36 (KHTML, like Gecko) Chrome/137.0.0.0 Safari/537.36","WebKit","Chrome","137.0.0.0","Windows","10.0","https://app.prolific.com/","en-GB,en;q=0.9,bg-BG;q=0.8,bg;q=0.7,en-US;q=0.6","615d8873c11a1982c8838b54","683db6dfa200031b80f2a654","686507804f65d03560461a84","615d8873c11a1982c8838b54","2025-07-02T10:44:02.547Z","","","","","","MotivationQ","","","","","","","","","","","","","","","","","","","","","","","","","","","","","","","","","","","","","","50"
"","","","","ctl-task-cpt","63","1524352","0.0-10.0-0.5","87","1","2025-07-02 10:19:10","80fe4187154257d5fb01684ea91b68b9","85.72.175.84","Mozilla/5.0 (Windows NT 10.0; Win64; x64) AppleWebKit/537.36 (KHTML, like Gecko) Chrome/137.0.0.0 Safari/537.36","WebKit","Chrome","137.0.0.0","Windows","10.0","https://app.prolific.com/","en-GB,en;q=0.9,bg-BG;q=0.8,bg;q=0.7,en-US;q=0.6","615d8873c11a1982c8838b54","683db6dfa200031b80f2a654","686507804f65d03560461a84","615d8873c11a1982c8838b54","2025-07-02T10:44:37.973Z","","","","","","","","","","","","","","","","win-only","2","g1:SE,g2:NW","0.5","6","0","1491903.2","940.1","5940.5","32406.3","1","4","8","6","1","-1","-1","0","1","0","964","3000","-2705","[""down"",""right""]","{""num_key_presses"":9,""num_perfect"":4,""num_errors"":0,""num_randdir"":5,""num_randdir_good_moves"":2,""num_whilered"":0,""num_whileblue"":0,""num_blue"":0,""num_good_moves"":6}","[411.57142857142856,416.47767857142856,0.2,411.57142857142856,416.47767857142856,101,411.57142857142856,416.47767857142856,205.5,411.57142857142856,416.47767857142856,306.3,403.57142857142856,400.47767857142856,407.1,-139.42857142857144,251.47767857142856,510.4,159.57142857142856,161.47767857142856,610.9,632.5714285714286,597.4776785714286,711.8,800.5714285714286,741.4776785714286,816,802.5714285714286,755.4776785714286,920.7,802.5714285714286,755.4776785714286,1026.5,799.5714285714286,753.4776785714286,1130.7,798.5714285714286,753.4776785714286,1236.1,798.5714285714286,753.4776785714286,1336.8,798.5714285714286,753.4776785714286,1440.1,798.5714285714286,753.4776785714286,1541.2,798.5714285714286,753.4776785714286,1645.1,798.5714285714286,753.4776785714286,1745.9,798.5714285714286,753.4776785714286,1846.8,798.5714285714286,753.4776785714286,1950.9,798.5714285714286,753.4776785714286,2055.3,798.5714285714286,753.4776785714286,2155.9,798.5714285714286,753.4776785714286,2261,798.5714285714286,753.4776785714286,2366.2,798.5714285714286,753.4776785714286,2467.2,798.5714285714286,753.4776785714286,2570.7,798.5714285714286,753.4776785714286,2675.2,798.5714285714286,753.4776785714286,2776.9,798.5714285714286,753.4776785714286,2880.8,798.5714285714286,753.4776785714286,2987.1,798.5714285714286,753.4776785714286,3091,798.5714285714286,753.4776785714286,3197.3,798.5714285714286,753.4776785714286,3300.5,798.5714285714286,753.4776785714286,3405.5,798.5714285714286,753.4776785714286,3505.6,798.5714285714286,753.4776785714286,3606,798.5714285714286,753.4776785714286,3711,798.5714285714286,753.4776785714286,3815.8,798.5714285714286,753.4776785714286,3916,798.5714285714286,753.4776785714286,4016.6,798.5714285714286,753.4776785714286,4120.2,798.5714285714286,753.4776785714286,4225.8,798.5714285714286,753.4776785714286,4333.9,798.5714285714286,753.4776785714286,4435.8,798.5714285714286,753.4776785714286,4540.7,798.5714285714286,753.4776785714286,4641.8,798.5714285714286,753.4776785714286,4751.4,798.5714285714286,753.4776785714286,4858.3,798.5714285714286,753.4776785714286,4959.4]","[1380.2,1380.2,1000,0,380.2,""smooth"",""down"",""down"",""good_move"",4230.8,2850.4,2474.6,1380.4,375.8,""oops"",""down"",""left"",""bad_move"",7185.3,2954.2,2594.1,4231.1,360.1,""smooth"",""down"",""down"",""good_move"",9951.4,2765.9,2369.9,7185.5,396,""oops"",""right"",""right"",""good_move"",13086,3134.4,2758.7,9951.6,375.7,""oops"",""right"",""left"",""bad_move"",15683.7,2597.5,2189.9,13086.2,407.6,""smooth"",""right"",""right"",""good_move"",18836.1,3152.2,2842.8,15683.9,309.4,""oops"",""right"",""right"",""good_move"",21649.1,2812.8,2462.9,18836.3,349.9,""oops"",""right"",""up"",""bad_move"",24372.8,2723.4,2362.9,21649.4,360.5,""smooth"",""right"",""right"",""good_move""]","",""
"4300","","<div style=""width:500px;"">
  <p>What determined the result of this run?</p>
  </div>","15","html-slider-response","64","1528653","0.0-10.0-1.5","87","1","2025-07-02 10:19:10","80fe4187154257d5fb01684ea91b68b9","85.72.175.84","Mozilla/5.0 (Windows NT 10.0; Win64; x64) AppleWebKit/537.36 (KHTML, like Gecko) Chrome/137.0.0.0 Safari/537.36","WebKit","Chrome","137.0.0.0","Windows","10.0","https://app.prolific.com/","en-GB,en;q=0.9,bg-BG;q=0.8,bg;q=0.7,en-US;q=0.6","615d8873c11a1982c8838b54","683db6dfa200031b80f2a654","686507804f65d03560461a84","615d8873c11a1982c8838b54","2025-07-02T10:44:42.274Z","","","","","","AttribQ","","","","","","","","","","","","","","","","","","","","","","","","","","","","","","","","","","","","","","50"
"2723","","<div style=""width:500px;"">
  <p>How much control did you have over the ball?</p>
  </div>","24","html-slider-response","65","1531377","0.0-10.0-2.5","87","1","2025-07-02 10:19:10","80fe4187154257d5fb01684ea91b68b9","85.72.175.84","Mozilla/5.0 (Windows NT 10.0; Win64; x64) AppleWebKit/537.36 (KHTML, like Gecko) Chrome/137.0.0.0 Safari/537.36","WebKit","Chrome","137.0.0.0","Windows","10.0","https://app.prolific.com/","en-GB,en;q=0.9,bg-BG;q=0.8,bg;q=0.7,en-US;q=0.6","615d8873c11a1982c8838b54","683db6dfa200031b80f2a654","686507804f65d03560461a84","615d8873c11a1982c8838b54","2025-07-02T10:44:44.998Z","","","","","","ControlQ","","","","","","","","","","","","","","","","","","","","","","","","","","","","","","","","","","","","","","50"
"4543","","<div style=""width:500px;"">
  <p>How would you describe your current emotional state?</p>
  </div>","0","html-slider-response","66","1535921","0.0-10.0-3.5","87","1","2025-07-02 10:19:10","80fe4187154257d5fb01684ea91b68b9","85.72.175.84","Mozilla/5.0 (Windows NT 10.0; Win64; x64) AppleWebKit/537.36 (KHTML, like Gecko) Chrome/137.0.0.0 Safari/537.36","WebKit","Chrome","137.0.0.0","Windows","10.0","https://app.prolific.com/","en-GB,en;q=0.9,bg-BG;q=0.8,bg;q=0.7,en-US;q=0.6","615d8873c11a1982c8838b54","683db6dfa200031b80f2a654","686507804f65d03560461a84","615d8873c11a1982c8838b54","2025-07-02T10:44:49.542Z","","","","","","StressQ","","","","","","","","","","","","","","","","","","","","","","","","","","","","","","","","","","","","","","50"
"2342","","<div style=""width:500px;"">
  <p>What best describes how you currently feel?</p>
  </div>","100","html-slider-response","67","1538265","0.0-10.0-4.5","87","1","2025-07-02 10:19:10","80fe4187154257d5fb01684ea91b68b9","85.72.175.84","Mozilla/5.0 (Windows NT 10.0; Win64; x64) AppleWebKit/537.36 (KHTML, like Gecko) Chrome/137.0.0.0 Safari/537.36","WebKit","Chrome","137.0.0.0","Windows","10.0","https://app.prolific.com/","en-GB,en;q=0.9,bg-BG;q=0.8,bg;q=0.7,en-US;q=0.6","615d8873c11a1982c8838b54","683db6dfa200031b80f2a654","686507804f65d03560461a84","615d8873c11a1982c8838b54","2025-07-02T10:44:51.886Z","","","","","","MotivationQ","","","","","","","","","","","","","","","","","","","","","","","","","","","","","","","","","","","","","","50"
"","","","","ctl-task-cpt","68","1563406","0.0-10.0-0.6","87","1","2025-07-02 10:19:10","80fe4187154257d5fb01684ea91b68b9","85.72.175.84","Mozilla/5.0 (Windows NT 10.0; Win64; x64) AppleWebKit/537.36 (KHTML, like Gecko) Chrome/137.0.0.0 Safari/537.36","WebKit","Chrome","137.0.0.0","Windows","10.0","https://app.prolific.com/","en-GB,en;q=0.9,bg-BG;q=0.8,bg;q=0.7,en-US;q=0.6","615d8873c11a1982c8838b54","683db6dfa200031b80f2a654","686507804f65d03560461a84","615d8873c11a1982c8838b54","2025-07-02T10:45:17.027Z","","","","","","","","","","","","","","","","win-only","2","g1:SE,g2:NW","0.4","7","0","1541242.5","970","5976","22132.5","1","4","4","6","1","1","0","0","0","0","763.3","3000","1670","[""down"",""right""]","{""num_key_presses"":5,""num_perfect"":2,""num_errors"":1,""num_randdir"":2,""num_randdir_good_moves"":2,""num_whilered"":0,""num_whileblue"":0,""num_blue"":1,""num_good_moves"":4}","[416.57142857142856,419.47767857142856,0.2,416.57142857142856,419.47767857142856,101.1,417.57142857142856,420.47767857142856,205.5,417.57142857142856,420.47767857142856,306.2,543.5714285714286,459.47767857142856,410.2,739.5714285714286,663.4776785714286,514.7,777.5714285714286,722.4776785714286,615.5,771.5714285714286,760.4776785714286,721.3,771.5714285714286,760.4776785714286,825.4,771.5714285714286,760.4776785714286,931.4,768.5714285714286,760.4776785714286,1032.4,768.5714285714286,759.4776785714286,1135.8,768.5714285714286,759.4776785714286,1236.4,768.5714285714286,759.4776785714286,1340.4,768.5714285714286,759.4776785714286,1441.3,768.5714285714286,759.4776785714286,1548.6,768.5714285714286,759.4776785714286,1649.4,768.5714285714286,759.4776785714286,1751.8,768.5714285714286,759.4776785714286,1856.2,768.5714285714286,759.4776785714286,1964.3,768.5714285714286,759.4776785714286,2065.2,768.5714285714286,759.4776785714286,2166.2,768.5714285714286,759.4776785714286,2270.7,768.5714285714286,759.4776785714286,2371.1,768.5714285714286,759.4776785714286,2476.1,768.5714285714286,759.4776785714286,2583.6,768.5714285714286,759.4776785714286,2685.4,768.5714285714286,759.4776785714286,2785.6,768.5714285714286,759.4776785714286,2891,768.5714285714286,759.4776785714286,2999.2,768.5714285714286,759.4776785714286,3100.6,768.5714285714286,759.4776785714286,3200.8,768.5714285714286,759.4776785714286,3302.5,768.5714285714286,759.4776785714286,3406.1,768.5714285714286,759.4776785714286,3506.4,768.5714285714286,759.4776785714286,3615.4,768.5714285714286,759.4776785714286,3721.7,768.5714285714286,759.4776785714286,3826.3,768.5714285714286,759.4776785714286,3932.2,768.5714285714286,759.4776785714286,4035.2,768.5714285714286,759.4776785714286,4135.9,768.5714285714286,759.4776785714286,4236.4,768.5714285714286,759.4776785714286,4341.5,768.5714285714286,759.4776785714286,4453.1,768.5714285714286,759.4776785714286,4554,768.5714285714286,759.4776785714286,4657.5,768.5714285714286,759.4776785714286,4764.3,768.5714285714286,759.4776785714286,4864.6,768.5714285714286,759.4776785714286,4964.9]","[1333.6,1333.6,1000,0,333.6,""smooth"",""down"",""down"",""good_move"",5015.2,3681.3,2447.3,4727.8,-2159.9,""error"",""-"",""-"",""no_move"",9247,4231.6,2874.8,6020.3,351.9,""smooth"",""down"",""down"",""good_move"",12422.8,3175.7,2809.5,9247.1,366.2,""oops"",""right"",""right"",""good_move"",16015.7,3592.7,3218.5,12423,374.2,""oops"",""right"",""right"",""good_move""]","",""
"4062","","<div style=""width:500px;"">
  <p>What determined the result of this run?</p>
  </div>","100","html-slider-response","69","1567469","0.0-10.0-1.6","87","1","2025-07-02 10:19:10","80fe4187154257d5fb01684ea91b68b9","85.72.175.84","Mozilla/5.0 (Windows NT 10.0; Win64; x64) AppleWebKit/537.36 (KHTML, like Gecko) Chrome/137.0.0.0 Safari/537.36","WebKit","Chrome","137.0.0.0","Windows","10.0","https://app.prolific.com/","en-GB,en;q=0.9,bg-BG;q=0.8,bg;q=0.7,en-US;q=0.6","615d8873c11a1982c8838b54","683db6dfa200031b80f2a654","686507804f65d03560461a84","615d8873c11a1982c8838b54","2025-07-02T10:45:21.090Z","","","","","","AttribQ","","","","","","","","","","","","","","","","","","","","","","","","","","","","","","","","","","","","","","50"
"2831","","<div style=""width:500px;"">
  <p>How much control did you have over the ball?</p>
  </div>","100","html-slider-response","70","1570302","0.0-10.0-2.6","87","1","2025-07-02 10:19:10","80fe4187154257d5fb01684ea91b68b9","85.72.175.84","Mozilla/5.0 (Windows NT 10.0; Win64; x64) AppleWebKit/537.36 (KHTML, like Gecko) Chrome/137.0.0.0 Safari/537.36","WebKit","Chrome","137.0.0.0","Windows","10.0","https://app.prolific.com/","en-GB,en;q=0.9,bg-BG;q=0.8,bg;q=0.7,en-US;q=0.6","615d8873c11a1982c8838b54","683db6dfa200031b80f2a654","686507804f65d03560461a84","615d8873c11a1982c8838b54","2025-07-02T10:45:23.923Z","","","","","","ControlQ","","","","","","","","","","","","","","","","","","","","","","","","","","","","","","","","","","","","","","50"
"2504","","<div style=""width:500px;"">
  <p>How would you describe your current emotional state?</p>
  </div>","0","html-slider-response","71","1572808","0.0-10.0-3.6","87","1","2025-07-02 10:19:10","80fe4187154257d5fb01684ea91b68b9","85.72.175.84","Mozilla/5.0 (Windows NT 10.0; Win64; x64) AppleWebKit/537.36 (KHTML, like Gecko) Chrome/137.0.0.0 Safari/537.36","WebKit","Chrome","137.0.0.0","Windows","10.0","https://app.prolific.com/","en-GB,en;q=0.9,bg-BG;q=0.8,bg;q=0.7,en-US;q=0.6","615d8873c11a1982c8838b54","683db6dfa200031b80f2a654","686507804f65d03560461a84","615d8873c11a1982c8838b54","2025-07-02T10:45:26.429Z","","","","","","StressQ","","","","","","","","","","","","","","","","","","","","","","","","","","","","","","","","","","","","","","50"
"2077","","<div style=""width:500px;"">
  <p>What best describes how you currently feel?</p>
  </div>","100","html-slider-response","72","1574886","0.0-10.0-4.6","87","1","2025-07-02 10:19:10","80fe4187154257d5fb01684ea91b68b9","85.72.175.84","Mozilla/5.0 (Windows NT 10.0; Win64; x64) AppleWebKit/537.36 (KHTML, like Gecko) Chrome/137.0.0.0 Safari/537.36","WebKit","Chrome","137.0.0.0","Windows","10.0","https://app.prolific.com/","en-GB,en;q=0.9,bg-BG;q=0.8,bg;q=0.7,en-US;q=0.6","615d8873c11a1982c8838b54","683db6dfa200031b80f2a654","686507804f65d03560461a84","615d8873c11a1982c8838b54","2025-07-02T10:45:28.507Z","","","","","","MotivationQ","","","","","","","","","","","","","","","","","","","","","","","","","","","","","","","","","","","","","","50"
"","","","","ctl-task-cpt","73","1631873","0.0-10.0-0.7","87","1","2025-07-02 10:19:10","80fe4187154257d5fb01684ea91b68b9","85.72.175.84","Mozilla/5.0 (Windows NT 10.0; Win64; x64) AppleWebKit/537.36 (KHTML, like Gecko) Chrome/137.0.0.0 Safari/537.36","WebKit","Chrome","137.0.0.0","Windows","10.0","https://app.prolific.com/","en-GB,en;q=0.9,bg-BG;q=0.8,bg;q=0.7,en-US;q=0.6","615d8873c11a1982c8838b54","683db6dfa200031b80f2a654","686507804f65d03560461a84","615d8873c11a1982c8838b54","2025-07-02T10:46:25.494Z","","","","","","","","","","","","","","","","win-only","1","g1:NE,g2:SW","0.3","8","0","1577864.2","961.2","5967.6","53968","1","4","8","6","1","-1","-1","0","0","0","911.9","3000","-2650","[""up"",""right""]","{""num_key_presses"":8,""num_perfect"":3,""num_errors"":0,""num_randdir"":5,""num_randdir_good_moves"":1,""num_whilered"":0,""num_whileblue"":0,""num_blue"":7,""num_good_moves"":4}","[416.57142857142856,417.47767857142856,0.2,416.57142857142856,417.47767857142856,101.8,426.57142857142856,428.47767857142856,204.1,448.57142857142856,448.47767857142856,304.4,453.57142857142856,437.47767857142856,409,542.5714285714286,263.47767857142856,509.2,671.5714285714286,95.47767857142857,609.6,691.5714285714286,60.47767857142857,714.6,737.5714285714286,70.47767857142857,815.4,768.5714285714286,77.47767857142857,919,769.5714285714286,77.47767857142857,1020.3,769.5714285714286,78.47767857142857,1124.9,769.5714285714286,78.47767857142857,1225.5,769.5714285714286,78.47767857142857,1331.4,769.5714285714286,78.47767857142857,1432.2,769.5714285714286,78.47767857142857,1552.1,769.5714285714286,78.47767857142857,1655.4,769.5714285714286,78.47767857142857,1759.1,769.5714285714286,78.47767857142857,1859.4,769.5714285714286,78.47767857142857,1960.7,769.5714285714286,78.47767857142857,2064.2,769.5714285714286,78.47767857142857,2169.6,769.5714285714286,78.47767857142857,2274.9,769.5714285714286,78.47767857142857,2379.2,769.5714285714286,78.47767857142857,2484.7,769.5714285714286,78.47767857142857,2588.5,769.5714285714286,78.47767857142857,2693.9,769.5714285714286,78.47767857142857,2794.3,769.5714285714286,78.47767857142857,2894.4,769.5714285714286,78.47767857142857,2994.5,769.5714285714286,78.47767857142857,3100.2,769.5714285714286,78.47767857142857,3205.1,769.5714285714286,78.47767857142857,3310.4,769.5714285714286,78.47767857142857,3415.5,769.5714285714286,78.47767857142857,3519.6,769.5714285714286,78.47767857142857,3619.9,769.5714285714286,78.47767857142857,3720.8,769.5714285714286,78.47767857142857,3824.7,769.5714285714286,78.47767857142857,3925,769.5714285714286,78.47767857142857,4029.5,769.5714285714286,78.47767857142857,4137.7,769.5714285714286,78.47767857142857,4239,769.5714285714286,78.47767857142857,4340.2,769.5714285714286,78.47767857142857,4444.1,769.5714285714286,78.47767857142857,4544.6,769.5714285714286,78.47767857142857,4652.7,769.5714285714286,78.47767857142857,4753.9,769.5714285714286,78.47767857142857,4854.6,769.5714285714286,78.47767857142857,4959.5]","[1370.6,1370.6,1000,0,370.6,""smooth"",""right"",""right"",""good_move"",11139.1,9768.2,2015,8733.3,390.8,""oops"",""right"",""down"",""bad_move"",23265.3,12125.9,2488.7,20435.2,341.4,""smooth"",""right"",""right"",""good_move"",26065.9,2800.4,2249,23265.5,551.4,""smooth"",""up"",""up"",""good_move"",29434.6,3368.4,2918.3,26066.2,450.1,""oops"",""up"",""down"",""bad_move"",32613.8,3178.9,2793.3,29434.9,385.6,""oops"",""up"",""left"",""bad_move"",39381.4,6767.3,2462,36512.8,406.6,""oops"",""up"",""up"",""good_move"",45406.8,6025.3,2440.7,42538.5,427.6,""oops"",""up"",""left"",""bad_move""]","",""
"3880","","<div style=""width:500px;"">
  <p>What determined the result of this run?</p>
  </div>","0","html-slider-response","74","1635755","0.0-10.0-1.7","87","1","2025-07-02 10:19:10","80fe4187154257d5fb01684ea91b68b9","85.72.175.84","Mozilla/5.0 (Windows NT 10.0; Win64; x64) AppleWebKit/537.36 (KHTML, like Gecko) Chrome/137.0.0.0 Safari/537.36","WebKit","Chrome","137.0.0.0","Windows","10.0","https://app.prolific.com/","en-GB,en;q=0.9,bg-BG;q=0.8,bg;q=0.7,en-US;q=0.6","615d8873c11a1982c8838b54","683db6dfa200031b80f2a654","686507804f65d03560461a84","615d8873c11a1982c8838b54","2025-07-02T10:46:29.376Z","","","","","","AttribQ","","","","","","","","","","","","","","","","","","","","","","","","","","","","","","","","","","","","","","50"
"2544","","<div style=""width:500px;"">
  <p>How much control did you have over the ball?</p>
  </div>","0","html-slider-response","75","1638301","0.0-10.0-2.7","87","1","2025-07-02 10:19:10","80fe4187154257d5fb01684ea91b68b9","85.72.175.84","Mozilla/5.0 (Windows NT 10.0; Win64; x64) AppleWebKit/537.36 (KHTML, like Gecko) Chrome/137.0.0.0 Safari/537.36","WebKit","Chrome","137.0.0.0","Windows","10.0","https://app.prolific.com/","en-GB,en;q=0.9,bg-BG;q=0.8,bg;q=0.7,en-US;q=0.6","615d8873c11a1982c8838b54","683db6dfa200031b80f2a654","686507804f65d03560461a84","615d8873c11a1982c8838b54","2025-07-02T10:46:31.922Z","","","","","","ControlQ","","","","","","","","","","","","","","","","","","","","","","","","","","","","","","","","","","","","","","50"
"2191","","<div style=""width:500px;"">
  <p>How would you describe your current emotional state?</p>
  </div>","0","html-slider-response","76","1640494","0.0-10.0-3.7","87","1","2025-07-02 10:19:10","80fe4187154257d5fb01684ea91b68b9","85.72.175.84","Mozilla/5.0 (Windows NT 10.0; Win64; x64) AppleWebKit/537.36 (KHTML, like Gecko) Chrome/137.0.0.0 Safari/537.36","WebKit","Chrome","137.0.0.0","Windows","10.0","https://app.prolific.com/","en-GB,en;q=0.9,bg-BG;q=0.8,bg;q=0.7,en-US;q=0.6","615d8873c11a1982c8838b54","683db6dfa200031b80f2a654","686507804f65d03560461a84","615d8873c11a1982c8838b54","2025-07-02T10:46:34.115Z","","","","","","StressQ","","","","","","","","","","","","","","","","","","","","","","","","","","","","","","","","","","","","","","50"
"2434","","<div style=""width:500px;"">
  <p>What best describes how you currently feel?</p>
  </div>","100","html-slider-response","77","1642930","0.0-10.0-4.7","87","1","2025-07-02 10:19:10","80fe4187154257d5fb01684ea91b68b9","85.72.175.84","Mozilla/5.0 (Windows NT 10.0; Win64; x64) AppleWebKit/537.36 (KHTML, like Gecko) Chrome/137.0.0.0 Safari/537.36","WebKit","Chrome","137.0.0.0","Windows","10.0","https://app.prolific.com/","en-GB,en;q=0.9,bg-BG;q=0.8,bg;q=0.7,en-US;q=0.6","615d8873c11a1982c8838b54","683db6dfa200031b80f2a654","686507804f65d03560461a84","615d8873c11a1982c8838b54","2025-07-02T10:46:36.551Z","","","","","","MotivationQ","","","","","","","","","","","","","","","","","","","","","","","","","","","","","","","","","","","","","","50"
"","","","","ctl-task-cpt","78","1690046","0.0-10.0-0.8","87","1","2025-07-02 10:19:10","80fe4187154257d5fb01684ea91b68b9","85.72.175.84","Mozilla/5.0 (Windows NT 10.0; Win64; x64) AppleWebKit/537.36 (KHTML, like Gecko) Chrome/137.0.0.0 Safari/537.36","WebKit","Chrome","137.0.0.0","Windows","10.0","https://app.prolific.com/","en-GB,en;q=0.9,bg-BG;q=0.8,bg;q=0.7,en-US;q=0.6","615d8873c11a1982c8838b54","683db6dfa200031b80f2a654","686507804f65d03560461a84","615d8873c11a1982c8838b54","2025-07-02T10:47:23.667Z","","","","","","","","","","","","","","","","win-only","2","g1:SE,g2:NW","0.4","9","0","1645907.6","2685.7","7686.4","44096.2","1","4","4","6","1","-1","-1","0","0","0","952.4","3000","-2560","[""down"",""right""]","{""num_key_presses"":10,""num_perfect"":4,""num_errors"":0,""num_randdir"":6,""num_randdir_good_moves"":2,""num_whilered"":0,""num_whileblue"":0,""num_blue"":2,""num_good_moves"":6}","[412.57142857142856,412.47767857142856,0.2,412.57142857142856,412.47767857142856,108.3,412.57142857142856,412.47767857142856,210.5,412.57142857142856,412.47767857142856,314.7,412.57142857142856,354.47767857142856,424.6,526.5714285714286,435.47767857142856,525.7,632.5714285714286,606.4776785714286,629.7,681.5714285714286,663.4776785714286,730,739.5714285714286,716.4776785714286,838.2,742.5714285714286,722.4776785714286,939.7,743.5714285714286,723.4776785714286,1047,745.5714285714286,725.4776785714286,1152.5,746.5714285714286,726.4776785714286,1255,834.5714285714286,687.4776785714286,1360.4,911.5714285714286,642.4776785714286,1461.4,919.5714285714286,629.4776785714286,1563.3,919.5714285714286,629.4776785714286,1667.3,919.5714285714286,629.4776785714286,1770.4,919.5714285714286,629.4776785714286,1875.3,919.5714285714286,629.4776785714286,1975.3,919.5714285714286,629.4776785714286,2075.9,919.5714285714286,629.4776785714286,2176.4,919.5714285714286,629.4776785714286,2279.7,919.5714285714286,629.4776785714286,2380.4,919.5714285714286,629.4776785714286,2481.6,919.5714285714286,629.4776785714286,2586.6,919.5714285714286,629.4776785714286,2690.4,919.5714285714286,629.4776785714286,2794.6,919.5714285714286,629.4776785714286,2896.3,919.5714285714286,629.4776785714286,2996.4,919.5714285714286,629.4776785714286,3100.9,919.5714285714286,629.4776785714286,3203.6,919.5714285714286,629.4776785714286,3304.3,919.5714285714286,629.4776785714286,3404.7,919.5714285714286,629.4776785714286,3506,919.5714285714286,629.4776785714286,3618,919.5714285714286,629.4776785714286,3719.7,919.5714285714286,629.4776785714286,3822.3,919.5714285714286,629.4776785714286,3924.8,919.5714285714286,629.4776785714286,4026.5,919.5714285714286,629.4776785714286,4131,919.5714285714286,629.4776785714286,4235.1,919.5714285714286,629.4776785714286,4335.2,919.5714285714286,629.4776785714286,4440,919.5714285714286,629.4776785714286,4544.9,919.5714285714286,629.4776785714286,4645,919.5714285714286,629.4776785714286,4745.3,919.5714285714286,629.4776785714286,4850.4,919.5714285714286,629.4776785714286,4950.8]","[1368.2,1368.2,1000,0,368.2,""oops"",""down"",""up"",""bad_move"",4785.5,3417,3046.9,1368.5,370.1,""oops"",""down"",""right"",""good_move"",7559.6,2773.8,2441.4,4785.8,332.4,""smooth"",""down"",""down"",""good_move"",13508.9,5949.1,2581.9,10595,332,""smooth"",""down"",""down"",""good_move"",15753.3,2244.2,1829.5,13509.1,414.7,""smooth"",""right"",""right"",""good_move"",18932.2,3178.8,2820.1,15753.4,358.7,""oops"",""down"",""left"",""bad_move"",22262.6,3330.2,2994.5,18932.4,335.7,""oops"",""right"",""right"",""good_move"",24787.2,2524.3,2184.3,22262.9,340,""oops"",""down"",""up"",""bad_move"",27967.3,3179.7,2835.4,24787.6,344.3,""smooth"",""down"",""down"",""good_move"",30455.9,2488.3,2174.9,27967.6,313.4,""oops"",""down"",""up"",""bad_move""]","",""
"2562","","<div style=""width:500px;"">
  <p>What determined the result of this run?</p>
  </div>","0","html-slider-response","79","1692610","0.0-10.0-1.8","87","1","2025-07-02 10:19:10","80fe4187154257d5fb01684ea91b68b9","85.72.175.84","Mozilla/5.0 (Windows NT 10.0; Win64; x64) AppleWebKit/537.36 (KHTML, like Gecko) Chrome/137.0.0.0 Safari/537.36","WebKit","Chrome","137.0.0.0","Windows","10.0","https://app.prolific.com/","en-GB,en;q=0.9,bg-BG;q=0.8,bg;q=0.7,en-US;q=0.6","615d8873c11a1982c8838b54","683db6dfa200031b80f2a654","686507804f65d03560461a84","615d8873c11a1982c8838b54","2025-07-02T10:47:26.231Z","","","","","","AttribQ","","","","","","","","","","","","","","","","","","","","","","","","","","","","","","","","","","","","","","50"
"2240","","<div style=""width:500px;"">
  <p>How much control did you have over the ball?</p>
  </div>","0","html-slider-response","80","1694852","0.0-10.0-2.8","87","1","2025-07-02 10:19:10","80fe4187154257d5fb01684ea91b68b9","85.72.175.84","Mozilla/5.0 (Windows NT 10.0; Win64; x64) AppleWebKit/537.36 (KHTML, like Gecko) Chrome/137.0.0.0 Safari/537.36","WebKit","Chrome","137.0.0.0","Windows","10.0","https://app.prolific.com/","en-GB,en;q=0.9,bg-BG;q=0.8,bg;q=0.7,en-US;q=0.6","615d8873c11a1982c8838b54","683db6dfa200031b80f2a654","686507804f65d03560461a84","615d8873c11a1982c8838b54","2025-07-02T10:47:28.473Z","","","","","","ControlQ","","","","","","","","","","","","","","","","","","","","","","","","","","","","","","","","","","","","","","50"
"2683","","<div style=""width:500px;"">
  <p>How would you describe your current emotional state?</p>
  </div>","0","html-slider-response","81","1697536","0.0-10.0-3.8","87","1","2025-07-02 10:19:10","80fe4187154257d5fb01684ea91b68b9","85.72.175.84","Mozilla/5.0 (Windows NT 10.0; Win64; x64) AppleWebKit/537.36 (KHTML, like Gecko) Chrome/137.0.0.0 Safari/537.36","WebKit","Chrome","137.0.0.0","Windows","10.0","https://app.prolific.com/","en-GB,en;q=0.9,bg-BG;q=0.8,bg;q=0.7,en-US;q=0.6","615d8873c11a1982c8838b54","683db6dfa200031b80f2a654","686507804f65d03560461a84","615d8873c11a1982c8838b54","2025-07-02T10:47:31.157Z","","","","","","StressQ","","","","","","","","","","","","","","","","","","","","","","","","","","","","","","","","","","","","","","50"
"2091","","<div style=""width:500px;"">
  <p>What best describes how you currently feel?</p>
  </div>","100","html-slider-response","82","1699630","0.0-10.0-4.8","87","1","2025-07-02 10:19:10","80fe4187154257d5fb01684ea91b68b9","85.72.175.84","Mozilla/5.0 (Windows NT 10.0; Win64; x64) AppleWebKit/537.36 (KHTML, like Gecko) Chrome/137.0.0.0 Safari/537.36","WebKit","Chrome","137.0.0.0","Windows","10.0","https://app.prolific.com/","en-GB,en;q=0.9,bg-BG;q=0.8,bg;q=0.7,en-US;q=0.6","615d8873c11a1982c8838b54","683db6dfa200031b80f2a654","686507804f65d03560461a84","615d8873c11a1982c8838b54","2025-07-02T10:47:33.251Z","","","","","","MotivationQ","","","","","","","","","","","","","","","","","","","","","","","","","","","","","","","","","","","","","","50"
