"rt","response_timestamp","stimulus","response","trial_type","trial_index","time_elapsed","internal_node_id","run_id","condition","recorded_at","source_code_version","ip","user_agent","device","browser","browser_version","platform","platform_version","referer","accept_language","PROLIFIC_PID","STUDY_ID","SESSION_ID","prolific_id","realtime","view_history","question_order","consent","success","question_id","eventType","responses","item_order","radio_event_ids","radio_event_times","key_event_times","mouse_event_times","straightlining","zigzagging","honeypot","which_type","canvas_config","goals_layout","control_level","trial_number","tutorial_trial_number","trial_start_time","phase1_start_time","phase2_start_time","phase3_start_time","goal_1_value","goal_1_distance","goal_2_value","goal_2_distance","goal_selected","outcome","outcome_total","participant_final_score","participant_initial_score","participant_final_score_prop","goal_choice_rt","allocated_time","allocated_time_remaining","goal_direction","counts","mouse_movements","key_presses","correct","slider_start"
"6903","1751456378634","<p style='font-size:40px;line-height:1.25'><strong>Welcome to the experiment!</strong></p><p style='font-size:1.1em;line-height:1.25'>Thank you for your interest in our experiment! Before you begin, it is important that we obtain your informed consent to participate in the study.</p><p style='font-size:1.1em;line-height:1.25'>On the next screen will be an <strong>information sheet</strong> for you to read. To participate in the study we need you to read this information sheet and the following consent form carefully. If you agree with all the statements, please click the <strong>I agree</strong> button.</p><p style='font-size:1.1em;line-height:1.25'>Press <strong>Next</strong> to read the information sheet.</p>","0","custom-html-button-response","0","6905","0.0-0.0","243","1","2025-07-02 11:39:31","80fe4187154257d5fb01684ea91b68b9","188.36.3.22","Mozilla/5.0 (Windows NT 10.0; Win64; x64) AppleWebKit/537.36 (KHTML, like Gecko) Chrome/137.0.0.0 Safari/537.36","WebKit","Chrome","137.0.0.0","Windows","10.0","https://app.prolific.com/","hu-HU,hu;q=0.9,en-US;q=0.8,en;q=0.7","61717173748006894b2b54ff","683db6dfa200031b80f2a654","68650779e938d227d86eb7e8","61717173748006894b2b54ff","2025-07-02T11:39:38.635Z","","","","","","","","","","","","","","","","","","","","","","","","","","","","","","","","","","","","","","","","","","","",""
"2888","","","","instructions","1","9795","0.0-1.0","243","1","2025-07-02 11:39:31","80fe4187154257d5fb01684ea91b68b9","188.36.3.22","Mozilla/5.0 (Windows NT 10.0; Win64; x64) AppleWebKit/537.36 (KHTML, like Gecko) Chrome/137.0.0.0 Safari/537.36","WebKit","Chrome","137.0.0.0","Windows","10.0","https://app.prolific.com/","hu-HU,hu;q=0.9,en-US;q=0.8,en;q=0.7","61717173748006894b2b54ff","683db6dfa200031b80f2a654","68650779e938d227d86eb7e8","61717173748006894b2b54ff","","[{""page_index"":0,""viewing_time"":2365},{""page_index"":1,""viewing_time"":523}]","","","","","","","","","","","","","","","","","","","","","","","","","","","","","","","","","","","","","","","","","","",""
"1718","","","{""Q0"":"""",""Q1"":"""",""Q2"":"""",""Q3"":"""",""Q4"":"""",""Q5"":"""",""Q6"":""I agree""}","survey-multi-choice","2","11515","0.0-2.0","243","1","2025-07-02 11:39:31","80fe4187154257d5fb01684ea91b68b9","188.36.3.22","Mozilla/5.0 (Windows NT 10.0; Win64; x64) AppleWebKit/537.36 (KHTML, like Gecko) Chrome/137.0.0.0 Safari/537.36","WebKit","Chrome","137.0.0.0","Windows","10.0","https://app.prolific.com/","hu-HU,hu;q=0.9,en-US;q=0.8,en;q=0.7","61717173748006894b2b54ff","683db6dfa200031b80f2a654","68650779e938d227d86eb7e8","61717173748006894b2b54ff","","","[0,1,2,3,4,5,6]","true","","","","","","","","","","","","","","","","","","","","","","","","","","","","","","","","","","","","","","","","",""
"9494","","","","fullscreen","3","22021","0.0-4.0","243","1","2025-07-02 11:39:31","80fe4187154257d5fb01684ea91b68b9","188.36.3.22","Mozilla/5.0 (Windows NT 10.0; Win64; x64) AppleWebKit/537.36 (KHTML, like Gecko) Chrome/137.0.0.0 Safari/537.36","WebKit","Chrome","137.0.0.0","Windows","10.0","https://app.prolific.com/","hu-HU,hu;q=0.9,en-US;q=0.8,en;q=0.7","61717173748006894b2b54ff","683db6dfa200031b80f2a654","68650779e938d227d86eb7e8","61717173748006894b2b54ff","","","","","true","","","","","","","","","","","","","","","","","","","","","","","","","","","","","","","","","","","","","","","",""
"2685","1751456396437"," <p style='font-size:1.1em;line-height:1.25'>Thank you for completing the consent form and closing all other tabs.</p><p style='font-size:1.1em;line-height:1.25'>We will now invite you to fill in some demographic information and questionnaires, before starting the game.<br>This will take about 5 minutes.<br></p><p style='font-size:1.1em;line-height:1.25'>Press the <strong>Next</strong> button to continue.</p>","0","custom-html-button-response","4","24707","0.0-5.0","243","1","2025-07-02 11:39:31","80fe4187154257d5fb01684ea91b68b9","188.36.3.22","Mozilla/5.0 (Windows NT 10.0; Win64; x64) AppleWebKit/537.36 (KHTML, like Gecko) Chrome/137.0.0.0 Safari/537.36","WebKit","Chrome","137.0.0.0","Windows","10.0","https://app.prolific.com/","hu-HU,hu;q=0.9,en-US;q=0.8,en;q=0.7","61717173748006894b2b54ff","683db6dfa200031b80f2a654","68650779e938d227d86eb7e8","61717173748006894b2b54ff","2025-07-02T11:39:56.437Z","","","","","","","","","","","","","","","","","","","","","","","","","","","","","","","","","","","","","","","","","","","",""
"13146","","","{""age"":""21""}","survey-text","5","37855","0.0-6.0-0.0","243","1","2025-07-02 11:39:31","80fe4187154257d5fb01684ea91b68b9","188.36.3.22","Mozilla/5.0 (Windows NT 10.0; Win64; x64) AppleWebKit/537.36 (KHTML, like Gecko) Chrome/137.0.0.0 Safari/537.36","WebKit","Chrome","137.0.0.0","Windows","10.0","https://app.prolific.com/","hu-HU,hu;q=0.9,en-US;q=0.8,en;q=0.7","61717173748006894b2b54ff","683db6dfa200031b80f2a654","68650779e938d227d86eb7e8","61717173748006894b2b54ff","","","","","","0","demographics","","","","","","","","","","","","","","","","","","","","","","","","","","","","","","","","","","","","","",""
"2562","","","{""gender_identity"":""male/man""}","survey-multi-choice","6","40419","0.0-6.0-1.0","243","1","2025-07-02 11:39:31","80fe4187154257d5fb01684ea91b68b9","188.36.3.22","Mozilla/5.0 (Windows NT 10.0; Win64; x64) AppleWebKit/537.36 (KHTML, like Gecko) Chrome/137.0.0.0 Safari/537.36","WebKit","Chrome","137.0.0.0","Windows","10.0","https://app.prolific.com/","hu-HU,hu;q=0.9,en-US;q=0.8,en;q=0.7","61717173748006894b2b54ff","683db6dfa200031b80f2a654","68650779e938d227d86eb7e8","61717173748006894b2b54ff","","","[0]","","","1","demographics","","","","","","","","","","","","","","","","","","","","","","","","","","","","","","","","","","","","","",""
"1345","","","{""assigned_sex"":""male""}","survey-multi-choice","7","41765","0.0-6.0-2.0","243","1","2025-07-02 11:39:31","80fe4187154257d5fb01684ea91b68b9","188.36.3.22","Mozilla/5.0 (Windows NT 10.0; Win64; x64) AppleWebKit/537.36 (KHTML, like Gecko) Chrome/137.0.0.0 Safari/537.36","WebKit","Chrome","137.0.0.0","Windows","10.0","https://app.prolific.com/","hu-HU,hu;q=0.9,en-US;q=0.8,en;q=0.7","61717173748006894b2b54ff","683db6dfa200031b80f2a654","68650779e938d227d86eb7e8","61717173748006894b2b54ff","","","[0]","","","2","demographics","","","","","","","","","","","","","","","","","","","","","","","","","","","","","","","","","","","","","",""
"1761","","","{""menstrual_cycle"":""No""}","survey-multi-choice","8","43526","0.0-6.0-3.0","243","1","2025-07-02 11:39:31","80fe4187154257d5fb01684ea91b68b9","188.36.3.22","Mozilla/5.0 (Windows NT 10.0; Win64; x64) AppleWebKit/537.36 (KHTML, like Gecko) Chrome/137.0.0.0 Safari/537.36","WebKit","Chrome","137.0.0.0","Windows","10.0","https://app.prolific.com/","hu-HU,hu;q=0.9,en-US;q=0.8,en;q=0.7","61717173748006894b2b54ff","683db6dfa200031b80f2a654","68650779e938d227d86eb7e8","61717173748006894b2b54ff","","","[0]","","","4","demographics","","","","","","","","","","","","","","","","","","","","","","","","","","","","","","","","","","","","","",""
"8646","","","{""education"":""Vocational Qualifications (e.g. City & Guilds)""}","survey-multi-choice","9","52173","0.0-6.0-4.0","243","1","2025-07-02 11:39:31","80fe4187154257d5fb01684ea91b68b9","188.36.3.22","Mozilla/5.0 (Windows NT 10.0; Win64; x64) AppleWebKit/537.36 (KHTML, like Gecko) Chrome/137.0.0.0 Safari/537.36","WebKit","Chrome","137.0.0.0","Windows","10.0","https://app.prolific.com/","hu-HU,hu;q=0.9,en-US;q=0.8,en;q=0.7","61717173748006894b2b54ff","683db6dfa200031b80f2a654","68650779e938d227d86eb7e8","61717173748006894b2b54ff","","","[0]","","","5","demographics","","","","","","","","","","","","","","","","","","","","","","","","","","","","","","","","","","","","","",""
"3852","","","{""education"":""Vocational Qualifications (e.g. City & Guilds)""}","survey-multi-choice","10","56026","0.0-6.0-5.0","243","1","2025-07-02 11:39:31","80fe4187154257d5fb01684ea91b68b9","188.36.3.22","Mozilla/5.0 (Windows NT 10.0; Win64; x64) AppleWebKit/537.36 (KHTML, like Gecko) Chrome/137.0.0.0 Safari/537.36","WebKit","Chrome","137.0.0.0","Windows","10.0","https://app.prolific.com/","hu-HU,hu;q=0.9,en-US;q=0.8,en;q=0.7","61717173748006894b2b54ff","683db6dfa200031b80f2a654","68650779e938d227d86eb7e8","61717173748006894b2b54ff","2025-07-02T11:40:27.756Z","","[0]","","","6","demographics","","","","","","","","","","","","","","","","","","","","","","","","","","","","","","","","","","","","","",""
"53911","","","{""mental_health_condition"":""I don't have."",""mental_health_treatment"":""No."",""psychiatric_medication"":""N/A""}","survey-text","11","109939","0.0-7.0-0.0","243","1","2025-07-02 11:39:31","80fe4187154257d5fb01684ea91b68b9","188.36.3.22","Mozilla/5.0 (Windows NT 10.0; Win64; x64) AppleWebKit/537.36 (KHTML, like Gecko) Chrome/137.0.0.0 Safari/537.36","WebKit","Chrome","137.0.0.0","Windows","10.0","https://app.prolific.com/","hu-HU,hu;q=0.9,en-US;q=0.8,en;q=0.7","61717173748006894b2b54ff","683db6dfa200031b80f2a654","68650779e938d227d86eb7e8","61717173748006894b2b54ff","2025-07-02T11:41:21.669Z","","","","","1","mental_health","","","","","","","","","","","","","","","","","","","","","","","","","","","","","","","","","","","","","",""
"2694","","","{""depression_history"":[""No""]}","survey-multi-select","12","112635","0.0-7.0-1.0","243","1","2025-07-02 11:39:31","80fe4187154257d5fb01684ea91b68b9","188.36.3.22","Mozilla/5.0 (Windows NT 10.0; Win64; x64) AppleWebKit/537.36 (KHTML, like Gecko) Chrome/137.0.0.0 Safari/537.36","WebKit","Chrome","137.0.0.0","Windows","10.0","https://app.prolific.com/","hu-HU,hu;q=0.9,en-US;q=0.8,en;q=0.7","61717173748006894b2b54ff","683db6dfa200031b80f2a654","68650779e938d227d86eb7e8","61717173748006894b2b54ff","","","[0]","","","","mental_health","","","","","","","","","","","","","","","","","","","","","","","","","","","","","","","","","","","","","",""
"120708.70000004768","","","","survey-template","13","233348","0.0-7.0-3.0","243","1","2025-07-02 11:39:31","80fe4187154257d5fb01684ea91b68b9","188.36.3.22","Mozilla/5.0 (Windows NT 10.0; Win64; x64) AppleWebKit/537.36 (KHTML, like Gecko) Chrome/137.0.0.0 Safari/537.36","WebKit","Chrome","137.0.0.0","Windows","10.0","https://app.prolific.com/","hu-HU,hu;q=0.9,en-US;q=0.8,en;q=0.7","61717173748006894b2b54ff","683db6dfa200031b80f2a654","68650779e938d227d86eb7e8","61717173748006894b2b54ff","2025-07-02T11:43:25.078Z","","","","","","ius","{""Q01"":""1"",""Q02"":""3"",""Q03"":""1"",""Q04"":""2"",""Q05"":""2"",""Q06"":""1"",""Q07"":""1"",""Q08"":""0"",""Q09"":""3"",""Q10"":""1"",""Q11"":""1"",""Q12"":""2"",""Q13"":""2""}","[0,1,2,3,4,5,6,7,8,9,10,11,12]","[""Q01"",""Q02"",""Q03"",""Q04"",""Q08"",""Q07"",""Q05"",""Q06"",""Q09"",""Q11"",""Q10"",""Q12"",""Q13""]","[4181.899999976158,6039,9681.200000047684,13009.100000023842,25437.100000023842,30594.200000047684,36820.300000071526,39218.200000047684,66687,85175.89999997616,87687.30000007153,118068.10000002384,119108.10000002384]","[]","[4181.899999976158,6039,8570.700000047684,9681.200000047684,12209.700000047684,12612,13009.100000023842,25437.100000023842,28827.800000071526,30248.600000023842,30594.200000047684,36371.89999997616,36820.300000071526,39218.200000047684,63147.800000071526,66370.20000004768,66687,85175.89999997616,86585.30000007153,87338.80000007153,87504.30000007153,87687.30000007153,88103.10000002384,114752.10000002384,115443.39999997616,116883.10000002384,117322.30000007153,118068.10000002384,118603.20000004768,119108.10000002384,119457.39999997616,120074.30000007153,120707.10000002384]","0.46153846153846156","0.3333333333333333","0","","","","","","","","","","","","","","","","","","","","","","","","","","","","",""
"1131","1751456606210","<p style='font-size:1.1em;line-height:1.25'>In the following, we will ask you a few questions relating to your experiences over the past month.<br></p><p style='font-size:1.1em;line-height:1.25'>Press the <strong>Next</strong> button to continue.</p>","0","custom-html-button-response","14","234481","0.0-7.0-4.0","243","1","2025-07-02 11:39:31","80fe4187154257d5fb01684ea91b68b9","188.36.3.22","Mozilla/5.0 (Windows NT 10.0; Win64; x64) AppleWebKit/537.36 (KHTML, like Gecko) Chrome/137.0.0.0 Safari/537.36","WebKit","Chrome","137.0.0.0","Windows","10.0","https://app.prolific.com/","hu-HU,hu;q=0.9,en-US;q=0.8,en;q=0.7","61717173748006894b2b54ff","683db6dfa200031b80f2a654","68650779e938d227d86eb7e8","61717173748006894b2b54ff","2025-07-02T11:43:26.211Z","","","","","","","","","","","","","","","","","","","","","","","","","","","","","","","","","","","","","","","","","","","",""
"88866.30000007153","","","","survey-template","15","323350","0.0-7.0-5.0","243","1","2025-07-02 11:39:31","80fe4187154257d5fb01684ea91b68b9","188.36.3.22","Mozilla/5.0 (Windows NT 10.0; Win64; x64) AppleWebKit/537.36 (KHTML, like Gecko) Chrome/137.0.0.0 Safari/537.36","WebKit","Chrome","137.0.0.0","Windows","10.0","https://app.prolific.com/","hu-HU,hu;q=0.9,en-US;q=0.8,en;q=0.7","61717173748006894b2b54ff","683db6dfa200031b80f2a654","68650779e938d227d86eb7e8","61717173748006894b2b54ff","2025-07-02T11:44:55.080Z","","","","","","pss","{""Q01"":""0"",""Q02"":""1"",""Q03"":""1"",""Q04"":""1"",""Q05"":""2"",""Q06"":""1"",""Q07"":""1"",""Q08"":""1"",""Q09"":""1"",""Q10"":""1""}","[0,1,2,3,4,5,6,7,8,9]","[""Q04"",""Q04"",""Q03"",""Q02"",""Q01"",""Q02"",""Q05"",""Q06"",""Q07"",""Q08"",""Q09"",""Q10""]","[5179.200000047684,5599.600000023842,8424.100000023842,9925.600000023842,10973.200000047684,12409.5,15864.200000047684,19643.300000071526,22975.100000023842,79113.10000002384,81606.5,86576.10000002384]","[]","[0,4823.5,5179.200000047684,5599.600000023842,6538.600000023842,6786.100000023842,7279.200000047684,8424.100000023842,9925.600000023842,10477.200000047684,10973.200000047684,11612.100000023842,12409.5,15864.200000047684,19281.100000023842,19643.300000071526,22975.100000023842,78502.10000002384,78913,79113.10000002384,81243.40000009537,81606.5,85830,86576.10000002384,88209.40000009537,88864.70000004768]","0.5","0.3333333333333333","0","","","","","","","","","","","","","","","","","","","","","","","","","","","","",""
"4867","1751456699947","<p style='font-size:1.1em;line-height:1.25'>Thank you for your answers! Now we will ask you a few more questions relating to your feelings in the last 24 hours.<br></p><p style='font-size:1.1em;line-height:1.25'>Press the <strong>Next</strong> button to continue.</p>","0","custom-html-button-response","16","328218","0.0-7.0-6.0","243","1","2025-07-02 11:39:31","80fe4187154257d5fb01684ea91b68b9","188.36.3.22","Mozilla/5.0 (Windows NT 10.0; Win64; x64) AppleWebKit/537.36 (KHTML, like Gecko) Chrome/137.0.0.0 Safari/537.36","WebKit","Chrome","137.0.0.0","Windows","10.0","https://app.prolific.com/","hu-HU,hu;q=0.9,en-US;q=0.8,en;q=0.7","61717173748006894b2b54ff","683db6dfa200031b80f2a654","68650779e938d227d86eb7e8","61717173748006894b2b54ff","2025-07-02T11:44:59.948Z","","","","","","","","","","","","","","","","","","","","","","","","","","","","","","","","","","","","","","","","","","","",""
"305479.39999997616","","","","survey-template","17","633702","0.0-7.0-7.0","243","1","2025-07-02 11:39:31","80fe4187154257d5fb01684ea91b68b9","188.36.3.22","Mozilla/5.0 (Windows NT 10.0; Win64; x64) AppleWebKit/537.36 (KHTML, like Gecko) Chrome/137.0.0.0 Safari/537.36","WebKit","Chrome","137.0.0.0","Windows","10.0","https://app.prolific.com/","hu-HU,hu;q=0.9,en-US;q=0.8,en;q=0.7","61717173748006894b2b54ff","683db6dfa200031b80f2a654","68650779e938d227d86eb7e8","61717173748006894b2b54ff","2025-07-02T11:50:05.433Z","","","","","","drsp","{""Q01"":""0"",""Q02"":""0"",""Q03"":""0"",""Q04"":""0"",""Q05"":""1"",""Q06"":""0"",""Q07"":""0"",""Q08"":""0"",""Q09"":""0"",""Q10"":""2"",""Q11"":""1"",""Q12"":""0"",""Q13"":""0"",""Q14"":""1"",""Q15"":""1"",""Q16"":""0"",""Q17"":""1"",""Q18"":""0"",""Q19"":""0"",""Q20"":""0"",""Q21"":""0""}","[0,1,2,3,4,5,6,7,8,9,10,11,12,13,14,15,16,17,18,19,20]","[""Q01"",""Q02"",""Q03"",""Q04"",""Q05"",""Q05"",""Q06"",""Q07"",""Q08"",""Q09"",""Q09"",""Q10"",""Q11"",""Q12"",""Q13"",""Q14"",""Q15"",""Q16"",""Q17"",""Q17"",""Q18"",""Q19"",""Q21"",""Q20"",""Q21"",""Q19""]","[1638.8999999761581,2542.899999976158,3360.6999999284744,4184,4958.5,6238.599999904633,7168.299999952316,9168.5,10872.399999976158,12865.899999976158,14517,15196.899999976158,16280.599999904633,17618.699999928474,18759.799999952316,20043.799999952316,22149,24199,31666.699999928474,33128.699999928474,34790.89999997616,286454.7999999523,298253.6999999285,299753.7999999523,301687.6999999285,304662.7999999523]","[]","[0,1638.8999999761581,1993.3999999761581,2542.899999976158,3360.6999999284744,4184,4958.5,5337.899999976158,5596.5,5996.599999904633,6238.599999904633,7168.299999952316,8208.299999952316,9168.5,10539.199999928474,10872.399999976158,12865.899999976158,13743.899999976158,14100.599999904633,14517,15196.899999976158,16280.599999904633,17618.699999928474,18759.799999952316,20043.799999952316,22149,24199,31666.699999928474,33128.699999928474,34790.89999997616,286454.7999999523,290259.89999997616,290583.7999999523,298253.6999999285,299753.7999999523,300058.59999990463,300487.5,300794.39999997616,301687.6999999285,304662.7999999523,305476.89999997616]","0.7142857142857143","0.4","0","","","","","","","","","","","","","","","","","","","","","","","","","","","","",""
"36192.89999997616","","","","survey-template","18","669897","0.0-7.0-8.0","243","1","2025-07-02 11:39:31","80fe4187154257d5fb01684ea91b68b9","188.36.3.22","Mozilla/5.0 (Windows NT 10.0; Win64; x64) AppleWebKit/537.36 (KHTML, like Gecko) Chrome/137.0.0.0 Safari/537.36","WebKit","Chrome","137.0.0.0","Windows","10.0","https://app.prolific.com/","hu-HU,hu;q=0.9,en-US;q=0.8,en;q=0.7","61717173748006894b2b54ff","683db6dfa200031b80f2a654","68650779e938d227d86eb7e8","61717173748006894b2b54ff","2025-07-02T11:50:41.628Z","","","","","","stress","{""Q01"":""1"",""Q02"":""2"",""Q03"":""0""}","[0,1,2]","[""Q01"",""Q03"",""Q02""]","[4353.299999952316,27602.199999928474,33265.09999990463]","[]","[1780.1999999284744,2588.399999976158,3243.1999999284744,4353.299999952316,5050,5310.099999904633,27602.199999928474,33265.09999990463,36192.199999928474]","0.3333333333333333","0","0","","","","","","","","","","","","","","","","","","","","","","","","","","","","",""
"5533","","","","instructions","19","675432","0.0-8.0-0.0","243","1","2025-07-02 11:39:31","80fe4187154257d5fb01684ea91b68b9","188.36.3.22","Mozilla/5.0 (Windows NT 10.0; Win64; x64) AppleWebKit/537.36 (KHTML, like Gecko) Chrome/137.0.0.0 Safari/537.36","WebKit","Chrome","137.0.0.0","Windows","10.0","https://app.prolific.com/","hu-HU,hu;q=0.9,en-US;q=0.8,en;q=0.7","61717173748006894b2b54ff","683db6dfa200031b80f2a654","68650779e938d227d86eb7e8","61717173748006894b2b54ff","","[{""page_index"":0,""viewing_time"":3140},{""page_index"":1,""viewing_time"":1199},{""page_index"":2,""viewing_time"":691},{""page_index"":3,""viewing_time"":504}]","","","","","","","","","","","","","","","","","","","","","","","","","","","","","","","","","","","","","","","","","","",""
"","","","","ctl-task-cpt","20","696057","0.0-8.0-1.0","243","1","2025-07-02 11:39:31","80fe4187154257d5fb01684ea91b68b9","188.36.3.22","Mozilla/5.0 (Windows NT 10.0; Win64; x64) AppleWebKit/537.36 (KHTML, like Gecko) Chrome/137.0.0.0 Safari/537.36","WebKit","Chrome","137.0.0.0","Windows","10.0","https://app.prolific.com/","hu-HU,hu;q=0.9,en-US;q=0.8,en;q=0.7","61717173748006894b2b54ff","683db6dfa200031b80f2a654","68650779e938d227d86eb7e8","61717173748006894b2b54ff","","","","","","","","","","","","","","","","","win-only","2","g1:SE,g2:NW","1","0","1","676609.2","2277.3","6280.7","17618.2","2","4","4","6","1","2","2","2","0","0.015151515151515152","1620.3","4000","2885","[""down"",""right""]","{""num_key_presses"":4,""num_perfect"":4,""num_errors"":0,""num_randdir"":0,""num_randdir_good_moves"":0,""num_whilered"":0,""num_whileblue"":0,""num_blue"":0,""num_good_moves"":4}","[427.57142857142856,424.47767857142856,0.2,427.57142857142856,424.47767857142856,103.3,427.57142857142856,424.47767857142856,208.5,427.57142857142856,424.47767857142856,313.2,435.57142857142856,440.47767857142856,418.1,523.5714285714286,471.47767857142856,518.4,616.5714285714286,464.47767857142856,618.7,616.5714285714286,464.47767857142856,718.7,616.5714285714286,464.47767857142856,819,616.5714285714286,463.47767857142856,924.2,227.57142857142856,202.47767857142856,1028.5,116.57142857142857,162.47767857142856,1134.4,412.57142857142856,458.47767857142856,1234.5,607.5714285714286,669.4776785714286,1338.7,610.5714285714286,682.4776785714286,1443.3,676.5714285714286,725.4776785714286,1549.7,719.5714285714286,749.4776785714286,1654.3,881.5714285714286,663.4776785714286,1754.7,970.5714285714286,616.4776785714286,1858.5,972.5714285714286,596.4776785714286,1959.1,986.5714285714286,568.4776785714286,2063.8,1098.5714285714287,508.47767857142856,2163.9,1121.5714285714287,504.47767857142856,2269,1121.5714285714287,504.47767857142856,2373.5,1121.5714285714287,504.47767857142856,2478.4,1121.5714285714287,504.47767857142856,2584.2,1121.5714285714287,504.47767857142856,2688.9,1121.5714285714287,504.47767857142856,2794.2,1121.5714285714287,504.47767857142856,2899,1121.5714285714287,504.47767857142856,3004.1,1121.5714285714287,504.47767857142856,3108.7,1121.5714285714287,504.47767857142856,3213.8,1121.5714285714287,504.47767857142856,3318.9,1121.5714285714287,504.47767857142856,3424.4,1121.5714285714287,504.47767857142856,3528.3,1121.5714285714287,504.47767857142856,3633.5,1121.5714285714287,504.47767857142856,3738.7,1121.5714285714287,504.47767857142856,3843.4,1121.5714285714287,504.47767857142856,3946.4]","[1343,1343,1000,0,343,""smooth"",""right"",""right"",""good_move"",5066.1,3722.5,3363.6,1343.7,358.8,""smooth"",""right"",""right"",""good_move"",8006.6,2940.2,2584.8,5066.4,355.4,""smooth"",""down"",""down"",""good_move"",11243.1,3236.1,2954.8,8007,281.3,""smooth"",""down"",""down"",""good_move""]","",""
"579","","","","instructions","21","696637","0.0-8.0-2.0","243","1","2025-07-02 11:39:31","80fe4187154257d5fb01684ea91b68b9","188.36.3.22","Mozilla/5.0 (Windows NT 10.0; Win64; x64) AppleWebKit/537.36 (KHTML, like Gecko) Chrome/137.0.0.0 Safari/537.36","WebKit","Chrome","137.0.0.0","Windows","10.0","https://app.prolific.com/","hu-HU,hu;q=0.9,en-US;q=0.8,en;q=0.7","61717173748006894b2b54ff","683db6dfa200031b80f2a654","68650779e938d227d86eb7e8","61717173748006894b2b54ff","","[{""page_index"":0,""viewing_time"":578}]","","","","","","","","","","","","","","","","","","","","","","","","","","","","","","","","","","","","","","","","","","",""
"","","","","ctl-task-cpt","22","754771","0.0-8.0-3.0","243","1","2025-07-02 11:39:31","80fe4187154257d5fb01684ea91b68b9","188.36.3.22","Mozilla/5.0 (Windows NT 10.0; Win64; x64) AppleWebKit/537.36 (KHTML, like Gecko) Chrome/137.0.0.0 Safari/537.36","WebKit","Chrome","137.0.0.0","Windows","10.0","https://app.prolific.com/","hu-HU,hu;q=0.9,en-US;q=0.8,en;q=0.7","61717173748006894b2b54ff","683db6dfa200031b80f2a654","68650779e938d227d86eb7e8","61717173748006894b2b54ff","","","","","","","","","","","","","","","","","win-only","2","g1:SE,g2:NW","0.35","0","3","697813.3","698.3","4700.5","55131","2","4","8","6","2","-8","-11","0","0","0","901.7","4000","-2990","[""left"",""up""]","{""num_key_presses"":13,""num_perfect"":4,""num_errors"":3,""num_randdir"":6,""num_randdir_good_moves"":2,""num_whilered"":0,""num_whileblue"":3,""num_blue"":5,""num_good_moves"":7}","[416.57142857142856,403.47767857142856,0.3,416.57142857142856,403.47767857142856,102.3,416.57142857142856,408.47767857142856,202.7,459.57142857142856,470.47767857142856,308.1,567.5714285714286,570.4776785714286,412.2,530.5714285714286,515.4776785714286,512.6,156.57142857142856,181.47767857142856,617.3,109.57142857142857,122.47767857142857,719.7,101.57142857142857,104.47767857142857,823.1,99.57142857142857,101.47767857142857,937.5,407.57142857142856,244.47767857142856,1043.2,821.5714285714286,367.47767857142856,1147.8,871.5714285714286,366.47767857142856,1248.1,871.5714285714286,366.47767857142856,1352.2,871.5714285714286,366.47767857142856,1457.4,871.5714285714286,366.47767857142856,1559.3,871.5714285714286,366.47767857142856,1661.9,871.5714285714286,366.47767857142856,1763,871.5714285714286,366.47767857142856,1867.5,871.5714285714286,366.47767857142856,1969.3,871.5714285714286,366.47767857142856,2073,871.5714285714286,366.47767857142856,2176.3,871.5714285714286,366.47767857142856,2283,871.5714285714286,366.47767857142856,2391.8,871.5714285714286,366.47767857142856,2501.4,871.5714285714286,366.47767857142856,2603.1,871.5714285714286,366.47767857142856,2708.8,871.5714285714286,366.47767857142856,2812.8,871.5714285714286,366.47767857142856,2912.8,871.5714285714286,366.47767857142856,3017.6,871.5714285714286,366.47767857142856,3123.2,871.5714285714286,366.47767857142856,3224.8,871.5714285714286,366.47767857142856,3325.2,871.5714285714286,366.47767857142856,3428,871.5714285714286,366.47767857142856,3527.9,871.5714285714286,366.47767857142856,3632.2,871.5714285714286,366.47767857142856,3732.9,871.5714285714286,366.47767857142856,3842.4,871.5714285714286,366.47767857142856,3944]","[1337.8,1337.7,1000,0.1,337.7,""oops"",""up"",""right"",""bad_move"",4528.7,3190.6,2851.9,1338.2,338.6,""while_blue"",""up"",""down"",""bad_move"",7809.6,3280.5,2980.2,4529.1,300.3,""smooth"",""up"",""up"",""good_move"",11227.3,3417.6,3072.8,7809.8,344.8,""oops"",""left"",""up"",""good_move"",14143.1,2915.5,2586.3,11227.7,329.1,""smooth"",""left"",""left"",""good_move"",17373.8,3230.4,2937.4,14143.4,293,""smooth"",""left"",""left"",""good_move"",20541.5,3167.5,2886.5,17374,281,""while_blue"",""left"",""right"",""bad_move"",23655.4,3113.7,2450.5,20541.7,663.2,""oops"",""left"",""down"",""bad_move"",26879.6,3223.9,2909.5,23655.7,314.4,""while_blue"",""up"",""up"",""good_move"",30362,3482.3,3020,26879.7,462.3,""smooth"",""up"",""up"",""good_move"",36633.7,6271.4,1945.6,34214.7,473.4,""oops"",""left"",""down"",""bad_move"",39694.2,3060.4,2507,36633.8,553.4,""oops"",""up"",""right"",""bad_move"",43220.2,3525.8,3050.4,39694.4,475.4,""oops"",""up"",""up"",""good_move""]","",""
"84658","","","","instructions","23","839430","0.0-8.0-4.0","243","1","2025-07-02 11:39:31","80fe4187154257d5fb01684ea91b68b9","188.36.3.22","Mozilla/5.0 (Windows NT 10.0; Win64; x64) AppleWebKit/537.36 (KHTML, like Gecko) Chrome/137.0.0.0 Safari/537.36","WebKit","Chrome","137.0.0.0","Windows","10.0","https://app.prolific.com/","hu-HU,hu;q=0.9,en-US;q=0.8,en;q=0.7","61717173748006894b2b54ff","683db6dfa200031b80f2a654","68650779e938d227d86eb7e8","61717173748006894b2b54ff","","[{""page_index"":0,""viewing_time"":83666},{""page_index"":1,""viewing_time"":992}]","","","","","","","","","","","","","","","","","","","","","","","","","","","","","","","","","","","","","","","","","","",""
"9605","","","{""green_ball"":[""Ball sometimes shakes and moves in a random direction""]}","survey-multi-select","24","849037","0.0-8.0-5.0-0.0","243","1","2025-07-02 11:39:31","80fe4187154257d5fb01684ea91b68b9","188.36.3.22","Mozilla/5.0 (Windows NT 10.0; Win64; x64) AppleWebKit/537.36 (KHTML, like Gecko) Chrome/137.0.0.0 Safari/537.36","WebKit","Chrome","137.0.0.0","Windows","10.0","https://app.prolific.com/","hu-HU,hu;q=0.9,en-US;q=0.8,en;q=0.7","61717173748006894b2b54ff","683db6dfa200031b80f2a654","68650779e938d227d86eb7e8","61717173748006894b2b54ff","","","[0]","","","","quiz","","","","","","","","","","","","","","","","","","","","","","","","","","","","","","","","","","","","","true",""
"541","","<p align='center'><b>CORRECT!</b> Indeed, the green ball may sometimes shake and move in a random direction.</p>","0","html-button-response","25","849580","0.0-8.0-5.0-1.0","243","1","2025-07-02 11:39:31","80fe4187154257d5fb01684ea91b68b9","188.36.3.22","Mozilla/5.0 (Windows NT 10.0; Win64; x64) AppleWebKit/537.36 (KHTML, like Gecko) Chrome/137.0.0.0 Safari/537.36","WebKit","Chrome","137.0.0.0","Windows","10.0","https://app.prolific.com/","hu-HU,hu;q=0.9,en-US;q=0.8,en;q=0.7","61717173748006894b2b54ff","683db6dfa200031b80f2a654","68650779e938d227d86eb7e8","61717173748006894b2b54ff","","","","","","","","","","","","","","","","","","","","","","","","","","","","","","","","","","","","","","","","","","","","",""
"2566","","","{""yellow_ball"":[""Ball doesn‘t move and I get -1 penalty point""]}","survey-multi-select","26","852148","0.0-8.0-6.0-0.0","243","1","2025-07-02 11:39:31","80fe4187154257d5fb01684ea91b68b9","188.36.3.22","Mozilla/5.0 (Windows NT 10.0; Win64; x64) AppleWebKit/537.36 (KHTML, like Gecko) Chrome/137.0.0.0 Safari/537.36","WebKit","Chrome","137.0.0.0","Windows","10.0","https://app.prolific.com/","hu-HU,hu;q=0.9,en-US;q=0.8,en;q=0.7","61717173748006894b2b54ff","683db6dfa200031b80f2a654","68650779e938d227d86eb7e8","61717173748006894b2b54ff","","","[0]","","","","quiz","","","","","","","","","","","","","","","","","","","","","","","","","","","","","","","","","","","","","true",""
"463","","<p align='center'><b>CORRECT!</b> Indeed, the yellow ball never moves and you receive a penalty.</p>","0","html-button-response","27","852612","0.0-8.0-6.0-1.0","243","1","2025-07-02 11:39:31","80fe4187154257d5fb01684ea91b68b9","188.36.3.22","Mozilla/5.0 (Windows NT 10.0; Win64; x64) AppleWebKit/537.36 (KHTML, like Gecko) Chrome/137.0.0.0 Safari/537.36","WebKit","Chrome","137.0.0.0","Windows","10.0","https://app.prolific.com/","hu-HU,hu;q=0.9,en-US;q=0.8,en;q=0.7","61717173748006894b2b54ff","683db6dfa200031b80f2a654","68650779e938d227d86eb7e8","61717173748006894b2b54ff","","","","","","","","","","","","","","","","","","","","","","","","","","","","","","","","","","","","","","","","","","","","",""
"3811","","","{""blue_ball"":[""Ball always shakes and moves in a random direction""]}","survey-multi-select","28","856425","0.0-8.0-7.0-0.0","243","1","2025-07-02 11:39:31","80fe4187154257d5fb01684ea91b68b9","188.36.3.22","Mozilla/5.0 (Windows NT 10.0; Win64; x64) AppleWebKit/537.36 (KHTML, like Gecko) Chrome/137.0.0.0 Safari/537.36","WebKit","Chrome","137.0.0.0","Windows","10.0","https://app.prolific.com/","hu-HU,hu;q=0.9,en-US;q=0.8,en;q=0.7","61717173748006894b2b54ff","683db6dfa200031b80f2a654","68650779e938d227d86eb7e8","61717173748006894b2b54ff","","","[0]","","","","quiz","","","","","","","","","","","","","","","","","","","","","","","","","","","","","","","","","","","","","true",""
"446","","<p align='center'><b>CORRECT!</b> Indeed, the blue ball always shakes and moves in a random direction. Also there is a penalty of -1 point.</p>","0","html-button-response","29","856872","0.0-8.0-7.0-1.0","243","1","2025-07-02 11:39:31","80fe4187154257d5fb01684ea91b68b9","188.36.3.22","Mozilla/5.0 (Windows NT 10.0; Win64; x64) AppleWebKit/537.36 (KHTML, like Gecko) Chrome/137.0.0.0 Safari/537.36","WebKit","Chrome","137.0.0.0","Windows","10.0","https://app.prolific.com/","hu-HU,hu;q=0.9,en-US;q=0.8,en;q=0.7","61717173748006894b2b54ff","683db6dfa200031b80f2a654","68650779e938d227d86eb7e8","61717173748006894b2b54ff","","","","","","","","","","","","","","","","","","","","","","","","","","","","","","","","","","","","","","","","","","","","",""
"1038","","","{""bonus"":[""When I reach 50% of points""]}","survey-multi-select","30","857912","0.0-8.0-8.0-0.0","243","1","2025-07-02 11:39:31","80fe4187154257d5fb01684ea91b68b9","188.36.3.22","Mozilla/5.0 (Windows NT 10.0; Win64; x64) AppleWebKit/537.36 (KHTML, like Gecko) Chrome/137.0.0.0 Safari/537.36","WebKit","Chrome","137.0.0.0","Windows","10.0","https://app.prolific.com/","hu-HU,hu;q=0.9,en-US;q=0.8,en;q=0.7","61717173748006894b2b54ff","683db6dfa200031b80f2a654","68650779e938d227d86eb7e8","61717173748006894b2b54ff","","","[0]","","","","quiz","","","","","","","","","","","","","","","","","","","","","","","","","","","","","","","","","","","","","true",""
"570","","<p align='center'><b>CORRECT!</b> Indeed, you receive 2 pounds extra when you reach 50% of points.</p>","0","html-button-response","31","858483","0.0-8.0-8.0-1.0","243","1","2025-07-02 11:39:31","80fe4187154257d5fb01684ea91b68b9","188.36.3.22","Mozilla/5.0 (Windows NT 10.0; Win64; x64) AppleWebKit/537.36 (KHTML, like Gecko) Chrome/137.0.0.0 Safari/537.36","WebKit","Chrome","137.0.0.0","Windows","10.0","https://app.prolific.com/","hu-HU,hu;q=0.9,en-US;q=0.8,en;q=0.7","61717173748006894b2b54ff","683db6dfa200031b80f2a654","68650779e938d227d86eb7e8","61717173748006894b2b54ff","","","","","","","","","","","","","","","","","","","","","","","","","","","","","","","","","","","","","","","","","","","","",""
"15273","","","","instructions","32","873756","0.0-8.0-9.0","243","1","2025-07-02 11:39:31","80fe4187154257d5fb01684ea91b68b9","188.36.3.22","Mozilla/5.0 (Windows NT 10.0; Win64; x64) AppleWebKit/537.36 (KHTML, like Gecko) Chrome/137.0.0.0 Safari/537.36","WebKit","Chrome","137.0.0.0","Windows","10.0","https://app.prolific.com/","hu-HU,hu;q=0.9,en-US;q=0.8,en;q=0.7","61717173748006894b2b54ff","683db6dfa200031b80f2a654","68650779e938d227d86eb7e8","61717173748006894b2b54ff","","[{""page_index"":0,""viewing_time"":15273}]","","","","","","","","","","","","","","","","","","","","","","","","","","","","","","","","","","","","","","","","","","",""
"9067","","<p>Before you start with this game please answer the following three questions yourself. </p>
  <p>Through this game, we measure several aspects of your cognitive performance, such as reaction times, multi-tasking capabilities </p>
  <p>and the ability to assess the situation you are in.</p>
  <p></p>
  <p><b>How good do you usually are in such tasks?</b></p>","68","html-slider-response","33","882825","0.0-9.0-0.0","243","1","2025-07-02 11:39:31","80fe4187154257d5fb01684ea91b68b9","188.36.3.22","Mozilla/5.0 (Windows NT 10.0; Win64; x64) AppleWebKit/537.36 (KHTML, like Gecko) Chrome/137.0.0.0 Safari/537.36","WebKit","Chrome","137.0.0.0","Windows","10.0","https://app.prolific.com/","hu-HU,hu;q=0.9,en-US;q=0.8,en;q=0.7","61717173748006894b2b54ff","683db6dfa200031b80f2a654","68650779e938d227d86eb7e8","61717173748006894b2b54ff","2025-07-02T11:54:14.555Z","","","","","","PreSkillQ","","","","","","","","","","","","","","","","","","","","","","","","","","","","","","","","","","","","","","50"
"3001","","<div style=""width:500px;"">
  <p>How well do you think you will perform in this task compared to other participants?</p>
  </div>","59","html-slider-response","34","885828","0.0-9.0-1.0","243","1","2025-07-02 11:39:31","80fe4187154257d5fb01684ea91b68b9","188.36.3.22","Mozilla/5.0 (Windows NT 10.0; Win64; x64) AppleWebKit/537.36 (KHTML, like Gecko) Chrome/137.0.0.0 Safari/537.36","WebKit","Chrome","137.0.0.0","Windows","10.0","https://app.prolific.com/","hu-HU,hu;q=0.9,en-US;q=0.8,en;q=0.7","61717173748006894b2b54ff","683db6dfa200031b80f2a654","68650779e938d227d86eb7e8","61717173748006894b2b54ff","2025-07-02T11:54:17.558Z","","","","","","PrePerfQ","","","","","","","","","","","","","","","","","","","","","","","","","","","","","","","","","","","","","","50"
"2214","","<div style=""width:500px;"">
  <p>What best describes how you currently feel?</p>
  </div>","83","html-slider-response","35","888043","0.0-9.0-2.0","243","1","2025-07-02 11:39:31","80fe4187154257d5fb01684ea91b68b9","188.36.3.22","Mozilla/5.0 (Windows NT 10.0; Win64; x64) AppleWebKit/537.36 (KHTML, like Gecko) Chrome/137.0.0.0 Safari/537.36","WebKit","Chrome","137.0.0.0","Windows","10.0","https://app.prolific.com/","hu-HU,hu;q=0.9,en-US;q=0.8,en;q=0.7","61717173748006894b2b54ff","683db6dfa200031b80f2a654","68650779e938d227d86eb7e8","61717173748006894b2b54ff","2025-07-02T11:54:19.773Z","","","","","","PreMotivationQ","","","","","","","","","","","","","","","","","","","","","","","","","","","","","","","","","","","","","","50"
"","","","","ctl-task-cpt","36","924901","0.0-10.0-0.0","243","1","2025-07-02 11:39:31","80fe4187154257d5fb01684ea91b68b9","188.36.3.22","Mozilla/5.0 (Windows NT 10.0; Win64; x64) AppleWebKit/537.36 (KHTML, like Gecko) Chrome/137.0.0.0 Safari/537.36","WebKit","Chrome","137.0.0.0","Windows","10.0","https://app.prolific.com/","hu-HU,hu;q=0.9,en-US;q=0.8,en;q=0.7","61717173748006894b2b54ff","683db6dfa200031b80f2a654","68650779e938d227d86eb7e8","61717173748006894b2b54ff","2025-07-02T11:54:56.631Z","","","","","","","","","","","","","","","","win-only","3","g1:SW,g2:NE","1","1","0","889221.5","1137.6","6140.6","33846.2","1","4","4","6","2","4","3","3","0","0.022727272727272728","1046.1","3000","1410","[""up"",""right""]","{""num_key_presses"":6,""num_perfect"":5,""num_errors"":1,""num_randdir"":0,""num_randdir_good_moves"":0,""num_whilered"":0,""num_whileblue"":1,""num_blue"":5,""num_good_moves"":6}","[414.57142857142856,422.47767857142856,0.2,414.57142857142856,422.47767857142856,102.8,414.57142857142856,422.47767857142856,203,414.57142857142856,422.47767857142856,303.8,414.57142857142856,422.47767857142856,407.9,413.57142857142856,422.47767857142856,513,507.57142857142856,389.47767857142856,613.1,546.5714285714286,309.47767857142856,717.9,679.5714285714286,118.47767857142857,818.6,701.5714285714286,73.47767857142857,918.9,723.5714285714286,71.47767857142857,1024.7,746.5714285714286,74.47767857142857,1128.3,893.5714285714286,126.47767857142857,1233.4,904.5714285714286,125.47767857142857,1333.5,904.5714285714286,125.47767857142857,1438.2,904.5714285714286,125.47767857142857,1545.1,904.5714285714286,125.47767857142857,1648.7,904.5714285714286,125.47767857142857,1749.4,904.5714285714286,125.47767857142857,1853.6,904.5714285714286,125.47767857142857,1953.6,904.5714285714286,125.47767857142857,2058.3,904.5714285714286,125.47767857142857,2162.8,904.5714285714286,125.47767857142857,2268.4,904.5714285714286,125.47767857142857,2373.7,904.5714285714286,125.47767857142857,2474.6,904.5714285714286,125.47767857142857,2578.9,904.5714285714286,125.47767857142857,2683.5,904.5714285714286,125.47767857142857,2783.5,904.5714285714286,125.47767857142857,2888,904.5714285714286,125.47767857142857,2993.4,904.5714285714286,125.47767857142857,3098.6,904.5714285714286,125.47767857142857,3203.3,904.5714285714286,125.47767857142857,3308,904.5714285714286,125.47767857142857,3412.8,904.5714285714286,125.47767857142857,3513.2,904.5714285714286,125.47767857142857,3618.1,904.5714285714286,125.47767857142857,3718.2,904.5714285714286,125.47767857142857,3823.6,904.5714285714286,125.47767857142857,3928.3,904.5714285714286,125.47767857142857,4029.3,904.5714285714286,125.47767857142857,4133.3,904.5714285714286,125.47767857142857,4238.9,904.5714285714286,125.47767857142857,4339.5,904.5714285714286,125.47767857142857,4443,904.5714285714286,125.47767857142857,4543.5,904.5714285714286,125.47767857142857,4649.4,904.5714285714286,125.47767857142857,4753.1,904.5714285714286,125.47767857142857,4853.3,904.5714285714286,125.47767857142857,4959]","[4467.6,4467.6,2137.3,2004.9,325.4,""smooth"",""right"",""right"",""good_move"",7173.3,2705,2330.9,4468.3,374.1,""smooth"",""up"",""up"",""good_move"",16400.5,9226.8,2469.5,13640.3,290.7,""while_blue"",""up"",""up"",""good_move"",22154.1,5753.3,2708.4,19045.6,400.1,""smooth"",""right"",""right"",""good_move"",24680.4,2526.2,2133.9,22154.2,392.3,""smooth"",""up"",""up"",""good_move"",27613.8,2933.2,2588.4,24680.6,344.8,""smooth"",""right"",""right"",""good_move""]","",""
"19286","","<div style=""width:500px;"">
  <p>What determined the result of this run?</p>
  </div>","77","html-slider-response","37","944188","0.0-10.0-1.0","243","1","2025-07-02 11:39:31","80fe4187154257d5fb01684ea91b68b9","188.36.3.22","Mozilla/5.0 (Windows NT 10.0; Win64; x64) AppleWebKit/537.36 (KHTML, like Gecko) Chrome/137.0.0.0 Safari/537.36","WebKit","Chrome","137.0.0.0","Windows","10.0","https://app.prolific.com/","hu-HU,hu;q=0.9,en-US;q=0.8,en;q=0.7","61717173748006894b2b54ff","683db6dfa200031b80f2a654","68650779e938d227d86eb7e8","61717173748006894b2b54ff","2025-07-02T11:55:15.918Z","","","","","","AttribQ","","","","","","","","","","","","","","","","","","","","","","","","","","","","","","","","","","","","","","50"
"1923","","<div style=""width:500px;"">
  <p>How much control did you have over the ball?</p>
  </div>","80","html-slider-response","38","946113","0.0-10.0-2.0","243","1","2025-07-02 11:39:31","80fe4187154257d5fb01684ea91b68b9","188.36.3.22","Mozilla/5.0 (Windows NT 10.0; Win64; x64) AppleWebKit/537.36 (KHTML, like Gecko) Chrome/137.0.0.0 Safari/537.36","WebKit","Chrome","137.0.0.0","Windows","10.0","https://app.prolific.com/","hu-HU,hu;q=0.9,en-US;q=0.8,en;q=0.7","61717173748006894b2b54ff","683db6dfa200031b80f2a654","68650779e938d227d86eb7e8","61717173748006894b2b54ff","2025-07-02T11:55:17.843Z","","","","","","ControlQ","","","","","","","","","","","","","","","","","","","","","","","","","","","","","","","","","","","","","","50"
"1848","","<div style=""width:500px;"">
  <p>How would you describe your current emotional state?</p>
  </div>","22","html-slider-response","39","947962","0.0-10.0-3.0","243","1","2025-07-02 11:39:31","80fe4187154257d5fb01684ea91b68b9","188.36.3.22","Mozilla/5.0 (Windows NT 10.0; Win64; x64) AppleWebKit/537.36 (KHTML, like Gecko) Chrome/137.0.0.0 Safari/537.36","WebKit","Chrome","137.0.0.0","Windows","10.0","https://app.prolific.com/","hu-HU,hu;q=0.9,en-US;q=0.8,en;q=0.7","61717173748006894b2b54ff","683db6dfa200031b80f2a654","68650779e938d227d86eb7e8","61717173748006894b2b54ff","2025-07-02T11:55:19.692Z","","","","","","StressQ","","","","","","","","","","","","","","","","","","","","","","","","","","","","","","","","","","","","","","50"
"1446","","<div style=""width:500px;"">
  <p>What best describes how you currently feel?</p>
  </div>","70","html-slider-response","40","949409","0.0-10.0-4.0","243","1","2025-07-02 11:39:31","80fe4187154257d5fb01684ea91b68b9","188.36.3.22","Mozilla/5.0 (Windows NT 10.0; Win64; x64) AppleWebKit/537.36 (KHTML, like Gecko) Chrome/137.0.0.0 Safari/537.36","WebKit","Chrome","137.0.0.0","Windows","10.0","https://app.prolific.com/","hu-HU,hu;q=0.9,en-US;q=0.8,en;q=0.7","61717173748006894b2b54ff","683db6dfa200031b80f2a654","68650779e938d227d86eb7e8","61717173748006894b2b54ff","2025-07-02T11:55:21.139Z","","","","","","MotivationQ","","","","","","","","","","","","","","","","","","","","","","","","","","","","","","","","","","","","","","50"
"","","","","ctl-task-cpt","41","981349","0.0-10.0-0.1","243","1","2025-07-02 11:39:31","80fe4187154257d5fb01684ea91b68b9","188.36.3.22","Mozilla/5.0 (Windows NT 10.0; Win64; x64) AppleWebKit/537.36 (KHTML, like Gecko) Chrome/137.0.0.0 Safari/537.36","WebKit","Chrome","137.0.0.0","Windows","10.0","https://app.prolific.com/","hu-HU,hu;q=0.9,en-US;q=0.8,en;q=0.7","61717173748006894b2b54ff","683db6dfa200031b80f2a654","68650779e938d227d86eb7e8","61717173748006894b2b54ff","2025-07-02T11:55:53.079Z","","","","","","","","","","","","","","","","win-only","2","g1:SE,g2:NW","0.9","2","0","950587.1","1493.1","6501.1","28920.5","1","4","8","6","2","8","8","11","3","0.08333333333333333","895.2","3000","600","[""left"",""up""]","{""num_key_presses"":8,""num_perfect"":7,""num_errors"":0,""num_randdir"":1,""num_randdir_good_moves"":0,""num_whilered"":0,""num_whileblue"":0,""num_blue"":0,""num_good_moves"":7}","[415.57142857142856,420.47767857142856,0.2,415.57142857142856,420.47767857142856,102,415.57142857142856,420.47767857142856,202.6,418.57142857142856,418.47767857142856,307.5,419.57142857142856,416.47767857142856,412.6,420.57142857142856,416.47767857142856,513,348.57142857142856,331.47767857142856,613,129.57142857142856,130.47767857142856,713.2,75.57142857142857,76.47767857142857,814.5,70.57142857142857,72.47767857142857,917.7,306.57142857142856,266.47767857142856,1018,435.57142857142856,329.47767857142856,1118.7,435.57142857142856,329.47767857142856,1222.1,435.57142857142856,329.47767857142856,1322.5,435.57142857142856,329.47767857142856,1428.2,435.57142857142856,329.47767857142856,1529,435.57142857142856,329.47767857142856,1632.5,435.57142857142856,329.47767857142856,1738.6,435.57142857142856,329.47767857142856,1842.3,435.57142857142856,329.47767857142856,1942.3,435.57142857142856,329.47767857142856,2050.8,435.57142857142856,329.47767857142856,2151.8,435.57142857142856,329.47767857142856,2252.6,435.57142857142856,329.47767857142856,2370.4,435.57142857142856,329.47767857142856,2472.8,435.57142857142856,329.47767857142856,2577.6,435.57142857142856,329.47767857142856,2682.1,435.57142857142856,329.47767857142856,2783.1,435.57142857142856,329.47767857142856,2883.3,435.57142857142856,329.47767857142856,2989.5,435.57142857142856,329.47767857142856,3092.5,435.57142857142856,329.47767857142856,3199.5,435.57142857142856,329.47767857142856,3302.5,435.57142857142856,329.47767857142856,3416.4,435.57142857142856,329.47767857142856,3517.6,435.57142857142856,329.47767857142856,3622.1,435.57142857142856,329.47767857142856,3722.6,435.57142857142856,329.47767857142856,3822.6,435.57142857142856,329.47767857142856,3933.2,435.57142857142856,329.47767857142856,4041.1,435.57142857142856,329.47767857142856,4142.8,435.57142857142856,329.47767857142856,4248.6,435.57142857142856,329.47767857142856,4350.7,435.57142857142856,329.47767857142856,4452.8,435.57142857142856,329.47767857142856,4557.3,435.57142857142856,329.47767857142856,4657.6,435.57142857142856,329.47767857142856,4766.7,435.57142857142856,329.47767857142856,4868.3,435.57142857142856,329.47767857142856,4972.4]","[1415.9,1415.9,1000,0,415.9,""smooth"",""up"",""up"",""good_move"",4862.2,3446,3138.9,1416.2,307.1,""smooth"",""left"",""left"",""good_move"",7839.3,2976.8,2695.4,4862.5,281.4,""oops"",""up"",""down"",""bad_move"",11053.6,3214,2892.1,7839.6,321.9,""smooth"",""up"",""up"",""good_move"",13642.2,2588.4,2263.8,11053.8,324.6,""smooth"",""up"",""up"",""good_move"",16322,2679.7,2363.9,13642.3,315.8,""smooth"",""left"",""left"",""good_move"",19524.3,3202.1,2890.3,16322.3,311.7,""smooth"",""up"",""up"",""good_move"",22330.1,2805.6,2541.9,19524.5,263.7,""smooth"",""left"",""left"",""good_move""]","",""
"13532","","<div style=""width:500px;"">
  <p>What determined the result of this run?</p>
  </div>","85","html-slider-response","42","994882","0.0-10.0-1.1","243","1","2025-07-02 11:39:31","80fe4187154257d5fb01684ea91b68b9","188.36.3.22","Mozilla/5.0 (Windows NT 10.0; Win64; x64) AppleWebKit/537.36 (KHTML, like Gecko) Chrome/137.0.0.0 Safari/537.36","WebKit","Chrome","137.0.0.0","Windows","10.0","https://app.prolific.com/","hu-HU,hu;q=0.9,en-US;q=0.8,en;q=0.7","61717173748006894b2b54ff","683db6dfa200031b80f2a654","68650779e938d227d86eb7e8","61717173748006894b2b54ff","2025-07-02T11:56:06.612Z","","","","","","AttribQ","","","","","","","","","","","","","","","","","","","","","","","","","","","","","","","","","","","","","","50"
"20551","","<div style=""width:500px;"">
  <p>How much control did you have over the ball?</p>
  </div>","73","html-slider-response","43","1015434","0.0-10.0-2.1","243","1","2025-07-02 11:39:31","80fe4187154257d5fb01684ea91b68b9","188.36.3.22","Mozilla/5.0 (Windows NT 10.0; Win64; x64) AppleWebKit/537.36 (KHTML, like Gecko) Chrome/137.0.0.0 Safari/537.36","WebKit","Chrome","137.0.0.0","Windows","10.0","https://app.prolific.com/","hu-HU,hu;q=0.9,en-US;q=0.8,en;q=0.7","61717173748006894b2b54ff","683db6dfa200031b80f2a654","68650779e938d227d86eb7e8","61717173748006894b2b54ff","2025-07-02T11:56:27.164Z","","","","","","ControlQ","","","","","","","","","","","","","","","","","","","","","","","","","","","","","","","","","","","","","","50"
"2254","","<div style=""width:500px;"">
  <p>How would you describe your current emotional state?</p>
  </div>","28","html-slider-response","44","1017690","0.0-10.0-3.1","243","1","2025-07-02 11:39:31","80fe4187154257d5fb01684ea91b68b9","188.36.3.22","Mozilla/5.0 (Windows NT 10.0; Win64; x64) AppleWebKit/537.36 (KHTML, like Gecko) Chrome/137.0.0.0 Safari/537.36","WebKit","Chrome","137.0.0.0","Windows","10.0","https://app.prolific.com/","hu-HU,hu;q=0.9,en-US;q=0.8,en;q=0.7","61717173748006894b2b54ff","683db6dfa200031b80f2a654","68650779e938d227d86eb7e8","61717173748006894b2b54ff","2025-07-02T11:56:29.420Z","","","","","","StressQ","","","","","","","","","","","","","","","","","","","","","","","","","","","","","","","","","","","","","","50"
"2323","","<div style=""width:500px;"">
  <p>What best describes how you currently feel?</p>
  </div>","74","html-slider-response","45","1020014","0.0-10.0-4.1","243","1","2025-07-02 11:39:31","80fe4187154257d5fb01684ea91b68b9","188.36.3.22","Mozilla/5.0 (Windows NT 10.0; Win64; x64) AppleWebKit/537.36 (KHTML, like Gecko) Chrome/137.0.0.0 Safari/537.36","WebKit","Chrome","137.0.0.0","Windows","10.0","https://app.prolific.com/","hu-HU,hu;q=0.9,en-US;q=0.8,en;q=0.7","61717173748006894b2b54ff","683db6dfa200031b80f2a654","68650779e938d227d86eb7e8","61717173748006894b2b54ff","2025-07-02T11:56:31.744Z","","","","","","MotivationQ","","","","","","","","","","","","","","","","","","","","","","","","","","","","","","","","","","","","","","50"
"","","","","ctl-task-cpt","46","1047519","0.0-10.0-0.2","243","1","2025-07-02 11:39:31","80fe4187154257d5fb01684ea91b68b9","188.36.3.22","Mozilla/5.0 (Windows NT 10.0; Win64; x64) AppleWebKit/537.36 (KHTML, like Gecko) Chrome/137.0.0.0 Safari/537.36","WebKit","Chrome","137.0.0.0","Windows","10.0","https://app.prolific.com/","hu-HU,hu;q=0.9,en-US;q=0.8,en;q=0.7","61717173748006894b2b54ff","683db6dfa200031b80f2a654","68650779e938d227d86eb7e8","61717173748006894b2b54ff","2025-07-02T11:56:59.249Z","","","","","","","","","","","","","","","","win-only","3","g1:SW,g2:NE","0.8","3","0","1021193","603.8","5605.5","24486.4","1","4","8","6","2","8","7","18","11","0.13636363636363635","834","3000","1180","[""up"",""right""]","{""num_key_presses"":6,""num_perfect"":5,""num_errors"":1,""num_randdir"":0,""num_randdir_good_moves"":0,""num_whilered"":0,""num_whileblue"":1,""num_blue"":2,""num_good_moves"":6}","[427.57142857142856,411.47767857142856,0.1,426.57142857142856,407.47767857142856,102.3,426.57142857142856,400.47767857142856,203.1,431.57142857142856,396.47767857142856,303.8,431.57142857142856,396.47767857142856,406.5,438.57142857142856,383.47767857142856,507.4,702.5714285714286,190.47767857142856,611.4,830.5714285714286,101.47767857142857,712.2,807.5714285714286,65.47767857142857,812.5,806.5714285714286,80.47767857142857,917.2,899.5714285714286,247.47767857142856,1023.2,962.5714285714286,282.47767857142856,1126.7,962.5714285714286,282.47767857142856,1227.6,962.5714285714286,282.47767857142856,1332.1,962.5714285714286,282.47767857142856,1436.4,962.5714285714286,282.47767857142856,1538.3,962.5714285714286,282.47767857142856,1641.9,962.5714285714286,282.47767857142856,1742.8,962.5714285714286,282.47767857142856,1847.5,962.5714285714286,282.47767857142856,1953.9,962.5714285714286,282.47767857142856,2056.4,962.5714285714286,282.47767857142856,2156.4,962.5714285714286,282.47767857142856,2256.8,962.5714285714286,282.47767857142856,2356.9,962.5714285714286,282.47767857142856,2463,962.5714285714286,282.47767857142856,2567.2,962.5714285714286,282.47767857142856,2669.3,962.5714285714286,282.47767857142856,2772.9,962.5714285714286,282.47767857142856,2877,962.5714285714286,282.47767857142856,2982.1,962.5714285714286,282.47767857142856,3083.3,962.5714285714286,282.47767857142856,3188.4,962.5714285714286,282.47767857142856,3293.8,963.5714285714286,282.47767857142856,3396.6,963.5714285714286,282.47767857142856,3498.3,963.5714285714286,282.47767857142856,3601.9,963.5714285714286,282.47767857142856,3702.3,963.5714285714286,282.47767857142856,3807.2,963.5714285714286,282.47767857142856,3908.1,963.5714285714286,282.47767857142856,4011.9,963.5714285714286,282.47767857142856,4111.9,963.5714285714286,282.47767857142856,4213.9,963.5714285714286,282.47767857142856,4317.1,963.5714285714286,282.47767857142856,4422.9,963.5714285714286,282.47767857142856,4527.2,963.5714285714286,282.47767857142856,4631.7,963.5714285714286,282.47767857142856,4732.6,963.5714285714286,282.47767857142856,4837.1,963.5714285714286,282.47767857142856,4942.2]","[1408.6,1408.6,1000,0,408.6,""smooth"",""right"",""right"",""good_move"",3850.8,2442,2145.3,1408.8,296.7,""smooth"",""up"",""up"",""good_move"",6898.1,3047.1,2768.3,3851,278.8,""smooth"",""right"",""right"",""good_move"",13745.4,6847,2848.6,10530.6,366.2,""smooth"",""up"",""up"",""good_move"",16491.8,2746.2,2449.1,13745.6,297.1,""while_blue"",""up"",""up"",""good_move"",18793.4,2301.4,1812.8,16492,488.6,""smooth"",""right"",""right"",""good_move""]","",""
"3103","","<div style=""width:500px;"">
  <p>What determined the result of this run?</p>
  </div>","84","html-slider-response","47","1050623","0.0-10.0-1.2","243","1","2025-07-02 11:39:31","80fe4187154257d5fb01684ea91b68b9","188.36.3.22","Mozilla/5.0 (Windows NT 10.0; Win64; x64) AppleWebKit/537.36 (KHTML, like Gecko) Chrome/137.0.0.0 Safari/537.36","WebKit","Chrome","137.0.0.0","Windows","10.0","https://app.prolific.com/","hu-HU,hu;q=0.9,en-US;q=0.8,en;q=0.7","61717173748006894b2b54ff","683db6dfa200031b80f2a654","68650779e938d227d86eb7e8","61717173748006894b2b54ff","2025-07-02T11:57:02.353Z","","","","","","AttribQ","","","","","","","","","","","","","","","","","","","","","","","","","","","","","","","","","","","","","","50"
"4963","","<div style=""width:500px;"">
  <p>How much control did you have over the ball?</p>
  </div>","75","html-slider-response","48","1055587","0.0-10.0-2.2","243","1","2025-07-02 11:39:31","80fe4187154257d5fb01684ea91b68b9","188.36.3.22","Mozilla/5.0 (Windows NT 10.0; Win64; x64) AppleWebKit/537.36 (KHTML, like Gecko) Chrome/137.0.0.0 Safari/537.36","WebKit","Chrome","137.0.0.0","Windows","10.0","https://app.prolific.com/","hu-HU,hu;q=0.9,en-US;q=0.8,en;q=0.7","61717173748006894b2b54ff","683db6dfa200031b80f2a654","68650779e938d227d86eb7e8","61717173748006894b2b54ff","2025-07-02T11:57:07.317Z","","","","","","ControlQ","","","","","","","","","","","","","","","","","","","","","","","","","","","","","","","","","","","","","","50"
"1972","","<div style=""width:500px;"">
  <p>How would you describe your current emotional state?</p>
  </div>","28","html-slider-response","49","1057561","0.0-10.0-3.2","243","1","2025-07-02 11:39:31","80fe4187154257d5fb01684ea91b68b9","188.36.3.22","Mozilla/5.0 (Windows NT 10.0; Win64; x64) AppleWebKit/537.36 (KHTML, like Gecko) Chrome/137.0.0.0 Safari/537.36","WebKit","Chrome","137.0.0.0","Windows","10.0","https://app.prolific.com/","hu-HU,hu;q=0.9,en-US;q=0.8,en;q=0.7","61717173748006894b2b54ff","683db6dfa200031b80f2a654","68650779e938d227d86eb7e8","61717173748006894b2b54ff","2025-07-02T11:57:09.291Z","","","","","","StressQ","","","","","","","","","","","","","","","","","","","","","","","","","","","","","","","","","","","","","","50"
"2744","","<div style=""width:500px;"">
  <p>What best describes how you currently feel?</p>
  </div>","75","html-slider-response","50","1060306","0.0-10.0-4.2","243","1","2025-07-02 11:39:31","80fe4187154257d5fb01684ea91b68b9","188.36.3.22","Mozilla/5.0 (Windows NT 10.0; Win64; x64) AppleWebKit/537.36 (KHTML, like Gecko) Chrome/137.0.0.0 Safari/537.36","WebKit","Chrome","137.0.0.0","Windows","10.0","https://app.prolific.com/","hu-HU,hu;q=0.9,en-US;q=0.8,en;q=0.7","61717173748006894b2b54ff","683db6dfa200031b80f2a654","68650779e938d227d86eb7e8","61717173748006894b2b54ff","2025-07-02T11:57:12.036Z","","","","","","MotivationQ","","","","","","","","","","","","","","","","","","","","","","","","","","","","","","","","","","","","","","50"
"","","","","ctl-task-cpt","51","1100199","0.0-10.0-0.3","243","1","2025-07-02 11:39:31","80fe4187154257d5fb01684ea91b68b9","188.36.3.22","Mozilla/5.0 (Windows NT 10.0; Win64; x64) AppleWebKit/537.36 (KHTML, like Gecko) Chrome/137.0.0.0 Safari/537.36","WebKit","Chrome","137.0.0.0","Windows","10.0","https://app.prolific.com/","hu-HU,hu;q=0.9,en-US;q=0.8,en;q=0.7","61717173748006894b2b54ff","683db6dfa200031b80f2a654","68650779e938d227d86eb7e8","61717173748006894b2b54ff","2025-07-02T11:57:51.929Z","","","","","","","","","","","","","","","","win-only","2","g1:SE,g2:NW","0.7","4","0","1061483.7","901.5","5905.4","36875.4","1","4","4","6","2","-4","-5","13","18","0.09848484848484848","737.2","3000","-2745","[""left"",""up""]","{""num_key_presses"":10,""num_perfect"":6,""num_errors"":1,""num_randdir"":3,""num_randdir_good_moves"":1,""num_whilered"":0,""num_whileblue"":1,""num_blue"":1,""num_good_moves"":7}","[420.57142857142856,415.47767857142856,0.1,422.57142857142856,423.47767857142856,105.7,433.57142857142856,449.47767857142856,208.7,453.57142857142856,470.47767857142856,316.8,492.57142857142856,502.47767857142856,417.1,403.57142857142856,392.47767857142856,518.4,93.57142857142857,167.47767857142856,619.4,61.57142857142857,116.47767857142857,738.8,61.57142857142857,116.47767857142857,839.3,141.57142857142856,142.47767857142856,942.8,501.57142857142856,243.47767857142856,1044.3,954.5714285714286,354.47767857142856,1146,1031.5714285714287,356.47767857142856,1249.3,1031.5714285714287,356.47767857142856,1349.7,1031.5714285714287,356.47767857142856,1449.8,1031.5714285714287,356.47767857142856,1553.9,1031.5714285714287,356.47767857142856,1658.8,1031.5714285714287,356.47767857142856,1758.8,1031.5714285714287,356.47767857142856,1859.1,1031.5714285714287,356.47767857142856,1961.5,1031.5714285714287,356.47767857142856,2065.7,1031.5714285714287,356.47767857142856,2168.7,1031.5714285714287,356.47767857142856,2269.2,1031.5714285714287,356.47767857142856,2369.3,1031.5714285714287,356.47767857142856,2469.3,1031.5714285714287,356.47767857142856,2574.4,1031.5714285714287,356.47767857142856,2679.2,1031.5714285714287,356.47767857142856,2780.8,1031.5714285714287,356.47767857142856,2883.9,1031.5714285714287,356.47767857142856,2984.1,1031.5714285714287,356.47767857142856,3084.1,1031.5714285714287,356.47767857142856,3184.3,1031.5714285714287,356.47767857142856,3285.9,1031.5714285714287,356.47767857142856,3388.8,1031.5714285714287,356.47767857142856,3494.4,1031.5714285714287,356.47767857142856,3595.8,1031.5714285714287,356.47767857142856,3699.6,1031.5714285714287,356.47767857142856,3804.1,1031.5714285714287,356.47767857142856,3908.7,1031.5714285714287,356.47767857142856,4009.2,1031.5714285714287,356.47767857142856,4110.4,1031.5714285714287,356.47767857142856,4214.6,1031.5714285714287,356.47767857142856,4320,1031.5714285714287,356.47767857142856,4420,1031.5714285714287,356.47767857142856,4524.4,1031.5714285714287,356.47767857142856,4629.8,1031.5714285714287,356.47767857142856,4730.4,1031.5714285714287,356.47767857142856,4833.9,1031.5714285714287,356.47767857142856,4933.9]","[1348.1,1348.1,1000,0,348.1,""smooth"",""up"",""up"",""good_move"",4433.5,3085.1,2761,1348.4,324.1,""oops"",""left"",""right"",""bad_move"",8165.2,3731.4,3378.9,4433.8,352.5,""smooth"",""up"",""up"",""good_move"",11098,2932.6,2590.9,8165.4,341.7,""smooth"",""left"",""left"",""good_move"",14078.1,2979.7,2589.4,11098.4,390.3,""smooth"",""left"",""left"",""good_move"",16376.3,2298,2020.3,14078.3,277.7,""smooth"",""left"",""left"",""good_move"",18789.3,2412.7,2127.1,16376.6,285.6,""oops"",""up"",""right"",""bad_move"",21818.6,3029.1,2745.6,18789.5,283.5,""while_blue"",""left"",""right"",""bad_move"",25148.1,3329.1,2996.6,21819,332.5,""oops"",""left"",""up"",""good_move"",27654.2,2505.8,2195.4,25148.4,310.4,""smooth"",""up"",""left"",""good_move""]","",""
"1091","","<div style=""width:500px;"">
  <p>What determined the result of this run?</p>
  </div>","19","html-slider-response","52","1101291","0.0-10.0-1.3","243","1","2025-07-02 11:39:31","80fe4187154257d5fb01684ea91b68b9","188.36.3.22","Mozilla/5.0 (Windows NT 10.0; Win64; x64) AppleWebKit/537.36 (KHTML, like Gecko) Chrome/137.0.0.0 Safari/537.36","WebKit","Chrome","137.0.0.0","Windows","10.0","https://app.prolific.com/","hu-HU,hu;q=0.9,en-US;q=0.8,en;q=0.7","61717173748006894b2b54ff","683db6dfa200031b80f2a654","68650779e938d227d86eb7e8","61717173748006894b2b54ff","2025-07-02T11:57:53.021Z","","","","","","AttribQ","","","","","","","","","","","","","","","","","","","","","","","","","","","","","","","","","","","","","","50"
"1490","","<div style=""width:500px;"">
  <p>How much control did you have over the ball?</p>
  </div>","27","html-slider-response","53","1102782","0.0-10.0-2.3","243","1","2025-07-02 11:39:31","80fe4187154257d5fb01684ea91b68b9","188.36.3.22","Mozilla/5.0 (Windows NT 10.0; Win64; x64) AppleWebKit/537.36 (KHTML, like Gecko) Chrome/137.0.0.0 Safari/537.36","WebKit","Chrome","137.0.0.0","Windows","10.0","https://app.prolific.com/","hu-HU,hu;q=0.9,en-US;q=0.8,en;q=0.7","61717173748006894b2b54ff","683db6dfa200031b80f2a654","68650779e938d227d86eb7e8","61717173748006894b2b54ff","2025-07-02T11:57:54.512Z","","","","","","ControlQ","","","","","","","","","","","","","","","","","","","","","","","","","","","","","","","","","","","","","","50"
"2360","","<div style=""width:500px;"">
  <p>How would you describe your current emotional state?</p>
  </div>","35","html-slider-response","54","1105142","0.0-10.0-3.3","243","1","2025-07-02 11:39:31","80fe4187154257d5fb01684ea91b68b9","188.36.3.22","Mozilla/5.0 (Windows NT 10.0; Win64; x64) AppleWebKit/537.36 (KHTML, like Gecko) Chrome/137.0.0.0 Safari/537.36","WebKit","Chrome","137.0.0.0","Windows","10.0","https://app.prolific.com/","hu-HU,hu;q=0.9,en-US;q=0.8,en;q=0.7","61717173748006894b2b54ff","683db6dfa200031b80f2a654","68650779e938d227d86eb7e8","61717173748006894b2b54ff","2025-07-02T11:57:56.873Z","","","","","","StressQ","","","","","","","","","","","","","","","","","","","","","","","","","","","","","","","","","","","","","","50"
"2397","","<div style=""width:500px;"">
  <p>What best describes how you currently feel?</p>
  </div>","62","html-slider-response","55","1107540","0.0-10.0-4.3","243","1","2025-07-02 11:39:31","80fe4187154257d5fb01684ea91b68b9","188.36.3.22","Mozilla/5.0 (Windows NT 10.0; Win64; x64) AppleWebKit/537.36 (KHTML, like Gecko) Chrome/137.0.0.0 Safari/537.36","WebKit","Chrome","137.0.0.0","Windows","10.0","https://app.prolific.com/","hu-HU,hu;q=0.9,en-US;q=0.8,en;q=0.7","61717173748006894b2b54ff","683db6dfa200031b80f2a654","68650779e938d227d86eb7e8","61717173748006894b2b54ff","2025-07-02T11:57:59.270Z","","","","","","MotivationQ","","","","","","","","","","","","","","","","","","","","","","","","","","","","","","","","","","","","","","50"
"","","","","ctl-task-cpt","56","1130654","0.0-10.0-0.4","243","1","2025-07-02 11:39:31","80fe4187154257d5fb01684ea91b68b9","188.36.3.22","Mozilla/5.0 (Windows NT 10.0; Win64; x64) AppleWebKit/537.36 (KHTML, like Gecko) Chrome/137.0.0.0 Safari/537.36","WebKit","Chrome","137.0.0.0","Windows","10.0","https://app.prolific.com/","hu-HU,hu;q=0.9,en-US;q=0.8,en;q=0.7","61717173748006894b2b54ff","683db6dfa200031b80f2a654","68650779e938d227d86eb7e8","61717173748006894b2b54ff","2025-07-02T11:58:22.384Z","","","","","","","","","","","","","","","","win-only","0","g1:NW,g2:SE","0.6","5","0","1108718.6","511","5517.4","20095.4","1","4","8","6","2","8","7","20","13","0.15151515151515152","957.2","3000","1485","[""down"",""right""]","{""num_key_presses"":6,""num_perfect"":4,""num_errors"":1,""num_randdir"":1,""num_randdir_good_moves"":1,""num_whilered"":0,""num_whileblue"":1,""num_blue"":1,""num_good_moves"":6}","[414.57142857142856,415.47767857142856,0.1,422.57142857142856,419.47767857142856,100.5,452.57142857142856,432.47767857142856,202.9,592.5714285714286,430.47767857142856,304.9,802.5714285714286,420.47767857142856,405.1,848.5714285714286,422.47767857142856,509.1,799.5714285714286,601.4776785714286,609.7,745.5714285714286,681.4776785714286,717,772.5714285714286,693.4776785714286,819.8,814.5714285714286,723.4776785714286,920.3,809.5714285714286,738.4776785714286,1020.4,822.5714285714286,734.4776785714286,1121.2,1003.5714285714286,711.4776785714286,1224.2,1154.5714285714287,694.4776785714286,1325.1,1222.5714285714287,667.4776785714286,1429.4,1222.5714285714287,667.4776785714286,1530,1222.5714285714287,667.4776785714286,1636.3,1222.5714285714287,667.4776785714286,1739.2,1222.5714285714287,667.4776785714286,1840.5,1222.5714285714287,667.4776785714286,1944.6,1222.5714285714287,667.4776785714286,2045,1222.5714285714287,667.4776785714286,2150,1222.5714285714287,667.4776785714286,2254.3,1222.5714285714287,667.4776785714286,2359.2,1222.5714285714287,667.4776785714286,2459.9,1222.5714285714287,667.4776785714286,2559.9,1222.5714285714287,667.4776785714286,2664.2,1222.5714285714287,667.4776785714286,2764.8,1222.5714285714287,667.4776785714286,2865,1222.5714285714287,667.4776785714286,2966.5,1222.5714285714287,667.4776785714286,3069.1,1222.5714285714287,667.4776785714286,3170.8,1222.5714285714287,667.4776785714286,3274.3,1222.5714285714287,667.4776785714286,3376,1222.5714285714287,667.4776785714286,3479.6,1222.5714285714287,667.4776785714286,3580.4,1222.5714285714287,667.4776785714286,3684.9,1222.5714285714287,667.4776785714286,3789.3,1222.5714285714287,667.4776785714286,3890.2,1222.5714285714287,667.4776785714286,3994.4,1222.5714285714287,667.4776785714286,4100.3,1222.5714285714287,667.4776785714286,4201.2,1222.5714285714287,667.4776785714286,4302.1,1222.5714285714287,667.4776785714286,4404.4,1222.5714285714287,667.4776785714286,4505,1222.5714285714287,667.4776785714286,4606,1222.5714285714287,667.4776785714286,4709.6,1222.5714285714287,667.4776785714286,4815,1222.5714285714287,667.4776785714286,4920]","[1356.8,1356.8,1000,0,356.8,""smooth"",""down"",""down"",""good_move"",3907.2,2550.1,2232.7,1357.1,317.4,""smooth"",""right"",""right"",""good_move"",6665.1,2757.6,2452.5,3907.5,305.1,""oops"",""right"",""right"",""good_move"",9483.2,2817.9,2507.4,6665.3,310.5,""while_blue"",""down"",""right"",""good_move"",11851.9,2368.5,1981,9483.4,387.5,""smooth"",""down"",""down"",""good_move"",14487,2635,2336.5,11852,298.5,""smooth"",""down"",""down"",""good_move""]","",""
"19582","","<div style=""width:500px;"">
  <p>What determined the result of this run?</p>
  </div>","74","html-slider-response","57","1150238","0.0-10.0-1.4","243","1","2025-07-02 11:39:31","80fe4187154257d5fb01684ea91b68b9","188.36.3.22","Mozilla/5.0 (Windows NT 10.0; Win64; x64) AppleWebKit/537.36 (KHTML, like Gecko) Chrome/137.0.0.0 Safari/537.36","WebKit","Chrome","137.0.0.0","Windows","10.0","https://app.prolific.com/","hu-HU,hu;q=0.9,en-US;q=0.8,en;q=0.7","61717173748006894b2b54ff","683db6dfa200031b80f2a654","68650779e938d227d86eb7e8","61717173748006894b2b54ff","2025-07-02T11:58:41.968Z","","","","","","AttribQ","","","","","","","","","","","","","","","","","","","","","","","","","","","","","","","","","","","","","","50"
"6267","","<div style=""width:500px;"">
  <p>How much control did you have over the ball?</p>
  </div>","85","html-slider-response","58","1156508","0.0-10.0-2.4","243","1","2025-07-02 11:39:31","80fe4187154257d5fb01684ea91b68b9","188.36.3.22","Mozilla/5.0 (Windows NT 10.0; Win64; x64) AppleWebKit/537.36 (KHTML, like Gecko) Chrome/137.0.0.0 Safari/537.36","WebKit","Chrome","137.0.0.0","Windows","10.0","https://app.prolific.com/","hu-HU,hu;q=0.9,en-US;q=0.8,en;q=0.7","61717173748006894b2b54ff","683db6dfa200031b80f2a654","68650779e938d227d86eb7e8","61717173748006894b2b54ff","2025-07-02T11:58:48.238Z","","","","","","ControlQ","","","","","","","","","","","","","","","","","","","","","","","","","","","","","","","","","","","","","","50"
"1473","","<div style=""width:500px;"">
  <p>How would you describe your current emotional state?</p>
  </div>","35","html-slider-response","59","1157982","0.0-10.0-3.4","243","1","2025-07-02 11:39:31","80fe4187154257d5fb01684ea91b68b9","188.36.3.22","Mozilla/5.0 (Windows NT 10.0; Win64; x64) AppleWebKit/537.36 (KHTML, like Gecko) Chrome/137.0.0.0 Safari/537.36","WebKit","Chrome","137.0.0.0","Windows","10.0","https://app.prolific.com/","hu-HU,hu;q=0.9,en-US;q=0.8,en;q=0.7","61717173748006894b2b54ff","683db6dfa200031b80f2a654","68650779e938d227d86eb7e8","61717173748006894b2b54ff","2025-07-02T11:58:49.712Z","","","","","","StressQ","","","","","","","","","","","","","","","","","","","","","","","","","","","","","","","","","","","","","","50"
"1940","","<div style=""width:500px;"">
  <p>What best describes how you currently feel?</p>
  </div>","72","html-slider-response","60","1159923","0.0-10.0-4.4","243","1","2025-07-02 11:39:31","80fe4187154257d5fb01684ea91b68b9","188.36.3.22","Mozilla/5.0 (Windows NT 10.0; Win64; x64) AppleWebKit/537.36 (KHTML, like Gecko) Chrome/137.0.0.0 Safari/537.36","WebKit","Chrome","137.0.0.0","Windows","10.0","https://app.prolific.com/","hu-HU,hu;q=0.9,en-US;q=0.8,en;q=0.7","61717173748006894b2b54ff","683db6dfa200031b80f2a654","68650779e938d227d86eb7e8","61717173748006894b2b54ff","2025-07-02T11:58:51.653Z","","","","","","MotivationQ","","","","","","","","","","","","","","","","","","","","","","","","","","","","","","","","","","","","","","50"
"","","","","ctl-task-cpt","61","1203542","0.0-10.0-0.5","243","1","2025-07-02 11:39:31","80fe4187154257d5fb01684ea91b68b9","188.36.3.22","Mozilla/5.0 (Windows NT 10.0; Win64; x64) AppleWebKit/537.36 (KHTML, like Gecko) Chrome/137.0.0.0 Safari/537.36","WebKit","Chrome","137.0.0.0","Windows","10.0","https://app.prolific.com/","hu-HU,hu;q=0.9,en-US;q=0.8,en;q=0.7","61717173748006894b2b54ff","683db6dfa200031b80f2a654","68650779e938d227d86eb7e8","61717173748006894b2b54ff","2025-07-02T11:59:35.272Z","","","","","","","","","","","","","","","","win-only","3","g1:SW,g2:NE","0.5","6","0","1161100.7","745.1","5745.9","40599.9","1","4","4","6","2","-4","-5","15","20","0.11363636363636363","656.8","3000","-2960","[""up"",""right""]","{""num_key_presses"":9,""num_perfect"":4,""num_errors"":1,""num_randdir"":4,""num_randdir_good_moves"":1,""num_whilered"":0,""num_whileblue"":1,""num_blue"":3,""num_good_moves"":6}","[426.57142857142856,420.47767857142856,0.1,425.57142857142856,420.47767857142856,100.8,424.57142857142856,420.47767857142856,207.5,424.57142857142856,420.47767857142856,310.8,429.57142857142856,420.47767857142856,416,642.5714285714286,200.47767857142856,516.5,695.5714285714286,116.47767857142857,616.5,695.5714285714286,112.47767857142857,721.8,771.5714285714286,106.47767857142857,826.5,894.5714285714286,115.47767857142857,932.1,1132.5714285714287,134.47767857142856,1035.8,1290.5714285714287,152.47767857142856,1141.2,1306.5714285714287,152.47767857142856,1245.8,1306.5714285714287,152.47767857142856,1346.5,1306.5714285714287,152.47767857142856,1450.9,1306.5714285714287,152.47767857142856,1551.5,1306.5714285714287,152.47767857142856,1656.5,1306.5714285714287,152.47767857142856,1760.2,1306.5714285714287,152.47767857142856,1860.2,1306.5714285714287,152.47767857142856,1960.2,1306.5714285714287,152.47767857142856,2060.9,1306.5714285714287,152.47767857142856,2165.3,1306.5714285714287,152.47767857142856,2265.9,1306.5714285714287,152.47767857142856,2365.9,1306.5714285714287,152.47767857142856,2467,1306.5714285714287,152.47767857142856,2575,1306.5714285714287,152.47767857142856,2675.7,1306.5714285714287,152.47767857142856,2781.8,1306.5714285714287,152.47767857142856,2885.1,1306.5714285714287,152.47767857142856,2985.4,1306.5714285714287,152.47767857142856,3085.6,1306.5714285714287,152.47767857142856,3186.5,1306.5714285714287,152.47767857142856,3288,1306.5714285714287,152.47767857142856,3391,1306.5714285714287,152.47767857142856,3496.4,1306.5714285714287,152.47767857142856,3600.5,1306.5714285714287,152.47767857142856,3706.9,1306.5714285714287,152.47767857142856,3810.3,1306.5714285714287,152.47767857142856,3910.8,1306.5714285714287,152.47767857142856,4011.7,1306.5714285714287,152.47767857142856,4115.5,1306.5714285714287,152.47767857142856,4215.9,1306.5714285714287,152.47767857142856,4316.6,1306.5714285714287,152.47767857142856,4420.6,1306.5714285714287,152.47767857142856,4521.4,1306.5714285714287,152.47767857142856,4621.4,1306.5714285714287,152.47767857142856,4725.1,1306.5714285714287,152.47767857142856,4825.4,1306.5714285714287,152.47767857142856,4926.3]","[1371,1371,1000,0,371,""oops"",""up"",""down"",""bad_move"",4292.8,2921.4,2512.8,1371.4,408.6,""smooth"",""up"",""up"",""good_move"",7667.1,3373.9,3003.7,4293.2,370.2,""smooth"",""up"",""up"",""good_move"",10747.6,3080.3,2825.1,7667.3,255.2,""smooth"",""right"",""right"",""good_move"",13674.5,2926.6,2661.5,10747.9,265.1,""while_blue"",""right"",""right"",""good_move"",19793.8,6119,2585.2,16859.9,348.7,""smooth"",""up"",""up"",""good_move"",23104.2,3310.2,2753.6,19794,556.6,""oops"",""up"",""down"",""bad_move"",26190.8,3086.3,2730.8,23104.5,355.5,""oops"",""right"",""left"",""bad_move"",32137.3,5946.1,2316,29505.2,316.1,""oops"",""up"",""right"",""good_move""]","",""
"1469","","<div style=""width:500px;"">
  <p>What determined the result of this run?</p>
  </div>","17","html-slider-response","62","1205013","0.0-10.0-1.5","243","1","2025-07-02 11:39:31","80fe4187154257d5fb01684ea91b68b9","188.36.3.22","Mozilla/5.0 (Windows NT 10.0; Win64; x64) AppleWebKit/537.36 (KHTML, like Gecko) Chrome/137.0.0.0 Safari/537.36","WebKit","Chrome","137.0.0.0","Windows","10.0","https://app.prolific.com/","hu-HU,hu;q=0.9,en-US;q=0.8,en;q=0.7","61717173748006894b2b54ff","683db6dfa200031b80f2a654","68650779e938d227d86eb7e8","61717173748006894b2b54ff","2025-07-02T11:59:36.743Z","","","","","","AttribQ","","","","","","","","","","","","","","","","","","","","","","","","","","","","","","","","","","","","","","50"
"2374","","<div style=""width:500px;"">
  <p>How much control did you have over the ball?</p>
  </div>","25","html-slider-response","63","1207387","0.0-10.0-2.5","243","1","2025-07-02 11:39:31","80fe4187154257d5fb01684ea91b68b9","188.36.3.22","Mozilla/5.0 (Windows NT 10.0; Win64; x64) AppleWebKit/537.36 (KHTML, like Gecko) Chrome/137.0.0.0 Safari/537.36","WebKit","Chrome","137.0.0.0","Windows","10.0","https://app.prolific.com/","hu-HU,hu;q=0.9,en-US;q=0.8,en;q=0.7","61717173748006894b2b54ff","683db6dfa200031b80f2a654","68650779e938d227d86eb7e8","61717173748006894b2b54ff","2025-07-02T11:59:39.117Z","","","","","","ControlQ","","","","","","","","","","","","","","","","","","","","","","","","","","","","","","","","","","","","","","50"
"1502","","<div style=""width:500px;"">
  <p>How would you describe your current emotional state?</p>
  </div>","35","html-slider-response","64","1208890","0.0-10.0-3.5","243","1","2025-07-02 11:39:31","80fe4187154257d5fb01684ea91b68b9","188.36.3.22","Mozilla/5.0 (Windows NT 10.0; Win64; x64) AppleWebKit/537.36 (KHTML, like Gecko) Chrome/137.0.0.0 Safari/537.36","WebKit","Chrome","137.0.0.0","Windows","10.0","https://app.prolific.com/","hu-HU,hu;q=0.9,en-US;q=0.8,en;q=0.7","61717173748006894b2b54ff","683db6dfa200031b80f2a654","68650779e938d227d86eb7e8","61717173748006894b2b54ff","2025-07-02T11:59:40.621Z","","","","","","StressQ","","","","","","","","","","","","","","","","","","","","","","","","","","","","","","","","","","","","","","50"
"1073","","<div style=""width:500px;"">
  <p>What best describes how you currently feel?</p>
  </div>","59","html-slider-response","65","1209965","0.0-10.0-4.5","243","1","2025-07-02 11:39:31","80fe4187154257d5fb01684ea91b68b9","188.36.3.22","Mozilla/5.0 (Windows NT 10.0; Win64; x64) AppleWebKit/537.36 (KHTML, like Gecko) Chrome/137.0.0.0 Safari/537.36","WebKit","Chrome","137.0.0.0","Windows","10.0","https://app.prolific.com/","hu-HU,hu;q=0.9,en-US;q=0.8,en;q=0.7","61717173748006894b2b54ff","683db6dfa200031b80f2a654","68650779e938d227d86eb7e8","61717173748006894b2b54ff","2025-07-02T11:59:41.695Z","","","","","","MotivationQ","","","","","","","","","","","","","","","","","","","","","","","","","","","","","","","","","","","","","","50"
"","","","","ctl-task-cpt","66","1246170","0.0-10.0-0.6","243","1","2025-07-02 11:39:31","80fe4187154257d5fb01684ea91b68b9","188.36.3.22","Mozilla/5.0 (Windows NT 10.0; Win64; x64) AppleWebKit/537.36 (KHTML, like Gecko) Chrome/137.0.0.0 Safari/537.36","WebKit","Chrome","137.0.0.0","Windows","10.0","https://app.prolific.com/","hu-HU,hu;q=0.9,en-US;q=0.8,en;q=0.7","61717173748006894b2b54ff","683db6dfa200031b80f2a654","68650779e938d227d86eb7e8","61717173748006894b2b54ff","2025-07-02T12:00:17.900Z","","","","","","","","","","","","","","","","win-only","1","g1:NE,g2:SW","0.4","7","0","1211143.3","811.1","5816.6","33185.4","1","4","4","6","2","-4","-4","11","15","0.08333333333333333","732.9","3000","-2995","[""down"",""left""]","{""num_key_presses"":6,""num_perfect"":4,""num_errors"":0,""num_randdir"":2,""num_randdir_good_moves"":0,""num_whilered"":0,""num_whileblue"":0,""num_blue"":2,""num_good_moves"":4}","[427.57142857142856,418.47767857142856,0.2,427.57142857142856,418.47767857142856,105.6,435.57142857142856,380.47767857142856,209.4,450.57142857142856,360.47767857142856,309.7,354.57142857142856,506.47767857142856,409.9,347.57142857142856,506.47767857142856,510.1,63.57142857142857,740.4776785714286,611.7,45.57142857142857,748.4776785714286,714.4,173.57142857142856,733.4776785714286,814.9,696.5714285714286,717.4776785714286,916.5,824.5714285714286,691.4776785714286,1019.4,852.5714285714286,675.4776785714286,1121,852.5714285714286,675.4776785714286,1225,852.5714285714286,675.4776785714286,1329.5,852.5714285714286,675.4776785714286,1429.7,852.5714285714286,675.4776785714286,1534.1,852.5714285714286,675.4776785714286,1640.7,852.5714285714286,675.4776785714286,1745.4,852.5714285714286,675.4776785714286,1849.1,852.5714285714286,675.4776785714286,1949.6,852.5714285714286,675.4776785714286,2055.2,852.5714285714286,675.4776785714286,2159.3,852.5714285714286,675.4776785714286,2259.3,852.5714285714286,675.4776785714286,2365.6,852.5714285714286,675.4776785714286,2469.9,852.5714285714286,675.4776785714286,2574.7,852.5714285714286,675.4776785714286,2679.3,852.5714285714286,675.4776785714286,2779.8,852.5714285714286,675.4776785714286,2880.8,852.5714285714286,675.4776785714286,2984.5,852.5714285714286,675.4776785714286,3086,852.5714285714286,675.4776785714286,3189.8,852.5714285714286,675.4776785714286,3296.1,852.5714285714286,675.4776785714286,3400.5,852.5714285714286,675.4776785714286,3501,852.5714285714286,675.4776785714286,3604.9,852.5714285714286,675.4776785714286,3705.2,852.5714285714286,675.4776785714286,3805.3,852.5714285714286,675.4776785714286,3909.8,852.5714285714286,675.4776785714286,4009.9,852.5714285714286,675.4776785714286,4114.9,852.5714285714286,675.4776785714286,4215.8,852.5714285714286,675.4776785714286,4316,852.5714285714286,675.4776785714286,4421,852.5714285714286,675.4776785714286,4521.1,852.5714285714286,675.4776785714286,4624.8,852.5714285714286,675.4776785714286,4724.8,852.5714285714286,675.4776785714286,4831.2,852.5714285714286,675.4776785714286,4934.6]","[5934.7,5934.7,3404,2004.3,526.4,""smooth"",""down"",""down"",""good_move"",9381.4,3446.4,2715.2,5935,731.2,""smooth"",""left"",""left"",""good_move"",11980.4,2598.6,2154,9381.8,444.6,""oops"",""down"",""up"",""bad_move"",15478.3,3497.6,3159.6,11980.8,337.9,""oops"",""left"",""right"",""bad_move"",18083.4,2604.8,2204,15478.6,400.8,""smooth"",""down"",""down"",""good_move"",24966.7,6883.1,2551.9,21945.4,469.4,""smooth"",""down"",""down"",""good_move""]","",""
"79186","","<div style=""width:500px;"">
  <p>What determined the result of this run?</p>
  </div>","61","html-slider-response","67","1325357","0.0-10.0-1.6","243","1","2025-07-02 11:39:31","80fe4187154257d5fb01684ea91b68b9","188.36.3.22","Mozilla/5.0 (Windows NT 10.0; Win64; x64) AppleWebKit/537.36 (KHTML, like Gecko) Chrome/137.0.0.0 Safari/537.36","WebKit","Chrome","137.0.0.0","Windows","10.0","https://app.prolific.com/","hu-HU,hu;q=0.9,en-US;q=0.8,en;q=0.7","61717173748006894b2b54ff","683db6dfa200031b80f2a654","68650779e938d227d86eb7e8","61717173748006894b2b54ff","2025-07-02T12:01:37.087Z","","","","","","AttribQ","","","","","","","","","","","","","","","","","","","","","","","","","","","","","","","","","","","","","","50"
"1407","","<div style=""width:500px;"">
  <p>How much control did you have over the ball?</p>
  </div>","62","html-slider-response","68","1326765","0.0-10.0-2.6","243","1","2025-07-02 11:39:31","80fe4187154257d5fb01684ea91b68b9","188.36.3.22","Mozilla/5.0 (Windows NT 10.0; Win64; x64) AppleWebKit/537.36 (KHTML, like Gecko) Chrome/137.0.0.0 Safari/537.36","WebKit","Chrome","137.0.0.0","Windows","10.0","https://app.prolific.com/","hu-HU,hu;q=0.9,en-US;q=0.8,en;q=0.7","61717173748006894b2b54ff","683db6dfa200031b80f2a654","68650779e938d227d86eb7e8","61717173748006894b2b54ff","2025-07-02T12:01:38.495Z","","","","","","ControlQ","","","","","","","","","","","","","","","","","","","","","","","","","","","","","","","","","","","","","","50"
"1386","","<div style=""width:500px;"">
  <p>How would you describe your current emotional state?</p>
  </div>","37","html-slider-response","69","1328152","0.0-10.0-3.6","243","1","2025-07-02 11:39:31","80fe4187154257d5fb01684ea91b68b9","188.36.3.22","Mozilla/5.0 (Windows NT 10.0; Win64; x64) AppleWebKit/537.36 (KHTML, like Gecko) Chrome/137.0.0.0 Safari/537.36","WebKit","Chrome","137.0.0.0","Windows","10.0","https://app.prolific.com/","hu-HU,hu;q=0.9,en-US;q=0.8,en;q=0.7","61717173748006894b2b54ff","683db6dfa200031b80f2a654","68650779e938d227d86eb7e8","61717173748006894b2b54ff","2025-07-02T12:01:39.882Z","","","","","","StressQ","","","","","","","","","","","","","","","","","","","","","","","","","","","","","","","","","","","","","","50"
"1371","","<div style=""width:500px;"">
  <p>What best describes how you currently feel?</p>
  </div>","66","html-slider-response","70","1329523","0.0-10.0-4.6","243","1","2025-07-02 11:39:31","80fe4187154257d5fb01684ea91b68b9","188.36.3.22","Mozilla/5.0 (Windows NT 10.0; Win64; x64) AppleWebKit/537.36 (KHTML, like Gecko) Chrome/137.0.0.0 Safari/537.36","WebKit","Chrome","137.0.0.0","Windows","10.0","https://app.prolific.com/","hu-HU,hu;q=0.9,en-US;q=0.8,en;q=0.7","61717173748006894b2b54ff","683db6dfa200031b80f2a654","68650779e938d227d86eb7e8","61717173748006894b2b54ff","2025-07-02T12:01:41.253Z","","","","","","MotivationQ","","","","","","","","","","","","","","","","","","","","","","","","","","","","","","","","","","","","","","50"
"","","","","ctl-task-cpt","71","1387251","0.0-10.0-0.7","243","1","2025-07-02 11:39:31","80fe4187154257d5fb01684ea91b68b9","188.36.3.22","Mozilla/5.0 (Windows NT 10.0; Win64; x64) AppleWebKit/537.36 (KHTML, like Gecko) Chrome/137.0.0.0 Safari/537.36","WebKit","Chrome","137.0.0.0","Windows","10.0","https://app.prolific.com/","hu-HU,hu;q=0.9,en-US;q=0.8,en;q=0.7","61717173748006894b2b54ff","683db6dfa200031b80f2a654","68650779e938d227d86eb7e8","61717173748006894b2b54ff","2025-07-02T12:02:38.981Z","","","","","","","","","","","","","","","","win-only","0","g1:NW,g2:SE","0.3","8","0","1330701.5","1132.9","6140.5","54706.7","1","4","8","6","2","-8","-12","0","11","0","555.7","3000","-2995","[""down"",""right""]","{""num_key_presses"":14,""num_perfect"":3,""num_errors"":4,""num_randdir"":7,""num_randdir_good_moves"":3,""num_whilered"":0,""num_whileblue"":4,""num_blue"":6,""num_good_moves"":8}","[417.57142857142856,406.47767857142856,0.3,431.57142857142856,398.47767857142856,104.8,461.57142857142856,370.47767857142856,207.6,426.57142857142856,419.47767857142856,309.7,706.5714285714286,754.4776785714286,414.2,783.5714285714286,785.4776785714286,518.4,788.5714285714286,773.4776785714286,618.7,922.5714285714286,659.4776785714286,720.3,949.5714285714286,638.4776785714286,822.6,949.5714285714286,638.4776785714286,922.7,949.5714285714286,638.4776785714286,1023.5,949.5714285714286,638.4776785714286,1128.2,949.5714285714286,638.4776785714286,1234,949.5714285714286,638.4776785714286,1341.7,949.5714285714286,638.4776785714286,1442.6,949.5714285714286,638.4776785714286,1548.3,949.5714285714286,638.4776785714286,1654.3,949.5714285714286,638.4776785714286,1758.1,949.5714285714286,638.4776785714286,1862.7,949.5714285714286,638.4776785714286,1963.7,949.5714285714286,638.4776785714286,2070.8,949.5714285714286,638.4776785714286,2172.6,949.5714285714286,638.4776785714286,2273.8,949.5714285714286,638.4776785714286,2377.8,949.5714285714286,638.4776785714286,2478.1,949.5714285714286,638.4776785714286,2578.4,949.5714285714286,638.4776785714286,2682.8,949.5714285714286,638.4776785714286,2783.9,949.5714285714286,638.4776785714286,2888.5,949.5714285714286,638.4776785714286,2993.3,949.5714285714286,638.4776785714286,3093.4,949.5714285714286,638.4776785714286,3198.2,949.5714285714286,638.4776785714286,3300,949.5714285714286,638.4776785714286,3408.7,949.5714285714286,638.4776785714286,3512.5,949.5714285714286,638.4776785714286,3613.8,949.5714285714286,638.4776785714286,3717.9,949.5714285714286,638.4776785714286,3817.9,949.5714285714286,638.4776785714286,3917.9,949.5714285714286,638.4776785714286,4018.4,949.5714285714286,638.4776785714286,4123,949.5714285714286,638.4776785714286,4228.4,949.5714285714286,638.4776785714286,4342,949.5714285714286,638.4776785714286,4442.5,949.5714285714286,638.4776785714286,4542.5,949.5714285714286,638.4776785714286,4643,949.5714285714286,638.4776785714286,4745.6,949.5714285714286,638.4776785714286,4847.7,949.5714285714286,638.4776785714286,4959.3]","[1340.8,1340.8,1000,0,340.8,""oops"",""right"",""up"",""bad_move"",4285.2,2944.1,2641.5,1341.1,302.6,""oops"",""right"",""up"",""bad_move"",7108.2,2822.7,2495.5,4285.5,327.2,""while_blue"",""right"",""right"",""good_move"",9874.4,2765.9,2307.9,7108.5,458,""oops"",""down"",""right"",""good_move"",15602.4,5727.7,2050.4,13185.2,366.8,""smooth"",""down"",""down"",""good_move"",22835,7232.3,2472,19877.8,485.2,""oops"",""down"",""down"",""good_move"",25700.1,2865,2411.2,22835.1,453.8,""smooth"",""down"",""down"",""good_move"",28426.8,2726.5,2314.2,25700.3,412.3,""while_blue"",""right"",""left"",""bad_move"",31831.8,3404.7,3108.9,28427.1,295.8,""while_blue"",""down"",""down"",""good_move"",35094.3,3262.2,2814.3,31832.1,447.9,""oops"",""right"",""left"",""bad_move"",37704.5,2610,2305.4,35094.5,304.6,""while_blue"",""right"",""left"",""bad_move"",40253.1,2548.4,2029.8,37704.7,518.6,""smooth"",""down"",""down"",""good_move"",42594.6,2341.3,2046.3,40253.3,295,""oops"",""right"",""right"",""good_move"",45314.2,2719.2,2402.9,42595,316.3,""oops"",""right"",""left"",""bad_move""]","",""
"1470","","<div style=""width:500px;"">
  <p>What determined the result of this run?</p>
  </div>","11","html-slider-response","72","1388722","0.0-10.0-1.7","243","1","2025-07-02 11:39:31","80fe4187154257d5fb01684ea91b68b9","188.36.3.22","Mozilla/5.0 (Windows NT 10.0; Win64; x64) AppleWebKit/537.36 (KHTML, like Gecko) Chrome/137.0.0.0 Safari/537.36","WebKit","Chrome","137.0.0.0","Windows","10.0","https://app.prolific.com/","hu-HU,hu;q=0.9,en-US;q=0.8,en;q=0.7","61717173748006894b2b54ff","683db6dfa200031b80f2a654","68650779e938d227d86eb7e8","61717173748006894b2b54ff","2025-07-02T12:02:40.452Z","","","","","","AttribQ","","","","","","","","","","","","","","","","","","","","","","","","","","","","","","","","","","","","","","50"
"14118","","<div style=""width:500px;"">
  <p>How much control did you have over the ball?</p>
  </div>","17","html-slider-response","73","1402842","0.0-10.0-2.7","243","1","2025-07-02 11:39:31","80fe4187154257d5fb01684ea91b68b9","188.36.3.22","Mozilla/5.0 (Windows NT 10.0; Win64; x64) AppleWebKit/537.36 (KHTML, like Gecko) Chrome/137.0.0.0 Safari/537.36","WebKit","Chrome","137.0.0.0","Windows","10.0","https://app.prolific.com/","hu-HU,hu;q=0.9,en-US;q=0.8,en;q=0.7","61717173748006894b2b54ff","683db6dfa200031b80f2a654","68650779e938d227d86eb7e8","61717173748006894b2b54ff","2025-07-02T12:02:54.572Z","","","","","","ControlQ","","","","","","","","","","","","","","","","","","","","","","","","","","","","","","","","","","","","","","50"
"1981","","<div style=""width:500px;"">
  <p>How would you describe your current emotional state?</p>
  </div>","64","html-slider-response","74","1404823","0.0-10.0-3.7","243","1","2025-07-02 11:39:31","80fe4187154257d5fb01684ea91b68b9","188.36.3.22","Mozilla/5.0 (Windows NT 10.0; Win64; x64) AppleWebKit/537.36 (KHTML, like Gecko) Chrome/137.0.0.0 Safari/537.36","WebKit","Chrome","137.0.0.0","Windows","10.0","https://app.prolific.com/","hu-HU,hu;q=0.9,en-US;q=0.8,en;q=0.7","61717173748006894b2b54ff","683db6dfa200031b80f2a654","68650779e938d227d86eb7e8","61717173748006894b2b54ff","2025-07-02T12:02:56.553Z","","","","","","StressQ","","","","","","","","","","","","","","","","","","","","","","","","","","","","","","","","","","","","","","50"
"1580","","<div style=""width:500px;"">
  <p>What best describes how you currently feel?</p>
  </div>","60","html-slider-response","75","1406404","0.0-10.0-4.7","243","1","2025-07-02 11:39:31","80fe4187154257d5fb01684ea91b68b9","188.36.3.22","Mozilla/5.0 (Windows NT 10.0; Win64; x64) AppleWebKit/537.36 (KHTML, like Gecko) Chrome/137.0.0.0 Safari/537.36","WebKit","Chrome","137.0.0.0","Windows","10.0","https://app.prolific.com/","hu-HU,hu;q=0.9,en-US;q=0.8,en;q=0.7","61717173748006894b2b54ff","683db6dfa200031b80f2a654","68650779e938d227d86eb7e8","61717173748006894b2b54ff","2025-07-02T12:02:58.134Z","","","","","","MotivationQ","","","","","","","","","","","","","","","","","","","","","","","","","","","","","","","","","","","","","","50"
"","","","","ctl-task-cpt","76","1459774","0.0-10.0-0.8","243","1","2025-07-02 11:39:31","80fe4187154257d5fb01684ea91b68b9","188.36.3.22","Mozilla/5.0 (Windows NT 10.0; Win64; x64) AppleWebKit/537.36 (KHTML, like Gecko) Chrome/137.0.0.0 Safari/537.36","WebKit","Chrome","137.0.0.0","Windows","10.0","https://app.prolific.com/","hu-HU,hu;q=0.9,en-US;q=0.8,en;q=0.7","61717173748006894b2b54ff","683db6dfa200031b80f2a654","68650779e938d227d86eb7e8","61717173748006894b2b54ff","2025-07-02T12:03:51.504Z","","","","","","","","","","","","","","","","win-only","0","g1:NW,g2:SE","0.4","9","0","1407582.2","17062.1","22065.3","50346.1","1","4","4","6","2","4","3","3","0","0.022727272727272728","899.5","3000","645","[""down"",""right""]","{""num_key_presses"":10,""num_perfect"":3,""num_errors"":1,""num_randdir"":6,""num_randdir_good_moves"":4,""num_whilered"":0,""num_whileblue"":1,""num_blue"":1,""num_good_moves"":8}","[410.57142857142856,413.47767857142856,0.2,410.57142857142856,413.47767857142856,109,410.57142857142856,413.47767857142856,209.7,410.57142857142856,413.47767857142856,320.3,410.57142857142856,413.47767857142856,422.6,414.57142857142856,418.47767857142856,525.2,608.5714285714286,679.4776785714286,625.4,668.5714285714286,730.4776785714286,733,709.5714285714286,750.4776785714286,842.4,728.5714285714286,751.4776785714286,953.5,769.5714285714286,708.4776785714286,1058,860.5714285714286,632.4776785714286,1168.2,943.5714285714286,587.4776785714286,1268.6,1085.5714285714287,539.4776785714286,1373.5,1212.5714285714287,521.4776785714286,1480.9,1214.5714285714287,520.4776785714286,1583.4,1214.5714285714287,520.4776785714286,1684.3,1214.5714285714287,520.4776785714286,1788.5,1214.5714285714287,520.4776785714286,1888.5,1214.5714285714287,520.4776785714286,1988.5,1214.5714285714287,520.4776785714286,2089.2,1214.5714285714287,520.4776785714286,2193.4,1214.5714285714287,520.4776785714286,2294.1,1214.5714285714287,520.4776785714286,2394.2,1214.5714285714287,520.4776785714286,2498.8,1214.5714285714287,520.4776785714286,2603.4,1214.5714285714287,520.4776785714286,2703.5,1214.5714285714287,520.4776785714286,2808.9,1214.5714285714287,520.4776785714286,2909.8,1214.5714285714287,520.4776785714286,3013.5,1214.5714285714287,520.4776785714286,3113.5,1214.5714285714287,520.4776785714286,3215.1,1214.5714285714287,520.4776785714286,3318.2,1214.5714285714287,520.4776785714286,3418.9,1214.5714285714287,520.4776785714286,3523.2,1214.5714285714287,520.4776785714286,3628.2,1214.5714285714287,520.4776785714286,3728.2,1214.5714285714287,520.4776785714286,3828.7,1214.5714285714287,520.4776785714286,3933.6,1214.5714285714287,520.4776785714286,4038.5,1214.5714285714287,520.4776785714286,4143.6,1214.5714285714287,520.4776785714286,4252.5,1214.5714285714287,520.4776785714286,4353.2,1214.5714285714287,520.4776785714286,4453.6,1214.5714285714287,520.4776785714286,4553.6,1214.5714285714287,520.4776785714286,4653.9,1214.5714285714287,520.4776785714286,4758.2,1214.5714285714287,520.4776785714286,4858.4,1214.5714285714287,520.4776785714286,4958.8]","[1367.6,1367.6,1000,0,367.6,""oops"",""right"",""up"",""bad_move"",4736.2,3368.3,3059.8,1367.9,308.5,""smooth"",""right"",""right"",""good_move"",7403.5,2667,2337.8,4736.6,329.1,""oops"",""right"",""left"",""bad_move"",10998.8,3594.9,3241.3,7403.9,353.6,""smooth"",""down"",""down"",""good_move"",13838.9,2839.8,2539.2,10999.1,300.6,""oops"",""right"",""right"",""good_move"",15981.9,2142.7,1802.8,13839.2,339.9,""oops"",""down"",""down"",""good_move"",19517.1,3535,3249.3,15982.1,285.7,""while_blue"",""right"",""right"",""good_move"",21828.3,2310.8,1962,19517.5,348.8,""oops"",""down"",""right"",""good_move"",25583.8,3755.2,3397.5,21828.6,357.7,""smooth"",""down"",""down"",""good_move"",28164.8,2580.8,2194.2,25584,386.6,""oops"",""down"",""down"",""good_move""]","",""
"29639","","<div style=""width:500px;"">
  <p>What determined the result of this run?</p>
  </div>","73","html-slider-response","77","1489415","0.0-10.0-1.8","243","1","2025-07-02 11:39:31","80fe4187154257d5fb01684ea91b68b9","188.36.3.22","Mozilla/5.0 (Windows NT 10.0; Win64; x64) AppleWebKit/537.36 (KHTML, like Gecko) Chrome/137.0.0.0 Safari/537.36","WebKit","Chrome","137.0.0.0","Windows","10.0","https://app.prolific.com/","hu-HU,hu;q=0.9,en-US;q=0.8,en;q=0.7","61717173748006894b2b54ff","683db6dfa200031b80f2a654","68650779e938d227d86eb7e8","61717173748006894b2b54ff","2025-07-02T12:04:21.145Z","","","","","","AttribQ","","","","","","","","","","","","","","","","","","","","","","","","","","","","","","","","","","","","","","50"
"55828","","<div style=""width:500px;"">
  <p>How much control did you have over the ball?</p>
  </div>","75","html-slider-response","78","1545246","0.0-10.0-2.8","243","1","2025-07-02 11:39:31","80fe4187154257d5fb01684ea91b68b9","188.36.3.22","Mozilla/5.0 (Windows NT 10.0; Win64; x64) AppleWebKit/537.36 (KHTML, like Gecko) Chrome/137.0.0.0 Safari/537.36","WebKit","Chrome","137.0.0.0","Windows","10.0","https://app.prolific.com/","hu-HU,hu;q=0.9,en-US;q=0.8,en;q=0.7","61717173748006894b2b54ff","683db6dfa200031b80f2a654","68650779e938d227d86eb7e8","61717173748006894b2b54ff","2025-07-02T12:05:16.976Z","","","","","","ControlQ","","","","","","","","","","","","","","","","","","","","","","","","","","","","","","","","","","","","","","50"
"1475","","<div style=""width:500px;"">
  <p>How would you describe your current emotional state?</p>
  </div>","32","html-slider-response","79","1546723","0.0-10.0-3.8","243","1","2025-07-02 11:39:31","80fe4187154257d5fb01684ea91b68b9","188.36.3.22","Mozilla/5.0 (Windows NT 10.0; Win64; x64) AppleWebKit/537.36 (KHTML, like Gecko) Chrome/137.0.0.0 Safari/537.36","WebKit","Chrome","137.0.0.0","Windows","10.0","https://app.prolific.com/","hu-HU,hu;q=0.9,en-US;q=0.8,en;q=0.7","61717173748006894b2b54ff","683db6dfa200031b80f2a654","68650779e938d227d86eb7e8","61717173748006894b2b54ff","2025-07-02T12:05:18.453Z","","","","","","StressQ","","","","","","","","","","","","","","","","","","","","","","","","","","","","","","","","","","","","","","50"
"1541","","<div style=""width:500px;"">
  <p>What best describes how you currently feel?</p>
  </div>","70","html-slider-response","80","1548265","0.0-10.0-4.8","243","1","2025-07-02 11:39:31","80fe4187154257d5fb01684ea91b68b9","188.36.3.22","Mozilla/5.0 (Windows NT 10.0; Win64; x64) AppleWebKit/537.36 (KHTML, like Gecko) Chrome/137.0.0.0 Safari/537.36","WebKit","Chrome","137.0.0.0","Windows","10.0","https://app.prolific.com/","hu-HU,hu;q=0.9,en-US;q=0.8,en;q=0.7","61717173748006894b2b54ff","683db6dfa200031b80f2a654","68650779e938d227d86eb7e8","61717173748006894b2b54ff","2025-07-02T12:05:19.995Z","","","","","","MotivationQ","","","","","","","","","","","","","","","","","","","","","","","","","","","","","","","","","","","","","","50"
