"rt","response_timestamp","stimulus","response","trial_type","trial_index","time_elapsed","internal_node_id","run_id","condition","recorded_at","source_code_version","ip","user_agent","device","browser","browser_version","platform","platform_version","referer","accept_language","PROLIFIC_PID","STUDY_ID","SESSION_ID","prolific_id","realtime","view_history","question_order","consent","success","question_id","eventType","responses","item_order","radio_event_ids","radio_event_times","key_event_times","mouse_event_times","straightlining","zigzagging","honeypot","which_type","canvas_config","goals_layout","control_level","trial_number","tutorial_trial_number","trial_start_time","phase1_start_time","phase2_start_time","phase3_start_time","goal_1_value","goal_1_distance","goal_2_value","goal_2_distance","goal_selected","outcome","outcome_total","participant_final_score","participant_initial_score","participant_final_score_prop","goal_choice_rt","allocated_time","allocated_time_remaining","goal_direction","counts","mouse_movements","key_presses","correct","slider_start"
"5607","1751451556296","<p style='font-size:40px;line-height:1.25'><strong>Welcome to the experiment!</strong></p><p style='font-size:1.1em;line-height:1.25'>Thank you for your interest in our experiment! Before you begin, it is important that we obtain your informed consent to participate in the study.</p><p style='font-size:1.1em;line-height:1.25'>On the next screen will be an <strong>information sheet</strong> for you to read. To participate in the study we need you to read this information sheet and the following consent form carefully. If you agree with all the statements, please click the <strong>I agree</strong> button.</p><p style='font-size:1.1em;line-height:1.25'>Press <strong>Next</strong> to read the information sheet.</p>","0","custom-html-button-response","0","5609","0.0-0.0","86","1","2025-07-02 10:19:09","80fe4187154257d5fb01684ea91b68b9","86.17.244.19","Mozilla/5.0 (Windows NT 10.0; Win64; x64) AppleWebKit/537.36 (KHTML, like Gecko) Chrome/137.0.0.0 Safari/537.36","WebKit","Chrome","137.0.0.0","Windows","10.0","https://app.prolific.com/","en-GB,en-US;q=0.9,en;q=0.8","63d37e4ea0985c4dc486ff8e","683db6dfa200031b80f2a654","6865079069975ac2fba8d1f2","63d37e4ea0985c4dc486ff8e","2025-07-02T10:19:16.297Z","","","","","","","","","","","","","","","","","","","","","","","","","","","","","","","","","","","","","","","","","","","",""
"9172","","","","instructions","1","14782","0.0-1.0","86","1","2025-07-02 10:19:09","80fe4187154257d5fb01684ea91b68b9","86.17.244.19","Mozilla/5.0 (Windows NT 10.0; Win64; x64) AppleWebKit/537.36 (KHTML, like Gecko) Chrome/137.0.0.0 Safari/537.36","WebKit","Chrome","137.0.0.0","Windows","10.0","https://app.prolific.com/","en-GB,en-US;q=0.9,en;q=0.8","63d37e4ea0985c4dc486ff8e","683db6dfa200031b80f2a654","6865079069975ac2fba8d1f2","63d37e4ea0985c4dc486ff8e","","[{""page_index"":0,""viewing_time"":6840},{""page_index"":1,""viewing_time"":2332}]","","","","","","","","","","","","","","","","","","","","","","","","","","","","","","","","","","","","","","","","","","",""
"5655","","","{""Q0"":"""",""Q1"":"""",""Q2"":"""",""Q3"":"""",""Q4"":"""",""Q5"":"""",""Q6"":""I agree""}","survey-multi-choice","2","20439","0.0-2.0","86","1","2025-07-02 10:19:09","80fe4187154257d5fb01684ea91b68b9","86.17.244.19","Mozilla/5.0 (Windows NT 10.0; Win64; x64) AppleWebKit/537.36 (KHTML, like Gecko) Chrome/137.0.0.0 Safari/537.36","WebKit","Chrome","137.0.0.0","Windows","10.0","https://app.prolific.com/","en-GB,en-US;q=0.9,en;q=0.8","63d37e4ea0985c4dc486ff8e","683db6dfa200031b80f2a654","6865079069975ac2fba8d1f2","63d37e4ea0985c4dc486ff8e","","","[0,1,2,3,4,5,6]","true","","","","","","","","","","","","","","","","","","","","","","","","","","","","","","","","","","","","","","","","",""
"8414","","","","fullscreen","3","29866","0.0-4.0","86","1","2025-07-02 10:19:09","80fe4187154257d5fb01684ea91b68b9","86.17.244.19","Mozilla/5.0 (Windows NT 10.0; Win64; x64) AppleWebKit/537.36 (KHTML, like Gecko) Chrome/137.0.0.0 Safari/537.36","WebKit","Chrome","137.0.0.0","Windows","10.0","https://app.prolific.com/","en-GB,en-US;q=0.9,en;q=0.8","63d37e4ea0985c4dc486ff8e","683db6dfa200031b80f2a654","6865079069975ac2fba8d1f2","63d37e4ea0985c4dc486ff8e","","","","","true","","","","","","","","","","","","","","","","","","","","","","","","","","","","","","","","","","","","","","","",""
"377735","1751451958333"," <p style='font-size:1.1em;line-height:1.25'>Thank you for completing the consent form and closing all other tabs.</p><p style='font-size:1.1em;line-height:1.25'>We will now invite you to fill in some demographic information and questionnaires, before starting the game.<br>This will take about 5 minutes.<br></p><p style='font-size:1.1em;line-height:1.25'>Press the <strong>Next</strong> button to continue.</p>","0","custom-html-button-response","4","407645","0.0-5.0","86","1","2025-07-02 10:19:09","80fe4187154257d5fb01684ea91b68b9","86.17.244.19","Mozilla/5.0 (Windows NT 10.0; Win64; x64) AppleWebKit/537.36 (KHTML, like Gecko) Chrome/137.0.0.0 Safari/537.36","WebKit","Chrome","137.0.0.0","Windows","10.0","https://app.prolific.com/","en-GB,en-US;q=0.9,en;q=0.8","63d37e4ea0985c4dc486ff8e","683db6dfa200031b80f2a654","6865079069975ac2fba8d1f2","63d37e4ea0985c4dc486ff8e","2025-07-02T10:25:58.333Z","","","","","","","","","","","","","","","","","","","","","","","","","","","","","","","","","","","","","","","","","","","",""
"3947","","","{""age"":""33""}","survey-text","5","411597","0.0-6.0-0.0","86","1","2025-07-02 10:19:09","80fe4187154257d5fb01684ea91b68b9","86.17.244.19","Mozilla/5.0 (Windows NT 10.0; Win64; x64) AppleWebKit/537.36 (KHTML, like Gecko) Chrome/137.0.0.0 Safari/537.36","WebKit","Chrome","137.0.0.0","Windows","10.0","https://app.prolific.com/","en-GB,en-US;q=0.9,en;q=0.8","63d37e4ea0985c4dc486ff8e","683db6dfa200031b80f2a654","6865079069975ac2fba8d1f2","63d37e4ea0985c4dc486ff8e","","","","","","0","demographics","","","","","","","","","","","","","","","","","","","","","","","","","","","","","","","","","","","","","",""
"4680","","","{""gender_identity"":""male/man""}","survey-multi-choice","6","416278","0.0-6.0-1.0","86","1","2025-07-02 10:19:09","80fe4187154257d5fb01684ea91b68b9","86.17.244.19","Mozilla/5.0 (Windows NT 10.0; Win64; x64) AppleWebKit/537.36 (KHTML, like Gecko) Chrome/137.0.0.0 Safari/537.36","WebKit","Chrome","137.0.0.0","Windows","10.0","https://app.prolific.com/","en-GB,en-US;q=0.9,en;q=0.8","63d37e4ea0985c4dc486ff8e","683db6dfa200031b80f2a654","6865079069975ac2fba8d1f2","63d37e4ea0985c4dc486ff8e","","","[0]","","","1","demographics","","","","","","","","","","","","","","","","","","","","","","","","","","","","","","","","","","","","","",""
"3265","","","{""assigned_sex"":""male""}","survey-multi-choice","7","419544","0.0-6.0-2.0","86","1","2025-07-02 10:19:09","80fe4187154257d5fb01684ea91b68b9","86.17.244.19","Mozilla/5.0 (Windows NT 10.0; Win64; x64) AppleWebKit/537.36 (KHTML, like Gecko) Chrome/137.0.0.0 Safari/537.36","WebKit","Chrome","137.0.0.0","Windows","10.0","https://app.prolific.com/","en-GB,en-US;q=0.9,en;q=0.8","63d37e4ea0985c4dc486ff8e","683db6dfa200031b80f2a654","6865079069975ac2fba8d1f2","63d37e4ea0985c4dc486ff8e","","","[0]","","","2","demographics","","","","","","","","","","","","","","","","","","","","","","","","","","","","","","","","","","","","","",""
"3064","","","{""menstrual_cycle"":""No""}","survey-multi-choice","8","422609","0.0-6.0-3.0","86","1","2025-07-02 10:19:09","80fe4187154257d5fb01684ea91b68b9","86.17.244.19","Mozilla/5.0 (Windows NT 10.0; Win64; x64) AppleWebKit/537.36 (KHTML, like Gecko) Chrome/137.0.0.0 Safari/537.36","WebKit","Chrome","137.0.0.0","Windows","10.0","https://app.prolific.com/","en-GB,en-US;q=0.9,en;q=0.8","63d37e4ea0985c4dc486ff8e","683db6dfa200031b80f2a654","6865079069975ac2fba8d1f2","63d37e4ea0985c4dc486ff8e","","","[0]","","","4","demographics","","","","","","","","","","","","","","","","","","","","","","","","","","","","","","","","","","","","","",""
"4184","","","{""education"":""Doctoral Degree (e.g., PhD)""}","survey-multi-choice","9","426795","0.0-6.0-4.0","86","1","2025-07-02 10:19:09","80fe4187154257d5fb01684ea91b68b9","86.17.244.19","Mozilla/5.0 (Windows NT 10.0; Win64; x64) AppleWebKit/537.36 (KHTML, like Gecko) Chrome/137.0.0.0 Safari/537.36","WebKit","Chrome","137.0.0.0","Windows","10.0","https://app.prolific.com/","en-GB,en-US;q=0.9,en;q=0.8","63d37e4ea0985c4dc486ff8e","683db6dfa200031b80f2a654","6865079069975ac2fba8d1f2","63d37e4ea0985c4dc486ff8e","","","[0]","","","5","demographics","","","","","","","","","","","","","","","","","","","","","","","","","","","","","","","","","","","","","",""
"7312","","","{""education"":""GCSE/Standard Grades""}","survey-multi-choice","10","434108","0.0-6.0-5.0","86","1","2025-07-02 10:19:09","80fe4187154257d5fb01684ea91b68b9","86.17.244.19","Mozilla/5.0 (Windows NT 10.0; Win64; x64) AppleWebKit/537.36 (KHTML, like Gecko) Chrome/137.0.0.0 Safari/537.36","WebKit","Chrome","137.0.0.0","Windows","10.0","https://app.prolific.com/","en-GB,en-US;q=0.9,en;q=0.8","63d37e4ea0985c4dc486ff8e","683db6dfa200031b80f2a654","6865079069975ac2fba8d1f2","63d37e4ea0985c4dc486ff8e","2025-07-02T10:26:24.796Z","","[0]","","","6","demographics","","","","","","","","","","","","","","","","","","","","","","","","","","","","","","","","","","","","","",""
"22826","","","{""mental_health_condition"":""Depression"",""mental_health_treatment"":"""",""psychiatric_medication"":""Sertraline 50mg daily""}","survey-text","11","456936","0.0-7.0-0.0","86","1","2025-07-02 10:19:09","80fe4187154257d5fb01684ea91b68b9","86.17.244.19","Mozilla/5.0 (Windows NT 10.0; Win64; x64) AppleWebKit/537.36 (KHTML, like Gecko) Chrome/137.0.0.0 Safari/537.36","WebKit","Chrome","137.0.0.0","Windows","10.0","https://app.prolific.com/","en-GB,en-US;q=0.9,en;q=0.8","63d37e4ea0985c4dc486ff8e","683db6dfa200031b80f2a654","6865079069975ac2fba8d1f2","63d37e4ea0985c4dc486ff8e","2025-07-02T10:26:47.624Z","","","","","1","mental_health","","","","","","","","","","","","","","","","","","","","","","","","","","","","","","","","","","","","","",""
"4783","","","{""depression_history"":[""Yes""]}","survey-multi-select","12","461737","0.0-7.0-1.0","86","1","2025-07-02 10:19:09","80fe4187154257d5fb01684ea91b68b9","86.17.244.19","Mozilla/5.0 (Windows NT 10.0; Win64; x64) AppleWebKit/537.36 (KHTML, like Gecko) Chrome/137.0.0.0 Safari/537.36","WebKit","Chrome","137.0.0.0","Windows","10.0","https://app.prolific.com/","en-GB,en-US;q=0.9,en;q=0.8","63d37e4ea0985c4dc486ff8e","683db6dfa200031b80f2a654","6865079069975ac2fba8d1f2","63d37e4ea0985c4dc486ff8e","","","[0]","","","","mental_health","","","","","","","","","","","","","","","","","","","","","","","","","","","","","","","","","","","","","",""
"9645","","","{""depression_episodes"":""more than 5"",""depression_recent"":""Currently experiencing an episode""}","survey-multi-choice","13","471389","0.0-7.0-2.0-0.0","86","1","2025-07-02 10:19:09","80fe4187154257d5fb01684ea91b68b9","86.17.244.19","Mozilla/5.0 (Windows NT 10.0; Win64; x64) AppleWebKit/537.36 (KHTML, like Gecko) Chrome/137.0.0.0 Safari/537.36","WebKit","Chrome","137.0.0.0","Windows","10.0","https://app.prolific.com/","en-GB,en-US;q=0.9,en;q=0.8","63d37e4ea0985c4dc486ff8e","683db6dfa200031b80f2a654","6865079069975ac2fba8d1f2","63d37e4ea0985c4dc486ff8e","2025-07-02T10:27:02.077Z","","[0,1]","","","3","mental_health","","","","","","","","","","","","","","","","","","","","","","","","","","","","","","","","","","","","","",""
"37581.90000009537","","","","survey-template","14","508982","0.0-7.0-3.0","86","1","2025-07-02 10:19:09","80fe4187154257d5fb01684ea91b68b9","86.17.244.19","Mozilla/5.0 (Windows NT 10.0; Win64; x64) AppleWebKit/537.36 (KHTML, like Gecko) Chrome/137.0.0.0 Safari/537.36","WebKit","Chrome","137.0.0.0","Windows","10.0","https://app.prolific.com/","en-GB,en-US;q=0.9,en;q=0.8","63d37e4ea0985c4dc486ff8e","683db6dfa200031b80f2a654","6865079069975ac2fba8d1f2","63d37e4ea0985c4dc486ff8e","2025-07-02T10:27:39.670Z","","","","","","ius","{""Q01"":""3"",""Q02"":""3"",""Q03"":""3"",""Q04"":""3"",""Q05"":""2"",""Q06"":""4"",""Q07"":""4"",""Q08"":""0"",""Q09"":""3"",""Q10"":""3"",""Q11"":""4"",""Q12"":""3"",""Q13"":""3""}","[0,1,2,3,4,5,6,7,8,9,10,11,12]","[""Q01"",""Q02"",""Q03"",""Q04"",""Q05"",""Q06"",""Q07"",""Q08"",""Q09"",""Q10"",""Q11"",""Q12"",""Q13""]","[3304.5999999046326,6735.900000095367,9069,11602.300000190735,15854.099999904633,18869.300000190735,21734.099999904633,23750.599999904633,29467,30864.400000095367,32930.59999990463,34547.699999809265,36413.800000190735]","[]","[3304.5999999046326,6735.900000095367,9069,11602.300000190735,15854.099999904633,18869.300000190735,21734.099999904633,23750.599999904633,29467,30864.400000095367,32930.59999990463,34547.699999809265,36413.800000190735,37580.300000190735]","0.6153846153846154","0.3333333333333333","0","","","","","","","","","","","","","","","","","","","","","","","","","","","","",""
"2347","1751452062017","<p style='font-size:1.1em;line-height:1.25'>In the following, we will ask you a few questions relating to your experiences over the past month.<br></p><p style='font-size:1.1em;line-height:1.25'>Press the <strong>Next</strong> button to continue.</p>","0","custom-html-button-response","15","511330","0.0-7.0-4.0","86","1","2025-07-02 10:19:09","80fe4187154257d5fb01684ea91b68b9","86.17.244.19","Mozilla/5.0 (Windows NT 10.0; Win64; x64) AppleWebKit/537.36 (KHTML, like Gecko) Chrome/137.0.0.0 Safari/537.36","WebKit","Chrome","137.0.0.0","Windows","10.0","https://app.prolific.com/","en-GB,en-US;q=0.9,en;q=0.8","63d37e4ea0985c4dc486ff8e","683db6dfa200031b80f2a654","6865079069975ac2fba8d1f2","63d37e4ea0985c4dc486ff8e","2025-07-02T10:27:42.018Z","","","","","","","","","","","","","","","","","","","","","","","","","","","","","","","","","","","","","","","","","","","",""
"33089.7000002861","","","","survey-template","16","544426","0.0-7.0-5.0","86","1","2025-07-02 10:19:09","80fe4187154257d5fb01684ea91b68b9","86.17.244.19","Mozilla/5.0 (Windows NT 10.0; Win64; x64) AppleWebKit/537.36 (KHTML, like Gecko) Chrome/137.0.0.0 Safari/537.36","WebKit","Chrome","137.0.0.0","Windows","10.0","https://app.prolific.com/","en-GB,en-US;q=0.9,en;q=0.8","63d37e4ea0985c4dc486ff8e","683db6dfa200031b80f2a654","6865079069975ac2fba8d1f2","63d37e4ea0985c4dc486ff8e","2025-07-02T10:28:15.114Z","","","","","","pss","{""Q01"":""3"",""Q02"":""3"",""Q03"":""4"",""Q04"":""3"",""Q05"":""3"",""Q06"":""3"",""Q07"":""2"",""Q08"":""3"",""Q09"":""2"",""Q10"":""2""}","[0,1,2,3,4,5,6,7,8,9]","[""Q01"",""Q02"",""Q03"",""Q04"",""Q05"",""Q06"",""Q07"",""Q08"",""Q09"",""Q10""]","[3930.300000190735,5897.599999904633,7879.900000095367,12227.300000190735,14546,16879,21243.200000286102,23896.800000190735,29492,31793.599999904633]","[]","[0.09999990463256836,3930.300000190735,5897.599999904633,7879.900000095367,12227.300000190735,14546,16879,21243.200000286102,23896.800000190735,29492,31793.599999904633,33088.40000009537]","0.3","0.4444444444444444","0","","","","","","","","","","","","","","","","","","","","","","","","","","","","",""
"2085","1751452097199","<p style='font-size:1.1em;line-height:1.25'>Thank you for your answers! Now we will ask you a few more questions relating to your feelings in the last 24 hours.<br></p><p style='font-size:1.1em;line-height:1.25'>Press the <strong>Next</strong> button to continue.</p>","0","custom-html-button-response","17","546511","0.0-7.0-6.0","86","1","2025-07-02 10:19:09","80fe4187154257d5fb01684ea91b68b9","86.17.244.19","Mozilla/5.0 (Windows NT 10.0; Win64; x64) AppleWebKit/537.36 (KHTML, like Gecko) Chrome/137.0.0.0 Safari/537.36","WebKit","Chrome","137.0.0.0","Windows","10.0","https://app.prolific.com/","en-GB,en-US;q=0.9,en;q=0.8","63d37e4ea0985c4dc486ff8e","683db6dfa200031b80f2a654","6865079069975ac2fba8d1f2","63d37e4ea0985c4dc486ff8e","2025-07-02T10:28:17.200Z","","","","","","","","","","","","","","","","","","","","","","","","","","","","","","","","","","","","","","","","","","","",""
"66304.80000019073","","","","survey-template","18","612824","0.0-7.0-7.0","86","1","2025-07-02 10:19:09","80fe4187154257d5fb01684ea91b68b9","86.17.244.19","Mozilla/5.0 (Windows NT 10.0; Win64; x64) AppleWebKit/537.36 (KHTML, like Gecko) Chrome/137.0.0.0 Safari/537.36","WebKit","Chrome","137.0.0.0","Windows","10.0","https://app.prolific.com/","en-GB,en-US;q=0.9,en;q=0.8","63d37e4ea0985c4dc486ff8e","683db6dfa200031b80f2a654","6865079069975ac2fba8d1f2","63d37e4ea0985c4dc486ff8e","2025-07-02T10:29:23.512Z","","","","","","drsp","{""Q01"":""3"",""Q02"":""3"",""Q03"":""4"",""Q04"":""4"",""Q05"":""2"",""Q06"":""1"",""Q07"":""0"",""Q08"":""0"",""Q09"":""4"",""Q10"":""3"",""Q11"":""3"",""Q12"":""0"",""Q13"":""0"",""Q14"":""3"",""Q15"":""3"",""Q16"":""3"",""Q17"":""3"",""Q18"":""2"",""Q19"":""3"",""Q20"":""3"",""Q21"":""1""}","[0,1,2,3,4,5,6,7,8,9,10,11,12,13,14,15,16,17,18,19,20]","[""Q01"",""Q01"",""Q03"",""Q04"",""Q05"",""Q06"",""Q07"",""Q08"",""Q09"",""Q10"",""Q12"",""Q13"",""Q14"",""Q15"",""Q16"",""Q17"",""Q18"",""Q19"",""Q20"",""Q21"",""Q02"",""Q11""]","[3177.4000000953674,5877.300000190735,9259.5,11743.099999904633,13342.199999809265,15425.300000190735,17128.599999904633,19175,21708.199999809265,23973.5,29056.5,30088.5,31637.900000095367,32755.599999904633,35942.40000009537,37339,39769.300000190735,46801.59999990463,48003.300000190735,49636.09999990463,55251.59999990463,63283.5]","[]","[0,3177.4000000953674,5877.300000190735,7276.800000190735,9259.5,10693.099999904633,11743.099999904633,13342.199999809265,15425.300000190735,17128.599999904633,19175,21708.199999809265,23973.5,25340.800000190735,26970.5,29056.5,30088.5,31637.900000095367,32755.599999904633,35942.40000009537,37339,39769.300000190735,44402.09999990463,46801.59999990463,48003.300000190735,49636.09999990463,51271.800000190735,55251.59999990463,58415.09999990463,63283.5,64265.199999809265,66302.40000009537]","0.47619047619047616","0.3","0","","","","","","","","","","","","","","","","","","","","","","","","","","","","",""
"11704.89999961853","","","","survey-template","19","624531","0.0-7.0-8.0","86","1","2025-07-02 10:19:09","80fe4187154257d5fb01684ea91b68b9","86.17.244.19","Mozilla/5.0 (Windows NT 10.0; Win64; x64) AppleWebKit/537.36 (KHTML, like Gecko) Chrome/137.0.0.0 Safari/537.36","WebKit","Chrome","137.0.0.0","Windows","10.0","https://app.prolific.com/","en-GB,en-US;q=0.9,en;q=0.8","63d37e4ea0985c4dc486ff8e","683db6dfa200031b80f2a654","6865079069975ac2fba8d1f2","63d37e4ea0985c4dc486ff8e","2025-07-02T10:29:35.219Z","","","","","","stress","{""Q01"":""4"",""Q02"":""4"",""Q03"":""4""}","[0,1,2]","[""Q01"",""Q02"",""Q03""]","[3273.8999996185303,4973.699999809265,10657.199999809265]","[]","[3273.8999996185303,4973.699999809265,9204.89999961853,10657.199999809265,11704.39999961853]","0.6666666666666666","0","0","","","","","","","","","","","","","","","","","","","","","","","","","","","","",""
"35141","","","","instructions","20","659677","0.0-8.0-0.0","86","1","2025-07-02 10:19:09","80fe4187154257d5fb01684ea91b68b9","86.17.244.19","Mozilla/5.0 (Windows NT 10.0; Win64; x64) AppleWebKit/537.36 (KHTML, like Gecko) Chrome/137.0.0.0 Safari/537.36","WebKit","Chrome","137.0.0.0","Windows","10.0","https://app.prolific.com/","en-GB,en-US;q=0.9,en;q=0.8","63d37e4ea0985c4dc486ff8e","683db6dfa200031b80f2a654","6865079069975ac2fba8d1f2","63d37e4ea0985c4dc486ff8e","","[{""page_index"":0,""viewing_time"":13148},{""page_index"":1,""viewing_time"":7479},{""page_index"":2,""viewing_time"":2278},{""page_index"":3,""viewing_time"":12236}]","","","","","","","","","","","","","","","","","","","","","","","","","","","","","","","","","","","","","","","","","","",""
"","","","","ctl-task-cpt","21","682429","0.0-8.0-1.0","86","1","2025-07-02 10:19:09","80fe4187154257d5fb01684ea91b68b9","86.17.244.19","Mozilla/5.0 (Windows NT 10.0; Win64; x64) AppleWebKit/537.36 (KHTML, like Gecko) Chrome/137.0.0.0 Safari/537.36","WebKit","Chrome","137.0.0.0","Windows","10.0","https://app.prolific.com/","en-GB,en-US;q=0.9,en;q=0.8","63d37e4ea0985c4dc486ff8e","683db6dfa200031b80f2a654","6865079069975ac2fba8d1f2","63d37e4ea0985c4dc486ff8e","","","","","","","","","","","","","","","","","win-only","1","g1:NE,g2:SW","1","0","1","661355.1","1916.4","5921.3","19743.1","2","4","4","6","1","2","1","1","0","0.007575757575757576","1874","4000","2050","[""up"",""right""]","{""num_key_presses"":5,""num_perfect"":4,""num_errors"":1,""num_randdir"":0,""num_randdir_good_moves"":0,""num_whilered"":0,""num_whileblue"":0,""num_blue"":0,""num_good_moves"":4}","[409.07142857142856,413.1808016640799,7,409.07142857142856,413.1808016640799,104.4,409.07142857142856,413.1808016640799,209.8,409.07142857142856,413.1808016640799,310.7,409.07142857142856,413.1808016640799,414.5,409.07142857142856,413.1808016640799,514.6,409.07142857142856,413.1808016640799,620.4,409.07142857142856,413.1808016640799,724.5,523.0714285714286,284.1808016640799,824.6,785.5714285714286,32.18080166407994,925.6,793.0714285714286,26.180801664079937,1029.9,824.5714285714286,-12.819198335920063,1134.3,824.5714285714286,-8.319198335920063,1234.4,790.0714285714286,36.68080166407994,1334.7,787.0714285714286,44.18080166407994,1440,787.0714285714286,47.18080166407994,1540.5,787.0714285714286,50.18080166407994,1645.4,784.0714285714286,50.18080166407994,1749.4,782.5714285714286,50.18080166407994,1854,782.5714285714286,51.68080166407994,1954.1,782.5714285714286,51.68080166407994,2059.6,784.0714285714286,51.68080166407994,2164.6,784.0714285714286,51.68080166407994,2264.9,784.0714285714286,51.68080166407994,2369.2,784.0714285714286,51.68080166407994,2474.8,784.0714285714286,51.68080166407994,2579.1,784.0714285714286,51.68080166407994,2679.2,784.0714285714286,51.68080166407994,2779.4,784.0714285714286,51.68080166407994,2879.4,784.0714285714286,51.68080166407994,2979.9,784.0714285714286,51.68080166407994,3084.6,784.0714285714286,51.68080166407994,3184.6,784.0714285714286,51.68080166407994,3284.7,784.0714285714286,51.68080166407994,3384.9,784.0714285714286,51.68080166407994,3489.5,784.0714285714286,51.68080166407994,3594.6,784.0714285714286,51.68080166407994,3699.1,784.0714285714286,51.68080166407994,3799.2,784.0714285714286,51.68080166407994,3899.3,784.0714285714286,51.68080166407994,4000]","[1429,1429,1000,0,429,""smooth"",""right"",""right"",""good_move"",2032.8,603.5,2975.5,1429.3,-2372,""error"",""-"",""-"",""no_move"",6927.9,4894.8,3340,3034.8,553.1,""smooth"",""right"",""right"",""good_move"",9956,3027.9,2409,6928.1,618.9,""smooth"",""up"",""up"",""good_move"",13723.7,3767.6,3385.6,9956.2,382,""smooth"",""up"",""up"",""good_move""]","",""
"13874","","","","instructions","22","696303","0.0-8.0-2.0","86","1","2025-07-02 10:19:09","80fe4187154257d5fb01684ea91b68b9","86.17.244.19","Mozilla/5.0 (Windows NT 10.0; Win64; x64) AppleWebKit/537.36 (KHTML, like Gecko) Chrome/137.0.0.0 Safari/537.36","WebKit","Chrome","137.0.0.0","Windows","10.0","https://app.prolific.com/","en-GB,en-US;q=0.9,en;q=0.8","63d37e4ea0985c4dc486ff8e","683db6dfa200031b80f2a654","6865079069975ac2fba8d1f2","63d37e4ea0985c4dc486ff8e","","[{""page_index"":0,""viewing_time"":13874}]","","","","","","","","","","","","","","","","","","","","","","","","","","","","","","","","","","","","","","","","","","",""
"","","","","ctl-task-cpt","23","729278","0.0-8.0-3.0","86","1","2025-07-02 10:19:09","80fe4187154257d5fb01684ea91b68b9","86.17.244.19","Mozilla/5.0 (Windows NT 10.0; Win64; x64) AppleWebKit/537.36 (KHTML, like Gecko) Chrome/137.0.0.0 Safari/537.36","WebKit","Chrome","137.0.0.0","Windows","10.0","https://app.prolific.com/","en-GB,en-US;q=0.9,en;q=0.8","63d37e4ea0985c4dc486ff8e","683db6dfa200031b80f2a654","6865079069975ac2fba8d1f2","63d37e4ea0985c4dc486ff8e","","","","","","","","","","","","","","","","","win-only","1","g1:NE,g2:SW","0.35","0","3","697978.9","2210","6211.1","29960.9","2","4","8","6","2","8","8","8","0","0.06060606060606061","1853.8","4000","1620","[""down"",""left""]","{""num_key_presses"":6,""num_perfect"":4,""num_errors"":0,""num_randdir"":2,""num_randdir_good_moves"":2,""num_whilered"":0,""num_whileblue"":0,""num_blue"":2,""num_good_moves"":6}","[412.07142857142856,419.1808016640799,0.1,412.07142857142856,419.1808016640799,100.7,412.07142857142856,419.1808016640799,206.4,412.07142857142856,419.1808016640799,315.6,412.07142857142856,419.1808016640799,415.6,412.07142857142856,419.1808016640799,515.6,412.07142857142856,419.1808016640799,621.3,412.07142857142856,419.1808016640799,726,412.07142857142856,419.1808016640799,832.7,412.07142857142856,419.1808016640799,936,293.57142857142856,521.1808016640799,1041,227.57142857142856,603.6808016640799,1149,188.57142857142856,647.1808016640799,1249.1,152.57142857142856,687.6808016640799,1350.5,95.57142857142857,752.1808016640799,1450.9,95.57142857142857,752.1808016640799,1555.6,95.57142857142857,752.1808016640799,1655.8,95.57142857142857,752.1808016640799,1765.6,95.57142857142857,752.1808016640799,1866.6,95.57142857142857,752.1808016640799,1971.8,95.57142857142857,752.1808016640799,2075.6,95.57142857142857,752.1808016640799,2176.4,95.57142857142857,752.1808016640799,2282.3,305.57142857142856,674.1808016640799,2382.8,356.57142857142856,656.1808016640799,2486.1,356.57142857142856,656.1808016640799,2586.3,356.57142857142856,656.1808016640799,2686.7,356.57142857142856,656.1808016640799,2787,356.57142857142856,656.1808016640799,2891.2,356.57142857142856,656.1808016640799,2998.6,356.57142857142856,656.1808016640799,3101,356.57142857142856,656.1808016640799,3201,356.57142857142856,656.1808016640799,3305.6,356.57142857142856,656.1808016640799,3406.4,356.57142857142856,656.1808016640799,3515.1,356.57142857142856,656.1808016640799,3620.7,356.57142857142856,656.1808016640799,3721.2,356.57142857142856,656.1808016640799,3826,356.57142857142856,656.1808016640799,3932]","[1532,1532,1000,0,532,""oops"",""down"",""left"",""good_move"",4638,3105.8,2797.2,1532.2,308.6,""smooth"",""down"",""down"",""good_move"",10761.4,6123.1,2137.6,8162.3,461.5,""smooth"",""down"",""down"",""good_move"",14176.8,3415.3,2891.3,10761.5,524,""oops"",""left"",""left"",""good_move"",17316.9,3140,2702.3,14176.9,437.7,""smooth"",""down"",""down"",""good_move"",23658,6341.1,2306.5,20914.3,437.3,""smooth"",""left"",""left"",""good_move""]","",""
"28924","","","","instructions","24","758203","0.0-8.0-4.0","86","1","2025-07-02 10:19:09","80fe4187154257d5fb01684ea91b68b9","86.17.244.19","Mozilla/5.0 (Windows NT 10.0; Win64; x64) AppleWebKit/537.36 (KHTML, like Gecko) Chrome/137.0.0.0 Safari/537.36","WebKit","Chrome","137.0.0.0","Windows","10.0","https://app.prolific.com/","en-GB,en-US;q=0.9,en;q=0.8","63d37e4ea0985c4dc486ff8e","683db6dfa200031b80f2a654","6865079069975ac2fba8d1f2","63d37e4ea0985c4dc486ff8e","","[{""page_index"":0,""viewing_time"":10695},{""page_index"":1,""viewing_time"":18229}]","","","","","","","","","","","","","","","","","","","","","","","","","","","","","","","","","","","","","","","","","","",""
"21631","","","{""green_ball"":[""Ball sometimes shakes and moves in a random direction""]}","survey-multi-select","25","779848","0.0-8.0-5.0-0.0","86","1","2025-07-02 10:19:09","80fe4187154257d5fb01684ea91b68b9","86.17.244.19","Mozilla/5.0 (Windows NT 10.0; Win64; x64) AppleWebKit/537.36 (KHTML, like Gecko) Chrome/137.0.0.0 Safari/537.36","WebKit","Chrome","137.0.0.0","Windows","10.0","https://app.prolific.com/","en-GB,en-US;q=0.9,en;q=0.8","63d37e4ea0985c4dc486ff8e","683db6dfa200031b80f2a654","6865079069975ac2fba8d1f2","63d37e4ea0985c4dc486ff8e","","","[0]","","","","quiz","","","","","","","","","","","","","","","","","","","","","","","","","","","","","","","","","","","","","true",""
"2094","","<p align='center'><b>CORRECT!</b> Indeed, the green ball may sometimes shake and move in a random direction.</p>","0","html-button-response","26","781950","0.0-8.0-5.0-1.0","86","1","2025-07-02 10:19:09","80fe4187154257d5fb01684ea91b68b9","86.17.244.19","Mozilla/5.0 (Windows NT 10.0; Win64; x64) AppleWebKit/537.36 (KHTML, like Gecko) Chrome/137.0.0.0 Safari/537.36","WebKit","Chrome","137.0.0.0","Windows","10.0","https://app.prolific.com/","en-GB,en-US;q=0.9,en;q=0.8","63d37e4ea0985c4dc486ff8e","683db6dfa200031b80f2a654","6865079069975ac2fba8d1f2","63d37e4ea0985c4dc486ff8e","","","","","","","","","","","","","","","","","","","","","","","","","","","","","","","","","","","","","","","","","","","","",""
"5142","","","{""yellow_ball"":[""Ball doesn‘t move and I get -1 penalty point""]}","survey-multi-select","27","787094","0.0-8.0-6.0-0.0","86","1","2025-07-02 10:19:09","80fe4187154257d5fb01684ea91b68b9","86.17.244.19","Mozilla/5.0 (Windows NT 10.0; Win64; x64) AppleWebKit/537.36 (KHTML, like Gecko) Chrome/137.0.0.0 Safari/537.36","WebKit","Chrome","137.0.0.0","Windows","10.0","https://app.prolific.com/","en-GB,en-US;q=0.9,en;q=0.8","63d37e4ea0985c4dc486ff8e","683db6dfa200031b80f2a654","6865079069975ac2fba8d1f2","63d37e4ea0985c4dc486ff8e","","","[0]","","","","quiz","","","","","","","","","","","","","","","","","","","","","","","","","","","","","","","","","","","","","true",""
"1436","","<p align='center'><b>CORRECT!</b> Indeed, the yellow ball never moves and you receive a penalty.</p>","0","html-button-response","28","788531","0.0-8.0-6.0-1.0","86","1","2025-07-02 10:19:09","80fe4187154257d5fb01684ea91b68b9","86.17.244.19","Mozilla/5.0 (Windows NT 10.0; Win64; x64) AppleWebKit/537.36 (KHTML, like Gecko) Chrome/137.0.0.0 Safari/537.36","WebKit","Chrome","137.0.0.0","Windows","10.0","https://app.prolific.com/","en-GB,en-US;q=0.9,en;q=0.8","63d37e4ea0985c4dc486ff8e","683db6dfa200031b80f2a654","6865079069975ac2fba8d1f2","63d37e4ea0985c4dc486ff8e","","","","","","","","","","","","","","","","","","","","","","","","","","","","","","","","","","","","","","","","","","","","",""
"5412","","","{""blue_ball"":[""Ball always shakes and moves in a random direction""]}","survey-multi-select","29","793944","0.0-8.0-7.0-0.0","86","1","2025-07-02 10:19:09","80fe4187154257d5fb01684ea91b68b9","86.17.244.19","Mozilla/5.0 (Windows NT 10.0; Win64; x64) AppleWebKit/537.36 (KHTML, like Gecko) Chrome/137.0.0.0 Safari/537.36","WebKit","Chrome","137.0.0.0","Windows","10.0","https://app.prolific.com/","en-GB,en-US;q=0.9,en;q=0.8","63d37e4ea0985c4dc486ff8e","683db6dfa200031b80f2a654","6865079069975ac2fba8d1f2","63d37e4ea0985c4dc486ff8e","","","[0]","","","","quiz","","","","","","","","","","","","","","","","","","","","","","","","","","","","","","","","","","","","","true",""
"1773","","<p align='center'><b>CORRECT!</b> Indeed, the blue ball always shakes and moves in a random direction. Also there is a penalty of -1 point.</p>","0","html-button-response","30","795718","0.0-8.0-7.0-1.0","86","1","2025-07-02 10:19:09","80fe4187154257d5fb01684ea91b68b9","86.17.244.19","Mozilla/5.0 (Windows NT 10.0; Win64; x64) AppleWebKit/537.36 (KHTML, like Gecko) Chrome/137.0.0.0 Safari/537.36","WebKit","Chrome","137.0.0.0","Windows","10.0","https://app.prolific.com/","en-GB,en-US;q=0.9,en;q=0.8","63d37e4ea0985c4dc486ff8e","683db6dfa200031b80f2a654","6865079069975ac2fba8d1f2","63d37e4ea0985c4dc486ff8e","","","","","","","","","","","","","","","","","","","","","","","","","","","","","","","","","","","","","","","","","","","","",""
"4034","","","{""bonus"":[""When I reach 50% of points""]}","survey-multi-select","31","799753","0.0-8.0-8.0-0.0","86","1","2025-07-02 10:19:09","80fe4187154257d5fb01684ea91b68b9","86.17.244.19","Mozilla/5.0 (Windows NT 10.0; Win64; x64) AppleWebKit/537.36 (KHTML, like Gecko) Chrome/137.0.0.0 Safari/537.36","WebKit","Chrome","137.0.0.0","Windows","10.0","https://app.prolific.com/","en-GB,en-US;q=0.9,en;q=0.8","63d37e4ea0985c4dc486ff8e","683db6dfa200031b80f2a654","6865079069975ac2fba8d1f2","63d37e4ea0985c4dc486ff8e","","","[0]","","","","quiz","","","","","","","","","","","","","","","","","","","","","","","","","","","","","","","","","","","","","true",""
"1565","","<p align='center'><b>CORRECT!</b> Indeed, you receive 2 pounds extra when you reach 50% of points.</p>","0","html-button-response","32","801319","0.0-8.0-8.0-1.0","86","1","2025-07-02 10:19:09","80fe4187154257d5fb01684ea91b68b9","86.17.244.19","Mozilla/5.0 (Windows NT 10.0; Win64; x64) AppleWebKit/537.36 (KHTML, like Gecko) Chrome/137.0.0.0 Safari/537.36","WebKit","Chrome","137.0.0.0","Windows","10.0","https://app.prolific.com/","en-GB,en-US;q=0.9,en;q=0.8","63d37e4ea0985c4dc486ff8e","683db6dfa200031b80f2a654","6865079069975ac2fba8d1f2","63d37e4ea0985c4dc486ff8e","","","","","","","","","","","","","","","","","","","","","","","","","","","","","","","","","","","","","","","","","","","","",""
"2725","","","","instructions","33","804045","0.0-8.0-9.0","86","1","2025-07-02 10:19:09","80fe4187154257d5fb01684ea91b68b9","86.17.244.19","Mozilla/5.0 (Windows NT 10.0; Win64; x64) AppleWebKit/537.36 (KHTML, like Gecko) Chrome/137.0.0.0 Safari/537.36","WebKit","Chrome","137.0.0.0","Windows","10.0","https://app.prolific.com/","en-GB,en-US;q=0.9,en;q=0.8","63d37e4ea0985c4dc486ff8e","683db6dfa200031b80f2a654","6865079069975ac2fba8d1f2","63d37e4ea0985c4dc486ff8e","","[{""page_index"":0,""viewing_time"":2725}]","","","","","","","","","","","","","","","","","","","","","","","","","","","","","","","","","","","","","","","","","","",""
"5956","","<p>Before you start with this game please answer the following three questions yourself. </p>
  <p>Through this game, we measure several aspects of your cognitive performance, such as reaction times, multi-tasking capabilities </p>
  <p>and the ability to assess the situation you are in.</p>
  <p></p>
  <p><b>How good do you usually are in such tasks?</b></p>","33","html-slider-response","34","810002","0.0-9.0-0.0","86","1","2025-07-02 10:19:09","80fe4187154257d5fb01684ea91b68b9","86.17.244.19","Mozilla/5.0 (Windows NT 10.0; Win64; x64) AppleWebKit/537.36 (KHTML, like Gecko) Chrome/137.0.0.0 Safari/537.36","WebKit","Chrome","137.0.0.0","Windows","10.0","https://app.prolific.com/","en-GB,en-US;q=0.9,en;q=0.8","63d37e4ea0985c4dc486ff8e","683db6dfa200031b80f2a654","6865079069975ac2fba8d1f2","63d37e4ea0985c4dc486ff8e","2025-07-02T10:32:40.690Z","","","","","","PreSkillQ","","","","","","","","","","","","","","","","","","","","","","","","","","","","","","","","","","","","","","50"
"21064","","<div style=""width:500px;"">
  <p>How well do you think you will perform in this task compared to other participants?</p>
  </div>","23","html-slider-response","35","831067","0.0-9.0-1.0","86","1","2025-07-02 10:19:09","80fe4187154257d5fb01684ea91b68b9","86.17.244.19","Mozilla/5.0 (Windows NT 10.0; Win64; x64) AppleWebKit/537.36 (KHTML, like Gecko) Chrome/137.0.0.0 Safari/537.36","WebKit","Chrome","137.0.0.0","Windows","10.0","https://app.prolific.com/","en-GB,en-US;q=0.9,en;q=0.8","63d37e4ea0985c4dc486ff8e","683db6dfa200031b80f2a654","6865079069975ac2fba8d1f2","63d37e4ea0985c4dc486ff8e","2025-07-02T10:33:01.755Z","","","","","","PrePerfQ","","","","","","","","","","","","","","","","","","","","","","","","","","","","","","","","","","","","","","50"
"4560","","<div style=""width:500px;"">
  <p>What best describes how you currently feel?</p>
  </div>","27","html-slider-response","36","835628","0.0-9.0-2.0","86","1","2025-07-02 10:19:09","80fe4187154257d5fb01684ea91b68b9","86.17.244.19","Mozilla/5.0 (Windows NT 10.0; Win64; x64) AppleWebKit/537.36 (KHTML, like Gecko) Chrome/137.0.0.0 Safari/537.36","WebKit","Chrome","137.0.0.0","Windows","10.0","https://app.prolific.com/","en-GB,en-US;q=0.9,en;q=0.8","63d37e4ea0985c4dc486ff8e","683db6dfa200031b80f2a654","6865079069975ac2fba8d1f2","63d37e4ea0985c4dc486ff8e","2025-07-02T10:33:06.316Z","","","","","","PreMotivationQ","","","","","","","","","","","","","","","","","","","","","","","","","","","","","","","","","","","","","","50"
"","","","","ctl-task-cpt","37","876541","0.0-10.0-0.0","86","1","2025-07-02 10:19:09","80fe4187154257d5fb01684ea91b68b9","86.17.244.19","Mozilla/5.0 (Windows NT 10.0; Win64; x64) AppleWebKit/537.36 (KHTML, like Gecko) Chrome/137.0.0.0 Safari/537.36","WebKit","Chrome","137.0.0.0","Windows","10.0","https://app.prolific.com/","en-GB,en-US;q=0.9,en;q=0.8","63d37e4ea0985c4dc486ff8e","683db6dfa200031b80f2a654","6865079069975ac2fba8d1f2","63d37e4ea0985c4dc486ff8e","2025-07-02T10:33:47.229Z","","","","","","","","","","","","","","","","win-only","3","g1:SW,g2:NE","1","1","0","837295.1","2330.3","7330.4","37901.1","1","4","4","6","2","4","4","4","0","0.030303030303030304","1474.3","3000","555","[""up"",""right""]","{""num_key_presses"":6,""num_perfect"":6,""num_errors"":0,""num_randdir"":0,""num_randdir_good_moves"":0,""num_whilered"":0,""num_whileblue"":0,""num_blue"":4,""num_good_moves"":6}","[410.57142857142856,410.1808016640799,0.2,410.57142857142856,410.1808016640799,100,410.57142857142856,410.1808016640799,200.2,410.57142857142856,410.1808016640799,300.4,410.57142857142856,410.1808016640799,402.2,410.57142857142856,410.1808016640799,505.9,410.57142857142856,410.1808016640799,606.2,410.57142857142856,410.1808016640799,711.2,776.5714285714286,-6.819198335920063,817.5,811.0714285714286,-21.819198335920063,921.1,818.5714285714286,-24.819198335920063,1025.4,815.5714285714286,-12.819198335920063,1134,797.5714285714286,14.180801664079937,1234.3,787.0714285714286,45.68080166407994,1335.5,785.5714285714286,50.18080166407994,1435.9,785.5714285714286,50.18080166407994,1541.3,785.5714285714286,50.18080166407994,1650.5,785.5714285714286,50.18080166407994,1755.3,785.5714285714286,50.18080166407994,1856.2,991.0714285714286,341.1808016640799,1960.2,995.5714285714286,344.1808016640799,2061.2,995.5714285714286,344.1808016640799,2167.3,995.5714285714286,344.1808016640799,2270.9,995.5714285714286,344.1808016640799,2371.2,995.5714285714286,344.1808016640799,2475.3,995.5714285714286,344.1808016640799,2583.5,995.5714285714286,344.1808016640799,2685.6,995.5714285714286,344.1808016640799,2791.5,995.5714285714286,344.1808016640799,2891.5,995.5714285714286,344.1808016640799,3000,995.5714285714286,344.1808016640799,3100.1,995.5714285714286,344.1808016640799,3206.2,995.5714285714286,344.1808016640799,3311.1,995.5714285714286,344.1808016640799,3411.2,995.5714285714286,344.1808016640799,3511.2,995.5714285714286,344.1808016640799,3616,995.5714285714286,344.1808016640799,3717.6,995.5714285714286,344.1808016640799,3817.9,995.5714285714286,344.1808016640799,3921.4,995.5714285714286,344.1808016640799,4026.3,995.5714285714286,344.1808016640799,4133.2,995.5714285714286,344.1808016640799,4236.3,995.5714285714286,344.1808016640799,4341,995.5714285714286,344.1808016640799,4449.5,995.5714285714286,344.1808016640799,4549.6,995.5714285714286,344.1808016640799,4649.6,995.5714285714286,344.1808016640799,4749.7,995.5714285714286,344.1808016640799,4852.3,995.5714285714286,344.1808016640799,4956.2]","[1436.7,1436.7,1000,0,436.7,""smooth"",""right"",""right"",""good_move"",4582.7,3145.6,2746.7,1437.1,398.9,""smooth"",""up"",""up"",""good_move"",21548.1,16965.1,2553.5,18430.6,564,""smooth"",""right"",""right"",""good_move"",24298,2749.4,2318.6,21548.7,430.7,""smooth"",""up"",""up"",""good_move"",26995.7,2697.6,2244.2,24298.2,453.4,""smooth"",""right"",""right"",""good_move"",30476.3,3480.4,3017.8,26995.9,462.6,""smooth"",""up"",""up"",""good_move""]","",""
"9621","","<div style=""width:500px;"">
  <p>What determined the result of this run?</p>
  </div>","55","html-slider-response","38","886163","0.0-10.0-1.0","86","1","2025-07-02 10:19:09","80fe4187154257d5fb01684ea91b68b9","86.17.244.19","Mozilla/5.0 (Windows NT 10.0; Win64; x64) AppleWebKit/537.36 (KHTML, like Gecko) Chrome/137.0.0.0 Safari/537.36","WebKit","Chrome","137.0.0.0","Windows","10.0","https://app.prolific.com/","en-GB,en-US;q=0.9,en;q=0.8","63d37e4ea0985c4dc486ff8e","683db6dfa200031b80f2a654","6865079069975ac2fba8d1f2","63d37e4ea0985c4dc486ff8e","2025-07-02T10:33:56.851Z","","","","","","AttribQ","","","","","","","","","","","","","","","","","","","","","","","","","","","","","","","","","","","","","","50"
"5065","","<div style=""width:500px;"">
  <p>How much control did you have over the ball?</p>
  </div>","75","html-slider-response","39","891228","0.0-10.0-2.0","86","1","2025-07-02 10:19:09","80fe4187154257d5fb01684ea91b68b9","86.17.244.19","Mozilla/5.0 (Windows NT 10.0; Win64; x64) AppleWebKit/537.36 (KHTML, like Gecko) Chrome/137.0.0.0 Safari/537.36","WebKit","Chrome","137.0.0.0","Windows","10.0","https://app.prolific.com/","en-GB,en-US;q=0.9,en;q=0.8","63d37e4ea0985c4dc486ff8e","683db6dfa200031b80f2a654","6865079069975ac2fba8d1f2","63d37e4ea0985c4dc486ff8e","2025-07-02T10:34:01.916Z","","","","","","ControlQ","","","","","","","","","","","","","","","","","","","","","","","","","","","","","","","","","","","","","","50"
"14938","","<div style=""width:500px;"">
  <p>How would you describe your current emotional state?</p>
  </div>","54","html-slider-response","40","906172","0.0-10.0-3.0","86","1","2025-07-02 10:19:09","80fe4187154257d5fb01684ea91b68b9","86.17.244.19","Mozilla/5.0 (Windows NT 10.0; Win64; x64) AppleWebKit/537.36 (KHTML, like Gecko) Chrome/137.0.0.0 Safari/537.36","WebKit","Chrome","137.0.0.0","Windows","10.0","https://app.prolific.com/","en-GB,en-US;q=0.9,en;q=0.8","63d37e4ea0985c4dc486ff8e","683db6dfa200031b80f2a654","6865079069975ac2fba8d1f2","63d37e4ea0985c4dc486ff8e","2025-07-02T10:34:16.860Z","","","","","","StressQ","","","","","","","","","","","","","","","","","","","","","","","","","","","","","","","","","","","","","","50"
"4420","","<div style=""width:500px;"">
  <p>What best describes how you currently feel?</p>
  </div>","47","html-slider-response","41","910594","0.0-10.0-4.0","86","1","2025-07-02 10:19:09","80fe4187154257d5fb01684ea91b68b9","86.17.244.19","Mozilla/5.0 (Windows NT 10.0; Win64; x64) AppleWebKit/537.36 (KHTML, like Gecko) Chrome/137.0.0.0 Safari/537.36","WebKit","Chrome","137.0.0.0","Windows","10.0","https://app.prolific.com/","en-GB,en-US;q=0.9,en;q=0.8","63d37e4ea0985c4dc486ff8e","683db6dfa200031b80f2a654","6865079069975ac2fba8d1f2","63d37e4ea0985c4dc486ff8e","2025-07-02T10:34:21.282Z","","","","","","MotivationQ","","","","","","","","","","","","","","","","","","","","","","","","","","","","","","","","","","","","","","50"
"","","","","ctl-task-cpt","42","935967","0.0-10.0-0.1","86","1","2025-07-02 10:19:09","80fe4187154257d5fb01684ea91b68b9","86.17.244.19","Mozilla/5.0 (Windows NT 10.0; Win64; x64) AppleWebKit/537.36 (KHTML, like Gecko) Chrome/137.0.0.0 Safari/537.36","WebKit","Chrome","137.0.0.0","Windows","10.0","https://app.prolific.com/","en-GB,en-US;q=0.9,en;q=0.8","63d37e4ea0985c4dc486ff8e","683db6dfa200031b80f2a654","6865079069975ac2fba8d1f2","63d37e4ea0985c4dc486ff8e","2025-07-02T10:34:46.655Z","","","","","","","","","","","","","","","","win-only","0","g1:NW,g2:SE","0.9","2","0","912250.6","2041.9","7043","22356.1","1","4","8","6","2","8","8","12","4","0.09090909090909091","1486.1","3000","980","[""down"",""right""]","{""num_key_presses"":6,""num_perfect"":5,""num_errors"":0,""num_randdir"":1,""num_randdir_good_moves"":1,""num_whilered"":0,""num_whileblue"":0,""num_blue"":0,""num_good_moves"":6}","[416.57142857142856,417.6808016640799,0.1,416.57142857142856,417.6808016640799,101.5,416.57142857142856,417.6808016640799,201.8,416.57142857142856,417.6808016640799,304.1,416.57142857142856,417.6808016640799,404.6,416.57142857142856,417.6808016640799,504.9,416.57142857142856,417.6808016640799,608.3,416.57142857142856,417.6808016640799,708.9,416.57142857142856,417.6808016640799,818.6,749.5714285714286,737.1808016640799,918.7,800.5714285714286,789.6808016640799,1018.7,809.5714285714286,797.1808016640799,1118.9,815.5714285714286,803.1808016640799,1224.7,818.5714285714286,803.1808016640799,1328.9,818.5714285714286,803.1808016640799,1433.5,818.5714285714286,803.1808016640799,1534.3,818.5714285714286,803.1808016640799,1634.4,818.5714285714286,803.1808016640799,1738.2,818.5714285714286,803.1808016640799,1838.3,1106.5714285714287,579.6808016640799,1939.1,1121.5714285714287,573.6808016640799,2039.1,1121.5714285714287,573.6808016640799,2139.1,1121.5714285714287,573.6808016640799,2239.1,1121.5714285714287,573.6808016640799,2339.5,1121.5714285714287,573.6808016640799,2450.7,1121.5714285714287,573.6808016640799,2551.4,1121.5714285714287,573.6808016640799,2653.3,1121.5714285714287,573.6808016640799,2753.5,1121.5714285714287,573.6808016640799,2853.8,1121.5714285714287,573.6808016640799,2954.4,1121.5714285714287,573.6808016640799,3059.3,1121.5714285714287,573.6808016640799,3168.1,1121.5714285714287,573.6808016640799,3268.1,1121.5714285714287,573.6808016640799,3369.4,1121.5714285714287,573.6808016640799,3474.8,1121.5714285714287,573.6808016640799,3578.7,1121.5714285714287,573.6808016640799,3683.7,1121.5714285714287,573.6808016640799,3784.2,1121.5714285714287,573.6808016640799,3888.9,1121.5714285714287,573.6808016640799,3989.1,1121.5714285714287,573.6808016640799,4101.3,1121.5714285714287,573.6808016640799,4201.3,1121.5714285714287,573.6808016640799,4301.4,1121.5714285714287,573.6808016640799,4405.1,1121.5714285714287,573.6808016640799,4508.4,1121.5714285714287,573.6808016640799,4609.4,1121.5714285714287,573.6808016640799,4717.8,1121.5714285714287,573.6808016640799,4817.9,1121.5714285714287,573.6808016640799,4918.4]","[1436.2,1436.2,1000,0,436.2,""smooth"",""right"",""right"",""good_move"",4363.8,2927.4,2513.3,1436.4,414.1,""smooth"",""down"",""down"",""good_move"",7036.1,2672,2300.9,4364.1,371.1,""smooth"",""right"",""right"",""good_move"",9569.7,2533.5,2123,7036.3,410.4,""oops"",""down"",""right"",""good_move"",12046.3,2476.4,2089.2,9569.9,387.2,""smooth"",""down"",""down"",""good_move"",15211.8,3165.3,2798.7,12046.5,366.6,""smooth"",""down"",""down"",""good_move""]","",""
"3121","","<div style=""width:500px;"">
  <p>What determined the result of this run?</p>
  </div>","64","html-slider-response","43","939088","0.0-10.0-1.1","86","1","2025-07-02 10:19:09","80fe4187154257d5fb01684ea91b68b9","86.17.244.19","Mozilla/5.0 (Windows NT 10.0; Win64; x64) AppleWebKit/537.36 (KHTML, like Gecko) Chrome/137.0.0.0 Safari/537.36","WebKit","Chrome","137.0.0.0","Windows","10.0","https://app.prolific.com/","en-GB,en-US;q=0.9,en;q=0.8","63d37e4ea0985c4dc486ff8e","683db6dfa200031b80f2a654","6865079069975ac2fba8d1f2","63d37e4ea0985c4dc486ff8e","2025-07-02T10:34:49.776Z","","","","","","AttribQ","","","","","","","","","","","","","","","","","","","","","","","","","","","","","","","","","","","","","","50"
"3510","","<div style=""width:500px;"">
  <p>How much control did you have over the ball?</p>
  </div>","56","html-slider-response","44","942599","0.0-10.0-2.1","86","1","2025-07-02 10:19:09","80fe4187154257d5fb01684ea91b68b9","86.17.244.19","Mozilla/5.0 (Windows NT 10.0; Win64; x64) AppleWebKit/537.36 (KHTML, like Gecko) Chrome/137.0.0.0 Safari/537.36","WebKit","Chrome","137.0.0.0","Windows","10.0","https://app.prolific.com/","en-GB,en-US;q=0.9,en;q=0.8","63d37e4ea0985c4dc486ff8e","683db6dfa200031b80f2a654","6865079069975ac2fba8d1f2","63d37e4ea0985c4dc486ff8e","2025-07-02T10:34:53.287Z","","","","","","ControlQ","","","","","","","","","","","","","","","","","","","","","","","","","","","","","","","","","","","","","","50"
"3400","","<div style=""width:500px;"">
  <p>How would you describe your current emotional state?</p>
  </div>","53","html-slider-response","45","946000","0.0-10.0-3.1","86","1","2025-07-02 10:19:09","80fe4187154257d5fb01684ea91b68b9","86.17.244.19","Mozilla/5.0 (Windows NT 10.0; Win64; x64) AppleWebKit/537.36 (KHTML, like Gecko) Chrome/137.0.0.0 Safari/537.36","WebKit","Chrome","137.0.0.0","Windows","10.0","https://app.prolific.com/","en-GB,en-US;q=0.9,en;q=0.8","63d37e4ea0985c4dc486ff8e","683db6dfa200031b80f2a654","6865079069975ac2fba8d1f2","63d37e4ea0985c4dc486ff8e","2025-07-02T10:34:56.688Z","","","","","","StressQ","","","","","","","","","","","","","","","","","","","","","","","","","","","","","","","","","","","","","","50"
"2745","","<div style=""width:500px;"">
  <p>What best describes how you currently feel?</p>
  </div>","45","html-slider-response","46","948746","0.0-10.0-4.1","86","1","2025-07-02 10:19:09","80fe4187154257d5fb01684ea91b68b9","86.17.244.19","Mozilla/5.0 (Windows NT 10.0; Win64; x64) AppleWebKit/537.36 (KHTML, like Gecko) Chrome/137.0.0.0 Safari/537.36","WebKit","Chrome","137.0.0.0","Windows","10.0","https://app.prolific.com/","en-GB,en-US;q=0.9,en;q=0.8","63d37e4ea0985c4dc486ff8e","683db6dfa200031b80f2a654","6865079069975ac2fba8d1f2","63d37e4ea0985c4dc486ff8e","2025-07-02T10:34:59.434Z","","","","","","MotivationQ","","","","","","","","","","","","","","","","","","","","","","","","","","","","","","","","","","","","","","50"
"","","","","ctl-task-cpt","47","1000838","0.0-10.0-0.2","86","1","2025-07-02 10:19:09","80fe4187154257d5fb01684ea91b68b9","86.17.244.19","Mozilla/5.0 (Windows NT 10.0; Win64; x64) AppleWebKit/537.36 (KHTML, like Gecko) Chrome/137.0.0.0 Safari/537.36","WebKit","Chrome","137.0.0.0","Windows","10.0","https://app.prolific.com/","en-GB,en-US;q=0.9,en;q=0.8","63d37e4ea0985c4dc486ff8e","683db6dfa200031b80f2a654","6865079069975ac2fba8d1f2","63d37e4ea0985c4dc486ff8e","2025-07-02T10:35:51.526Z","","","","","","","","","","","","","","","","win-only","2","g1:SE,g2:NW","0.8","3","0","950403.2","1733.2","6737.3","49076.3","1","4","8","6","2","-8","-8","4","12","0.030303030303030304","1465.1","3000","-2700","[""left"",""up""]","{""num_key_presses"":8,""num_perfect"":6,""num_errors"":0,""num_randdir"":2,""num_randdir_good_moves"":0,""num_whilered"":0,""num_whileblue"":0,""num_blue"":5,""num_good_moves"":6}","[422.57142857142856,419.1808016640799,0.1,422.57142857142856,419.1808016640799,101.2,422.57142857142856,419.1808016640799,202.3,422.57142857142856,419.1808016640799,308.1,422.57142857142856,419.1808016640799,408.8,422.57142857142856,419.1808016640799,516.7,422.57142857142856,419.1808016640799,616.8,422.57142857142856,419.1808016640799,718.3,395.57142857142856,396.6808016640799,823.1,41.57142857142857,-12.819198335920063,927.5,35.57142857142857,-21.819198335920063,1033.2,35.57142857142857,-23.319198335920063,1138.1,86.57142857142857,62.18080166407994,1243.1,88.07142857142857,69.68080166407994,1350.8,88.07142857142857,69.68080166407994,1450.8,88.07142857142857,69.68080166407994,1553.3,88.07142857142857,69.68080166407994,1666,88.07142857142857,69.68080166407994,1766.1,-117.42857142857143,356.1808016640799,1866.3,-129.42857142857144,383.1808016640799,1967.4,-129.42857142857144,386.1808016640799,2067.7,-129.42857142857144,386.1808016640799,2167.9,-129.42857142857144,386.1808016640799,2268,-129.42857142857144,386.1808016640799,2368.3,-129.42857142857144,386.1808016640799,2472.5,-129.42857142857144,386.1808016640799,2581.9,-129.42857142857144,386.1808016640799,2682.2,-129.42857142857144,386.1808016640799,2788.1,-129.42857142857144,386.1808016640799,2892.7,-129.42857142857144,386.1808016640799,3001,-129.42857142857144,386.1808016640799,3103.1,-129.42857142857144,386.1808016640799,3208.1,-129.42857142857144,386.1808016640799,3315.6,-129.42857142857144,386.1808016640799,3417,-129.42857142857144,386.1808016640799,3518,-129.42857142857144,386.1808016640799,3618.2,-129.42857142857144,386.1808016640799,3722.3,-129.42857142857144,386.1808016640799,3822.8,-129.42857142857144,386.1808016640799,3922.9,-129.42857142857144,386.1808016640799,4031.7,-129.42857142857144,386.1808016640799,4134.3,-129.42857142857144,386.1808016640799,4237.4,-129.42857142857144,386.1808016640799,4337.4,-129.42857142857144,386.1808016640799,4437.8,-129.42857142857144,386.1808016640799,4548.6,-129.42857142857144,386.1808016640799,4653,-129.42857142857144,386.1808016640799,4753.1,-129.42857142857144,386.1808016640799,4865.4,-129.42857142857144,386.1808016640799,4966]","[5849.5,5849.5,3345.1,2012.3,492.1,""oops"",""left"",""down"",""bad_move"",9641.3,3791.5,3409.8,5849.8,381.7,""smooth"",""left"",""left"",""good_move"",12123,2481.5,2110.8,9641.5,370.7,""smooth"",""up"",""up"",""good_move"",15090.2,2966.8,2542.4,12123.4,424.4,""smooth"",""up"",""up"",""good_move"",18533.5,3443.2,3079,15090.3,364.2,""smooth"",""left"",""left"",""good_move"",27788.7,9255.2,2355.9,24963.3,469.6,""oops"",""up"",""down"",""bad_move"",33071.6,5282.7,2148.3,30504.7,418.6,""smooth"",""up"",""up"",""good_move"",39249.2,6177.4,2266.5,36624.1,358.6,""smooth"",""up"",""up"",""good_move""]","",""
"4208","","<div style=""width:500px;"">
  <p>What determined the result of this run?</p>
  </div>","30","html-slider-response","48","1005047","0.0-10.0-1.2","86","1","2025-07-02 10:19:09","80fe4187154257d5fb01684ea91b68b9","86.17.244.19","Mozilla/5.0 (Windows NT 10.0; Win64; x64) AppleWebKit/537.36 (KHTML, like Gecko) Chrome/137.0.0.0 Safari/537.36","WebKit","Chrome","137.0.0.0","Windows","10.0","https://app.prolific.com/","en-GB,en-US;q=0.9,en;q=0.8","63d37e4ea0985c4dc486ff8e","683db6dfa200031b80f2a654","6865079069975ac2fba8d1f2","63d37e4ea0985c4dc486ff8e","2025-07-02T10:35:55.735Z","","","","","","AttribQ","","","","","","","","","","","","","","","","","","","","","","","","","","","","","","","","","","","","","","50"
"3132","","<div style=""width:500px;"">
  <p>How much control did you have over the ball?</p>
  </div>","26","html-slider-response","49","1008180","0.0-10.0-2.2","86","1","2025-07-02 10:19:09","80fe4187154257d5fb01684ea91b68b9","86.17.244.19","Mozilla/5.0 (Windows NT 10.0; Win64; x64) AppleWebKit/537.36 (KHTML, like Gecko) Chrome/137.0.0.0 Safari/537.36","WebKit","Chrome","137.0.0.0","Windows","10.0","https://app.prolific.com/","en-GB,en-US;q=0.9,en;q=0.8","63d37e4ea0985c4dc486ff8e","683db6dfa200031b80f2a654","6865079069975ac2fba8d1f2","63d37e4ea0985c4dc486ff8e","2025-07-02T10:35:58.868Z","","","","","","ControlQ","","","","","","","","","","","","","","","","","","","","","","","","","","","","","","","","","","","","","","50"
"3253","","<div style=""width:500px;"">
  <p>How would you describe your current emotional state?</p>
  </div>","76","html-slider-response","50","1011434","0.0-10.0-3.2","86","1","2025-07-02 10:19:09","80fe4187154257d5fb01684ea91b68b9","86.17.244.19","Mozilla/5.0 (Windows NT 10.0; Win64; x64) AppleWebKit/537.36 (KHTML, like Gecko) Chrome/137.0.0.0 Safari/537.36","WebKit","Chrome","137.0.0.0","Windows","10.0","https://app.prolific.com/","en-GB,en-US;q=0.9,en;q=0.8","63d37e4ea0985c4dc486ff8e","683db6dfa200031b80f2a654","6865079069975ac2fba8d1f2","63d37e4ea0985c4dc486ff8e","2025-07-02T10:36:02.122Z","","","","","","StressQ","","","","","","","","","","","","","","","","","","","","","","","","","","","","","","","","","","","","","","50"
"2567","","<div style=""width:500px;"">
  <p>What best describes how you currently feel?</p>
  </div>","45","html-slider-response","51","1014002","0.0-10.0-4.2","86","1","2025-07-02 10:19:09","80fe4187154257d5fb01684ea91b68b9","86.17.244.19","Mozilla/5.0 (Windows NT 10.0; Win64; x64) AppleWebKit/537.36 (KHTML, like Gecko) Chrome/137.0.0.0 Safari/537.36","WebKit","Chrome","137.0.0.0","Windows","10.0","https://app.prolific.com/","en-GB,en-US;q=0.9,en;q=0.8","63d37e4ea0985c4dc486ff8e","683db6dfa200031b80f2a654","6865079069975ac2fba8d1f2","63d37e4ea0985c4dc486ff8e","2025-07-02T10:36:04.690Z","","","","","","MotivationQ","","","","","","","","","","","","","","","","","","","","","","","","","","","","","","","","","","","","","","50"
"","","","","ctl-task-cpt","52","1043915","0.0-10.0-0.3","86","1","2025-07-02 10:19:09","80fe4187154257d5fb01684ea91b68b9","86.17.244.19","Mozilla/5.0 (Windows NT 10.0; Win64; x64) AppleWebKit/537.36 (KHTML, like Gecko) Chrome/137.0.0.0 Safari/537.36","WebKit","Chrome","137.0.0.0","Windows","10.0","https://app.prolific.com/","en-GB,en-US;q=0.9,en;q=0.8","63d37e4ea0985c4dc486ff8e","683db6dfa200031b80f2a654","6865079069975ac2fba8d1f2","63d37e4ea0985c4dc486ff8e","2025-07-02T10:36:34.603Z","","","","","","","","","","","","","","","","win-only","2","g1:SE,g2:NW","0.7","4","0","1015654.3","1429.1","6433.5","26895.9","1","4","4","6","2","4","4","8","4","0.06060606060606061","2118.7","3000","735","[""left"",""up""]","{""num_key_presses"":8,""num_perfect"":6,""num_errors"":0,""num_randdir"":2,""num_randdir_good_moves"":1,""num_whilered"":0,""num_whileblue"":0,""num_blue"":0,""num_good_moves"":7}","[413.57142857142856,413.1808016640799,0.3,413.57142857142856,413.1808016640799,101.3,413.57142857142856,413.1808016640799,206.2,413.57142857142856,413.1808016640799,306.5,413.57142857142856,413.1808016640799,412,413.57142857142856,413.1808016640799,512.2,389.57142857142856,383.1808016640799,615.3,359.57142857142856,348.6808016640799,716.9,350.57142857142856,294.6808016640799,820.9,350.57142857142856,294.6808016640799,921.2,350.57142857142856,294.6808016640799,1021.6,251.57142857142856,203.18080166407992,1126.9,226.07142857142856,182.18080166407992,1231.3,208.07142857142856,167.18080166407992,1331.4,169.07142857142856,143.18080166407992,1431.4,161.57142857142856,140.18080166407992,1531.9,161.57142857142856,143.18080166407992,1632.1,161.57142857142856,143.18080166407992,1735.3,151.07142857142856,137.18080166407992,1837.6,106.07142857142857,92.18080166407994,1937.8,101.57142857142857,87.68080166407994,2041.6,101.57142857142857,87.68080166407994,2141.6,101.57142857142857,87.68080166407994,2241.7,101.57142857142857,87.68080166407994,2350.9,-228.42857142857144,209.18080166407992,2451.2,-280.92857142857144,230.18080166407992,2551.2,-280.92857142857144,230.18080166407992,2656.3,-280.92857142857144,230.18080166407992,2757.4,-280.92857142857144,230.18080166407992,2862,-280.92857142857144,230.18080166407992,2965.4,-280.92857142857144,230.18080166407992,3067.1,-280.92857142857144,230.18080166407992,3170.9,-280.92857142857144,230.18080166407992,3272.1,-280.92857142857144,230.18080166407992,3376.7,-280.92857142857144,230.18080166407992,3481.8,-280.92857142857144,230.18080166407992,3587.6,-280.92857142857144,230.18080166407992,3691.7,-280.92857142857144,230.18080166407992,3791.7,-280.92857142857144,230.18080166407992,3891.9,-280.92857142857144,230.18080166407992,3998.5,-280.92857142857144,230.18080166407992,4104.1,-280.92857142857144,230.18080166407992,4207.1,-280.92857142857144,230.18080166407992,4314.8,-280.92857142857144,230.18080166407992,4417.4,-280.92857142857144,230.18080166407992,4517.6,-280.92857142857144,230.18080166407992,4621,-280.92857142857144,230.18080166407992,4722.2,-280.92857142857144,230.18080166407992,4826.5,-280.92857142857144,230.18080166407992,4926.6]","[1367.3,1367.3,1000,0,367.3,""smooth"",""left"",""left"",""good_move"",4100.6,2733.1,2428.3,1367.5,304.8,""oops"",""up"",""down"",""bad_move"",7059.4,2958.5,2678.5,4100.9,280,""oops"",""up"",""left"",""good_move"",9658.6,2599,2298.8,7059.7,300.1,""smooth"",""up"",""up"",""good_move"",12729.6,3070.6,2763.6,9659,307,""smooth"",""up"",""up"",""good_move"",15777,3047.3,2773.6,12729.7,273.7,""smooth"",""up"",""up"",""good_move"",17702.9,1925.6,1573.5,15777.3,352.1,""smooth"",""left"",""left"",""good_move"",20362.5,2659.3,2381.5,17703.2,277.8,""smooth"",""up"",""up"",""good_move""]","",""
"4194","","<div style=""width:500px;"">
  <p>What determined the result of this run?</p>
  </div>","58","html-slider-response","53","1048110","0.0-10.0-1.3","86","1","2025-07-02 10:19:09","80fe4187154257d5fb01684ea91b68b9","86.17.244.19","Mozilla/5.0 (Windows NT 10.0; Win64; x64) AppleWebKit/537.36 (KHTML, like Gecko) Chrome/137.0.0.0 Safari/537.36","WebKit","Chrome","137.0.0.0","Windows","10.0","https://app.prolific.com/","en-GB,en-US;q=0.9,en;q=0.8","63d37e4ea0985c4dc486ff8e","683db6dfa200031b80f2a654","6865079069975ac2fba8d1f2","63d37e4ea0985c4dc486ff8e","2025-07-02T10:36:38.798Z","","","","","","AttribQ","","","","","","","","","","","","","","","","","","","","","","","","","","","","","","","","","","","","","","50"
"3132","","<div style=""width:500px;"">
  <p>How much control did you have over the ball?</p>
  </div>","42","html-slider-response","54","1051243","0.0-10.0-2.3","86","1","2025-07-02 10:19:09","80fe4187154257d5fb01684ea91b68b9","86.17.244.19","Mozilla/5.0 (Windows NT 10.0; Win64; x64) AppleWebKit/537.36 (KHTML, like Gecko) Chrome/137.0.0.0 Safari/537.36","WebKit","Chrome","137.0.0.0","Windows","10.0","https://app.prolific.com/","en-GB,en-US;q=0.9,en;q=0.8","63d37e4ea0985c4dc486ff8e","683db6dfa200031b80f2a654","6865079069975ac2fba8d1f2","63d37e4ea0985c4dc486ff8e","2025-07-02T10:36:41.931Z","","","","","","ControlQ","","","","","","","","","","","","","","","","","","","","","","","","","","","","","","","","","","","","","","50"
"3752","","<div style=""width:500px;"">
  <p>How would you describe your current emotional state?</p>
  </div>","72","html-slider-response","55","1054996","0.0-10.0-3.3","86","1","2025-07-02 10:19:09","80fe4187154257d5fb01684ea91b68b9","86.17.244.19","Mozilla/5.0 (Windows NT 10.0; Win64; x64) AppleWebKit/537.36 (KHTML, like Gecko) Chrome/137.0.0.0 Safari/537.36","WebKit","Chrome","137.0.0.0","Windows","10.0","https://app.prolific.com/","en-GB,en-US;q=0.9,en;q=0.8","63d37e4ea0985c4dc486ff8e","683db6dfa200031b80f2a654","6865079069975ac2fba8d1f2","63d37e4ea0985c4dc486ff8e","2025-07-02T10:36:45.684Z","","","","","","StressQ","","","","","","","","","","","","","","","","","","","","","","","","","","","","","","","","","","","","","","50"
"3358","","<div style=""width:500px;"">
  <p>What best describes how you currently feel?</p>
  </div>","44","html-slider-response","56","1058355","0.0-10.0-4.3","86","1","2025-07-02 10:19:09","80fe4187154257d5fb01684ea91b68b9","86.17.244.19","Mozilla/5.0 (Windows NT 10.0; Win64; x64) AppleWebKit/537.36 (KHTML, like Gecko) Chrome/137.0.0.0 Safari/537.36","WebKit","Chrome","137.0.0.0","Windows","10.0","https://app.prolific.com/","en-GB,en-US;q=0.9,en;q=0.8","63d37e4ea0985c4dc486ff8e","683db6dfa200031b80f2a654","6865079069975ac2fba8d1f2","63d37e4ea0985c4dc486ff8e","2025-07-02T10:36:49.043Z","","","","","","MotivationQ","","","","","","","","","","","","","","","","","","","","","","","","","","","","","","","","","","","","","","50"
"","","","","ctl-task-cpt","57","1101796","0.0-10.0-0.4","86","1","2025-07-02 10:19:09","80fe4187154257d5fb01684ea91b68b9","86.17.244.19","Mozilla/5.0 (Windows NT 10.0; Win64; x64) AppleWebKit/537.36 (KHTML, like Gecko) Chrome/137.0.0.0 Safari/537.36","WebKit","Chrome","137.0.0.0","Windows","10.0","https://app.prolific.com/","en-GB,en-US;q=0.9,en;q=0.8","63d37e4ea0985c4dc486ff8e","683db6dfa200031b80f2a654","6865079069975ac2fba8d1f2","63d37e4ea0985c4dc486ff8e","2025-07-02T10:37:32.485Z","","","","","","","","","","","","","","","","win-only","3","g1:SW,g2:NE","0.6","5","0","1060002.4","1410.3","6411.3","40406","1","4","8","6","2","8","8","16","8","0.12121212121212122","1305.4","3000","345","[""up"",""right""]","{""num_key_presses"":10,""num_perfect"":6,""num_errors"":0,""num_randdir"":4,""num_randdir_good_moves"":2,""num_whilered"":0,""num_whileblue"":0,""num_blue"":1,""num_good_moves"":8}","[406.07142857142856,414.6808016640799,0.3,406.07142857142856,414.6808016640799,102.4,406.07142857142856,414.6808016640799,204.2,406.07142857142856,414.6808016640799,304.9,406.07142857142856,414.6808016640799,406.7,406.07142857142856,414.6808016640799,510.1,406.07142857142856,414.6808016640799,610.3,770.5714285714286,66.68080166407994,711.1,790.0714285714286,56.18080166407994,821,815.5714285714286,35.18080166407994,925.3,820.0714285714286,33.68080166407994,1026.4,803.5714285714286,42.68080166407994,1130.6,794.5714285714286,47.18080166407994,1235.6,794.5714285714286,47.18080166407994,1340.8,794.5714285714286,47.18080166407994,1452.2,794.5714285714286,47.18080166407994,1553.7,1144.0714285714287,320.1808016640799,1655.7,1208.5714285714287,350.1808016640799,1760.2,1208.5714285714287,350.1808016640799,1869.4,1208.5714285714287,350.1808016640799,1969.8,1208.5714285714287,350.1808016640799,2070.9,1208.5714285714287,350.1808016640799,2171,1208.5714285714287,350.1808016640799,2275.6,1208.5714285714287,350.1808016640799,2386.1,1208.5714285714287,350.1808016640799,2490.9,1208.5714285714287,350.1808016640799,2591.1,1208.5714285714287,350.1808016640799,2701,1208.5714285714287,350.1808016640799,2801.4,1208.5714285714287,350.1808016640799,2905.4,1208.5714285714287,350.1808016640799,3010.1,1208.5714285714287,350.1808016640799,3110.9,1208.5714285714287,350.1808016640799,3215.5,1208.5714285714287,350.1808016640799,3320.8,1208.5714285714287,350.1808016640799,3420.8,1208.5714285714287,350.1808016640799,3534.5,1208.5714285714287,350.1808016640799,3635.8,1208.5714285714287,350.1808016640799,3735.8,1208.5714285714287,350.1808016640799,3850.8,1208.5714285714287,350.1808016640799,3955.8,1208.5714285714287,350.1808016640799,4070,1208.5714285714287,350.1808016640799,4170.1,1208.5714285714287,350.1808016640799,4270.4,1208.5714285714287,350.1808016640799,4371.1,1208.5714285714287,350.1808016640799,4479.7,1208.5714285714287,350.1808016640799,4580.1,1208.5714285714287,350.1808016640799,4680.1,1208.5714285714287,350.1808016640799,4780.6,1208.5714285714287,350.1808016640799,4885.2,1208.5714285714287,350.1808016640799,4985.7]","[5413.2,5413.2,3073,2004.9,335.3,""smooth"",""right"",""right"",""good_move"",9198.9,3785.4,3349,5413.5,436.4,""oops"",""up"",""down"",""bad_move"",12861.9,3662.7,3348.1,9199.2,314.6,""oops"",""up"",""up"",""good_move"",15687,2824.9,2489.2,12862.1,335.7,""oops"",""up"",""up"",""good_move"",18565.5,2878.4,2516.5,15687.1,361.9,""oops"",""right"",""left"",""bad_move"",21277.1,2711.3,2407.9,18565.8,303.4,""smooth"",""right"",""right"",""good_move"",24708.9,3431.6,3068.5,21277.3,363.1,""smooth"",""right"",""right"",""good_move"",27326.6,2617.6,2285,24709,332.6,""smooth"",""right"",""right"",""good_move"",30612.6,3285.9,2956.7,27326.7,329.2,""smooth"",""up"",""up"",""good_move"",33882.5,3269.6,2920.1,30612.9,349.5,""smooth"",""up"",""up"",""good_move""]","",""
"4112","","<div style=""width:500px;"">
  <p>What determined the result of this run?</p>
  </div>","43","html-slider-response","58","1105910","0.0-10.0-1.4","86","1","2025-07-02 10:19:09","80fe4187154257d5fb01684ea91b68b9","86.17.244.19","Mozilla/5.0 (Windows NT 10.0; Win64; x64) AppleWebKit/537.36 (KHTML, like Gecko) Chrome/137.0.0.0 Safari/537.36","WebKit","Chrome","137.0.0.0","Windows","10.0","https://app.prolific.com/","en-GB,en-US;q=0.9,en;q=0.8","63d37e4ea0985c4dc486ff8e","683db6dfa200031b80f2a654","6865079069975ac2fba8d1f2","63d37e4ea0985c4dc486ff8e","2025-07-02T10:37:36.598Z","","","","","","AttribQ","","","","","","","","","","","","","","","","","","","","","","","","","","","","","","","","","","","","","","50"
"2409","","<div style=""width:500px;"">
  <p>How much control did you have over the ball?</p>
  </div>","42","html-slider-response","59","1108320","0.0-10.0-2.4","86","1","2025-07-02 10:19:09","80fe4187154257d5fb01684ea91b68b9","86.17.244.19","Mozilla/5.0 (Windows NT 10.0; Win64; x64) AppleWebKit/537.36 (KHTML, like Gecko) Chrome/137.0.0.0 Safari/537.36","WebKit","Chrome","137.0.0.0","Windows","10.0","https://app.prolific.com/","en-GB,en-US;q=0.9,en;q=0.8","63d37e4ea0985c4dc486ff8e","683db6dfa200031b80f2a654","6865079069975ac2fba8d1f2","63d37e4ea0985c4dc486ff8e","2025-07-02T10:37:39.008Z","","","","","","ControlQ","","","","","","","","","","","","","","","","","","","","","","","","","","","","","","","","","","","","","","50"
"3152","","<div style=""width:500px;"">
  <p>How would you describe your current emotional state?</p>
  </div>","71","html-slider-response","60","1111474","0.0-10.0-3.4","86","1","2025-07-02 10:19:09","80fe4187154257d5fb01684ea91b68b9","86.17.244.19","Mozilla/5.0 (Windows NT 10.0; Win64; x64) AppleWebKit/537.36 (KHTML, like Gecko) Chrome/137.0.0.0 Safari/537.36","WebKit","Chrome","137.0.0.0","Windows","10.0","https://app.prolific.com/","en-GB,en-US;q=0.9,en;q=0.8","63d37e4ea0985c4dc486ff8e","683db6dfa200031b80f2a654","6865079069975ac2fba8d1f2","63d37e4ea0985c4dc486ff8e","2025-07-02T10:37:42.162Z","","","","","","StressQ","","","","","","","","","","","","","","","","","","","","","","","","","","","","","","","","","","","","","","50"
"2698","","<div style=""width:500px;"">
  <p>What best describes how you currently feel?</p>
  </div>","47","html-slider-response","61","1114172","0.0-10.0-4.4","86","1","2025-07-02 10:19:09","80fe4187154257d5fb01684ea91b68b9","86.17.244.19","Mozilla/5.0 (Windows NT 10.0; Win64; x64) AppleWebKit/537.36 (KHTML, like Gecko) Chrome/137.0.0.0 Safari/537.36","WebKit","Chrome","137.0.0.0","Windows","10.0","https://app.prolific.com/","en-GB,en-US;q=0.9,en;q=0.8","63d37e4ea0985c4dc486ff8e","683db6dfa200031b80f2a654","6865079069975ac2fba8d1f2","63d37e4ea0985c4dc486ff8e","2025-07-02T10:37:44.860Z","","","","","","MotivationQ","","","","","","","","","","","","","","","","","","","","","","","","","","","","","","","","","","","","","","50"
"","","","","ctl-task-cpt","62","1160106","0.0-10.0-0.5","86","1","2025-07-02 10:19:09","80fe4187154257d5fb01684ea91b68b9","86.17.244.19","Mozilla/5.0 (Windows NT 10.0; Win64; x64) AppleWebKit/537.36 (KHTML, like Gecko) Chrome/137.0.0.0 Safari/537.36","WebKit","Chrome","137.0.0.0","Windows","10.0","https://app.prolific.com/","en-GB,en-US;q=0.9,en;q=0.8","63d37e4ea0985c4dc486ff8e","683db6dfa200031b80f2a654","6865079069975ac2fba8d1f2","63d37e4ea0985c4dc486ff8e","2025-07-02T10:38:30.795Z","","","","","","","","","","","","","","","","win-only","3","g1:SW,g2:NE","0.5","6","0","1115815.5","2994.2","7999.7","42911.7","1","4","4","6","2","-4","-4","12","16","0.09090909090909091","1129.9","3000","-2640","[""up"",""right""]","{""num_key_presses"":12,""num_perfect"":6,""num_errors"":0,""num_randdir"":6,""num_randdir_good_moves"":2,""num_whilered"":0,""num_whileblue"":0,""num_blue"":0,""num_good_moves"":8}","[413.57142857142856,414.6808016640799,0.1,413.57142857142856,414.6808016640799,101.7,413.57142857142856,414.6808016640799,203.3,413.57142857142856,414.6808016640799,305.4,413.57142857142856,414.6808016640799,407.4,413.57142857142856,414.6808016640799,510.2,755.5714285714286,62.18080166407994,611.5,785.5714285714286,45.68080166407994,711.7,793.0714285714286,42.68080166407994,812.1,800.5714285714286,39.68080166407994,924.8,797.5714285714286,44.18080166407994,1026.7,797.5714285714286,44.18080166407994,1134.8,797.5714285714286,44.18080166407994,1241.4,797.5714285714286,44.18080166407994,1344.1,797.5714285714286,44.18080166407994,1447.5,1375.0714285714287,138.68080166407992,1551.4,1375.0714285714287,138.68080166407992,1656.9,1375.0714285714287,138.68080166407992,1762.8,1375.0714285714287,138.68080166407992,1872.8,1375.0714285714287,138.68080166407992,1976,1375.0714285714287,138.68080166407992,2078,1375.0714285714287,138.68080166407992,2189.3,1375.0714285714287,138.68080166407992,2291.5,1375.0714285714287,138.68080166407992,2397.5,1375.0714285714287,138.68080166407992,2502.4,1375.0714285714287,138.68080166407992,2604.2,1375.0714285714287,138.68080166407992,2708.2,1375.0714285714287,138.68080166407992,2811.7,1375.0714285714287,138.68080166407992,2912.2,1375.0714285714287,138.68080166407992,3018.2,1375.0714285714287,138.68080166407992,3123.7,1375.0714285714287,138.68080166407992,3226,1375.0714285714287,138.68080166407992,3326.6,1375.0714285714287,138.68080166407992,3431.7,1375.0714285714287,138.68080166407992,3532.7,1375.0714285714287,138.68080166407992,3640.8,1375.0714285714287,138.68080166407992,3742,1375.0714285714287,138.68080166407992,3842.6,1375.0714285714287,138.68080166407992,3946.3,1375.0714285714287,138.68080166407992,4047,1375.0714285714287,138.68080166407992,4151.9,1375.0714285714287,138.68080166407992,4252.4,1375.0714285714287,138.68080166407992,4357.3,1375.0714285714287,138.68080166407992,4457.4,1375.0714285714287,138.68080166407992,4560,1375.0714285714287,138.68080166407992,4661.4,1375.0714285714287,138.68080166407992,4762,1375.0714285714287,138.68080166407992,4866.6,1375.0714285714287,138.68080166407992,4968.5]","[1331,1331,1000,0,331,""oops"",""right"",""left"",""bad_move"",4225.5,2894.1,2586.3,1331.4,307.8,""smooth"",""right"",""right"",""good_move"",6100,1874.1,1546,4225.9,328.1,""smooth"",""right"",""right"",""good_move"",8655,2554.9,2230.5,6100.1,324.4,""smooth"",""right"",""right"",""good_move"",10766.1,2111,1806.3,8655.1,304.7,""smooth"",""right"",""right"",""good_move"",13761,2994.8,2686.1,10766.3,308.6,""oops"",""up"",""left"",""bad_move"",16796.3,3035.1,2742.9,13761.3,292.2,""smooth"",""up"",""up"",""good_move"",19527,2730.3,2457.5,16796.7,272.8,""oops"",""up"",""up"",""good_move"",22360.4,2833.2,2475.6,19527.2,357.6,""oops"",""up"",""up"",""good_move"",25367.4,3006.8,2744.1,22360.6,262.7,""oops"",""right"",""left"",""bad_move"",28699.1,3331.4,3095,25367.7,236.4,""oops"",""right"",""left"",""bad_move"",31956.7,3257.5,3026.2,28699.2,231.3,""smooth"",""right"",""right"",""good_move""]","",""
"4394","","<div style=""width:500px;"">
  <p>What determined the result of this run?</p>
  </div>","27","html-slider-response","63","1164502","0.0-10.0-1.5","86","1","2025-07-02 10:19:09","80fe4187154257d5fb01684ea91b68b9","86.17.244.19","Mozilla/5.0 (Windows NT 10.0; Win64; x64) AppleWebKit/537.36 (KHTML, like Gecko) Chrome/137.0.0.0 Safari/537.36","WebKit","Chrome","137.0.0.0","Windows","10.0","https://app.prolific.com/","en-GB,en-US;q=0.9,en;q=0.8","63d37e4ea0985c4dc486ff8e","683db6dfa200031b80f2a654","6865079069975ac2fba8d1f2","63d37e4ea0985c4dc486ff8e","2025-07-02T10:38:35.190Z","","","","","","AttribQ","","","","","","","","","","","","","","","","","","","","","","","","","","","","","","","","","","","","","","50"
"2955","","<div style=""width:500px;"">
  <p>How much control did you have over the ball?</p>
  </div>","27","html-slider-response","64","1167458","0.0-10.0-2.5","86","1","2025-07-02 10:19:09","80fe4187154257d5fb01684ea91b68b9","86.17.244.19","Mozilla/5.0 (Windows NT 10.0; Win64; x64) AppleWebKit/537.36 (KHTML, like Gecko) Chrome/137.0.0.0 Safari/537.36","WebKit","Chrome","137.0.0.0","Windows","10.0","https://app.prolific.com/","en-GB,en-US;q=0.9,en;q=0.8","63d37e4ea0985c4dc486ff8e","683db6dfa200031b80f2a654","6865079069975ac2fba8d1f2","63d37e4ea0985c4dc486ff8e","2025-07-02T10:38:38.146Z","","","","","","ControlQ","","","","","","","","","","","","","","","","","","","","","","","","","","","","","","","","","","","","","","50"
"3262","","<div style=""width:500px;"">
  <p>How would you describe your current emotional state?</p>
  </div>","78","html-slider-response","65","1170721","0.0-10.0-3.5","86","1","2025-07-02 10:19:09","80fe4187154257d5fb01684ea91b68b9","86.17.244.19","Mozilla/5.0 (Windows NT 10.0; Win64; x64) AppleWebKit/537.36 (KHTML, like Gecko) Chrome/137.0.0.0 Safari/537.36","WebKit","Chrome","137.0.0.0","Windows","10.0","https://app.prolific.com/","en-GB,en-US;q=0.9,en;q=0.8","63d37e4ea0985c4dc486ff8e","683db6dfa200031b80f2a654","6865079069975ac2fba8d1f2","63d37e4ea0985c4dc486ff8e","2025-07-02T10:38:41.409Z","","","","","","StressQ","","","","","","","","","","","","","","","","","","","","","","","","","","","","","","","","","","","","","","50"
"2686","","<div style=""width:500px;"">
  <p>What best describes how you currently feel?</p>
  </div>","46","html-slider-response","66","1173408","0.0-10.0-4.5","86","1","2025-07-02 10:19:09","80fe4187154257d5fb01684ea91b68b9","86.17.244.19","Mozilla/5.0 (Windows NT 10.0; Win64; x64) AppleWebKit/537.36 (KHTML, like Gecko) Chrome/137.0.0.0 Safari/537.36","WebKit","Chrome","137.0.0.0","Windows","10.0","https://app.prolific.com/","en-GB,en-US;q=0.9,en;q=0.8","63d37e4ea0985c4dc486ff8e","683db6dfa200031b80f2a654","6865079069975ac2fba8d1f2","63d37e4ea0985c4dc486ff8e","2025-07-02T10:38:44.096Z","","","","","","MotivationQ","","","","","","","","","","","","","","","","","","","","","","","","","","","","","","","","","","","","","","50"
"","","","","ctl-task-cpt","67","1206966","0.0-10.0-0.6","86","1","2025-07-02 10:19:09","80fe4187154257d5fb01684ea91b68b9","86.17.244.19","Mozilla/5.0 (Windows NT 10.0; Win64; x64) AppleWebKit/537.36 (KHTML, like Gecko) Chrome/137.0.0.0 Safari/537.36","WebKit","Chrome","137.0.0.0","Windows","10.0","https://app.prolific.com/","en-GB,en-US;q=0.9,en;q=0.8","63d37e4ea0985c4dc486ff8e","683db6dfa200031b80f2a654","6865079069975ac2fba8d1f2","63d37e4ea0985c4dc486ff8e","2025-07-02T10:39:17.655Z","","","","","","","","","","","","","","","","win-only","1","g1:NE,g2:SW","0.4","7","0","1175047.4","1268.6","6271","30529.6","1","4","4","6","2","4","3","15","12","0.11363636363636363","1914.1","3000","795","[""down"",""left""]","{""num_key_presses"":8,""num_perfect"":4,""num_errors"":1,""num_randdir"":3,""num_randdir_good_moves"":2,""num_whilered"":0,""num_whileblue"":1,""num_blue"":2,""num_good_moves"":7}","[415.07142857142856,408.6808016640799,0.3,415.07142857142856,408.6808016640799,103.2,415.07142857142856,408.6808016640799,209.6,415.07142857142856,408.6808016640799,312.2,415.07142857142856,408.6808016640799,423.5,299.57142857142856,482.1808016640799,527.3,101.57142857142857,698.1808016640799,632.1,101.57142857142857,698.1808016640799,740.3,101.57142857142857,698.1808016640799,844.3,38.57142857142857,827.1808016640799,947.5,35.57142857142857,833.1808016640799,1047.9,35.57142857142857,833.1808016640799,1153.5,35.57142857142857,833.1808016640799,1258,35.57142857142857,833.1808016640799,1360.1,35.57142857142857,833.1808016640799,1462.6,35.57142857142857,833.1808016640799,1563.7,50.57142857142857,798.6808016640799,1669.5,65.57142857142857,761.1808016640799,1773.4,65.57142857142857,758.1808016640799,1877.5,65.57142857142857,758.1808016640799,1977.6,65.57142857142857,758.1808016640799,2081.8,65.57142857142857,758.1808016640799,2189.1,-219.42857142857144,677.1808016640799,2294.7,-262.92857142857144,641.1808016640799,2397.8,-262.92857142857144,641.1808016640799,2500.9,-262.92857142857144,641.1808016640799,2603.6,-262.92857142857144,641.1808016640799,2707.9,-262.92857142857144,641.1808016640799,2812.6,-262.92857142857144,641.1808016640799,2912.6,-262.92857142857144,641.1808016640799,3014.5,-262.92857142857144,641.1808016640799,3117,-262.92857142857144,641.1808016640799,3218,-262.92857142857144,641.1808016640799,3325.5,-262.92857142857144,641.1808016640799,3427,-262.92857142857144,641.1808016640799,3535.4,-262.92857142857144,641.1808016640799,3640.4,-262.92857142857144,641.1808016640799,3741.9,-262.92857142857144,641.1808016640799,3853.8,-262.92857142857144,641.1808016640799,3957.5,-262.92857142857144,641.1808016640799,4058.4,-262.92857142857144,641.1808016640799,4163.5,-262.92857142857144,641.1808016640799,4274.1,-262.92857142857144,641.1808016640799,4376.9,-262.92857142857144,641.1808016640799,4477.6,-262.92857142857144,641.1808016640799,4588.7,-262.92857142857144,641.1808016640799,4692.2,-262.92857142857144,641.1808016640799,4796.8,-262.92857142857144,641.1808016640799,4903.9]","[1319.1,1319.1,1000,0,319.1,""oops"",""down"",""down"",""good_move"",4774.7,3455.2,3156.8,1319.5,298.4,""oops"",""left"",""down"",""good_move"",7558.5,2783.7,2470.4,4774.9,313.2,""smooth"",""left"",""left"",""good_move"",10727.4,3168.2,2875.9,7559.2,292.3,""oops"",""left"",""right"",""bad_move"",15978.6,5250.8,2365,13314.5,299.1,""while_blue"",""left"",""left"",""good_move"",18451.6,2472.6,1966.7,15979,505.9,""smooth"",""left"",""left"",""good_move"",21589.4,3137.6,2587.4,18451.8,550.2,""smooth"",""left"",""left"",""good_move"",24149.3,2559.6,2243.4,21589.7,316.2,""smooth"",""down"",""down"",""good_move""]","",""
"4401","","<div style=""width:500px;"">
  <p>What determined the result of this run?</p>
  </div>","53","html-slider-response","68","1211369","0.0-10.0-1.6","86","1","2025-07-02 10:19:09","80fe4187154257d5fb01684ea91b68b9","86.17.244.19","Mozilla/5.0 (Windows NT 10.0; Win64; x64) AppleWebKit/537.36 (KHTML, like Gecko) Chrome/137.0.0.0 Safari/537.36","WebKit","Chrome","137.0.0.0","Windows","10.0","https://app.prolific.com/","en-GB,en-US;q=0.9,en;q=0.8","63d37e4ea0985c4dc486ff8e","683db6dfa200031b80f2a654","6865079069975ac2fba8d1f2","63d37e4ea0985c4dc486ff8e","2025-07-02T10:39:22.057Z","","","","","","AttribQ","","","","","","","","","","","","","","","","","","","","","","","","","","","","","","","","","","","","","","50"
"3428","","<div style=""width:500px;"">
  <p>How much control did you have over the ball?</p>
  </div>","52","html-slider-response","69","1214798","0.0-10.0-2.6","86","1","2025-07-02 10:19:09","80fe4187154257d5fb01684ea91b68b9","86.17.244.19","Mozilla/5.0 (Windows NT 10.0; Win64; x64) AppleWebKit/537.36 (KHTML, like Gecko) Chrome/137.0.0.0 Safari/537.36","WebKit","Chrome","137.0.0.0","Windows","10.0","https://app.prolific.com/","en-GB,en-US;q=0.9,en;q=0.8","63d37e4ea0985c4dc486ff8e","683db6dfa200031b80f2a654","6865079069975ac2fba8d1f2","63d37e4ea0985c4dc486ff8e","2025-07-02T10:39:25.486Z","","","","","","ControlQ","","","","","","","","","","","","","","","","","","","","","","","","","","","","","","","","","","","","","","50"
"3044","","<div style=""width:500px;"">
  <p>How would you describe your current emotional state?</p>
  </div>","80","html-slider-response","70","1217843","0.0-10.0-3.6","86","1","2025-07-02 10:19:09","80fe4187154257d5fb01684ea91b68b9","86.17.244.19","Mozilla/5.0 (Windows NT 10.0; Win64; x64) AppleWebKit/537.36 (KHTML, like Gecko) Chrome/137.0.0.0 Safari/537.36","WebKit","Chrome","137.0.0.0","Windows","10.0","https://app.prolific.com/","en-GB,en-US;q=0.9,en;q=0.8","63d37e4ea0985c4dc486ff8e","683db6dfa200031b80f2a654","6865079069975ac2fba8d1f2","63d37e4ea0985c4dc486ff8e","2025-07-02T10:39:28.531Z","","","","","","StressQ","","","","","","","","","","","","","","","","","","","","","","","","","","","","","","","","","","","","","","50"
"2250","","<div style=""width:500px;"">
  <p>What best describes how you currently feel?</p>
  </div>","45","html-slider-response","71","1220094","0.0-10.0-4.6","86","1","2025-07-02 10:19:09","80fe4187154257d5fb01684ea91b68b9","86.17.244.19","Mozilla/5.0 (Windows NT 10.0; Win64; x64) AppleWebKit/537.36 (KHTML, like Gecko) Chrome/137.0.0.0 Safari/537.36","WebKit","Chrome","137.0.0.0","Windows","10.0","https://app.prolific.com/","en-GB,en-US;q=0.9,en;q=0.8","63d37e4ea0985c4dc486ff8e","683db6dfa200031b80f2a654","6865079069975ac2fba8d1f2","63d37e4ea0985c4dc486ff8e","2025-07-02T10:39:30.782Z","","","","","","MotivationQ","","","","","","","","","","","","","","","","","","","","","","","","","","","","","","","","","","","","","","50"
"","","","","ctl-task-cpt","72","1268346","0.0-10.0-0.7","86","1","2025-07-02 10:19:09","80fe4187154257d5fb01684ea91b68b9","86.17.244.19","Mozilla/5.0 (Windows NT 10.0; Win64; x64) AppleWebKit/537.36 (KHTML, like Gecko) Chrome/137.0.0.0 Safari/537.36","WebKit","Chrome","137.0.0.0","Windows","10.0","https://app.prolific.com/","en-GB,en-US;q=0.9,en;q=0.8","63d37e4ea0985c4dc486ff8e","683db6dfa200031b80f2a654","6865079069975ac2fba8d1f2","63d37e4ea0985c4dc486ff8e","2025-07-02T10:40:19.034Z","","","","","","","","","","","","","","","","win-only","2","g1:SE,g2:NW","0.3","8","0","1221728.9","1451.6","6453.9","45220.3","1","4","8","6","2","8","8","23","15","0.17424242424242425","1681.5","3000","920","[""left"",""up""]","{""num_key_presses"":8,""num_perfect"":2,""num_errors"":0,""num_randdir"":6,""num_randdir_good_moves"":5,""num_whilered"":0,""num_whileblue"":0,""num_blue"":5,""num_good_moves"":7}","[413.57142857142856,420.6808016640799,0.2,413.57142857142856,420.6808016640799,102.9,413.57142857142856,420.6808016640799,203.5,413.57142857142856,420.6808016640799,308.2,413.57142857142856,420.6808016640799,409.2,433.07142857142856,443.1808016640799,510,467.57142857142856,479.1808016640799,614.1,479.57142857142856,485.1808016640799,714.1,425.57142857142856,414.6808016640799,815,385.07142857142856,368.1808016640799,919.5,209.57142857142856,159.68080166407992,1039.6,209.57142857142856,159.68080166407992,1139.6,209.57142857142856,159.68080166407992,1244.1,143.57142857142856,111.68080166407994,1345.1,127.07142857142857,93.68080166407994,1449.3,113.57142857142857,80.18080166407994,1554.5,110.57142857142857,80.18080166407994,1672.5,110.57142857142857,80.18080166407994,1774.4,110.57142857142857,80.18080166407994,1879.4,-30.42857142857143,140.18080166407992,1984.2,-159.42857142857144,195.68080166407992,2102.5,-159.42857142857144,195.68080166407992,2204.9,-159.42857142857144,195.68080166407992,2305.1,-159.42857142857144,195.68080166407992,2409.9,-159.42857142857144,195.68080166407992,2510.1,-159.42857142857144,195.68080166407992,2615.4,-159.42857142857144,195.68080166407992,2719.1,-159.42857142857144,195.68080166407992,2819.2,-159.42857142857144,195.68080166407992,2919.3,-159.42857142857144,195.68080166407992,3036.3,-159.42857142857144,195.68080166407992,3138.8,-159.42857142857144,195.68080166407992,3239.4,-159.42857142857144,195.68080166407992,3344.1,-159.42857142857144,195.68080166407992,3449.6,-159.42857142857144,195.68080166407992,3553.8,-159.42857142857144,195.68080166407992,3655.1,-159.42857142857144,195.68080166407992,3768.8,-159.42857142857144,195.68080166407992,3871.9,-159.42857142857144,195.68080166407992,3974.2,-159.42857142857144,195.68080166407992,4074.7,-159.42857142857144,195.68080166407992,4179.3,-159.42857142857144,195.68080166407992,4285.3,-159.42857142857144,195.68080166407992,4402.9,-159.42857142857144,195.68080166407992,4504.5,-159.42857142857144,195.68080166407992,4604.9,-159.42857142857144,195.68080166407992,4705,-159.42857142857144,195.68080166407992,4808.6,-159.42857142857144,195.68080166407992,4909.6]","[1363,1363,1000,0,363,""oops"",""left"",""left"",""good_move"",4758.1,3394.9,3063.9,1363.2,331,""oops"",""up"",""left"",""good_move"",10714.7,5956.4,2074.8,8216.7,423.2,""oops"",""up"",""down"",""bad_move"",16842.6,6127.7,2072.6,14386.8,383.2,""oops"",""up"",""left"",""good_move"",22925,6082.1,2129.6,20456.5,338.9,""oops"",""up"",""up"",""good_move"",28826.5,5901.2,2066.1,26396.2,364.2,""oops"",""up"",""up"",""good_move"",35256.4,6429.6,2281.7,32532.9,441.8,""smooth"",""up"",""up"",""good_move"",38637.7,3381.2,2980.3,35256.5,400.9,""smooth"",""up"",""up"",""good_move""]","",""
"3742","","<div style=""width:500px;"">
  <p>What determined the result of this run?</p>
  </div>","53","html-slider-response","73","1272089","0.0-10.0-1.7","86","1","2025-07-02 10:19:09","80fe4187154257d5fb01684ea91b68b9","86.17.244.19","Mozilla/5.0 (Windows NT 10.0; Win64; x64) AppleWebKit/537.36 (KHTML, like Gecko) Chrome/137.0.0.0 Safari/537.36","WebKit","Chrome","137.0.0.0","Windows","10.0","https://app.prolific.com/","en-GB,en-US;q=0.9,en;q=0.8","63d37e4ea0985c4dc486ff8e","683db6dfa200031b80f2a654","6865079069975ac2fba8d1f2","63d37e4ea0985c4dc486ff8e","2025-07-02T10:40:22.777Z","","","","","","AttribQ","","","","","","","","","","","","","","","","","","","","","","","","","","","","","","","","","","","","","","50"
"2547","","<div style=""width:500px;"">
  <p>How much control did you have over the ball?</p>
  </div>","48","html-slider-response","74","1274638","0.0-10.0-2.7","86","1","2025-07-02 10:19:09","80fe4187154257d5fb01684ea91b68b9","86.17.244.19","Mozilla/5.0 (Windows NT 10.0; Win64; x64) AppleWebKit/537.36 (KHTML, like Gecko) Chrome/137.0.0.0 Safari/537.36","WebKit","Chrome","137.0.0.0","Windows","10.0","https://app.prolific.com/","en-GB,en-US;q=0.9,en;q=0.8","63d37e4ea0985c4dc486ff8e","683db6dfa200031b80f2a654","6865079069975ac2fba8d1f2","63d37e4ea0985c4dc486ff8e","2025-07-02T10:40:25.326Z","","","","","","ControlQ","","","","","","","","","","","","","","","","","","","","","","","","","","","","","","","","","","","","","","50"
"3798","","<div style=""width:500px;"">
  <p>How would you describe your current emotional state?</p>
  </div>","72","html-slider-response","75","1278437","0.0-10.0-3.7","86","1","2025-07-02 10:19:09","80fe4187154257d5fb01684ea91b68b9","86.17.244.19","Mozilla/5.0 (Windows NT 10.0; Win64; x64) AppleWebKit/537.36 (KHTML, like Gecko) Chrome/137.0.0.0 Safari/537.36","WebKit","Chrome","137.0.0.0","Windows","10.0","https://app.prolific.com/","en-GB,en-US;q=0.9,en;q=0.8","63d37e4ea0985c4dc486ff8e","683db6dfa200031b80f2a654","6865079069975ac2fba8d1f2","63d37e4ea0985c4dc486ff8e","2025-07-02T10:40:29.125Z","","","","","","StressQ","","","","","","","","","","","","","","","","","","","","","","","","","","","","","","","","","","","","","","50"
"6336","","<div style=""width:500px;"">
  <p>What best describes how you currently feel?</p>
  </div>","47","html-slider-response","76","1284775","0.0-10.0-4.7","86","1","2025-07-02 10:19:09","80fe4187154257d5fb01684ea91b68b9","86.17.244.19","Mozilla/5.0 (Windows NT 10.0; Win64; x64) AppleWebKit/537.36 (KHTML, like Gecko) Chrome/137.0.0.0 Safari/537.36","WebKit","Chrome","137.0.0.0","Windows","10.0","https://app.prolific.com/","en-GB,en-US;q=0.9,en;q=0.8","63d37e4ea0985c4dc486ff8e","683db6dfa200031b80f2a654","6865079069975ac2fba8d1f2","63d37e4ea0985c4dc486ff8e","2025-07-02T10:40:35.463Z","","","","","","MotivationQ","","","","","","","","","","","","","","","","","","","","","","","","","","","","","","","","","","","","","","50"
"","","","","ctl-task-cpt","77","1351245","0.0-10.0-0.8","86","1","2025-07-02 10:19:09","80fe4187154257d5fb01684ea91b68b9","86.17.244.19","Mozilla/5.0 (Windows NT 10.0; Win64; x64) AppleWebKit/537.36 (KHTML, like Gecko) Chrome/137.0.0.0 Safari/537.36","WebKit","Chrome","137.0.0.0","Windows","10.0","https://app.prolific.com/","en-GB,en-US;q=0.9,en;q=0.8","63d37e4ea0985c4dc486ff8e","683db6dfa200031b80f2a654","6865079069975ac2fba8d1f2","63d37e4ea0985c4dc486ff8e","2025-07-02T10:41:41.933Z","","","","","","","","","","","","","","","","win-only","0","g1:NW,g2:SE","0.4","9","0","1286404.7","1756.3","6760","63456.2","1","4","8","6","2","-8","-9","14","23","0.10606060606060606","1156.3","3000","-2300","[""down"",""right""]","{""num_key_presses"":12,""num_perfect"":4,""num_errors"":1,""num_randdir"":7,""num_randdir_good_moves"":3,""num_whilered"":0,""num_whileblue"":1,""num_blue"":6,""num_good_moves"":8}","[416.57142857142856,416.1808016640799,0.3,416.57142857142856,416.1808016640799,105.3,416.57142857142856,416.1808016640799,209.1,416.57142857142856,416.1808016640799,309.4,416.57142857142856,416.1808016640799,410.3,416.57142857142856,416.1808016640799,514.1,416.57142857142856,416.1808016640799,614.2,632.5714285714286,626.1808016640799,723.5,730.0714285714286,713.1808016640799,825,736.0714285714286,720.6808016640799,930.3,745.0714285714286,728.1808016640799,1034.4,745.0714285714286,728.1808016640799,1138.2,745.0714285714286,728.1808016640799,1239.1,745.0714285714286,728.1808016640799,1340.5,745.0714285714286,728.1808016640799,1444.5,1162.0714285714287,578.1808016640799,1545.1,1292.5714285714287,539.1808016640799,1658.7,1292.5714285714287,539.1808016640799,1760.1,1292.5714285714287,539.1808016640799,1875.7,1292.5714285714287,539.1808016640799,1988.6,1292.5714285714287,539.1808016640799,2089.7,1292.5714285714287,539.1808016640799,2190,1292.5714285714287,539.1808016640799,2290,1292.5714285714287,539.1808016640799,2390.1,1292.5714285714287,539.1808016640799,2494.6,1292.5714285714287,539.1808016640799,2603.7,1292.5714285714287,539.1808016640799,2705.3,1292.5714285714287,539.1808016640799,2810.1,1292.5714285714287,539.1808016640799,2924.2,1292.5714285714287,539.1808016640799,3029.5,1292.5714285714287,539.1808016640799,3130.2,1292.5714285714287,539.1808016640799,3233.9,1292.5714285714287,539.1808016640799,3334.8,1292.5714285714287,539.1808016640799,3439.7,1292.5714285714287,539.1808016640799,3545,1292.5714285714287,539.1808016640799,3653.9,1292.5714285714287,539.1808016640799,3754.6,1292.5714285714287,539.1808016640799,3859.7,1292.5714285714287,539.1808016640799,3959.9,1292.5714285714287,539.1808016640799,4074.7,1292.5714285714287,539.1808016640799,4188.5,1292.5714285714287,539.1808016640799,4289.7,1292.5714285714287,539.1808016640799,4403.7,1292.5714285714287,539.1808016640799,4504.5,1292.5714285714287,539.1808016640799,4615.8,1292.5714285714287,539.1808016640799,4719,1292.5714285714287,539.1808016640799,4822.6,1292.5714285714287,539.1808016640799,4924.5]","[5061.1,5061.1,2630.6,2006.3,424.2,""oops"",""down"",""up"",""bad_move"",8074.1,3012.7,2675.4,5061.4,337.3,""oops"",""down"",""up"",""bad_move"",14601,6526.6,2282.5,11951.3,367.2,""smooth"",""right"",""right"",""good_move"",17372.5,2771.4,2307.7,14601.2,463.7,""oops"",""down"",""right"",""good_move"",24986.3,7613.4,3283.2,21401.4,301.7,""smooth"",""down"",""down"",""good_move"",27838.4,2851.7,2476,24986.7,375.7,""oops"",""down"",""down"",""good_move"",31209.8,3371.1,3011.5,27838.7,359.6,""oops"",""down"",""up"",""bad_move"",33574.5,2364.5,2049.3,31210,315.3,""oops"",""down"",""up"",""bad_move"",40770.5,7195.7,3435.2,37010.9,324.4,""smooth"",""down"",""down"",""good_move"",43958.4,3187.7,2879.8,40770.7,307.9,""while_blue"",""down"",""right"",""good_move"",50671.7,6712.9,2794.6,47526.3,350.8,""smooth"",""down"",""down"",""good_move"",53771.8,3099.5,2751.8,50672.3,347.7,""oops"",""down"",""down"",""good_move""]","",""
"5201","","<div style=""width:500px;"">
  <p>What determined the result of this run?</p>
  </div>","42","html-slider-response","78","1356447","0.0-10.0-1.8","86","1","2025-07-02 10:19:09","80fe4187154257d5fb01684ea91b68b9","86.17.244.19","Mozilla/5.0 (Windows NT 10.0; Win64; x64) AppleWebKit/537.36 (KHTML, like Gecko) Chrome/137.0.0.0 Safari/537.36","WebKit","Chrome","137.0.0.0","Windows","10.0","https://app.prolific.com/","en-GB,en-US;q=0.9,en;q=0.8","63d37e4ea0985c4dc486ff8e","683db6dfa200031b80f2a654","6865079069975ac2fba8d1f2","63d37e4ea0985c4dc486ff8e","2025-07-02T10:41:47.135Z","","","","","","AttribQ","","","","","","","","","","","","","","","","","","","","","","","","","","","","","","","","","","","","","","50"
"3581","","<div style=""width:500px;"">
  <p>How much control did you have over the ball?</p>
  </div>","23","html-slider-response","79","1360029","0.0-10.0-2.8","86","1","2025-07-02 10:19:09","80fe4187154257d5fb01684ea91b68b9","86.17.244.19","Mozilla/5.0 (Windows NT 10.0; Win64; x64) AppleWebKit/537.36 (KHTML, like Gecko) Chrome/137.0.0.0 Safari/537.36","WebKit","Chrome","137.0.0.0","Windows","10.0","https://app.prolific.com/","en-GB,en-US;q=0.9,en;q=0.8","63d37e4ea0985c4dc486ff8e","683db6dfa200031b80f2a654","6865079069975ac2fba8d1f2","63d37e4ea0985c4dc486ff8e","2025-07-02T10:41:50.717Z","","","","","","ControlQ","","","","","","","","","","","","","","","","","","","","","","","","","","","","","","","","","","","","","","50"
"3670","","<div style=""width:500px;"">
  <p>How would you describe your current emotional state?</p>
  </div>","90","html-slider-response","80","1363700","0.0-10.0-3.8","86","1","2025-07-02 10:19:09","80fe4187154257d5fb01684ea91b68b9","86.17.244.19","Mozilla/5.0 (Windows NT 10.0; Win64; x64) AppleWebKit/537.36 (KHTML, like Gecko) Chrome/137.0.0.0 Safari/537.36","WebKit","Chrome","137.0.0.0","Windows","10.0","https://app.prolific.com/","en-GB,en-US;q=0.9,en;q=0.8","63d37e4ea0985c4dc486ff8e","683db6dfa200031b80f2a654","6865079069975ac2fba8d1f2","63d37e4ea0985c4dc486ff8e","2025-07-02T10:41:54.389Z","","","","","","StressQ","","","","","","","","","","","","","","","","","","","","","","","","","","","","","","","","","","","","","","50"
"2340","","<div style=""width:500px;"">
  <p>What best describes how you currently feel?</p>
  </div>","40","html-slider-response","81","1366041","0.0-10.0-4.8","86","1","2025-07-02 10:19:09","80fe4187154257d5fb01684ea91b68b9","86.17.244.19","Mozilla/5.0 (Windows NT 10.0; Win64; x64) AppleWebKit/537.36 (KHTML, like Gecko) Chrome/137.0.0.0 Safari/537.36","WebKit","Chrome","137.0.0.0","Windows","10.0","https://app.prolific.com/","en-GB,en-US;q=0.9,en;q=0.8","63d37e4ea0985c4dc486ff8e","683db6dfa200031b80f2a654","6865079069975ac2fba8d1f2","63d37e4ea0985c4dc486ff8e","2025-07-02T10:41:56.729Z","","","","","","MotivationQ","","","","","","","","","","","","","","","","","","","","","","","","","","","","","","","","","","","","","","50"
"","","","","ctl-task-cpt","82","1399844","0.0-10.0-0.9","86","1","2025-07-02 10:19:09","80fe4187154257d5fb01684ea91b68b9","86.17.244.19","Mozilla/5.0 (Windows NT 10.0; Win64; x64) AppleWebKit/537.36 (KHTML, like Gecko) Chrome/137.0.0.0 Safari/537.36","WebKit","Chrome","137.0.0.0","Windows","10.0","https://app.prolific.com/","en-GB,en-US;q=0.9,en;q=0.8","63d37e4ea0985c4dc486ff8e","683db6dfa200031b80f2a654","6865079069975ac2fba8d1f2","63d37e4ea0985c4dc486ff8e","2025-07-02T10:42:30.532Z","","","","","","","","","","","","","","","","win-only","3","g1:SW,g2:NE","0.5","10","0","1367668.1","10141.6","15147","30776.1","1","4","4","6","2","4","4","18","14","0.13636363636363635","1096.9","3000","1500","[""up"",""right""]","{""num_key_presses"":6,""num_perfect"":4,""num_errors"":0,""num_randdir"":2,""num_randdir_good_moves"":2,""num_whilered"":0,""num_whileblue"":0,""num_blue"":0,""num_good_moves"":6}","[416.57142857142856,414.6808016640799,0.3,416.57142857142856,414.6808016640799,104.3,416.57142857142856,414.6808016640799,206.6,416.57142857142856,414.6808016640799,318.8,416.57142857142856,414.6808016640799,424.3,454.07142857142856,369.6808016640799,539.2,823.0714285714286,81.68080166407994,640.9,829.0714285714286,80.18080166407994,754.4,832.0714285714286,77.18080166407994,856.1,830.5714285714286,74.18080166407994,959,829.0714285714286,74.18080166407994,1059.2,829.0714285714286,74.18080166407994,1168.2,829.0714285714286,74.18080166407994,1269.9,829.0714285714286,74.18080166407994,1373.8,1144.0714285714287,216.68080166407992,1474.7,1301.5714285714287,254.18080166407992,1578.8,1301.5714285714287,254.18080166407992,1679.9,1301.5714285714287,254.18080166407992,1784.4,1301.5714285714287,254.18080166407992,1884.5,1301.5714285714287,254.18080166407992,1989.7,1301.5714285714287,254.18080166407992,2090.5,1301.5714285714287,254.18080166407992,2203.9,1301.5714285714287,254.18080166407992,2308.6,1301.5714285714287,254.18080166407992,2409.8,1301.5714285714287,254.18080166407992,2513.7,1301.5714285714287,254.18080166407992,2614.9,1301.5714285714287,254.18080166407992,2724.5,1301.5714285714287,254.18080166407992,2839.2,1301.5714285714287,254.18080166407992,2944.3,1301.5714285714287,254.18080166407992,3049.1,1301.5714285714287,254.18080166407992,3150.1,1301.5714285714287,254.18080166407992,3253.9,1301.5714285714287,254.18080166407992,3354,1301.5714285714287,254.18080166407992,3454.2,1301.5714285714287,254.18080166407992,3554.5,1301.5714285714287,254.18080166407992,3654.5,1301.5714285714287,254.18080166407992,3768.8,1301.5714285714287,254.18080166407992,3869.6,1301.5714285714287,254.18080166407992,3969.8,1301.5714285714287,254.18080166407992,4069.9,1301.5714285714287,254.18080166407992,4174.3,1301.5714285714287,254.18080166407992,4275.5,1301.5714285714287,254.18080166407992,4375.5,1301.5714285714287,254.18080166407992,4479.2,1301.5714285714287,254.18080166407992,4590.1,1301.5714285714287,254.18080166407992,4694.5,1301.5714285714287,254.18080166407992,4808.7,1301.5714285714287,254.18080166407992,4909.1]","[1388.2,1388.2,1000,0,388.2,""smooth"",""right"",""right"",""good_move"",4483.3,3094.6,2716.2,1388.7,378.4,""oops"",""right"",""right"",""good_move"",7561.2,3077.7,2709.7,4483.5,368,""smooth"",""up"",""up"",""good_move"",10025,2463.2,2119.1,7561.8,344.1,""smooth"",""right"",""right"",""good_move"",12857.1,2832,2528.7,10025.1,303.3,""smooth"",""up"",""up"",""good_move"",15510.6,2653.3,2312.6,12857.3,340.7,""oops"",""up"",""up"",""good_move""]","",""
"2512","","<div style=""width:500px;"">
  <p>What determined the result of this run?</p>
