"rt","response_timestamp","stimulus","response","trial_type","trial_index","time_elapsed","internal_node_id","run_id","condition","recorded_at","source_code_version","ip","user_agent","device","browser","browser_version","platform","platform_version","referer","accept_language","PROLIFIC_PID","STUDY_ID","SESSION_ID","prolific_id","realtime","view_history","question_order","consent","success","question_id","eventType","responses","item_order","radio_event_ids","radio_event_times","key_event_times","mouse_event_times","straightlining","zigzagging","honeypot","which_type","canvas_config","goals_layout","control_level","trial_number","tutorial_trial_number","trial_start_time","phase1_start_time","phase2_start_time","phase3_start_time","goal_1_value","goal_1_distance","goal_2_value","goal_2_distance","goal_selected","outcome","outcome_total","participant_final_score","participant_initial_score","participant_final_score_prop","goal_choice_rt","allocated_time","allocated_time_remaining","goal_direction","counts","mouse_movements","key_presses","correct","slider_start"
"3419","1751451615261","<p style='font-size:40px;line-height:1.25'><strong>Welcome to the experiment!</strong></p><p style='font-size:1.1em;line-height:1.25'>Thank you for your interest in our experiment! Before you begin, it is important that we obtain your informed consent to participate in the study.</p><p style='font-size:1.1em;line-height:1.25'>On the next screen will be an <strong>information sheet</strong> for you to read. To participate in the study we need you to read this information sheet and the following consent form carefully. If you agree with all the statements, please click the <strong>I agree</strong> button.</p><p style='font-size:1.1em;line-height:1.25'>Press <strong>Next</strong> to read the information sheet.</p>","0","custom-html-button-response","0","3421","0.0-0.0","126","1","2025-07-02 10:20:10","80fe4187154257d5fb01684ea91b68b9","136.226.168.84","Mozilla/5.0 (Windows NT 10.0; Win64; x64) AppleWebKit/537.36 (KHTML, like Gecko) Chrome/137.0.0.0 Safari/537.36","WebKit","Chrome","137.0.0.0","Windows","10.0","https://app.prolific.com/","en-GB,en-US;q=0.9,en;q=0.8","63e51ccb431bed8154fc6aae","683db6dfa200031b80f2a654","6865075aece3b8502bdb444e","63e51ccb431bed8154fc6aae","2025-07-02T10:20:15.262Z","","","","","","","","","","","","","","","","","","","","","","","","","","","","","","","","","","","","","","","","","","","",""
"724124","","","","instructions","1","727547","0.0-1.0","126","1","2025-07-02 10:20:10","80fe4187154257d5fb01684ea91b68b9","136.226.168.84","Mozilla/5.0 (Windows NT 10.0; Win64; x64) AppleWebKit/537.36 (KHTML, like Gecko) Chrome/137.0.0.0 Safari/537.36","WebKit","Chrome","137.0.0.0","Windows","10.0","https://app.prolific.com/","en-GB,en-US;q=0.9,en;q=0.8","63e51ccb431bed8154fc6aae","683db6dfa200031b80f2a654","6865075aece3b8502bdb444e","63e51ccb431bed8154fc6aae","","[{""page_index"":0,""viewing_time"":711613},{""page_index"":1,""viewing_time"":12511}]","","","","","","","","","","","","","","","","","","","","","","","","","","","","","","","","","","","","","","","","","","",""
"2002","","","{""Q0"":"""",""Q1"":"""",""Q2"":"""",""Q3"":"""",""Q4"":"""",""Q5"":"""",""Q6"":""I agree""}","survey-multi-choice","2","729551","0.0-2.0","126","1","2025-07-02 10:20:10","80fe4187154257d5fb01684ea91b68b9","136.226.168.84","Mozilla/5.0 (Windows NT 10.0; Win64; x64) AppleWebKit/537.36 (KHTML, like Gecko) Chrome/137.0.0.0 Safari/537.36","WebKit","Chrome","137.0.0.0","Windows","10.0","https://app.prolific.com/","en-GB,en-US;q=0.9,en;q=0.8","63e51ccb431bed8154fc6aae","683db6dfa200031b80f2a654","6865075aece3b8502bdb444e","63e51ccb431bed8154fc6aae","","","[0,1,2,3,4,5,6]","true","","","","","","","","","","","","","","","","","","","","","","","","","","","","","","","","","","","","","","","","",""
"2450","","","","fullscreen","3","733004","0.0-4.0","126","1","2025-07-02 10:20:10","80fe4187154257d5fb01684ea91b68b9","136.226.168.84","Mozilla/5.0 (Windows NT 10.0; Win64; x64) AppleWebKit/537.36 (KHTML, like Gecko) Chrome/137.0.0.0 Safari/537.36","WebKit","Chrome","137.0.0.0","Windows","10.0","https://app.prolific.com/","en-GB,en-US;q=0.9,en;q=0.8","63e51ccb431bed8154fc6aae","683db6dfa200031b80f2a654","6865075aece3b8502bdb444e","63e51ccb431bed8154fc6aae","","","","","true","","","","","","","","","","","","","","","","","","","","","","","","","","","","","","","","","","","","","","","",""
"1351","1751452346196"," <p style='font-size:1.1em;line-height:1.25'>Thank you for completing the consent form and closing all other tabs.</p><p style='font-size:1.1em;line-height:1.25'>We will now invite you to fill in some demographic information and questionnaires, before starting the game.<br>This will take about 5 minutes.<br></p><p style='font-size:1.1em;line-height:1.25'>Press the <strong>Next</strong> button to continue.</p>","0","custom-html-button-response","4","734355","0.0-5.0","126","1","2025-07-02 10:20:10","80fe4187154257d5fb01684ea91b68b9","136.226.168.84","Mozilla/5.0 (Windows NT 10.0; Win64; x64) AppleWebKit/537.36 (KHTML, like Gecko) Chrome/137.0.0.0 Safari/537.36","WebKit","Chrome","137.0.0.0","Windows","10.0","https://app.prolific.com/","en-GB,en-US;q=0.9,en;q=0.8","63e51ccb431bed8154fc6aae","683db6dfa200031b80f2a654","6865075aece3b8502bdb444e","63e51ccb431bed8154fc6aae","2025-07-02T10:32:26.196Z","","","","","","","","","","","","","","","","","","","","","","","","","","","","","","","","","","","","","","","","","","","",""
"2446","","","{""age"":""40""}","survey-text","5","736803","0.0-6.0-0.0","126","1","2025-07-02 10:20:10","80fe4187154257d5fb01684ea91b68b9","136.226.168.84","Mozilla/5.0 (Windows NT 10.0; Win64; x64) AppleWebKit/537.36 (KHTML, like Gecko) Chrome/137.0.0.0 Safari/537.36","WebKit","Chrome","137.0.0.0","Windows","10.0","https://app.prolific.com/","en-GB,en-US;q=0.9,en;q=0.8","63e51ccb431bed8154fc6aae","683db6dfa200031b80f2a654","6865075aece3b8502bdb444e","63e51ccb431bed8154fc6aae","","","","","","0","demographics","","","","","","","","","","","","","","","","","","","","","","","","","","","","","","","","","","","","","",""
"1583","","","{""gender_identity"":""male/man""}","survey-multi-choice","6","738387","0.0-6.0-1.0","126","1","2025-07-02 10:20:10","80fe4187154257d5fb01684ea91b68b9","136.226.168.84","Mozilla/5.0 (Windows NT 10.0; Win64; x64) AppleWebKit/537.36 (KHTML, like Gecko) Chrome/137.0.0.0 Safari/537.36","WebKit","Chrome","137.0.0.0","Windows","10.0","https://app.prolific.com/","en-GB,en-US;q=0.9,en;q=0.8","63e51ccb431bed8154fc6aae","683db6dfa200031b80f2a654","6865075aece3b8502bdb444e","63e51ccb431bed8154fc6aae","","","[0]","","","1","demographics","","","","","","","","","","","","","","","","","","","","","","","","","","","","","","","","","","","","","",""
"2247","","","{""assigned_sex"":""male""}","survey-multi-choice","7","740635","0.0-6.0-2.0","126","1","2025-07-02 10:20:10","80fe4187154257d5fb01684ea91b68b9","136.226.168.84","Mozilla/5.0 (Windows NT 10.0; Win64; x64) AppleWebKit/537.36 (KHTML, like Gecko) Chrome/137.0.0.0 Safari/537.36","WebKit","Chrome","137.0.0.0","Windows","10.0","https://app.prolific.com/","en-GB,en-US;q=0.9,en;q=0.8","63e51ccb431bed8154fc6aae","683db6dfa200031b80f2a654","6865075aece3b8502bdb444e","63e51ccb431bed8154fc6aae","","","[0]","","","2","demographics","","","","","","","","","","","","","","","","","","","","","","","","","","","","","","","","","","","","","",""
"2063","","","{""menstrual_cycle"":""No""}","survey-multi-choice","8","742699","0.0-6.0-3.0","126","1","2025-07-02 10:20:10","80fe4187154257d5fb01684ea91b68b9","136.226.168.84","Mozilla/5.0 (Windows NT 10.0; Win64; x64) AppleWebKit/537.36 (KHTML, like Gecko) Chrome/137.0.0.0 Safari/537.36","WebKit","Chrome","137.0.0.0","Windows","10.0","https://app.prolific.com/","en-GB,en-US;q=0.9,en;q=0.8","63e51ccb431bed8154fc6aae","683db6dfa200031b80f2a654","6865075aece3b8502bdb444e","63e51ccb431bed8154fc6aae","","","[0]","","","4","demographics","","","","","","","","","","","","","","","","","","","","","","","","","","","","","","","","","","","","","",""
"6952","","","{""education"":""A-level/National Diploma/Highers""}","survey-multi-choice","9","749652","0.0-6.0-4.0","126","1","2025-07-02 10:20:10","80fe4187154257d5fb01684ea91b68b9","136.226.168.84","Mozilla/5.0 (Windows NT 10.0; Win64; x64) AppleWebKit/537.36 (KHTML, like Gecko) Chrome/137.0.0.0 Safari/537.36","WebKit","Chrome","137.0.0.0","Windows","10.0","https://app.prolific.com/","en-GB,en-US;q=0.9,en;q=0.8","63e51ccb431bed8154fc6aae","683db6dfa200031b80f2a654","6865075aece3b8502bdb444e","63e51ccb431bed8154fc6aae","","","[0]","","","5","demographics","","","","","","","","","","","","","","","","","","","","","","","","","","","","","","","","","","","","","",""
"4632","","","{""education"":""GCSE/Standard Grades""}","survey-multi-choice","10","754285","0.0-6.0-5.0","126","1","2025-07-02 10:20:10","80fe4187154257d5fb01684ea91b68b9","136.226.168.84","Mozilla/5.0 (Windows NT 10.0; Win64; x64) AppleWebKit/537.36 (KHTML, like Gecko) Chrome/137.0.0.0 Safari/537.36","WebKit","Chrome","137.0.0.0","Windows","10.0","https://app.prolific.com/","en-GB,en-US;q=0.9,en;q=0.8","63e51ccb431bed8154fc6aae","683db6dfa200031b80f2a654","6865075aece3b8502bdb444e","63e51ccb431bed8154fc6aae","2025-07-02T10:32:46.126Z","","[0]","","","6","demographics","","","","","","","","","","","","","","","","","","","","","","","","","","","","","","","","","","","","","",""
"10585","","","{""mental_health_condition"":""N/A"",""mental_health_treatment"":""N/A"",""psychiatric_medication"":""N/A""}","survey-text","11","764873","0.0-7.0-0.0","126","1","2025-07-02 10:20:10","80fe4187154257d5fb01684ea91b68b9","136.226.168.84","Mozilla/5.0 (Windows NT 10.0; Win64; x64) AppleWebKit/537.36 (KHTML, like Gecko) Chrome/137.0.0.0 Safari/537.36","WebKit","Chrome","137.0.0.0","Windows","10.0","https://app.prolific.com/","en-GB,en-US;q=0.9,en;q=0.8","63e51ccb431bed8154fc6aae","683db6dfa200031b80f2a654","6865075aece3b8502bdb444e","63e51ccb431bed8154fc6aae","2025-07-02T10:32:56.714Z","","","","","1","mental_health","","","","","","","","","","","","","","","","","","","","","","","","","","","","","","","","","","","","","",""
"4048","","","{""depression_history"":[""Yes""]}","survey-multi-select","12","768925","0.0-7.0-1.0","126","1","2025-07-02 10:20:10","80fe4187154257d5fb01684ea91b68b9","136.226.168.84","Mozilla/5.0 (Windows NT 10.0; Win64; x64) AppleWebKit/537.36 (KHTML, like Gecko) Chrome/137.0.0.0 Safari/537.36","WebKit","Chrome","137.0.0.0","Windows","10.0","https://app.prolific.com/","en-GB,en-US;q=0.9,en;q=0.8","63e51ccb431bed8154fc6aae","683db6dfa200031b80f2a654","6865075aece3b8502bdb444e","63e51ccb431bed8154fc6aae","","","[0]","","","","mental_health","","","","","","","","","","","","","","","","","","","","","","","","","","","","","","","","","","","","","",""
"8214","","","{""depression_episodes"":""more than 5"",""depression_recent"":""Within the past year""}","survey-multi-choice","13","777141","0.0-7.0-2.0-0.0","126","1","2025-07-02 10:20:10","80fe4187154257d5fb01684ea91b68b9","136.226.168.84","Mozilla/5.0 (Windows NT 10.0; Win64; x64) AppleWebKit/537.36 (KHTML, like Gecko) Chrome/137.0.0.0 Safari/537.36","WebKit","Chrome","137.0.0.0","Windows","10.0","https://app.prolific.com/","en-GB,en-US;q=0.9,en;q=0.8","63e51ccb431bed8154fc6aae","683db6dfa200031b80f2a654","6865075aece3b8502bdb444e","63e51ccb431bed8154fc6aae","2025-07-02T10:33:08.982Z","","[0,1]","","","3","mental_health","","","","","","","","","","","","","","","","","","","","","","","","","","","","","","","","","","","","","",""
"43719.89999999851","","","","survey-template","14","820866","0.0-7.0-3.0","126","1","2025-07-02 10:20:10","80fe4187154257d5fb01684ea91b68b9","136.226.168.84","Mozilla/5.0 (Windows NT 10.0; Win64; x64) AppleWebKit/537.36 (KHTML, like Gecko) Chrome/137.0.0.0 Safari/537.36","WebKit","Chrome","137.0.0.0","Windows","10.0","https://app.prolific.com/","en-GB,en-US;q=0.9,en;q=0.8","63e51ccb431bed8154fc6aae","683db6dfa200031b80f2a654","6865075aece3b8502bdb444e","63e51ccb431bed8154fc6aae","2025-07-02T10:33:52.707Z","","","","","","ius","{""Q01"":""3"",""Q02"":""2"",""Q03"":""3"",""Q04"":""2"",""Q05"":""2"",""Q06"":""3"",""Q07"":""3"",""Q08"":""0"",""Q09"":""2"",""Q10"":""2"",""Q11"":""3"",""Q12"":""2"",""Q13"":""2""}","[0,1,2,3,4,5,6,7,8,9,10,11,12]","[""Q01"",""Q02"",""Q04"",""Q03"",""Q04"",""Q04"",""Q05"",""Q06"",""Q07"",""Q08"",""Q09"",""Q10"",""Q11"",""Q12"",""Q13""]","[2946.5999999996275,5587.89999999851,11322.39999999851,12170.5,22114.39999999851,24370.699999999255,25418.299999998882,27450.5,30306.5,32330.599999999627,35169.5,36834.39999999851,38561.199999999255,41265.59999999963,43058]","[]","[2946.5999999996275,5587.89999999851,7298.5999999996275,10689.89999999851,11322.39999999851,12170.5,22114.39999999851,24370.699999999255,25418.299999998882,27450.5,30306.5,32330.599999999627,35169.5,36834.39999999851,38561.199999999255,41265.59999999963,43058,43714.5]","0.5384615384615384","0.5","0","","","","","","","","","","","","","","","","","","","","","","","","","","","","",""
"1896","1751452434604","<p style='font-size:1.1em;line-height:1.25'>In the following, we will ask you a few questions relating to your experiences over the past month.<br></p><p style='font-size:1.1em;line-height:1.25'>Press the <strong>Next</strong> button to continue.</p>","0","custom-html-button-response","15","822764","0.0-7.0-4.0","126","1","2025-07-02 10:20:10","80fe4187154257d5fb01684ea91b68b9","136.226.168.84","Mozilla/5.0 (Windows NT 10.0; Win64; x64) AppleWebKit/537.36 (KHTML, like Gecko) Chrome/137.0.0.0 Safari/537.36","WebKit","Chrome","137.0.0.0","Windows","10.0","https://app.prolific.com/","en-GB,en-US;q=0.9,en;q=0.8","63e51ccb431bed8154fc6aae","683db6dfa200031b80f2a654","6865075aece3b8502bdb444e","63e51ccb431bed8154fc6aae","2025-07-02T10:33:54.605Z","","","","","","","","","","","","","","","","","","","","","","","","","","","","","","","","","","","","","","","","","","","",""
"38493.699999999255","","","","survey-template","16","861261","0.0-7.0-5.0","126","1","2025-07-02 10:20:10","80fe4187154257d5fb01684ea91b68b9","136.226.168.84","Mozilla/5.0 (Windows NT 10.0; Win64; x64) AppleWebKit/537.36 (KHTML, like Gecko) Chrome/137.0.0.0 Safari/537.36","WebKit","Chrome","137.0.0.0","Windows","10.0","https://app.prolific.com/","en-GB,en-US;q=0.9,en;q=0.8","63e51ccb431bed8154fc6aae","683db6dfa200031b80f2a654","6865075aece3b8502bdb444e","63e51ccb431bed8154fc6aae","2025-07-02T10:34:33.102Z","","","","","","pss","{""Q01"":""3"",""Q02"":""3"",""Q03"":""4"",""Q04"":""2"",""Q05"":""3"",""Q06"":""3"",""Q07"":""3"",""Q08"":""2"",""Q09"":""2"",""Q10"":""4""}","[0,1,2,3,4,5,6,7,8,9]","[""Q01"",""Q02"",""Q03"",""Q04"",""Q05"",""Q06"",""Q07"",""Q08"",""Q08"",""Q09"",""Q10""]","[3284.7999999988824,6835.39999999851,8852.099999999627,13355.299999998882,19692.099999999627,22707.5,26900.099999999627,29532.799999998882,30868.599999999627,33828.29999999888,37747.699999999255]","[]","[0,3284.7999999988824,6835.39999999851,8852.099999999627,13355.299999998882,19692.099999999627,22707.5,26900.099999999627,29532.799999998882,30868.599999999627,33828.29999999888,37747.699999999255,38491.699999999255]","0.3","0.3333333333333333","0","","","","","","","","","","","","","","","","","","","","","","","","","","","","",""
"1669","1751452474771","<p style='font-size:1.1em;line-height:1.25'>Thank you for your answers! Now we will ask you a few more questions relating to your feelings in the last 24 hours.<br></p><p style='font-size:1.1em;line-height:1.25'>Press the <strong>Next</strong> button to continue.</p>","0","custom-html-button-response","17","862931","0.0-7.0-6.0","126","1","2025-07-02 10:20:10","80fe4187154257d5fb01684ea91b68b9","136.226.168.84","Mozilla/5.0 (Windows NT 10.0; Win64; x64) AppleWebKit/537.36 (KHTML, like Gecko) Chrome/137.0.0.0 Safari/537.36","WebKit","Chrome","137.0.0.0","Windows","10.0","https://app.prolific.com/","en-GB,en-US;q=0.9,en;q=0.8","63e51ccb431bed8154fc6aae","683db6dfa200031b80f2a654","6865075aece3b8502bdb444e","63e51ccb431bed8154fc6aae","2025-07-02T10:34:34.772Z","","","","","","","","","","","","","","","","","","","","","","","","","","","","","","","","","","","","","","","","","","","",""
"43420.09999999963","","","","survey-template","18","906355","0.0-7.0-7.0","126","1","2025-07-02 10:20:10","80fe4187154257d5fb01684ea91b68b9","136.226.168.84","Mozilla/5.0 (Windows NT 10.0; Win64; x64) AppleWebKit/537.36 (KHTML, like Gecko) Chrome/137.0.0.0 Safari/537.36","WebKit","Chrome","137.0.0.0","Windows","10.0","https://app.prolific.com/","en-GB,en-US;q=0.9,en;q=0.8","63e51ccb431bed8154fc6aae","683db6dfa200031b80f2a654","6865075aece3b8502bdb444e","63e51ccb431bed8154fc6aae","2025-07-02T10:35:18.197Z","","","","","","drsp","{""Q01"":""3"",""Q02"":""3"",""Q03"":""3"",""Q04"":""4"",""Q05"":""3"",""Q06"":""2"",""Q07"":""3"",""Q08"":""1"",""Q09"":""3"",""Q10"":""4"",""Q11"":""3"",""Q12"":""2"",""Q13"":""2"",""Q14"":""3"",""Q15"":""3"",""Q16"":""4"",""Q17"":""4"",""Q18"":""1"",""Q19"":""4"",""Q20"":""4"",""Q21"":""4""}","[0,1,2,3,4,5,6,7,8,9,10,11,12,13,14,15,16,17,18,19,20]","[""Q01"",""Q02"",""Q03"",""Q04"",""Q05"",""Q06"",""Q07"",""Q08"",""Q09"",""Q10"",""Q11"",""Q12"",""Q13"",""Q14"",""Q15"",""Q16"",""Q17"",""Q18"",""Q19"",""Q20"",""Q21""]","[1980.5999999996275,3012.7999999988824,4005.2999999988824,4891.9000000003725,6549.5999999996275,8717.799999998882,12501.599999999627,14149.799999998882,15853.5,17269.599999999627,18300.400000000373,20493.5,21917.699999999255,24085.400000000373,27389.099999999627,28741.199999999255,29437.599999999627,32300.099999999627,38917,41037.09999999963,42877.199999999255]","[]","[0,1980.5999999996275,3012.7999999988824,4005.2999999988824,4891.9000000003725,6549.5999999996275,8717.799999998882,12501.599999999627,14149.799999998882,15853.5,17269.599999999627,18300.400000000373,20493.5,21917.699999999255,24085.400000000373,27389.099999999627,28741.199999999255,29437.599999999627,32300.099999999627,38917,41037.09999999963,42877.199999999255,43413.699999999255]","0.42857142857142855","0.45","0","","","","","","","","","","","","","","","","","","","","","","","","","","","","",""
"7351.299999998882","","","","survey-template","19","913708","0.0-7.0-8.0","126","1","2025-07-02 10:20:10","80fe4187154257d5fb01684ea91b68b9","136.226.168.84","Mozilla/5.0 (Windows NT 10.0; Win64; x64) AppleWebKit/537.36 (KHTML, like Gecko) Chrome/137.0.0.0 Safari/537.36","WebKit","Chrome","137.0.0.0","Windows","10.0","https://app.prolific.com/","en-GB,en-US;q=0.9,en;q=0.8","63e51ccb431bed8154fc6aae","683db6dfa200031b80f2a654","6865075aece3b8502bdb444e","63e51ccb431bed8154fc6aae","2025-07-02T10:35:25.549Z","","","","","","stress","{""Q01"":""4"",""Q02"":""4"",""Q03"":""4""}","[0,1,2]","[""Q01"",""Q02"",""Q03""]","[3182.199999999255,4918.5999999996275,6830.0999999996275]","[]","[3182.199999999255,4918.5999999996275,6830.0999999996275,7350.4000000003725]","0.6666666666666666","0","0","","","","","","","","","","","","","","","","","","","","","","","","","","","","",""
"22750","","","","instructions","20","936459","0.0-8.0-0.0","126","1","2025-07-02 10:20:10","80fe4187154257d5fb01684ea91b68b9","136.226.168.84","Mozilla/5.0 (Windows NT 10.0; Win64; x64) AppleWebKit/537.36 (KHTML, like Gecko) Chrome/137.0.0.0 Safari/537.36","WebKit","Chrome","137.0.0.0","Windows","10.0","https://app.prolific.com/","en-GB,en-US;q=0.9,en;q=0.8","63e51ccb431bed8154fc6aae","683db6dfa200031b80f2a654","6865075aece3b8502bdb444e","63e51ccb431bed8154fc6aae","","[{""page_index"":0,""viewing_time"":5942},{""page_index"":1,""viewing_time"":4079},{""page_index"":2,""viewing_time"":2569},{""page_index"":3,""viewing_time"":10159}]","","","","","","","","","","","","","","","","","","","","","","","","","","","","","","","","","","","","","","","","","","",""
"","","","","ctl-task-cpt","21","971373","0.0-8.0-1.0","126","1","2025-07-02 10:20:10","80fe4187154257d5fb01684ea91b68b9","136.226.168.84","Mozilla/5.0 (Windows NT 10.0; Win64; x64) AppleWebKit/537.36 (KHTML, like Gecko) Chrome/137.0.0.0 Safari/537.36","WebKit","Chrome","137.0.0.0","Windows","10.0","https://app.prolific.com/","en-GB,en-US;q=0.9,en;q=0.8","63e51ccb431bed8154fc6aae","683db6dfa200031b80f2a654","6865075aece3b8502bdb444e","63e51ccb431bed8154fc6aae","","","","","","","","","","","","","","","","","win-only","3","g1:SW,g2:NE","1","0","1","937809.2","2169.5","6171.9","31898.8","2","4","4","6","2","4","3","3","0","0.022727272727272728","4002.4","4000","1045","[""up"",""right""]","{""num_key_presses"":8,""num_perfect"":6,""num_errors"":1,""num_randdir"":0,""num_randdir_good_moves"":0,""num_whilered"":1,""num_whileblue"":0,""num_blue"":2,""num_good_moves"":6}","[420.57142857142856,418.47767857142856,0.3,420.57142857142856,418.47767857142856,101.3,454.57142857142856,437.47767857142856,201.3,1085.5714285714287,479.47767857142856,307,1248.5714285714287,478.47767857142856,412.1,1255.5714285714287,478.47767857142856,517.3,1255.5714285714287,478.47767857142856,618.3,1255.5714285714287,478.47767857142856,718.3,1255.5714285714287,478.47767857142856,818.4,1255.5714285714287,478.47767857142856,919.6,1248.5714285714287,478.47767857142856,1021.2,1240.5714285714287,478.47767857142856,1122.1,1237.5714285714287,478.47767857142856,1226.7,1234.5714285714287,478.47767857142856,1326.9,1233.5714285714287,478.47767857142856,1427.3,1231.5714285714287,478.47767857142856,1531.4,1231.5714285714287,478.47767857142856,1631.6,1231.5714285714287,478.47767857142856,1737.7,1231.5714285714287,478.47767857142856,1841.3,1231.5714285714287,478.47767857142856,1942.2,1231.5714285714287,478.47767857142856,2042.2,1231.5714285714287,478.47767857142856,2146.2,1231.5714285714287,478.47767857142856,2247,1231.5714285714287,478.47767857142856,2355.3,1231.5714285714287,478.47767857142856,2455.5,1231.5714285714287,478.47767857142856,2555.9,1231.5714285714287,478.47767857142856,2657.3,1231.5714285714287,478.47767857142856,2762.4,1231.5714285714287,478.47767857142856,2867,1231.5714285714287,478.47767857142856,2967.1,1231.5714285714287,478.47767857142856,3073.9,1231.5714285714287,478.47767857142856,3174,1231.5714285714287,478.47767857142856,3274,1231.5714285714287,478.47767857142856,3374,1231.5714285714287,478.47767857142856,3474.5,1231.5714285714287,478.47767857142856,3575.1,1231.5714285714287,478.47767857142856,3676.2,1231.5714285714287,478.47767857142856,3781.3,1231.5714285714287,478.47767857142856,3881.4,1231.5714285714287,478.47767857142856,3981.6]","[2000.6,2000.5,1000,0.1,1000.5,""smooth"",""right"",""right"",""good_move"",2211,210.1,2609.9,2000.9,-2399.8,""error"",""-"",""-"",""no_move"",2400.1,188.9,2609.9,2000.9,-2210.7,""while_red"",""-"",""-"",""no_move"",6471.2,4260,2858.1,3214.2,398.9,""smooth"",""right"",""right"",""good_move"",9979.5,3508.2,3062,6471.3,446.2,""smooth"",""up"",""up"",""good_move"",12471.4,2491.6,1944.3,9979.8,547.3,""smooth"",""up"",""up"",""good_move"",22942,10470.4,2615.8,19868.6,457.6,""smooth"",""right"",""right"",""good_move"",25623.8,2681.6,2195.2,22942.2,486.4,""smooth"",""up"",""up"",""good_move""]","",""
"6245","","","","instructions","22","977618","0.0-8.0-2.0","126","1","2025-07-02 10:20:10","80fe4187154257d5fb01684ea91b68b9","136.226.168.84","Mozilla/5.0 (Windows NT 10.0; Win64; x64) AppleWebKit/537.36 (KHTML, like Gecko) Chrome/137.0.0.0 Safari/537.36","WebKit","Chrome","137.0.0.0","Windows","10.0","https://app.prolific.com/","en-GB,en-US;q=0.9,en;q=0.8","63e51ccb431bed8154fc6aae","683db6dfa200031b80f2a654","6865075aece3b8502bdb444e","63e51ccb431bed8154fc6aae","","[{""page_index"":0,""viewing_time"":6245}]","","","","","","","","","","","","","","","","","","","","","","","","","","","","","","","","","","","","","","","","","","",""
"","","","","ctl-task-cpt","23","1023687","0.0-8.0-3.0","126","1","2025-07-02 10:20:10","80fe4187154257d5fb01684ea91b68b9","136.226.168.84","Mozilla/5.0 (Windows NT 10.0; Win64; x64) AppleWebKit/537.36 (KHTML, like Gecko) Chrome/137.0.0.0 Safari/537.36","WebKit","Chrome","137.0.0.0","Windows","10.0","https://app.prolific.com/","en-GB,en-US;q=0.9,en;q=0.8","63e51ccb431bed8154fc6aae","683db6dfa200031b80f2a654","6865075aece3b8502bdb444e","63e51ccb431bed8154fc6aae","","","","","","","","","","","","","","","","","win-only","3","g1:SW,g2:NE","0.35","0","3","978965.9","1287","5291.5","43050.5","2","4","8","6","1","-2","-2","0","0","0","4004.5","4000","-3015","[""down"",""left""]","{""num_key_presses"":9,""num_perfect"":4,""num_errors"":0,""num_randdir"":5,""num_randdir_good_moves"":0,""num_whilered"":0,""num_whileblue"":0,""num_blue"":3,""num_good_moves"":4}","[419.57142857142856,409.47767857142856,2,419.57142857142856,409.47767857142856,104.4,419.57142857142856,409.47767857142856,208.7,419.57142857142856,409.47767857142856,309.4,419.57142857142856,409.47767857142856,413.8,419.57142857142856,409.47767857142856,518.4,419.57142857142856,409.47767857142856,618.6,419.57142857142856,409.47767857142856,723.5,419.57142857142856,409.47767857142856,824.1,419.57142857142856,409.47767857142856,929,419.57142857142856,409.47767857142856,1029.2,419.57142857142856,409.47767857142856,1133.8,419.57142857142856,409.47767857142856,1234.1,419.57142857142856,409.47767857142856,1339.5,419.57142857142856,409.47767857142856,1443.7,419.57142857142856,409.47767857142856,1544.5,419.57142857142856,409.47767857142856,1648.9,419.57142857142856,409.47767857142856,1753.2,419.57142857142856,409.47767857142856,1853.7,419.57142857142856,409.47767857142856,1954.1,419.57142857142856,409.47767857142856,2058.7,419.57142857142856,409.47767857142856,2159.1,419.57142857142856,409.47767857142856,2264.4,419.57142857142856,409.47767857142856,2364.4,419.57142857142856,409.47767857142856,2469.3,419.57142857142856,409.47767857142856,2573.9,419.57142857142856,409.47767857142856,2678.7,419.57142857142856,409.47767857142856,2779.6,419.57142857142856,409.47767857142856,2883.8,419.57142857142856,409.47767857142856,2988.9,419.57142857142856,409.47767857142856,3089.6,419.57142857142856,409.47767857142856,3193.3,419.57142857142856,409.47767857142856,3293.6,419.57142857142856,409.47767857142856,3399.7,419.57142857142856,409.47767857142856,3504.5,419.57142857142856,409.47767857142856,3608.8,419.57142857142856,409.47767857142856,3713.9,419.57142857142856,409.47767857142856,3814.5,419.57142857142856,409.47767857142856,3918.8]","[1539.2,1539.2,1000,0,539.3,""oops"",""down"",""right"",""bad_move"",7043.1,5503.6,2487.4,4074.5,481.3,""smooth"",""left"",""left"",""good_move"",13003,5959.6,1904.5,10679,419.5,""oops"",""left"",""up"",""bad_move"",16403.2,3400,3007.6,13003.2,392.4,""smooth"",""down"",""down"",""good_move"",19219.1,2815.6,2432.5,16403.5,383.1,""oops"",""down"",""right"",""bad_move"",22211.2,2991.9,2577.1,19219.3,414.8,""smooth"",""left"",""left"",""good_move"",29411.9,7200.5,2602.6,26389.8,419.5,""oops"",""down"",""right"",""bad_move"",32299.2,2887.2,2474.5,29412,412.7,""oops"",""left"",""right"",""bad_move"",35627.3,3326.5,2827,32300.8,499.5,""smooth"",""down"",""down"",""good_move""]","",""
"6275","","","","instructions","24","1029962","0.0-8.0-4.0","126","1","2025-07-02 10:20:10","80fe4187154257d5fb01684ea91b68b9","136.226.168.84","Mozilla/5.0 (Windows NT 10.0; Win64; x64) AppleWebKit/537.36 (KHTML, like Gecko) Chrome/137.0.0.0 Safari/537.36","WebKit","Chrome","137.0.0.0","Windows","10.0","https://app.prolific.com/","en-GB,en-US;q=0.9,en;q=0.8","63e51ccb431bed8154fc6aae","683db6dfa200031b80f2a654","6865075aece3b8502bdb444e","63e51ccb431bed8154fc6aae","","[{""page_index"":0,""viewing_time"":3347},{""page_index"":1,""viewing_time"":2927}]","","","","","","","","","","","","","","","","","","","","","","","","","","","","","","","","","","","","","","","","","","",""
"14542","","","{""green_ball"":[""Ball always moves in the direction I press"",""Ball sometimes shakes and moves in a random direction""]}","survey-multi-select","25","1044507","0.0-8.0-5.0-0.0","126","1","2025-07-02 10:20:10","80fe4187154257d5fb01684ea91b68b9","136.226.168.84","Mozilla/5.0 (Windows NT 10.0; Win64; x64) AppleWebKit/537.36 (KHTML, like Gecko) Chrome/137.0.0.0 Safari/537.36","WebKit","Chrome","137.0.0.0","Windows","10.0","https://app.prolific.com/","en-GB,en-US;q=0.9,en;q=0.8","63e51ccb431bed8154fc6aae","683db6dfa200031b80f2a654","6865075aece3b8502bdb444e","63e51ccb431bed8154fc6aae","","","[0]","","","","quiz","","","","","","","","","","","","","","","","","","","","","","","","","","","","","","","","","","","","","false",""
"5094","","<p align='center'><b>INCORRECT.</b> Usually the green ball moves in the indicated direction, but sometimes it shakes and moves randomly. </p>","0","html-button-response","26","1049604","0.0-8.0-5.0-1.0","126","1","2025-07-02 10:20:10","80fe4187154257d5fb01684ea91b68b9","136.226.168.84","Mozilla/5.0 (Windows NT 10.0; Win64; x64) AppleWebKit/537.36 (KHTML, like Gecko) Chrome/137.0.0.0 Safari/537.36","WebKit","Chrome","137.0.0.0","Windows","10.0","https://app.prolific.com/","en-GB,en-US;q=0.9,en;q=0.8","63e51ccb431bed8154fc6aae","683db6dfa200031b80f2a654","6865075aece3b8502bdb444e","63e51ccb431bed8154fc6aae","","","","","","","","","","","","","","","","","","","","","","","","","","","","","","","","","","","","","","","","","","","","",""
"15156","","","{""green_ball"":[""Ball sometimes shakes and moves in a random direction""]}","survey-multi-select","27","1064763","0.0-8.0-5.1-0.1","126","1","2025-07-02 10:20:10","80fe4187154257d5fb01684ea91b68b9","136.226.168.84","Mozilla/5.0 (Windows NT 10.0; Win64; x64) AppleWebKit/537.36 (KHTML, like Gecko) Chrome/137.0.0.0 Safari/537.36","WebKit","Chrome","137.0.0.0","Windows","10.0","https://app.prolific.com/","en-GB,en-US;q=0.9,en;q=0.8","63e51ccb431bed8154fc6aae","683db6dfa200031b80f2a654","6865075aece3b8502bdb444e","63e51ccb431bed8154fc6aae","","","[0]","","","","quiz","","","","","","","","","","","","","","","","","","","","","","","","","","","","","","","","","","","","","true",""
"2239","","<p align='center'><b>CORRECT!</b> Indeed, the green ball may sometimes shake and move in a random direction.</p>","0","html-button-response","28","1067003","0.0-8.0-5.1-1.1","126","1","2025-07-02 10:20:10","80fe4187154257d5fb01684ea91b68b9","136.226.168.84","Mozilla/5.0 (Windows NT 10.0; Win64; x64) AppleWebKit/537.36 (KHTML, like Gecko) Chrome/137.0.0.0 Safari/537.36","WebKit","Chrome","137.0.0.0","Windows","10.0","https://app.prolific.com/","en-GB,en-US;q=0.9,en;q=0.8","63e51ccb431bed8154fc6aae","683db6dfa200031b80f2a654","6865075aece3b8502bdb444e","63e51ccb431bed8154fc6aae","","","","","","","","","","","","","","","","","","","","","","","","","","","","","","","","","","","","","","","","","","","","",""
"3926","","","{""yellow_ball"":[""Ball doesn‘t move and I get -1 penalty point""]}","survey-multi-select","29","1070931","0.0-8.0-6.0-0.0","126","1","2025-07-02 10:20:10","80fe4187154257d5fb01684ea91b68b9","136.226.168.84","Mozilla/5.0 (Windows NT 10.0; Win64; x64) AppleWebKit/537.36 (KHTML, like Gecko) Chrome/137.0.0.0 Safari/537.36","WebKit","Chrome","137.0.0.0","Windows","10.0","https://app.prolific.com/","en-GB,en-US;q=0.9,en;q=0.8","63e51ccb431bed8154fc6aae","683db6dfa200031b80f2a654","6865075aece3b8502bdb444e","63e51ccb431bed8154fc6aae","","","[0]","","","","quiz","","","","","","","","","","","","","","","","","","","","","","","","","","","","","","","","","","","","","true",""
"870","","<p align='center'><b>CORRECT!</b> Indeed, the yellow ball never moves and you receive a penalty.</p>","0","html-button-response","30","1071801","0.0-8.0-6.0-1.0","126","1","2025-07-02 10:20:10","80fe4187154257d5fb01684ea91b68b9","136.226.168.84","Mozilla/5.0 (Windows NT 10.0; Win64; x64) AppleWebKit/537.36 (KHTML, like Gecko) Chrome/137.0.0.0 Safari/537.36","WebKit","Chrome","137.0.0.0","Windows","10.0","https://app.prolific.com/","en-GB,en-US;q=0.9,en;q=0.8","63e51ccb431bed8154fc6aae","683db6dfa200031b80f2a654","6865075aece3b8502bdb444e","63e51ccb431bed8154fc6aae","","","","","","","","","","","","","","","","","","","","","","","","","","","","","","","","","","","","","","","","","","","","",""
"3319","","","{""blue_ball"":[""Ball doesn‘t move and I get -1 penalty point""]}","survey-multi-select","31","1075122","0.0-8.0-7.0-0.0","126","1","2025-07-02 10:20:10","80fe4187154257d5fb01684ea91b68b9","136.226.168.84","Mozilla/5.0 (Windows NT 10.0; Win64; x64) AppleWebKit/537.36 (KHTML, like Gecko) Chrome/137.0.0.0 Safari/537.36","WebKit","Chrome","137.0.0.0","Windows","10.0","https://app.prolific.com/","en-GB,en-US;q=0.9,en;q=0.8","63e51ccb431bed8154fc6aae","683db6dfa200031b80f2a654","6865075aece3b8502bdb444e","63e51ccb431bed8154fc6aae","","","[0]","","","","quiz","","","","","","","","","","","","","","","","","","","","","","","","","","","","","","","","","","","","","false",""
"3359","","<p align='center'><b>INCORRECT.</b> The blue ball always shakes and moves randomly.</p>","0","html-button-response","32","1078482","0.0-8.0-7.0-1.0","126","1","2025-07-02 10:20:10","80fe4187154257d5fb01684ea91b68b9","136.226.168.84","Mozilla/5.0 (Windows NT 10.0; Win64; x64) AppleWebKit/537.36 (KHTML, like Gecko) Chrome/137.0.0.0 Safari/537.36","WebKit","Chrome","137.0.0.0","Windows","10.0","https://app.prolific.com/","en-GB,en-US;q=0.9,en;q=0.8","63e51ccb431bed8154fc6aae","683db6dfa200031b80f2a654","6865075aece3b8502bdb444e","63e51ccb431bed8154fc6aae","","","","","","","","","","","","","","","","","","","","","","","","","","","","","","","","","","","","","","","","","","","","",""
"5375","","","{""blue_ball"":[""Ball always shakes and moves in a random direction""]}","survey-multi-select","33","1083858","0.0-8.0-7.1-0.1","126","1","2025-07-02 10:20:10","80fe4187154257d5fb01684ea91b68b9","136.226.168.84","Mozilla/5.0 (Windows NT 10.0; Win64; x64) AppleWebKit/537.36 (KHTML, like Gecko) Chrome/137.0.0.0 Safari/537.36","WebKit","Chrome","137.0.0.0","Windows","10.0","https://app.prolific.com/","en-GB,en-US;q=0.9,en;q=0.8","63e51ccb431bed8154fc6aae","683db6dfa200031b80f2a654","6865075aece3b8502bdb444e","63e51ccb431bed8154fc6aae","","","[0]","","","","quiz","","","","","","","","","","","","","","","","","","","","","","","","","","","","","","","","","","","","","true",""
"847","","<p align='center'><b>CORRECT!</b> Indeed, the blue ball always shakes and moves in a random direction. Also there is a penalty of -1 point.</p>","0","html-button-response","34","1084706","0.0-8.0-7.1-1.1","126","1","2025-07-02 10:20:10","80fe4187154257d5fb01684ea91b68b9","136.226.168.84","Mozilla/5.0 (Windows NT 10.0; Win64; x64) AppleWebKit/537.36 (KHTML, like Gecko) Chrome/137.0.0.0 Safari/537.36","WebKit","Chrome","137.0.0.0","Windows","10.0","https://app.prolific.com/","en-GB,en-US;q=0.9,en;q=0.8","63e51ccb431bed8154fc6aae","683db6dfa200031b80f2a654","6865075aece3b8502bdb444e","63e51ccb431bed8154fc6aae","","","","","","","","","","","","","","","","","","","","","","","","","","","","","","","","","","","","","","","","","","","","",""
"7134","","","{""bonus"":[""When I reach 80% of points""]}","survey-multi-select","35","1091842","0.0-8.0-8.0-0.0","126","1","2025-07-02 10:20:10","80fe4187154257d5fb01684ea91b68b9","136.226.168.84","Mozilla/5.0 (Windows NT 10.0; Win64; x64) AppleWebKit/537.36 (KHTML, like Gecko) Chrome/137.0.0.0 Safari/537.36","WebKit","Chrome","137.0.0.0","Windows","10.0","https://app.prolific.com/","en-GB,en-US;q=0.9,en;q=0.8","63e51ccb431bed8154fc6aae","683db6dfa200031b80f2a654","6865075aece3b8502bdb444e","63e51ccb431bed8154fc6aae","","","[0]","","","","quiz","","","","","","","","","","","","","","","","","","","","","","","","","","","","","","","","","","","","","false",""
"1303","","<p align='center'><b>INCORRECT.</b> You receive 2 pounds extra when you reach 50% of points </p>","0","html-button-response","36","1093146","0.0-8.0-8.0-1.0","126","1","2025-07-02 10:20:10","80fe4187154257d5fb01684ea91b68b9","136.226.168.84","Mozilla/5.0 (Windows NT 10.0; Win64; x64) AppleWebKit/537.36 (KHTML, like Gecko) Chrome/137.0.0.0 Safari/537.36","WebKit","Chrome","137.0.0.0","Windows","10.0","https://app.prolific.com/","en-GB,en-US;q=0.9,en;q=0.8","63e51ccb431bed8154fc6aae","683db6dfa200031b80f2a654","6865075aece3b8502bdb444e","63e51ccb431bed8154fc6aae","","","","","","","","","","","","","","","","","","","","","","","","","","","","","","","","","","","","","","","","","","","","",""
"2223","","","{""bonus"":[""When I reach 50% of points""]}","survey-multi-select","37","1095371","0.0-8.0-8.1-0.1","126","1","2025-07-02 10:20:10","80fe4187154257d5fb01684ea91b68b9","136.226.168.84","Mozilla/5.0 (Windows NT 10.0; Win64; x64) AppleWebKit/537.36 (KHTML, like Gecko) Chrome/137.0.0.0 Safari/537.36","WebKit","Chrome","137.0.0.0","Windows","10.0","https://app.prolific.com/","en-GB,en-US;q=0.9,en;q=0.8","63e51ccb431bed8154fc6aae","683db6dfa200031b80f2a654","6865075aece3b8502bdb444e","63e51ccb431bed8154fc6aae","","","[0]","","","","quiz","","","","","","","","","","","","","","","","","","","","","","","","","","","","","","","","","","","","","true",""
"678","","<p align='center'><b>CORRECT!</b> Indeed, you receive 2 pounds extra when you reach 50% of points.</p>","0","html-button-response","38","1096050","0.0-8.0-8.1-1.1","126","1","2025-07-02 10:20:10","80fe4187154257d5fb01684ea91b68b9","136.226.168.84","Mozilla/5.0 (Windows NT 10.0; Win64; x64) AppleWebKit/537.36 (KHTML, like Gecko) Chrome/137.0.0.0 Safari/537.36","WebKit","Chrome","137.0.0.0","Windows","10.0","https://app.prolific.com/","en-GB,en-US;q=0.9,en;q=0.8","63e51ccb431bed8154fc6aae","683db6dfa200031b80f2a654","6865075aece3b8502bdb444e","63e51ccb431bed8154fc6aae","","","","","","","","","","","","","","","","","","","","","","","","","","","","","","","","","","","","","","","","","","","","",""
"1111","","","","instructions","39","1097162","0.0-8.0-9.0","126","1","2025-07-02 10:20:10","80fe4187154257d5fb01684ea91b68b9","136.226.168.84","Mozilla/5.0 (Windows NT 10.0; Win64; x64) AppleWebKit/537.36 (KHTML, like Gecko) Chrome/137.0.0.0 Safari/537.36","WebKit","Chrome","137.0.0.0","Windows","10.0","https://app.prolific.com/","en-GB,en-US;q=0.9,en;q=0.8","63e51ccb431bed8154fc6aae","683db6dfa200031b80f2a654","6865075aece3b8502bdb444e","63e51ccb431bed8154fc6aae","","[{""page_index"":0,""viewing_time"":1111}]","","","","","","","","","","","","","","","","","","","","","","","","","","","","","","","","","","","","","","","","","","",""
"10784","","<p>Before you start with this game please answer the following three questions yourself. </p>
  <p>Through this game, we measure several aspects of your cognitive performance, such as reaction times, multi-tasking capabilities </p>
  <p>and the ability to assess the situation you are in.</p>
  <p></p>
  <p><b>How good do you usually are in such tasks?</b></p>","63","html-slider-response","40","1107947","0.0-9.0-0.0","126","1","2025-07-02 10:20:10","80fe4187154257d5fb01684ea91b68b9","136.226.168.84","Mozilla/5.0 (Windows NT 10.0; Win64; x64) AppleWebKit/537.36 (KHTML, like Gecko) Chrome/137.0.0.0 Safari/537.36","WebKit","Chrome","137.0.0.0","Windows","10.0","https://app.prolific.com/","en-GB,en-US;q=0.9,en;q=0.8","63e51ccb431bed8154fc6aae","683db6dfa200031b80f2a654","6865075aece3b8502bdb444e","63e51ccb431bed8154fc6aae","2025-07-02T10:38:39.788Z","","","","","","PreSkillQ","","","","","","","","","","","","","","","","","","","","","","","","","","","","","","","","","","","","","","50"
"3174","","<div style=""width:500px;"">
  <p>How well do you think you will perform in this task compared to other participants?</p>
  </div>","60","html-slider-response","41","1111123","0.0-9.0-1.0","126","1","2025-07-02 10:20:10","80fe4187154257d5fb01684ea91b68b9","136.226.168.84","Mozilla/5.0 (Windows NT 10.0; Win64; x64) AppleWebKit/537.36 (KHTML, like Gecko) Chrome/137.0.0.0 Safari/537.36","WebKit","Chrome","137.0.0.0","Windows","10.0","https://app.prolific.com/","en-GB,en-US;q=0.9,en;q=0.8","63e51ccb431bed8154fc6aae","683db6dfa200031b80f2a654","6865075aece3b8502bdb444e","63e51ccb431bed8154fc6aae","2025-07-02T10:38:42.965Z","","","","","","PrePerfQ","","","","","","","","","","","","","","","","","","","","","","","","","","","","","","","","","","","","","","50"
"3565","","<div style=""width:500px;"">
  <p>What best describes how you currently feel?</p>
  </div>","43","html-slider-response","42","1114690","0.0-9.0-2.0","126","1","2025-07-02 10:20:10","80fe4187154257d5fb01684ea91b68b9","136.226.168.84","Mozilla/5.0 (Windows NT 10.0; Win64; x64) AppleWebKit/537.36 (KHTML, like Gecko) Chrome/137.0.0.0 Safari/537.36","WebKit","Chrome","137.0.0.0","Windows","10.0","https://app.prolific.com/","en-GB,en-US;q=0.9,en;q=0.8","63e51ccb431bed8154fc6aae","683db6dfa200031b80f2a654","6865075aece3b8502bdb444e","63e51ccb431bed8154fc6aae","2025-07-02T10:38:46.531Z","","","","","","PreMotivationQ","","","","","","","","","","","","","","","","","","","","","","","","","","","","","","","","","","","","","","50"
"","","","","ctl-task-cpt","43","1146045","0.0-10.0-0.0","126","1","2025-07-02 10:20:10","80fe4187154257d5fb01684ea91b68b9","136.226.168.84","Mozilla/5.0 (Windows NT 10.0; Win64; x64) AppleWebKit/537.36 (KHTML, like Gecko) Chrome/137.0.0.0 Safari/537.36","WebKit","Chrome","137.0.0.0","Windows","10.0","https://app.prolific.com/","en-GB,en-US;q=0.9,en;q=0.8","63e51ccb431bed8154fc6aae","683db6dfa200031b80f2a654","6865075aece3b8502bdb444e","63e51ccb431bed8154fc6aae","2025-07-02T10:39:17.886Z","","","","","","","","","","","","","","","","win-only","2","g1:SE,g2:NW","1","1","0","1116040","1221.3","6221.8","28336.5","1","4","8","6","2","8","8","8","0","0.06060606060606061","5000.5","3000","975","[""left"",""up""]","{""num_key_presses"":6,""num_perfect"":6,""num_errors"":0,""num_randdir"":0,""num_randdir_good_moves"":0,""num_whilered"":0,""num_whileblue"":0,""num_blue"":2,""num_good_moves"":6}","[418.57142857142856,403.47767857142856,0.2,418.57142857142856,403.47767857142856,100.2,419.57142857142856,403.47767857142856,205.2,419.57142857142856,403.47767857142856,310.1,419.57142857142856,403.47767857142856,414.2,429.57142857142856,387.47767857142856,514.2,427.57142857142856,388.47767857142856,619,427.57142857142856,388.47767857142856,719.6,427.57142857142856,388.47767857142856,820.2,427.57142857142856,388.47767857142856,924.1,427.57142857142856,388.47767857142856,1024.6,427.57142857142856,388.47767857142856,1124.8,427.57142857142856,388.47767857142856,1230,427.57142857142856,388.47767857142856,1330.2,427.57142857142856,388.47767857142856,1433.9,427.57142857142856,388.47767857142856,1534.2,427.57142857142856,388.47767857142856,1634.4,427.57142857142856,388.47767857142856,1740.2,427.57142857142856,388.47767857142856,1840.4,427.57142857142856,388.47767857142856,1945.2,427.57142857142856,388.47767857142856,2051.3,427.57142857142856,388.47767857142856,2154.3,427.57142857142856,388.47767857142856,2254.5,427.57142857142856,388.47767857142856,2359.1,427.57142857142856,388.47767857142856,2459.4,427.57142857142856,388.47767857142856,2564.5,427.57142857142856,388.47767857142856,2669.1,427.57142857142856,388.47767857142856,2769.4,427.57142857142856,388.47767857142856,2875.1,427.57142857142856,388.47767857142856,2980,427.57142857142856,388.47767857142856,3084.5,427.57142857142856,388.47767857142856,3189.3,427.57142857142856,388.47767857142856,3289.4,427.57142857142856,388.47767857142856,3394,427.57142857142856,388.47767857142856,3494.3,427.57142857142856,388.47767857142856,3598.8,427.57142857142856,388.47767857142856,3699.3,427.57142857142856,388.47767857142856,3799.8,427.57142857142856,388.47767857142856,3905,427.57142857142856,388.47767857142856,4005.3,427.57142857142856,388.47767857142856,4110.6,427.57142857142856,388.47767857142856,4214.2,427.57142857142856,388.47767857142856,4314.9,427.57142857142856,388.47767857142856,4419.2,427.57142857142856,388.47767857142856,4519.3,427.57142857142856,388.47767857142856,4625.4,427.57142857142856,388.47767857142856,4730,427.57142857142856,388.47767857142856,4835.1,427.57142857142856,388.47767857142856,4939.1]","[8297.4,8297.4,2462.6,5453.8,381,""smooth"",""up"",""up"",""good_move"",11142.6,2844.8,2462.9,8297.8,381.9,""smooth"",""up"",""up"",""good_move"",13518.2,2375.4,1976.3,11142.8,399.1,""smooth"",""up"",""up"",""good_move"",16422.1,2903.8,2603.9,13518.3,299.9,""smooth"",""left"",""left"",""good_move"",19271.7,2849.3,2549.6,16422.4,299.7,""smooth"",""left"",""left"",""good_move"",22014.5,2742.6,2449.1,19271.9,293.5,""smooth"",""left"",""left"",""good_move""]","",""
"3756","","<div style=""width:500px;"">
  <p>What determined the result of this run?</p>
  </div>","100","html-slider-response","44","1149802","0.0-10.0-1.0","126","1","2025-07-02 10:20:10","80fe4187154257d5fb01684ea91b68b9","136.226.168.84","Mozilla/5.0 (Windows NT 10.0; Win64; x64) AppleWebKit/537.36 (KHTML, like Gecko) Chrome/137.0.0.0 Safari/537.36","WebKit","Chrome","137.0.0.0","Windows","10.0","https://app.prolific.com/","en-GB,en-US;q=0.9,en;q=0.8","63e51ccb431bed8154fc6aae","683db6dfa200031b80f2a654","6865075aece3b8502bdb444e","63e51ccb431bed8154fc6aae","2025-07-02T10:39:21.643Z","","","","","","AttribQ","","","","","","","","","","","","","","","","","","","","","","","","","","","","","","","","","","","","","","50"
"2600","","<div style=""width:500px;"">
  <p>How much control did you have over the ball?</p>
  </div>","100","html-slider-response","45","1152402","0.0-10.0-2.0","126","1","2025-07-02 10:20:10","80fe4187154257d5fb01684ea91b68b9","136.226.168.84","Mozilla/5.0 (Windows NT 10.0; Win64; x64) AppleWebKit/537.36 (KHTML, like Gecko) Chrome/137.0.0.0 Safari/537.36","WebKit","Chrome","137.0.0.0","Windows","10.0","https://app.prolific.com/","en-GB,en-US;q=0.9,en;q=0.8","63e51ccb431bed8154fc6aae","683db6dfa200031b80f2a654","6865075aece3b8502bdb444e","63e51ccb431bed8154fc6aae","2025-07-02T10:39:24.243Z","","","","","","ControlQ","","","","","","","","","","","","","","","","","","","","","","","","","","","","","","","","","","","","","","50"
"4703","","<div style=""width:500px;"">
  <p>How would you describe your current emotional state?</p>
  </div>","54","html-slider-response","46","1157106","0.0-10.0-3.0","126","1","2025-07-02 10:20:10","80fe4187154257d5fb01684ea91b68b9","136.226.168.84","Mozilla/5.0 (Windows NT 10.0; Win64; x64) AppleWebKit/537.36 (KHTML, like Gecko) Chrome/137.0.0.0 Safari/537.36","WebKit","Chrome","137.0.0.0","Windows","10.0","https://app.prolific.com/","en-GB,en-US;q=0.9,en;q=0.8","63e51ccb431bed8154fc6aae","683db6dfa200031b80f2a654","6865075aece3b8502bdb444e","63e51ccb431bed8154fc6aae","2025-07-02T10:39:28.947Z","","","","","","StressQ","","","","","","","","","","","","","","","","","","","","","","","","","","","","","","","","","","","","","","50"
"3647","","<div style=""width:500px;"">
  <p>What best describes how you currently feel?</p>
  </div>","55","html-slider-response","47","1160754","0.0-10.0-4.0","126","1","2025-07-02 10:20:10","80fe4187154257d5fb01684ea91b68b9","136.226.168.84","Mozilla/5.0 (Windows NT 10.0; Win64; x64) AppleWebKit/537.36 (KHTML, like Gecko) Chrome/137.0.0.0 Safari/537.36","WebKit","Chrome","137.0.0.0","Windows","10.0","https://app.prolific.com/","en-GB,en-US;q=0.9,en;q=0.8","63e51ccb431bed8154fc6aae","683db6dfa200031b80f2a654","6865075aece3b8502bdb444e","63e51ccb431bed8154fc6aae","2025-07-02T10:39:32.595Z","","","","","","MotivationQ","","","","","","","","","","","","","","","","","","","","","","","","","","","","","","","","","","","","","","50"
"","","","","ctl-task-cpt","48","1187088","0.0-10.0-0.1","126","1","2025-07-02 10:20:10","80fe4187154257d5fb01684ea91b68b9","136.226.168.84","Mozilla/5.0 (Windows NT 10.0; Win64; x64) AppleWebKit/537.36 (KHTML, like Gecko) Chrome/137.0.0.0 Safari/537.36","WebKit","Chrome","137.0.0.0","Windows","10.0","https://app.prolific.com/","en-GB,en-US;q=0.9,en;q=0.8","63e51ccb431bed8154fc6aae","683db6dfa200031b80f2a654","6865075aece3b8502bdb444e","63e51ccb431bed8154fc6aae","2025-07-02T10:39:58.929Z","","","","","","","","","","","","","","","","win-only","1","g1:NE,g2:SW","0.9","2","0","1162102.4","768.3","5770.6","23316.3","1","4","4","6","1","1","0","8","8","0.06060606060606061","5002.3","3000","1145","[""up"",""right""]","{""num_key_presses"":6,""num_perfect"":4,""num_errors"":1,""num_randdir"":1,""num_randdir_good_moves"":0,""num_whilered"":0,""num_whileblue"":1,""num_blue"":1,""num_good_moves"":5}","[420.57142857142856,417.47767857142856,0,420.57142857142856,417.47767857142856,114.4,420.57142857142856,417.47767857142856,217.7,420.57142857142856,417.47767857142856,322.6,420.57142857142856,413.47767857142856,427.8,419.57142857142856,411.47767857142856,527.8,413.57142857142856,410.47767857142856,627.9,399.57142857142856,410.47767857142856,732.2,395.57142857142856,411.47767857142856,836.9,203.57142857142856,561.4776785714286,937.3,-443.42857142857144,662.4776785714286,1037.4,-535.4285714285714,648.4776785714286,1139,-526.4285714285714,556.4776785714286,1242.3,-515.4285714285714,554.4776785714286,1342.4,-500.42857142857144,558.4776785714286,1443.1,-486.42857142857144,559.4776785714286,1548.1,-486.42857142857144,559.4776785714286,1652.4,-486.42857142857144,559.4776785714286,1757.8,-486.42857142857144,559.4776785714286,1858.1,-486.42857142857144,559.4776785714286,1962.1,-486.42857142857144,559.4776785714286,2062.8,-486.42857142857144,559.4776785714286,2167.8,-486.42857142857144,559.4776785714286,2268,-486.42857142857144,559.4776785714286,2368.9,-486.42857142857144,559.4776785714286,2472,-486.42857142857144,559.4776785714286,2572.7,-486.42857142857144,559.4776785714286,2673.4,-486.42857142857144,559.4776785714286,2778.1,-486.42857142857144,559.4776785714286,2883.1,-486.42857142857144,559.4776785714286,2987.4,-486.42857142857144,559.4776785714286,3087.5,-486.42857142857144,559.4776785714286,3187.5,-486.42857142857144,559.4776785714286,3292.9,-486.42857142857144,559.4776785714286,3393.2,-486.42857142857144,559.4776785714286,3497.1,-486.42857142857144,559.4776785714286,3598.2,-486.42857142857144,559.4776785714286,3703,-486.42857142857144,559.4776785714286,3807.8,-486.42857142857144,559.4776785714286,3912,-486.42857142857144,559.4776785714286,4013.3,-486.42857142857144,559.4776785714286,4117.6,-486.42857142857144,559.4776785714286,4218.1,-486.42857142857144,559.4776785714286,4323,-486.42857142857144,559.4776785714286,4428.1,-486.42857142857144,559.4776785714286,4532.2,-486.42857142857144,559.4776785714286,4632.6,-486.42857142857144,559.4776785714286,4737.1,-486.42857142857144,559.4776785714286,4837.6,-486.42857142857144,559.4776785714286,4937.6]","[1347.4,1347.4,1000,0,347.4,""oops"",""up"",""left"",""bad_move"",4534.5,3186.7,2922.6,1347.8,264.1,""while_blue"",""right"",""right"",""good_move"",8051.3,3516.4,2982.7,4534.9,533.7,""smooth"",""right"",""right"",""good_move"",11419,3367.5,3022.7,8051.5,344.8,""smooth"",""up"",""up"",""good_move"",14173.1,2753.9,2429.6,11419.2,324.3,""smooth"",""right"",""right"",""good_move"",17458.9,3285.7,2959.3,14173.3,326.4,""smooth"",""up"",""up"",""good_move""]","",""
"4656","","<div style=""width:500px;"">
  <p>What determined the result of this run?</p>
  </div>","73","html-slider-response","49","1191745","0.0-10.0-1.1","126","1","2025-07-02 10:20:10","80fe4187154257d5fb01684ea91b68b9","136.226.168.84","Mozilla/5.0 (Windows NT 10.0; Win64; x64) AppleWebKit/537.36 (KHTML, like Gecko) Chrome/137.0.0.0 Safari/537.36","WebKit","Chrome","137.0.0.0","Windows","10.0","https://app.prolific.com/","en-GB,en-US;q=0.9,en;q=0.8","63e51ccb431bed8154fc6aae","683db6dfa200031b80f2a654","6865075aece3b8502bdb444e","63e51ccb431bed8154fc6aae","2025-07-02T10:40:03.586Z","","","","","","AttribQ","","","","","","","","","","","","","","","","","","","","","","","","","","","","","","","","","","","","","","50"
"2719","","<div style=""width:500px;"">
  <p>How much control did you have over the ball?</p>
  </div>","69","html-slider-response","50","1194465","0.0-10.0-2.1","126","1","2025-07-02 10:20:10","80fe4187154257d5fb01684ea91b68b9","136.226.168.84","Mozilla/5.0 (Windows NT 10.0; Win64; x64) AppleWebKit/537.36 (KHTML, like Gecko) Chrome/137.0.0.0 Safari/537.36","WebKit","Chrome","137.0.0.0","Windows","10.0","https://app.prolific.com/","en-GB,en-US;q=0.9,en;q=0.8","63e51ccb431bed8154fc6aae","683db6dfa200031b80f2a654","6865075aece3b8502bdb444e","63e51ccb431bed8154fc6aae","2025-07-02T10:40:06.306Z","","","","","","ControlQ","","","","","","","","","","","","","","","","","","","","","","","","","","","","","","","","","","","","","","50"
"3263","","<div style=""width:500px;"">
  <p>How would you describe your current emotional state?</p>
  </div>","70","html-slider-response","51","1197729","0.0-10.0-3.1","126","1","2025-07-02 10:20:10","80fe4187154257d5fb01684ea91b68b9","136.226.168.84","Mozilla/5.0 (Windows NT 10.0; Win64; x64) AppleWebKit/537.36 (KHTML, like Gecko) Chrome/137.0.0.0 Safari/537.36","WebKit","Chrome","137.0.0.0","Windows","10.0","https://app.prolific.com/","en-GB,en-US;q=0.9,en;q=0.8","63e51ccb431bed8154fc6aae","683db6dfa200031b80f2a654","6865075aece3b8502bdb444e","63e51ccb431bed8154fc6aae","2025-07-02T10:40:09.570Z","","","","","","StressQ","","","","","","","","","","","","","","","","","","","","","","","","","","","","","","","","","","","","","","50"
"2487","","<div style=""width:500px;"">
  <p>What best describes how you currently feel?</p>
  </div>","63","html-slider-response","52","1200217","0.0-10.0-4.1","126","1","2025-07-02 10:20:10","80fe4187154257d5fb01684ea91b68b9","136.226.168.84","Mozilla/5.0 (Windows NT 10.0; Win64; x64) AppleWebKit/537.36 (KHTML, like Gecko) Chrome/137.0.0.0 Safari/537.36","WebKit","Chrome","137.0.0.0","Windows","10.0","https://app.prolific.com/","en-GB,en-US;q=0.9,en;q=0.8","63e51ccb431bed8154fc6aae","683db6dfa200031b80f2a654","6865075aece3b8502bdb444e","63e51ccb431bed8154fc6aae","2025-07-02T10:40:12.058Z","","","","","","MotivationQ","","","","","","","","","","","","","","","","","","","","","","","","","","","","","","","","","","","","","","50"
"","","","","ctl-task-cpt","53","1241153","0.0-10.0-0.2","126","1","2025-07-02 10:20:10","80fe4187154257d5fb01684ea91b68b9","136.226.168.84","Mozilla/5.0 (Windows NT 10.0; Win64; x64) AppleWebKit/537.36 (KHTML, like Gecko) Chrome/137.0.0.0 Safari/537.36","WebKit","Chrome","137.0.0.0","Windows","10.0","https://app.prolific.com/","en-GB,en-US;q=0.9,en;q=0.8","63e51ccb431bed8154fc6aae","683db6dfa200031b80f2a654","6865075aece3b8502bdb444e","63e51ccb431bed8154fc6aae","2025-07-02T10:40:52.995Z","","","","","","","","","","","","","","","","win-only","0","g1:NW,g2:SE","0.8","3","0","1201565.3","919.4","5920.7","37916.5","1","4","8","6","2","8","7","15","8","0.11363636363636363","5001.3","3000","280","[""down"",""right""]","{""num_key_presses"":9,""num_perfect"":6,""num_errors"":1,""num_randdir"":2,""num_randdir_good_moves"":1,""num_whilered"":0,""num_whileblue"":0,""num_blue"":3,""num_good_moves"":7}","[415.57142857142856,405.47767857142856,0.1,415.57142857142856,409.47767857142856,107.7,415.57142857142856,412.47767857142856,211.4,415.57142857142856,412.47767857142856,312,411.57142857142856,410.47767857142856,412.3,383.57142857142856,386.47767857142856,516.6,378.57142857142856,388.47767857142856,616.8,340.57142857142856,489.47767857142856,721.4,313.57142857142856,520.4776785714286,822.9,299.57142857142856,518.4776785714286,926.8,299.57142857142856,518.4776785714286,1031.1,299.57142857142856,518.4776785714286,1135.9,299.57142857142856,518.4776785714286,1236.9,299.57142857142856,519.4776785714286,1341,699.5714285714286,424.47767857142856,1446.8,858.5714285714286,336.47767857142856,1551,975.5714285714286,329.47767857142856,1652,1080.5714285714287,329.47767857142856,1756.8,1034.5714285714287,337.47767857142856,1856.9,1010.5714285714286,340.47767857142856,1960.8,1010.5714285714286,340.47767857142856,2061.5,1010.5714285714286,340.47767857142856,2165.9,1010.5714285714286,340.47767857142856,2267,1010.5714285714286,340.47767857142856,2371.7,1010.5714285714286,340.47767857142856,2477.5,1010.5714285714286,340.47767857142856,2580.8,1010.5714285714286,340.47767857142856,2681.1,1010.5714285714286,340.47767857142856,2786.6,1010.5714285714286,340.47767857142856,2890.9,1010.5714285714286,340.47767857142856,2991.1,1010.5714285714286,340.47767857142856,3091.7,1010.5714285714286,340.47767857142856,3196.9,1010.5714285714286,340.47767857142856,3301.8,1010.5714285714286,340.47767857142856,3402.1,1010.5714285714286,340.47767857142856,3506,1010.5714285714286,340.47767857142856,3606.8,1010.5714285714286,340.47767857142856,3707,1010.5714285714286,340.47767857142856,3811,1010.5714285714286,340.47767857142856,3916,1010.5714285714286,340.47767857142856,4016.2,1010.5714285714286,340.47767857142856,4121.8,1010.5714285714286,340.47767857142856,4226.2,1010.5714285714286,340.47767857142856,4331.5,1010.5714285714286,340.47767857142856,4432,1010.5714285714286,340.47767857142856,4536.2,1010.5714285714286,340.47767857142856,4640.9,1010.5714285714286,340.47767857142856,4741.5,1010.5714285714286,340.47767857142856,4841.9,1010.5714285714286,340.47767857142856,4945.9]","[1382.9,1382.9,1000,0,382.9,""smooth"",""right"",""right"",""good_move"",3807.6,2424.4,2120.5,1383.2,303.9,""oops"",""right"",""left"",""bad_move"",6934.4,3126.4,2684.2,3808,442.2,""smooth"",""right"",""right"",""good_move"",9485.9,2551.3,2177.5,9484.8,-2176.4,""error"",""-"",""-"",""no_move"",20784.1,11297.9,2682.7,17740.3,361.1,""smooth"",""right"",""right"",""good_move"",24224,3439.6,3100,20784.4,339.6,""smooth"",""right"",""right"",""good_move"",26865.2,2640.9,2333.1,24224.3,307.8,""smooth"",""down"",""down"",""good_move"",29470.2,2604.7,2278.2,26865.5,326.5,""oops"",""down"",""down"",""good_move"",31909.8,2439.3,2124,29470.5,315.3,""smooth"",""down"",""down"",""good_move""]","",""
"3318","","<div style=""width:500px;"">
  <p>What determined the result of this run?</p>
  </div>","77","html-slider-response","54","1244473","0.0-10.0-1.2","126","1","2025-07-02 10:20:10","80fe4187154257d5fb01684ea91b68b9","136.226.168.84","Mozilla/5.0 (Windows NT 10.0; Win64; x64) AppleWebKit/537.36 (KHTML, like Gecko) Chrome/137.0.0.0 Safari/537.36","WebKit","Chrome","137.0.0.0","Windows","10.0","https://app.prolific.com/","en-GB,en-US;q=0.9,en;q=0.8","63e51ccb431bed8154fc6aae","683db6dfa200031b80f2a654","6865075aece3b8502bdb444e","63e51ccb431bed8154fc6aae","2025-07-02T10:40:56.314Z","","","","","","AttribQ","","","","","","","","","","","","","","","","","","","","","","","","","","","","","","","","","","","","","","50"
"4358","","<div style=""width:500px;"">
  <p>How much control did you have over the ball?</p>
  </div>","79","html-slider-response","55","1248833","0.0-10.0-2.2","126","1","2025-07-02 10:20:10","80fe4187154257d5fb01684ea91b68b9","136.226.168.84","Mozilla/5.0 (Windows NT 10.0; Win64; x64) AppleWebKit/537.36 (KHTML, like Gecko) Chrome/137.0.0.0 Safari/537.36","WebKit","Chrome","137.0.0.0","Windows","10.0","https://app.prolific.com/","en-GB,en-US;q=0.9,en;q=0.8","63e51ccb431bed8154fc6aae","683db6dfa200031b80f2a654","6865075aece3b8502bdb444e","63e51ccb431bed8154fc6aae","2025-07-02T10:41:00.674Z","","","","","","ControlQ","","","","","","","","","","","","","","","","","","","","","","","","","","","","","","","","","","","","","","50"
"3159","","<div style=""width:500px;"">
  <p>How would you describe your current emotional state?</p>
  </div>","66","html-slider-response","56","1251993","0.0-10.0-3.2","126","1","2025-07-02 10:20:10","80fe4187154257d5fb01684ea91b68b9","136.226.168.84","Mozilla/5.0 (Windows NT 10.0; Win64; x64) AppleWebKit/537.36 (KHTML, like Gecko) Chrome/137.0.0.0 Safari/537.36","WebKit","Chrome","137.0.0.0","Windows","10.0","https://app.prolific.com/","en-GB,en-US;q=0.9,en;q=0.8","63e51ccb431bed8154fc6aae","683db6dfa200031b80f2a654","6865075aece3b8502bdb444e","63e51ccb431bed8154fc6aae","2025-07-02T10:41:03.834Z","","","","","","StressQ","","","","","","","","","","","","","","","","","","","","","","","","","","","","","","","","","","","","","","50"
"1935","","<div style=""width:500px;"">
  <p>What best describes how you currently feel?</p>
  </div>","71","html-slider-response","57","1253929","0.0-10.0-4.2","126","1","2025-07-02 10:20:10","80fe4187154257d5fb01684ea91b68b9","136.226.168.84","Mozilla/5.0 (Windows NT 10.0; Win64; x64) AppleWebKit/537.36 (KHTML, like Gecko) Chrome/137.0.0.0 Safari/537.36","WebKit","Chrome","137.0.0.0","Windows","10.0","https://app.prolific.com/","en-GB,en-US;q=0.9,en;q=0.8","63e51ccb431bed8154fc6aae","683db6dfa200031b80f2a654","6865075aece3b8502bdb444e","63e51ccb431bed8154fc6aae","2025-07-02T10:41:05.770Z","","","","","","MotivationQ","","","","","","","","","","","","","","","","","","","","","","","","","","","","","","","","","","","","","","50"
"","","","","ctl-task-cpt","58","1290754","0.0-10.0-0.3","126","1","2025-07-02 10:20:10","80fe4187154257d5fb01684ea91b68b9","136.226.168.84","Mozilla/5.0 (Windows NT 10.0; Win64; x64) AppleWebKit/537.36 (KHTML, like Gecko) Chrome/137.0.0.0 Safari/537.36","WebKit","Chrome","137.0.0.0","Windows","10.0","https://app.prolific.com/","en-GB,en-US;q=0.9,en;q=0.8","63e51ccb431bed8154fc6aae","683db6dfa200031b80f2a654","6865075aece3b8502bdb444e","63e51ccb431bed8154fc6aae","2025-07-02T10:41:42.595Z","","","","","","","","","","","","","","","","win-only","1","g1:NE,g2:SW","0.7","4","0","1255277.6","726.6","5735.4","33816.4","1","4","4","6","2","4","4","19","15","0.14393939393939395","5008.8","3000","520","[""down"",""left""]","{""num_key_presses"":8,""num_perfect"":5,""num_errors"":0,""num_randdir"":3,""num_randdir_good_moves"":2,""num_whilered"":0,""num_whileblue"":0,""num_blue"":2,""num_good_moves"":7}","[410.57142857142856,411.47767857142856,0.1,410.57142857142856,411.47767857142856,104.9,410.57142857142856,411.47767857142856,213.8,441.57142857142856,391.47767857142856,314.6,741.5714285714286,334.47767857142856,419.8,782.5714285714286,333.47767857142856,532.1,782.5714285714286,333.47767857142856,633.7,782.5714285714286,333.47767857142856,735.2,782.5714285714286,333.47767857142856,839.6,777.5714285714286,333.47767857142856,948.7,-479.42857142857144,330.47767857142856,1049.2,-479.42857142857144,330.47767857142856,1151.3,-479.42857142857144,330.47767857142856,1254.3,-479.42857142857144,330.47767857142856,1358.5,-310.42857142857144,266.47767857142856,1459.6,-347.42857142857144,290.47767857142856,1567.9,-356.42857142857144,295.47767857142856,1668.1,-356.42857142857144,300.47767857142856,1768.3,-359.42857142857144,305.47767857142856,1868.8,-361.42857142857144,309.47767857142856,1974,-361.42857142857144,310.47767857142856,2075,-361.42857142857144,310.47767857142856,2175.2,-361.42857142857144,310.47767857142856,2279.5,-361.42857142857144,310.47767857142856,2379.8,-361.42857142857144,310.47767857142856,2485.7,-361.42857142857144,310.47767857142856,2587,-361.42857142857144,310.47767857142856,2690.5,-361.42857142857144,310.47767857142856,2793.9,-361.42857142857144,310.47767857142856,2903.6,-426.42857142857144,316.47767857142856,3004.5,-517.4285714285714,314.47767857142856,3109.6,-517.4285714285714,314.47767857142856,3214.9,-517.4285714285714,314.47767857142856,3315.2,-517.4285714285714,314.47767857142856,3422.5,-517.4285714285714,314.47767857142856,3522.6,-517.4285714285714,314.47767857142856,3623.9,-517.4285714285714,314.47767857142856,3724.5,-517.4285714285714,314.47767857142856,3824.8,-274.42857142857144,583.4776785714286,3929.1,-126.42857142857143,487.47767857142856,4029.2,-151.42857142857144,463.47767857142856,4134,-156.42857142857144,463.47767857142856,4241.1,-153.42857142857144,452.47767857142856,4341.4,-153.42857142857144,452.47767857142856,4444.2,-153.42857142857144,452.47767857142856,4549.2,-153.42857142857144,452.47767857142856,4650.1,-153.42857142857144,452.47767857142856,4757.6,-153.42857142857144,452.47767857142856,4858.3,-153.42857142857144,452.47767857142856,4958.8]","[1318.5,1318.5,1000,0,318.5,""smooth"",""left"",""left"",""good_move"",3507.3,2188.5,1914.3,1318.8,274.2,""oops"",""left"",""right"",""bad_move"",11214.3,7706.6,3272.8,7618.1,323.4,""oops"",""left"",""down"",""good_move"",13545.3,2330.8,1960.3,11214.5,370.5,""smooth"",""left"",""left"",""good_move"",16614.7,3069.1,2775.4,13545.6,293.7,""smooth"",""left"",""left"",""good_move"",18908.2,2293.3,1770,16614.9,523.3,""smooth"",""left"",""left"",""good_move"",22158.4,3250.1,2855.5,18908.3,394.6,""smooth"",""down"",""down"",""good_move"",27979,5820.4,1850.1,25750.9,378,""oops"",""down"",""down"",""good_move""]","",""
"3551","","<div style=""width:500px;"">
  <p>What determined the result of this run?</p>
  </div>","79","html-slider-response","59","1294306","0.0-10.0-1.3","126","1","2025-07-02 10:20:10","80fe4187154257d5fb01684ea91b68b9","136.226.168.84","Mozilla/5.0 (Windows NT 10.0; Win64; x64) AppleWebKit/537.36 (KHTML, like Gecko) Chrome/137.0.0.0 Safari/537.36","WebKit","Chrome","137.0.0.0","Windows","10.0","https://app.prolific.com/","en-GB,en-US;q=0.9,en;q=0.8","63e51ccb431bed8154fc6aae","683db6dfa200031b80f2a654","6865075aece3b8502bdb444e","63e51ccb431bed8154fc6aae","2025-07-02T10:41:46.147Z","","","","","","AttribQ","","","","","","","","","","","","","","","","","","","","","","","","","","","","","","","","","","","","","","50"
"2470","","<div style=""width:500px;"">
  <p>How much control did you have over the ball?</p>
  </div>","81","html-slider-response","60","1296777","0.0-10.0-2.3","126","1","2025-07-02 10:20:10","80fe4187154257d5fb01684ea91b68b9","136.226.168.84","Mozilla/5.0 (Windows NT 10.0; Win64; x64) AppleWebKit/537.36 (KHTML, like Gecko) Chrome/137.0.0.0 Safari/537.36","WebKit","Chrome","137.0.0.0","Windows","10.0","https://app.prolific.com/","en-GB,en-US;q=0.9,en;q=0.8","63e51ccb431bed8154fc6aae","683db6dfa200031b80f2a654","6865075aece3b8502bdb444e","63e51ccb431bed8154fc6aae","2025-07-02T10:41:48.618Z","","","","","","ControlQ","","","","","","","","","","","","","","","","","","","","","","","","","","","","","","","","","","","","","","50"
"2735","","<div style=""width:500px;"">
  <p>How would you describe your current emotional state?</p>
  </div>","71","html-slider-response","61","1299513","0.0-10.0-3.3","126","1","2025-07-02 10:20:10","80fe4187154257d5fb01684ea91b68b9","136.226.168.84","Mozilla/5.0 (Windows NT 10.0; Win64; x64) AppleWebKit/537.36 (KHTML, like Gecko) Chrome/137.0.0.0 Safari/537.36","WebKit","Chrome","137.0.0.0","Windows","10.0","https://app.prolific.com/","en-GB,en-US;q=0.9,en;q=0.8","63e51ccb431bed8154fc6aae","683db6dfa200031b80f2a654","6865075aece3b8502bdb444e","63e51ccb431bed8154fc6aae","2025-07-02T10:41:51.354Z","","","","","","StressQ","","","","","","","","","","","","","","","","","","","","","","","","","","","","","","","","","","","","","","50"
"2047","","<div style=""width:500px;"">
  <p>What best describes how you currently feel?</p>
  </div>","70","html-slider-response","62","1301561","0.0-10.0-4.3","126","1","2025-07-02 10:20:10","80fe4187154257d5fb01684ea91b68b9","136.226.168.84","Mozilla/5.0 (Windows NT 10.0; Win64; x64) AppleWebKit/537.36 (KHTML, like Gecko) Chrome/137.0.0.0 Safari/537.36","WebKit","Chrome","137.0.0.0","Windows","10.0","https://app.prolific.com/","en-GB,en-US;q=0.9,en;q=0.8","63e51ccb431bed8154fc6aae","683db6dfa200031b80f2a654","6865075aece3b8502bdb444e","63e51ccb431bed8154fc6aae","2025-07-02T10:41:53.402Z","","","","","","MotivationQ","","","","","","","","","","","","","","","","","","","","","","","","","","","","","","","","","","","","","","50"
"","","","","ctl-task-cpt","63","1339726","0.0-10.0-0.4","126","1","2025-07-02 10:20:10","80fe4187154257d5fb01684ea91b68b9","136.226.168.84","Mozilla/5.0 (Windows NT 10.0; Win64; x64) AppleWebKit/537.36 (KHTML, like Gecko) Chrome/137.0.0.0 Safari/537.36","WebKit","Chrome","137.0.0.0","Windows","10.0","https://app.prolific.com/","en-GB,en-US;q=0.9,en;q=0.8","63e51ccb431bed8154fc6aae","683db6dfa200031b80f2a654","6865075aece3b8502bdb444e","63e51ccb431bed8154fc6aae","2025-07-02T10:42:31.567Z","","","","","","","","","","","","","","","","win-only","0","g1:NW,g2:SE","0.6","5","0","1302909.2","783.3","5786.1","35147","1","4","8","6","2","8","6","25","19","0.1893939393939394","5002.8","3000","455","[""down"",""right""]","{""num_key_presses"":9,""num_perfect"":5,""num_errors"":2,""num_randdir"":2,""num_randdir_good_moves"":1,""num_whilered"":0,""num_whileblue"":1,""num_blue"":2,""num_good_moves"":7}","[414.57142857142856,427.47767857142856,0.3,414.57142857142856,427.47767857142856,101.9,414.57142857142856,427.47767857142856,202.1,414.57142857142856,427.47767857142856,302.4,412.57142857142856,426.47767857142856,402.4,404.57142857142856,416.47767857142856,502.5,386.57142857142856,390.47767857142856,607.2,-61.42857142857143,515.4776785714286,708.1,-538.4285714285714,612.4776785714286,809.5,-164.42857142857144,614.4776785714286,915.3,874.5714285714286,599.4776785714286,1017.8,886.5714285714286,594.4776785714286,1117.9,885.5714285714286,590.4776785714286,1219.4,885.5714285714286,589.4776785714286,1323.1,883.5714285714286,587.4776785714286,1427.8,878.5714285714286,587.4776785714286,1533.1,878.5714285714286,587.4776785714286,1633.2,878.5714285714286,587.4776785714286,1734,878.5714285714286,587.4776785714286,1839.3,878.5714285714286,587.4776785714286,1942.7,878.5714285714286,587.4776785714286,2047.7,878.5714285714286,587.4776785714286,2153.9,878.5714285714286,587.4776785714286,2257.4,878.5714285714286,587.4776785714286,2363.6,878.5714285714286,587.4776785714286,2467.7,878.5714285714286,587.4776785714286,2572.6,878.5714285714286,587.4776785714286,2673.4,878.5714285714286,587.4776785714286,2777.9,878.5714285714286,587.4776785714286,2883.2,878.5714285714286,587.4776785714286,2988,878.5714285714286,587.4776785714286,3091.9,878.5714285714286,587.4776785714286,3192.4,878.5714285714286,587.4776785714286,3293,878.5714285714286,587.4776785714286,3397.6,878.5714285714286,587.4776785714286,3497.7,878.5714285714286,587.4776785714286,3602.4,878.5714285714286,587.4776785714286,3702.7,878.5714285714286,587.4776785714286,3802.9,878.5714285714286,587.4776785714286,3903,878.5714285714286,587.4776785714286,4003.2,878.5714285714286,587.4776785714286,4107.9,878.5714285714286,587.4776785714286,4212.6,878.5714285714286,587.4776785714286,4312.9,878.5714285714286,587.4776785714286,4417.6,878.5714285714286,587.4776785714286,4517.9,878.5714285714286,587.4776785714286,4622.4,878.5714285714286,587.4776785714286,4727.9,878.5714285714286,587.4776785714286,4828,878.5714285714286,587.4776785714286,4928]","[644.4,644.4,1000,0,-355.6,""error"",""-"",""-"",""no_move"",4892.2,4247.6,2898.7,1645.2,348.3,""oops"",""down"",""left"",""bad_move"",8755.8,3863.3,3520.3,4892.5,343,""smooth"",""right"",""right"",""good_move"",11756,3000,2669,8756,331,""while_blue"",""right"",""right"",""good_move"",14891.8,3135.7,2802.3,11756.1,333.4,""smooth"",""down"",""down"",""good_move"",20188.1,5296.1,1733,18095,360.2,""smooth"",""right"",""right"",""good_move"",23204,3015.6,2631.3,20188.4,384.3,""smooth"",""down"",""down"",""good_move"",26668.7,3464.4,3023.5,23204.3,440.9,""oops"",""right"",""right"",""good_move"",29276.1,2607.2,2231.1,26668.9,376.1,""smooth"",""down"",""down"",""good_move""]","",""
"2449","","<div style=""width:500px;"">
  <p>What determined the result of this run?</p>
  </div>","83","html-slider-response","64","1342177","0.0-10.0-1.4","126","1","2025-07-02 10:20:10","80fe4187154257d5fb01684ea91b68b9","136.226.168.84","Mozilla/5.0 (Windows NT 10.0; Win64; x64) AppleWebKit/537.36 (KHTML, like Gecko) Chrome/137.0.0.0 Safari/537.36","WebKit","Chrome","137.0.0.0","Windows","10.0","https://app.prolific.com/","en-GB,en-US;q=0.9,en;q=0.8","63e51ccb431bed8154fc6aae","683db6dfa200031b80f2a654","6865075aece3b8502bdb444e","63e51ccb431bed8154fc6aae","2025-07-02T10:42:34.018Z","","","","","","AttribQ","","","","","","","","","","","","","","","","","","","","","","","","","","","","","","","","","","","","","","50"
"4431","","<div style=""width:500px;"">
  <p>How much control did you have over the ball?</p>
  </div>","81","html-slider-response","65","1346609","0.0-10.0-2.4","126","1","2025-07-02 10:20:10","80fe4187154257d5fb01684ea91b68b9","136.226.168.84","Mozilla/5.0 (Windows NT 10.0; Win64; x64) AppleWebKit/537.36 (KHTML, like Gecko) Chrome/137.0.0.0 Safari/537.36","WebKit","Chrome","137.0.0.0","Windows","10.0","https://app.prolific.com/","en-GB,en-US;q=0.9,en;q=0.8","63e51ccb431bed8154fc6aae","683db6dfa200031b80f2a654","6865075aece3b8502bdb444e","63e51ccb431bed8154fc6aae","2025-07-02T10:42:38.450Z","","","","","","ControlQ","","","","","","","","","","","","","","","","","","","","","","","","","","","","","","","","","","","","","","50"
"1783","","<div style=""width:500px;"">
  <p>How would you describe your current emotional state?</p>
  </div>","73","html-slider-response","66","1348393","0.0-10.0-3.4","126","1","2025-07-02 10:20:10","80fe4187154257d5fb01684ea91b68b9","136.226.168.84","Mozilla/5.0 (Windows NT 10.0; Win64; x64) AppleWebKit/537.36 (KHTML, like Gecko) Chrome/137.0.0.0 Safari/537.36","WebKit","Chrome","137.0.0.0","Windows","10.0","https://app.prolific.com/","en-GB,en-US;q=0.9,en;q=0.8","63e51ccb431bed8154fc6aae","683db6dfa200031b80f2a654","6865075aece3b8502bdb444e","63e51ccb431bed8154fc6aae","2025-07-02T10:42:40.234Z","","","","","","StressQ","","","","","","","","","","","","","","","","","","","","","","","","","","","","","","","","","","","","","","50"
"1823","","<div style=""width:500px;"">
  <p>What best describes how you currently feel?</p>
  </div>","67","html-slider-response","67","1350217","0.0-10.0-4.4","126","1","2025-07-02 10:20:10","80fe4187154257d5fb01684ea91b68b9","136.226.168.84","Mozilla/5.0 (Windows NT 10.0; Win64; x64) AppleWebKit/537.36 (KHTML, like Gecko) Chrome/137.0.0.0 Safari/537.36","WebKit","Chrome","137.0.0.0","Windows","10.0","https://app.prolific.com/","en-GB,en-US;q=0.9,en;q=0.8","63e51ccb431bed8154fc6aae","683db6dfa200031b80f2a654","6865075aece3b8502bdb444e","63e51ccb431bed8154fc6aae","2025-07-02T10:42:42.058Z","","","","","","MotivationQ","","","","","","","","","","","","","","","","","","","","","","","","","","","","","","","","","","","","","","50"
"","","","","ctl-task-cpt","68","1405283","0.0-10.0-0.5","126","1","2025-07-02 10:20:10","80fe4187154257d5fb01684ea91b68b9","136.226.168.84","Mozilla/5.0 (Windows NT 10.0; Win64; x64) AppleWebKit/537.36 (KHTML, like Gecko) Chrome/137.0.0.0 Safari/537.36","WebKit","Chrome","137.0.0.0","Windows","10.0","https://app.prolific.com/","en-GB,en-US;q=0.9,en;q=0.8","63e51ccb431bed8154fc6aae","683db6dfa200031b80f2a654","6865075aece3b8502bdb444e","63e51ccb431bed8154fc6aae","2025-07-02T10:43:37.124Z","","","","","","","","","","","","","","","","win-only","0","g1:NW,g2:SE","0.5","6","0","1351565.2","742.4","5750.5","52060.9","1","4","4","6","2","-4","-6","19","25","0.14393939393939395","5008.1","3000","-2590","[""down"",""right""]","{""num_key_presses"":14,""num_perfect"":5,""num_errors"":2,""num_randdir"":5,""num_randdir_good_moves"":2,""num_whilered"":2,""num_whileblue"":0,""num_blue"":2,""num_good_moves"":7}","[418.57142857142856,420.47767857142856,0.2,418.57142857142856,420.47767857142856,105.1,418.57142857142856,420.47767857142856,209,418.57142857142856,420.47767857142856,315.3,418.57142857142856,420.47767857142856,415.6,492.57142857142856,420.47767857142856,517.2,772.5714285714286,420.47767857142856,618.4,882.5714285714286,422.47767857142856,723.2,978.5714285714286,425.47767857142856,823.4,1023.5714285714286,399.47767857142856,933.6,1014.5714285714286,397.47767857142856,1034.2,997.5714285714286,397.47767857142856,1138.4,994.5714285714286,397.47767857142856,1238.5,994.5714285714286,397.47767857142856,1338.5,994.5714285714286,397.47767857142856,1443.5,994.5714285714286,397.47767857142856,1551.6,994.5714285714286,397.47767857142856,1653.6,994.5714285714286,397.47767857142856,1754,994.5714285714286,397.47767857142856,1854,994.5714285714286,397.47767857142856,1958.4,994.5714285714286,397.47767857142856,2068.6,994.5714285714286,397.47767857142856,2171.2,994.5714285714286,397.47767857142856,2272.6,994.5714285714286,397.47767857142856,2373.5,994.5714285714286,397.47767857142856,2478.4,994.5714285714286,397.47767857142856,2578.5,994.5714285714286,397.47767857142856,2678.5,994.5714285714286,397.47767857142856,2786.7,994.5714285714286,397.47767857142856,2887.1,994.5714285714286,397.47767857142856,2987.2,994.5714285714286,397.47767857142856,3088.4,994.5714285714286,397.47767857142856,3188.9,994.5714285714286,397.47767857142856,3294,994.5714285714286,397.47767857142856,3398,994.5714285714286,397.47767857142856,3505.5,994.5714285714286,397.47767857142856,3608.6,994.5714285714286,397.47767857142856,3708.7,994.5714285714286,397.47767857142856,3808.7,994.5714285714286,397.47767857142856,3913,994.5714285714286,397.47767857142856,4013,994.5714285714286,397.47767857142856,4123.5,994.5714285714286,397.47767857142856,4228.7,994.5714285714286,397.47767857142856,4333.6,994.5714285714286,397.47767857142856,4441.3,994.5714285714286,397.47767857142856,4542.8,994.5714285714286,397.47767857142856,4644,994.5714285714286,397.47767857142856,4744.1,994.5714285714286,397.47767857142856,4848.5,994.5714285714286,397.47767857142856,4949]","[583.7,583.7,1000,0,-416.3,""error"",""-"",""-"",""no_move"",4843.7,4259.8,2924.2,1587.4,332.1,""smooth"",""down"",""down"",""good_move"",7855.7,3011.7,2660.3,4844,351.4,""smooth"",""down"",""down"",""good_move"",10911.6,3055.8,2691.3,7855.8,364.5,""smooth"",""down"",""down"",""good_move"",13839.8,2928,2577.3,10911.9,350.6,""oops"",""right"",""up"",""bad_move"",16511.6,2671.6,2304.5,13840,367.1,""oops"",""right"",""up"",""bad_move"",20119.3,3607.4,3279.5,16511.9,327.9,""smooth"",""down"",""down"",""good_move"",26776,6656.5,2869.2,23571.3,335.5,""oops"",""right"",""up"",""bad_move"",33799.5,7023.1,2504.9,30945.3,349.3,""oops"",""down"",""right"",""good_move"",36871.5,3071.7,2713.2,33799.8,358.5,""smooth"",""down"",""down"",""good_move"",40183.4,3311.6,3052.1,36871.8,259.5,""oops"",""right"",""down"",""good_move"",42231.2,2047.6,2422,40183.6,-374.4,""error"",""-"",""-"",""no_move"",42367.8,136.4,2422,40183.6,-237.8,""while_red"",""-"",""-"",""no_move"",42514.3,282.9,2422,40183.6,-91.3,""while_red"",""-"",""-"",""no_move""]","",""
"4710","","<div style=""width:500px;"">
  <p>What determined the result of this run?</p>
  </div>","61","html-slider-response","69","1409994","0.0-10.0-1.5","126","1","2025-07-02 10:20:10","80fe4187154257d5fb01684ea91b68b9","136.226.168.84","Mozilla/5.0 (Windows NT 10.0; Win64; x64) AppleWebKit/537.36 (KHTML, like Gecko) Chrome/137.0.0.0 Safari/537.36","WebKit","Chrome","137.0.0.0","Windows","10.0","https://app.prolific.com/","en-GB,en-US;q=0.9,en;q=0.8","63e51ccb431bed8154fc6aae","683db6dfa200031b80f2a654","6865075aece3b8502bdb444e","63e51ccb431bed8154fc6aae","2025-07-02T10:43:41.835Z","","","","","","AttribQ","","","","","","","","","","","","","","","","","","","","","","","","","","","","","","","","","","","","","","50"
"2750","","<div style=""width:500px;"">
  <p>How much control did you have over the ball?</p>
  </div>","60","html-slider-response","70","1412746","0.0-10.0-2.5","126","1","2025-07-02 10:20:10","80fe4187154257d5fb01684ea91b68b9","136.226.168.84","Mozilla/5.0 (Windows NT 10.0; Win64; x64) AppleWebKit/537.36 (KHTML, like Gecko) Chrome/137.0.0.0 Safari/537.36","WebKit","Chrome","137.0.0.0","Windows","10.0","https://app.prolific.com/","en-GB,en-US;q=0.9,en;q=0.8","63e51ccb431bed8154fc6aae","683db6dfa200031b80f2a654","6865075aece3b8502bdb444e","63e51ccb431bed8154fc6aae","2025-07-02T10:43:44.587Z","","","","","","ControlQ","","","","","","","","","","","","","","","","","","","","","","","","","","","","","","","","","","","","","","50"
"1934","","<div style=""width:500px;"">
  <p>How would you describe your current emotional state?</p>
  </div>","79","html-slider-response","71","1414681","0.0-10.0-3.5","126","1","2025-07-02 10:20:10","80fe4187154257d5fb01684ea91b68b9","136.226.168.84","Mozilla/5.0 (Windows NT 10.0; Win64; x64) AppleWebKit/537.36 (KHTML, like Gecko) Chrome/137.0.0.0 Safari/537.36","WebKit","Chrome","137.0.0.0","Windows","10.0","https://app.prolific.com/","en-GB,en-US;q=0.9,en;q=0.8","63e51ccb431bed8154fc6aae","683db6dfa200031b80f2a654","6865075aece3b8502bdb444e","63e51ccb431bed8154fc6aae","2025-07-02T10:43:46.522Z","","","","","","StressQ","","","","","","","","","","","","","","","","","","","","","","","","","","","","","","","","","","","","","","50"
"2271","","<div style=""width:500px;"">
  <p>What best describes how you currently feel?</p>
  </div>","70","html-slider-response","72","1416953","0.0-10.0-4.5","126","1","2025-07-02 10:20:10","80fe4187154257d5fb01684ea91b68b9","136.226.168.84","Mozilla/5.0 (Windows NT 10.0; Win64; x64) AppleWebKit/537.36 (KHTML, like Gecko) Chrome/137.0.0.0 Safari/537.36","WebKit","Chrome","137.0.0.0","Windows","10.0","https://app.prolific.com/","en-GB,en-US;q=0.9,en;q=0.8","63e51ccb431bed8154fc6aae","683db6dfa200031b80f2a654","6865075aece3b8502bdb444e","63e51ccb431bed8154fc6aae","2025-07-02T10:43:48.794Z","","","","","","MotivationQ","","","","","","","","","","","","","","","","","","","","","","","","","","","","","","","","","","","","","","50"
"","","","","ctl-task-cpt","73","1448834","0.0-10.0-0.6","126","1","2025-07-02 10:20:10","80fe4187154257d5fb01684ea91b68b9","136.226.168.84","Mozilla/5.0 (Windows NT 10.0; Win64; x64) AppleWebKit/537.36 (KHTML, like Gecko) Chrome/137.0.0.0 Safari/537.36","WebKit","Chrome","137.0.0.0","Windows","10.0","https://app.prolific.com/","en-GB,en-US;q=0.9,en;q=0.8","63e51ccb431bed8154fc6aae","683db6dfa200031b80f2a654","6865075aece3b8502bdb444e","63e51ccb431bed8154fc6aae","2025-07-02T10:44:20.675Z","","","","","","","","","","","","","","","","win-only","2","g1:SE,g2:NW","0.4","7","0","1418300.9","671.5","5675.9","28871","1","4","4","6","1","1","1","20","19","0.15151515151515152","5004.4","3000","640","[""down"",""right""]","{""num_key_presses"":8,""num_perfect"":4,""num_errors"":0,""num_randdir"":4,""num_randdir_good_moves"":2,""num_whilered"":0,""num_whileblue"":0,""num_blue"":1,""num_good_moves"":6}","[424.57142857142856,424.47767857142856,0.2,424.57142857142856,424.47767857142856,101.4,422.57142857142856,419.47767857142856,202.2,422.57142857142856,419.47767857142856,304.2,449.57142857142856,457.47767857142856,404.5,518.5714285714286,496.47767857142856,509.1,532.5714285714286,496.47767857142856,609.1,532.5714285714286,496.47767857142856,709.2,532.5714285714286,496.47767857142856,814,532.5714285714286,496.47767857142856,914.7,502.57142857142856,503.47767857142856,1021.6,1134.5714285714287,478.47767857142856,1121.6,1278.5714285714287,447.47767857142856,1225.2,1266.5714285714287,447.47767857142856,1328.9,1227.5714285714287,444.47767857142856,1429.6,1146.5714285714287,422.47767857142856,1539,1144.5714285714287,422.47767857142856,1639.5,1141.5714285714287,420.47767857142856,1744.7,1141.5714285714287,420.47767857142856,1849.7,1141.5714285714287,420.47767857142856,1956.4,1141.5714285714287,420.47767857142856,2057.4,1141.5714285714287,420.47767857142856,2159.4,1141.5714285714287,420.47767857142856,2263.8,1141.5714285714287,420.47767857142856,2365,1141.5714285714287,420.47767857142856,2474.5,1141.5714285714287,420.47767857142856,2574.9,1141.5714285714287,420.47767857142856,2678.8,1141.5714285714287,420.47767857142856,2779.1,1141.5714285714287,420.47767857142856,2879.1,1141.5714285714287,420.47767857142856,2979.6,1141.5714285714287,420.47767857142856,3091.8,1141.5714285714287,420.47767857142856,3193,1141.5714285714287,420.47767857142856,3294.5,1141.5714285714287,420.47767857142856,3399.1,1141.5714285714287,420.47767857142856,3499.3,1141.5714285714287,420.47767857142856,3599.7,1141.5714285714287,420.47767857142856,3703.7,1141.5714285714287,420.47767857142856,3803.8,1141.5714285714287,420.47767857142856,3903.9,1141.5714285714287,420.47767857142856,4012,1141.5714285714287,420.47767857142856,4114.7,1141.5714285714287,420.47767857142856,4214.7,1141.5714285714287,420.47767857142856,4319,1141.5714285714287,420.47767857142856,4428.8,1141.5714285714287,420.47767857142856,4528.9,1141.5714285714287,420.47767857142856,4629.5,1141.5714285714287,420.47767857142856,4734.8,1141.5714285714287,420.47767857142856,4839.6,1141.5714285714287,420.47767857142856,4951.9]","[4551.4,4551.4,2208.1,2004.9,338.4,""oops"",""down"",""left"",""bad_move"",8394.1,3842.4,3481.5,4551.7,360.9,""smooth"",""down"",""down"",""good_move"",10873.9,2479.5,2127.7,8394.5,351.7,""oops"",""down"",""left"",""bad_move"",13805.5,2931.4,2607.3,10874.1,324.1,""smooth"",""down"",""down"",""good_move"",16090.3,2284.5,1906.6,13805.8,377.9,""smooth"",""right"",""right"",""good_move"",18554.2,2463.6,2125.3,16090.6,338.3,""smooth"",""right"",""right"",""good_move"",20906.9,2352.6,1961.5,18554.3,391.1,""oops"",""right"",""right"",""good_move"",23082.3,2175.3,1786.9,20907,388.4,""oops"",""right"",""right"",""good_move""]","",""
"3749","","<div style=""width:500px;"">
  <p>What determined the result of this run?</p>
  </div>","81","html-slider-response","74","1452584","0.0-10.0-1.6","126","1","2025-07-02 10:20:10","80fe4187154257d5fb01684ea91b68b9","136.226.168.84","Mozilla/5.0 (Windows NT 10.0; Win64; x64) AppleWebKit/537.36 (KHTML, like Gecko) Chrome/137.0.0.0 Safari/537.36","WebKit","Chrome","137.0.0.0","Windows","10.0","https://app.prolific.com/","en-GB,en-US;q=0.9,en;q=0.8","63e51ccb431bed8154fc6aae","683db6dfa200031b80f2a654","6865075aece3b8502bdb444e","63e51ccb431bed8154fc6aae","2025-07-02T10:44:24.425Z","","","","","","AttribQ","","","","","","","","","","","","","","","","","","","","","","","","","","","","","","","","","","","","","","50"
"2327","","<div style=""width:500px;"">
  <p>How much control did you have over the ball?</p>
  </div>","84","html-slider-response","75","1454912","0.0-10.0-2.6","126","1","2025-07-02 10:20:10","80fe4187154257d5fb01684ea91b68b9","136.226.168.84","Mozilla/5.0 (Windows NT 10.0; Win64; x64) AppleWebKit/537.36 (KHTML, like Gecko) Chrome/137.0.0.0 Safari/537.36","WebKit","Chrome","137.0.0.0","Windows","10.0","https://app.prolific.com/","en-GB,en-US;q=0.9,en;q=0.8","63e51ccb431bed8154fc6aae","683db6dfa200031b80f2a654","6865075aece3b8502bdb444e","63e51ccb431bed8154fc6aae","2025-07-02T10:44:26.753Z","","","","","","ControlQ","","","","","","","","","","","","","","","","","","","","","","","","","","","","","","","","","","","","","","50"
"2031","","<div style=""width:500px;"">
  <p>How would you describe your current emotional state?</p>
  </div>","68","html-slider-response","76","1456944","0.0-10.0-3.6","126","1","2025-07-02 10:20:10","80fe4187154257d5fb01684ea91b68b9","136.226.168.84","Mozilla/5.0 (Windows NT 10.0; Win64; x64) AppleWebKit/537.36 (KHTML, like Gecko) Chrome/137.0.0.0 Safari/537.36","WebKit","Chrome","137.0.0.0","Windows","10.0","https://app.prolific.com/","en-GB,en-US;q=0.9,en;q=0.8","63e51ccb431bed8154fc6aae","683db6dfa200031b80f2a654","6865075aece3b8502bdb444e","63e51ccb431bed8154fc6aae","2025-07-02T10:44:28.785Z","","","","","","StressQ","","","","","","","","","","","","","","","","","","","","","","","","","","","","","","","","","","","","","","50"
"2215","","<div style=""width:500px;"">
  <p>What best describes how you currently feel?</p>
  </div>","73","html-slider-response","77","1459160","0.0-10.0-4.6","126","1","2025-07-02 10:20:10","80fe4187154257d5fb01684ea91b68b9","136.226.168.84","Mozilla/5.0 (Windows NT 10.0; Win64; x64) AppleWebKit/537.36 (KHTML, like Gecko) Chrome/137.0.0.0 Safari/537.36","WebKit","Chrome","137.0.0.0","Windows","10.0","https://app.prolific.com/","en-GB,en-US;q=0.9,en;q=0.8","63e51ccb431bed8154fc6aae","683db6dfa200031b80f2a654","6865075aece3b8502bdb444e","63e51ccb431bed8154fc6aae","2025-07-02T10:44:31.002Z","","","","","","MotivationQ","","","","","","","","","","","","","","","","","","","","","","","","","","","","","","","","","","","","","","50"
"","","","","ctl-task-cpt","78","1499541","0.0-10.0-0.7","126","1","2025-07-02 10:20:10","80fe4187154257d5fb01684ea91b68b9","136.226.168.84","Mozilla/5.0 (Windows NT 10.0; Win64; x64) AppleWebKit/537.36 (KHTML, like Gecko) Chrome/137.0.0.0 Safari/537.36","WebKit","Chrome","137.0.0.0","Windows","10.0","https://app.prolific.com/","en-GB,en-US;q=0.9,en;q=0.8","63e51ccb431bed8154fc6aae","683db6dfa200031b80f2a654","6865075aece3b8502bdb444e","63e51ccb431bed8154fc6aae","2025-07-02T10:45:11.383Z","","","","","","","","","","","","","","","","win-only","3","g1:SW,g2:NE","0.3","8","0","1460509.4","1027.1","6032.3","37360.9","1","4","8","6","1","-1","-3","17","20","0.12878787878787878","5005.2","3000","-2885","[""down"",""left""]","{""num_key_presses"":12,""num_perfect"":3,""num_errors"":2,""num_randdir"":6,""num_randdir_good_moves"":2,""num_whilered"":1,""num_whileblue"":1,""num_blue"":1,""num_good_moves"":6}","[416.57142857142856,415.47767857142856,0.2,416.57142857142856,415.47767857142856,103.9,416.57142857142856,415.47767857142856,208.9,416.57142857142856,415.47767857142856,318.3,413.57142857142856,411.47767857142856,420,413.57142857142856,410.47767857142856,523.6,415.57142857142856,405.47767857142856,624,494.57142857142856,365.47767857142856,728.6,521.5714285714286,360.47767857142856,836,781.5714285714286,382.47767857142856,937.2,1069.5714285714287,392.47767857142856,1039.1,1068.5714285714287,391.47767857142856,1139.7,1049.5714285714287,394.47767857142856,1243.8,963.5714285714286,421.47767857142856,1344,943.5714285714286,421.47767857142856,1454.6,929.5714285714286,419.47767857142856,1560.8,917.5714285714286,417.47767857142856,1664.2,907.5714285714286,417.47767857142856,1773.4,897.5714285714286,416.47767857142856,1873.7,-288.42857142857144,536.4776785714286,1978.3,-402.42857142857144,535.4776785714286,2080.7,-402.42857142857144,535.4776785714286,2188.6,-402.42857142857144,535.4776785714286,2288.6,-402.42857142857144,535.4776785714286,2391.4,-402.42857142857144,535.4776785714286,2493.9,-402.42857142857144,535.4776785714286,2594.1,-402.42857142857144,535.4776785714286,2694.6,-402.42857142857144,535.4776785714286,2799.1,-402.42857142857144,535.4776785714286,2978,-402.42857142857144,535.4776785714286,3080.9,-413.42857142857144,318.47767857142856,3195,-186.42857142857144,336.47767857142856,3295.2,132.57142857142856,406.47767857142856,3396.1,216.57142857142856,431.47767857142856,3499.4,146.57142857142856,424.47767857142856,3604.6,-23.42857142857143,424.47767857142856,3704.9,-88.42857142857143,423.47767857142856,3809.6,-118.42857142857143,421.47767857142856,3913.4,-118.42857142857143,421.47767857142856,4021,-118.42857142857143,421.47767857142856,4127.8,-121.42857142857143,399.47767857142856,4230.4,-13.42857142857143,370.47767857142856,4334.7,-13.42857142857143,370.47767857142856,4442,-13.42857142857143,370.47767857142856,4542.5,-13.42857142857143,370.47767857142856,4643.8,-13.42857142857143,370.47767857142856,4748.4,-13.42857142857143,370.47767857142856,4849.3,-13.42857142857143,370.47767857142856,4949.3]","[1470.3,1470.3,1000,0,470.3,""oops"",""down"",""right"",""bad_move"",4549,3078.3,2795.3,1470.7,283,""smooth"",""left"",""left"",""good_move"",7277.4,2727.9,2372.4,4549.5,355.5,""oops"",""left"",""right"",""bad_move"",9676.7,2399.1,2133.6,7277.7,265.5,""oops"",""left"",""down"",""good_move"",12388.9,2711.9,2358.7,9677,353.2,""oops"",""left"",""up"",""bad_move"",14693.4,2304.2,1951.5,12389.2,352.7,""smooth"",""left"",""left"",""good_move"",17461.5,2767.7,2476.2,14693.8,291.5,""oops"",""left"",""right"",""bad_move"",19837.3,2375.6,2595.2,17461.7,-219.6,""error"",""-"",""-"",""no_move"",20064.3,226.8,2595.2,17461.7,7.4,""while_red"",""-"",""-"",""no_move"",23157.1,3319.6,1968.8,20838.1,350.2,""oops"",""left"",""left"",""good_move"",25757.9,2600.5,2253.9,23157.4,346.6,""smooth"",""left"",""left"",""good_move"",28565,2806.8,2540.7,25758.2,266.1,""while_blue"",""down"",""left"",""good_move""]","",""
"2605","","<div style=""width:500px;"">
  <p>What determined the result of this run?</p>
  </div>","60","html-slider-response","79","1502148","0.0-10.0-1.7","126","1","2025-07-02 10:20:10","80fe4187154257d5fb01684ea91b68b9","136.226.168.84","Mozilla/5.0 (Windows NT 10.0; Win64; x64) AppleWebKit/537.36 (KHTML, like Gecko) Chrome/137.0.0.0 Safari/537.36","WebKit","Chrome","137.0.0.0","Windows","10.0","https://app.prolific.com/","en-GB,en-US;q=0.9,en;q=0.8","63e51ccb431bed8154fc6aae","683db6dfa200031b80f2a654","6865075aece3b8502bdb444e","63e51ccb431bed8154fc6aae","2025-07-02T10:45:13.989Z","","","","","","AttribQ","","","","","","","","","","","","","","","","","","","","","","","","","","","","","","","","","","","","","","50"
"1739","","<div style=""width:500px;"">
  <p>How much control did you have over the ball?</p>
  </div>","60","html-slider-response","80","1503889","0.0-10.0-2.7","126","1","2025-07-02 10:20:10","80fe4187154257d5fb01684ea91b68b9","136.226.168.84","Mozilla/5.0 (Windows NT 10.0; Win64; x64) AppleWebKit/537.36 (KHTML, like Gecko) Chrome/137.0.0.0 Safari/537.36","WebKit","Chrome","137.0.0.0","Windows","10.0","https://app.prolific.com/","en-GB,en-US;q=0.9,en;q=0.8","63e51ccb431bed8154fc6aae","683db6dfa200031b80f2a654","6865075aece3b8502bdb444e","63e51ccb431bed8154fc6aae","2025-07-02T10:45:15.730Z","","","","","","ControlQ","","","","","","","","","","","","","","","","","","","","","","","","","","","","","","","","","","","","","","50"
"1812","","<div style=""width:500px;"">
  <p>How would you describe your current emotional state?</p>
  </div>","81","html-slider-response","81","1505703","0.0-10.0-3.7","126","1","2025-07-02 10:20:10","80fe4187154257d5fb01684ea91b68b9","136.226.168.84","Mozilla/5.0 (Windows NT 10.0; Win64; x64) AppleWebKit/537.36 (KHTML, like Gecko) Chrome/137.0.0.0 Safari/537.36","WebKit","Chrome","137.0.0.0","Windows","10.0","https://app.prolific.com/","en-GB,en-US;q=0.9,en;q=0.8","63e51ccb431bed8154fc6aae","683db6dfa200031b80f2a654","6865075aece3b8502bdb444e","63e51ccb431bed8154fc6aae","2025-07-02T10:45:17.545Z","","","","","","StressQ","","","","","","","","","","","","","","","","","","","","","","","","","","","","","","","","","","","","","","50"
"2551","","<div style=""width:500px;"">
  <p>What best describes how you currently feel?</p>
  </div>","70","html-slider-response","82","1508258","0.0-10.0-4.7","126","1","2025-07-02 10:20:10","80fe4187154257d5fb01684ea91b68b9","136.226.168.84","Mozilla/5.0 (Windows NT 10.0; Win64; x64) AppleWebKit/537.36 (KHTML, like Gecko) Chrome/137.0.0.0 Safari/537.36","WebKit","Chrome","137.0.0.0","Windows","10.0","https://app.prolific.com/","en-GB,en-US;q=0.9,en;q=0.8","63e51ccb431bed8154fc6aae","683db6dfa200031b80f2a654","6865075aece3b8502bdb444e","63e51ccb431bed8154fc6aae","2025-07-02T10:45:20.100Z","","","","","","MotivationQ","","","","","","","","","","","","","","","","","","","","","","","","","","","","","","","","","","","","","","50"
"","","","","ctl-task-cpt","83","1559235","0.0-10.0-0.8","126","1","2025-07-02 10:20:10","80fe4187154257d5fb01684ea91b68b9","136.226.168.84","Mozilla/5.0 (Windows NT 10.0; Win64; x64) AppleWebKit/537.36 (KHTML, like Gecko) Chrome/137.0.0.0 Safari/537.36","WebKit","Chrome","137.0.0.0","Windows","10.0","https://app.prolific.com/","en-GB,en-US;q=0.9,en;q=0.8","63e51ccb431bed8154fc6aae","683db6dfa200031b80f2a654","6865075aece3b8502bdb444e","63e51ccb431bed8154fc6aae","2025-07-02T10:46:11.076Z","","","","","","","","","","","","","","","","win-only","0","g1:NW,g2:SE","0.4","9","0","1509608.3","683","5685.9","47956.5","1","4","4","6","2","-4","-6","11","17","0.08333333333333333","5002.9","3000","-2435","[""down"",""right""]","{""num_key_presses"":12,""num_perfect"":4,""num_errors"":2,""num_randdir"":6,""num_randdir_good_moves"":3,""num_whilered"":0,""num_whileblue"":0,""num_blue"":2,""num_good_moves"":7}","[407.57142857142856,413.47767857142856,0.5,407.57142857142856,413.47767857142856,108.1,407.57142857142856,413.47767857142856,208.8,407.57142857142856,413.47767857142856,312.9,396.57142857142856,412.47767857142856,412.9,396.57142857142856,412.47767857142856,513,1031.5714285714287,401.47767857142856,626.9,1131.5714285714287,401.47767857142856,728.2,1131.5714285714287,401.47767857142856,833.9,1131.5714285714287,401.47767857142856,937.8,1109.5714285714287,405.47767857142856,1044.6,1081.5714285714287,407.47767857142856,1147.7,1079.5714285714287,407.47767857142856,1247.7,1076.5714285714287,407.47767857142856,1362,1076.5714285714287,407.47767857142856,1462.8,1076.5714285714287,407.47767857142856,1563.1,1076.5714285714287,407.47767857142856,1663.2,1076.5714285714287,407.47767857142856,1767.5,1076.5714285714287,407.47767857142856,1867.8,1076.5714285714287,407.47767857142856,1969.5,1076.5714285714287,407.47767857142856,2072.5,1076.5714285714287,407.47767857142856,2181.6,1076.5714285714287,407.47767857142856,2283,1076.5714285714287,407.47767857142856,2383.1,1076.5714285714287,407.47767857142856,2487.7,1076.5714285714287,407.47767857142856,2598,1076.5714285714287,407.47767857142856,2702.9,1076.5714285714287,407.47767857142856,2803.3,1076.5714285714287,407.47767857142856,2903.6,1076.5714285714287,407.47767857142856,3007.7,1076.5714285714287,407.47767857142856,3117.1,1076.5714285714287,407.47767857142856,3217.9,1076.5714285714287,407.47767857142856,3323.2,1076.5714285714287,407.47767857142856,3433.2,1076.5714285714287,407.47767857142856,3537.7,1076.5714285714287,407.47767857142856,3642.7,1076.5714285714287,407.47767857142856,3747.3,1076.5714285714287,407.47767857142856,3851,1076.5714285714287,407.47767857142856,3951.5,1076.5714285714287,407.47767857142856,4051.6,1076.5714285714287,407.47767857142856,4153.1,1076.5714285714287,407.47767857142856,4257.7,1076.5714285714287,407.47767857142856,4358.5,1076.5714285714287,407.47767857142856,4468.1,1076.5714285714287,407.47767857142856,4573.1,1076.5714285714287,407.47767857142856,4686,1076.5714285714287,407.47767857142856,4786.2,1076.5714285714287,407.47767857142856,4886.2,1076.5714285714287,407.47767857142856,4986.3]","[766.3,766.3,1000,0,-233.7,""error"",""-"",""-"",""no_move"",4228.5,3462,2133,1769.9,325.6,""smooth"",""down"",""down"",""good_move"",6788.4,2559.6,2217.3,4228.8,342.3,""smooth"",""down"",""down"",""good_move"",9556.2,2767.7,2391.6,6788.5,376.1,""smooth"",""down"",""down"",""good_move"",12643.7,3087.2,2719.1,9556.5,368.1,""smooth"",""right"",""right"",""good_move"",15172.4,2528.3,2147.2,12644.1,381.1,""oops"",""right"",""left"",""bad_move"",17980.5,2807.7,2453.9,15172.8,353.8,""oops"",""right"",""right"",""good_move"",20946.6,2965.9,2594.4,17980.7,371.5,""oops"",""right"",""right"",""good_move"",27144.2,6197.4,1990.1,24773.4,380.7,""oops"",""right"",""up"",""bad_move"",34157.1,7012.8,2344.4,31490,322.8,""oops"",""right"",""down"",""good_move"",37420.7,3263.3,2721.7,34157.4,541.6,""oops"",""right"",""up"",""bad_move"",38356.5,935.5,2487.8,37421,-1552.3,""error"",""-"",""-"",""no_move""]","",""
"2628","","<div style=""width:500px;"">
  <p>What determined the result of this run?</p>
  </div>","57","html-slider-response","84","1561864","0.0-10.0-1.8","126","1","2025-07-02 10:20:10","80fe4187154257d5fb01684ea91b68b9","136.226.168.84","Mozilla/5.0 (Windows NT 10.0; Win64; x64) AppleWebKit/537.36 (KHTML, like Gecko) Chrome/137.0.0.0 Safari/537.36","WebKit","Chrome","137.0.0.0","Windows","10.0","https://app.prolific.com/","en-GB,en-US;q=0.9,en;q=0.8","63e51ccb431bed8154fc6aae","683db6dfa200031b80f2a654","6865075aece3b8502bdb444e","63e51ccb431bed8154fc6aae","2025-07-02T10:46:13.705Z","","","","","","AttribQ","","","","","","","","","","","","","","","","","","","","","","","","","","","","","","","","","","","","","","50"
"2023","","<div style=""width:500px;"">
  <p>How much control did you have over the ball?</p>
