"rt","response_timestamp","stimulus","response","trial_type","trial_index","time_elapsed","internal_node_id","run_id","condition","recorded_at","source_code_version","ip","user_agent","device","browser","browser_version","platform","platform_version","referer","accept_language","PROLIFIC_PID","STUDY_ID","SESSION_ID","prolific_id","realtime","view_history","question_order","consent","success","question_id","eventType","responses","item_order","radio_event_ids","radio_event_times","key_event_times","mouse_event_times","straightlining","zigzagging","honeypot","which_type","canvas_config","goals_layout","control_level","trial_number","tutorial_trial_number","trial_start_time","phase1_start_time","phase2_start_time","phase3_start_time","goal_1_value","goal_1_distance","goal_2_value","goal_2_distance","goal_selected","outcome","outcome_total","participant_final_score","participant_initial_score","participant_final_score_prop","goal_choice_rt","allocated_time","allocated_time_remaining","goal_direction","counts","mouse_movements","key_presses","correct","slider_start"
"4227","1751451496475","<p style='font-size:40px;line-height:1.25'><strong>Welcome to the experiment!</strong></p><p style='font-size:1.1em;line-height:1.25'>Thank you for your interest in our experiment! Before you begin, it is important that we obtain your informed consent to participate in the study.</p><p style='font-size:1.1em;line-height:1.25'>On the next screen will be an <strong>information sheet</strong> for you to read. To participate in the study we need you to read this information sheet and the following consent form carefully. If you agree with all the statements, please click the <strong>I agree</strong> button.</p><p style='font-size:1.1em;line-height:1.25'>Press <strong>Next</strong> to read the information sheet.</p>","0","custom-html-button-response","0","4231","0.0-0.0","2","1","2025-07-02 10:18:09","80fe4187154257d5fb01684ea91b68b9","94.134.108.170","Mozilla/5.0 (Windows NT 10.0; Win64; x64) AppleWebKit/537.36 (KHTML, like Gecko) Chrome/138.0.0.0 Safari/537.36","WebKit","Chrome","138.0.0.0","Windows","10.0","https://app.prolific.com/","de-DE,de;q=0.9,en-DE;q=0.8,en;q=0.7,es-ES;q=0.6,es;q=0.5,en-US;q=0.4","646219bb0b91a6f3327e39fb","683db6dfa200031b80f2a654","686507578aa5dd9bc054b4a1","646219bb0b91a6f3327e39fb","2025-07-02T10:18:16.476Z","","","","","","","","","","","","","","","","","","","","","","","","","","","","","","","","","","","","","","","","","","","",""
"3849","","","","instructions","1","8080","0.0-1.0","2","1","2025-07-02 10:18:09","80fe4187154257d5fb01684ea91b68b9","94.134.108.170","Mozilla/5.0 (Windows NT 10.0; Win64; x64) AppleWebKit/537.36 (KHTML, like Gecko) Chrome/138.0.0.0 Safari/537.36","WebKit","Chrome","138.0.0.0","Windows","10.0","https://app.prolific.com/","de-DE,de;q=0.9,en-DE;q=0.8,en;q=0.7,es-ES;q=0.6,es;q=0.5,en-US;q=0.4","646219bb0b91a6f3327e39fb","683db6dfa200031b80f2a654","686507578aa5dd9bc054b4a1","646219bb0b91a6f3327e39fb","","[{""page_index"":0,""viewing_time"":1920},{""page_index"":1,""viewing_time"":1929}]","","","","","","","","","","","","","","","","","","","","","","","","","","","","","","","","","","","","","","","","","","",""
"2106","","","{""Q0"":"""",""Q1"":"""",""Q2"":"""",""Q3"":"""",""Q4"":"""",""Q5"":"""",""Q6"":""I agree""}","survey-multi-choice","2","10187","0.0-2.0","2","1","2025-07-02 10:18:09","80fe4187154257d5fb01684ea91b68b9","94.134.108.170","Mozilla/5.0 (Windows NT 10.0; Win64; x64) AppleWebKit/537.36 (KHTML, like Gecko) Chrome/138.0.0.0 Safari/537.36","WebKit","Chrome","138.0.0.0","Windows","10.0","https://app.prolific.com/","de-DE,de;q=0.9,en-DE;q=0.8,en;q=0.7,es-ES;q=0.6,es;q=0.5,en-US;q=0.4","646219bb0b91a6f3327e39fb","683db6dfa200031b80f2a654","686507578aa5dd9bc054b4a1","646219bb0b91a6f3327e39fb","","","[0,1,2,3,4,5,6]","true","","","","","","","","","","","","","","","","","","","","","","","","","","","","","","","","","","","","","","","","",""
"13864","","","","fullscreen","3","25065","0.0-4.0","2","1","2025-07-02 10:18:09","80fe4187154257d5fb01684ea91b68b9","94.134.108.170","Mozilla/5.0 (Windows NT 10.0; Win64; x64) AppleWebKit/537.36 (KHTML, like Gecko) Chrome/138.0.0.0 Safari/537.36","WebKit","Chrome","138.0.0.0","Windows","10.0","https://app.prolific.com/","de-DE,de;q=0.9,en-DE;q=0.8,en;q=0.7,es-ES;q=0.6,es;q=0.5,en-US;q=0.4","646219bb0b91a6f3327e39fb","683db6dfa200031b80f2a654","686507578aa5dd9bc054b4a1","646219bb0b91a6f3327e39fb","","","","","true","","","","","","","","","","","","","","","","","","","","","","","","","","","","","","","","","","","","","","","",""
"1500","1751451518811"," <p style='font-size:1.1em;line-height:1.25'>Thank you for completing the consent form and closing all other tabs.</p><p style='font-size:1.1em;line-height:1.25'>We will now invite you to fill in some demographic information and questionnaires, before starting the game.<br>This will take about 5 minutes.<br></p><p style='font-size:1.1em;line-height:1.25'>Press the <strong>Next</strong> button to continue.</p>","0","custom-html-button-response","4","26567","0.0-5.0","2","1","2025-07-02 10:18:09","80fe4187154257d5fb01684ea91b68b9","94.134.108.170","Mozilla/5.0 (Windows NT 10.0; Win64; x64) AppleWebKit/537.36 (KHTML, like Gecko) Chrome/138.0.0.0 Safari/537.36","WebKit","Chrome","138.0.0.0","Windows","10.0","https://app.prolific.com/","de-DE,de;q=0.9,en-DE;q=0.8,en;q=0.7,es-ES;q=0.6,es;q=0.5,en-US;q=0.4","646219bb0b91a6f3327e39fb","683db6dfa200031b80f2a654","686507578aa5dd9bc054b4a1","646219bb0b91a6f3327e39fb","2025-07-02T10:18:38.812Z","","","","","","","","","","","","","","","","","","","","","","","","","","","","","","","","","","","","","","","","","","","",""
"2222","","","{""age"":""34""}","survey-text","5","28791","0.0-6.0-0.0","2","1","2025-07-02 10:18:09","80fe4187154257d5fb01684ea91b68b9","94.134.108.170","Mozilla/5.0 (Windows NT 10.0; Win64; x64) AppleWebKit/537.36 (KHTML, like Gecko) Chrome/138.0.0.0 Safari/537.36","WebKit","Chrome","138.0.0.0","Windows","10.0","https://app.prolific.com/","de-DE,de;q=0.9,en-DE;q=0.8,en;q=0.7,es-ES;q=0.6,es;q=0.5,en-US;q=0.4","646219bb0b91a6f3327e39fb","683db6dfa200031b80f2a654","686507578aa5dd9bc054b4a1","646219bb0b91a6f3327e39fb","","","","","","0","demographics","","","","","","","","","","","","","","","","","","","","","","","","","","","","","","","","","","","","","",""
"1804","","","{""gender_identity"":""female/woman""}","survey-multi-choice","6","30595","0.0-6.0-1.0","2","1","2025-07-02 10:18:09","80fe4187154257d5fb01684ea91b68b9","94.134.108.170","Mozilla/5.0 (Windows NT 10.0; Win64; x64) AppleWebKit/537.36 (KHTML, like Gecko) Chrome/138.0.0.0 Safari/537.36","WebKit","Chrome","138.0.0.0","Windows","10.0","https://app.prolific.com/","de-DE,de;q=0.9,en-DE;q=0.8,en;q=0.7,es-ES;q=0.6,es;q=0.5,en-US;q=0.4","646219bb0b91a6f3327e39fb","683db6dfa200031b80f2a654","686507578aa5dd9bc054b4a1","646219bb0b91a6f3327e39fb","","","[0]","","","1","demographics","","","","","","","","","","","","","","","","","","","","","","","","","","","","","","","","","","","","","",""
"1959","","","{""assigned_sex"":""female""}","survey-multi-choice","7","32555","0.0-6.0-2.0","2","1","2025-07-02 10:18:09","80fe4187154257d5fb01684ea91b68b9","94.134.108.170","Mozilla/5.0 (Windows NT 10.0; Win64; x64) AppleWebKit/537.36 (KHTML, like Gecko) Chrome/138.0.0.0 Safari/537.36","WebKit","Chrome","138.0.0.0","Windows","10.0","https://app.prolific.com/","de-DE,de;q=0.9,en-DE;q=0.8,en;q=0.7,es-ES;q=0.6,es;q=0.5,en-US;q=0.4","646219bb0b91a6f3327e39fb","683db6dfa200031b80f2a654","686507578aa5dd9bc054b4a1","646219bb0b91a6f3327e39fb","","","[0]","","","2","demographics","","","","","","","","","","","","","","","","","","","","","","","","","","","","","","","","","","","","","",""
"2807","","","{""menstrual_cycle"":""Yes""}","survey-multi-choice","8","35362","0.0-6.0-3.0","2","1","2025-07-02 10:18:09","80fe4187154257d5fb01684ea91b68b9","94.134.108.170","Mozilla/5.0 (Windows NT 10.0; Win64; x64) AppleWebKit/537.36 (KHTML, like Gecko) Chrome/138.0.0.0 Safari/537.36","WebKit","Chrome","138.0.0.0","Windows","10.0","https://app.prolific.com/","de-DE,de;q=0.9,en-DE;q=0.8,en;q=0.7,es-ES;q=0.6,es;q=0.5,en-US;q=0.4","646219bb0b91a6f3327e39fb","683db6dfa200031b80f2a654","686507578aa5dd9bc054b4a1","646219bb0b91a6f3327e39fb","","","[0]","","","4","demographics","","","","","","","","","","","","","","","","","","","","","","","","","","","","","","","","","","","","","",""
"3081","","","{""education"":""Master's Degree (e.g., MSc)""}","survey-multi-choice","9","38444","0.0-6.0-4.0","2","1","2025-07-02 10:18:09","80fe4187154257d5fb01684ea91b68b9","94.134.108.170","Mozilla/5.0 (Windows NT 10.0; Win64; x64) AppleWebKit/537.36 (KHTML, like Gecko) Chrome/138.0.0.0 Safari/537.36","WebKit","Chrome","138.0.0.0","Windows","10.0","https://app.prolific.com/","de-DE,de;q=0.9,en-DE;q=0.8,en;q=0.7,es-ES;q=0.6,es;q=0.5,en-US;q=0.4","646219bb0b91a6f3327e39fb","683db6dfa200031b80f2a654","686507578aa5dd9bc054b4a1","646219bb0b91a6f3327e39fb","","","[0]","","","5","demographics","","","","","","","","","","","","","","","","","","","","","","","","","","","","","","","","","","","","","",""
"5247","","","{""education"":""Master's Degree (e.g., MSc)""}","survey-multi-choice","10","43692","0.0-6.0-5.0","2","1","2025-07-02 10:18:09","80fe4187154257d5fb01684ea91b68b9","94.134.108.170","Mozilla/5.0 (Windows NT 10.0; Win64; x64) AppleWebKit/537.36 (KHTML, like Gecko) Chrome/138.0.0.0 Safari/537.36","WebKit","Chrome","138.0.0.0","Windows","10.0","https://app.prolific.com/","de-DE,de;q=0.9,en-DE;q=0.8,en;q=0.7,es-ES;q=0.6,es;q=0.5,en-US;q=0.4","646219bb0b91a6f3327e39fb","683db6dfa200031b80f2a654","686507578aa5dd9bc054b4a1","646219bb0b91a6f3327e39fb","2025-07-02T10:18:55.937Z","","[0]","","","6","demographics","","","","","","","","","","","","","","","","","","","","","","","","","","","","","","","","","","","","","",""
"102548","","","{""mental_health_condition"":""Depression"",""mental_health_treatment"":""behavioral therapy"",""psychiatric_medication"":""""}","survey-text","11","146241","0.0-7.0-0.0","2","1","2025-07-02 10:18:09","80fe4187154257d5fb01684ea91b68b9","94.134.108.170","Mozilla/5.0 (Windows NT 10.0; Win64; x64) AppleWebKit/537.36 (KHTML, like Gecko) Chrome/138.0.0.0 Safari/537.36","WebKit","Chrome","138.0.0.0","Windows","10.0","https://app.prolific.com/","de-DE,de;q=0.9,en-DE;q=0.8,en;q=0.7,es-ES;q=0.6,es;q=0.5,en-US;q=0.4","646219bb0b91a6f3327e39fb","683db6dfa200031b80f2a654","686507578aa5dd9bc054b4a1","646219bb0b91a6f3327e39fb","2025-07-02T10:20:38.486Z","","","","","1","mental_health","","","","","","","","","","","","","","","","","","","","","","","","","","","","","","","","","","","","","",""
"4619","","","{""depression_history"":[""Yes""]}","survey-multi-select","12","150862","0.0-7.0-1.0","2","1","2025-07-02 10:18:09","80fe4187154257d5fb01684ea91b68b9","94.134.108.170","Mozilla/5.0 (Windows NT 10.0; Win64; x64) AppleWebKit/537.36 (KHTML, like Gecko) Chrome/138.0.0.0 Safari/537.36","WebKit","Chrome","138.0.0.0","Windows","10.0","https://app.prolific.com/","de-DE,de;q=0.9,en-DE;q=0.8,en;q=0.7,es-ES;q=0.6,es;q=0.5,en-US;q=0.4","646219bb0b91a6f3327e39fb","683db6dfa200031b80f2a654","686507578aa5dd9bc054b4a1","646219bb0b91a6f3327e39fb","","","[0]","","","","mental_health","","","","","","","","","","","","","","","","","","","","","","","","","","","","","","","","","","","","","",""
"9528","","","{""depression_episodes"":""1-2"",""depression_recent"":""More than 1 year ago""}","survey-multi-choice","13","160390","0.0-7.0-2.0-0.0","2","1","2025-07-02 10:18:09","80fe4187154257d5fb01684ea91b68b9","94.134.108.170","Mozilla/5.0 (Windows NT 10.0; Win64; x64) AppleWebKit/537.36 (KHTML, like Gecko) Chrome/138.0.0.0 Safari/537.36","WebKit","Chrome","138.0.0.0","Windows","10.0","https://app.prolific.com/","de-DE,de;q=0.9,en-DE;q=0.8,en;q=0.7,es-ES;q=0.6,es;q=0.5,en-US;q=0.4","646219bb0b91a6f3327e39fb","683db6dfa200031b80f2a654","686507578aa5dd9bc054b4a1","646219bb0b91a6f3327e39fb","2025-07-02T10:20:52.635Z","","[0,1]","","","3","mental_health","","","","","","","","","","","","","","","","","","","","","","","","","","","","","","","","","","","","","",""
"28610.60000000149","","","","survey-template","14","189003","0.0-7.0-3.0","2","1","2025-07-02 10:18:09","80fe4187154257d5fb01684ea91b68b9","94.134.108.170","Mozilla/5.0 (Windows NT 10.0; Win64; x64) AppleWebKit/537.36 (KHTML, like Gecko) Chrome/138.0.0.0 Safari/537.36","WebKit","Chrome","138.0.0.0","Windows","10.0","https://app.prolific.com/","de-DE,de;q=0.9,en-DE;q=0.8,en;q=0.7,es-ES;q=0.6,es;q=0.5,en-US;q=0.4","646219bb0b91a6f3327e39fb","683db6dfa200031b80f2a654","686507578aa5dd9bc054b4a1","646219bb0b91a6f3327e39fb","2025-07-02T10:21:21.248Z","","","","","","ius","{""Q01"":""1"",""Q02"":""3"",""Q03"":""1"",""Q04"":""1"",""Q05"":""2"",""Q06"":""0"",""Q07"":""1"",""Q08"":""0"",""Q09"":""3"",""Q10"":""1"",""Q11"":""1"",""Q12"":""2"",""Q13"":""2""}","[0,1,2,3,4,5,6,7,8,9,10,11,12]","[""Q01"",""Q02"",""Q03"",""Q04"",""Q05"",""Q06"",""Q07"",""Q08"",""Q09"",""Q10"",""Q11"",""Q12"",""Q13""]","[4229.89999999851,6287.39999999851,8168.19999999553,10886.89999999851,11681.39999999851,13424.79999999702,16187.39999999851,16953.10000000149,19820.39999999851,21461.39999999851,23881.79999999702,27299.60000000149,28040.29999999702]","[]","[4229.89999999851,5109,6287.39999999851,8168.19999999553,9005.29999999702,10886.89999999851,11681.39999999851,13424.79999999702,16187.39999999851,16953.10000000149,19820.39999999851,21461.39999999851,23881.79999999702,25585.89999999851,26993.60000000149,27299.60000000149,28040.29999999702,28608.79999999702]","0.46153846153846156","0.3333333333333333","0","","","","","","","","","","","","","","","","","","","","","","","","","","","","",""
"1547","1751451682795","<p style='font-size:1.1em;line-height:1.25'>In the following, we will ask you a few questions relating to your experiences over the past month.<br></p><p style='font-size:1.1em;line-height:1.25'>Press the <strong>Next</strong> button to continue.</p>","0","custom-html-button-response","15","190550","0.0-7.0-4.0","2","1","2025-07-02 10:18:09","80fe4187154257d5fb01684ea91b68b9","94.134.108.170","Mozilla/5.0 (Windows NT 10.0; Win64; x64) AppleWebKit/537.36 (KHTML, like Gecko) Chrome/138.0.0.0 Safari/537.36","WebKit","Chrome","138.0.0.0","Windows","10.0","https://app.prolific.com/","de-DE,de;q=0.9,en-DE;q=0.8,en;q=0.7,es-ES;q=0.6,es;q=0.5,en-US;q=0.4","646219bb0b91a6f3327e39fb","683db6dfa200031b80f2a654","686507578aa5dd9bc054b4a1","646219bb0b91a6f3327e39fb","2025-07-02T10:21:22.796Z","","","","","","","","","","","","","","","","","","","","","","","","","","","","","","","","","","","","","","","","","","","",""
"35147.80000000447","","","","survey-template","16","225700","0.0-7.0-5.0","2","1","2025-07-02 10:18:09","80fe4187154257d5fb01684ea91b68b9","94.134.108.170","Mozilla/5.0 (Windows NT 10.0; Win64; x64) AppleWebKit/537.36 (KHTML, like Gecko) Chrome/138.0.0.0 Safari/537.36","WebKit","Chrome","138.0.0.0","Windows","10.0","https://app.prolific.com/","de-DE,de;q=0.9,en-DE;q=0.8,en;q=0.7,es-ES;q=0.6,es;q=0.5,en-US;q=0.4","646219bb0b91a6f3327e39fb","683db6dfa200031b80f2a654","686507578aa5dd9bc054b4a1","646219bb0b91a6f3327e39fb","2025-07-02T10:21:57.945Z","","","","","","pss","{""Q01"":""1"",""Q02"":""2"",""Q03"":""2"",""Q04"":""2"",""Q05"":""3"",""Q06"":""1"",""Q07"":""1"",""Q08"":""2"",""Q09"":""2"",""Q10"":""0""}","[0,1,2,3,4,5,6,7,8,9]","[""Q01"",""Q01"",""Q02"",""Q03"",""Q04"",""Q05"",""Q06"",""Q07"",""Q08"",""Q09"",""Q10""]","[7255,7903.9000000059605,9925.20000000298,11462.5,15457.5,19039.5,22374.40000000596,25624.30000000447,29856.60000000149,31525.10000000149,34240.10000000149]","[]","[0,7255,7903.9000000059605,9925.20000000298,11462.5,15457.5,19039.5,22374.40000000596,25624.30000000447,28458.90000000596,29856.60000000149,31525.10000000149,34240.10000000149,35145.60000000149]","0.5","0.3333333333333333","0","","","","","","","","","","","","","","","","","","","","","","","","","","","","",""
"1366","1751451719311","<p style='font-size:1.1em;line-height:1.25'>Thank you for your answers! Now we will ask you a few more questions relating to your feelings in the last 24 hours.<br></p><p style='font-size:1.1em;line-height:1.25'>Press the <strong>Next</strong> button to continue.</p>","0","custom-html-button-response","17","227066","0.0-7.0-6.0","2","1","2025-07-02 10:18:09","80fe4187154257d5fb01684ea91b68b9","94.134.108.170","Mozilla/5.0 (Windows NT 10.0; Win64; x64) AppleWebKit/537.36 (KHTML, like Gecko) Chrome/138.0.0.0 Safari/537.36","WebKit","Chrome","138.0.0.0","Windows","10.0","https://app.prolific.com/","de-DE,de;q=0.9,en-DE;q=0.8,en;q=0.7,es-ES;q=0.6,es;q=0.5,en-US;q=0.4","646219bb0b91a6f3327e39fb","683db6dfa200031b80f2a654","686507578aa5dd9bc054b4a1","646219bb0b91a6f3327e39fb","2025-07-02T10:21:59.311Z","","","","","","","","","","","","","","","","","","","","","","","","","","","","","","","","","","","","","","","","","","","",""
"48811.39999999851","","","","survey-template","18","275880","0.0-7.0-7.0","2","1","2025-07-02 10:18:09","80fe4187154257d5fb01684ea91b68b9","94.134.108.170","Mozilla/5.0 (Windows NT 10.0; Win64; x64) AppleWebKit/537.36 (KHTML, like Gecko) Chrome/138.0.0.0 Safari/537.36","WebKit","Chrome","138.0.0.0","Windows","10.0","https://app.prolific.com/","de-DE,de;q=0.9,en-DE;q=0.8,en;q=0.7,es-ES;q=0.6,es;q=0.5,en-US;q=0.4","646219bb0b91a6f3327e39fb","683db6dfa200031b80f2a654","686507578aa5dd9bc054b4a1","646219bb0b91a6f3327e39fb","2025-07-02T10:22:48.125Z","","","","","","drsp","{""Q01"":""0"",""Q02"":""0"",""Q03"":""0"",""Q04"":""1"",""Q05"":""1"",""Q06"":""0"",""Q07"":""1"",""Q08"":""0"",""Q09"":""0"",""Q10"":""3"",""Q11"":""3"",""Q12"":""0"",""Q13"":""0"",""Q14"":""0"",""Q15"":""3"",""Q16"":""1"",""Q17"":""0"",""Q18"":""0"",""Q19"":""0"",""Q20"":""1"",""Q21"":""1""}","[0,1,2,3,4,5,6,7,8,9,10,11,12,13,14,15,16,17,18,19,20]","[""Q01"",""Q02"",""Q03"",""Q04"",""Q04"",""Q05"",""Q06"",""Q07"",""Q07"",""Q08"",""Q09"",""Q10"",""Q11"",""Q12"",""Q13"",""Q14"",""Q15"",""Q15"",""Q16"",""Q17"",""Q18"",""Q19"",""Q20"",""Q21"",""Q21""]","[4387.10000000149,7035.89999999851,7737.70000000298,8553.70000000298,9327.70000000298,12253.60000000149,13026.5,15467.30000000447,16120.80000000447,17455.80000000447,20746.70000000298,21563.39999999851,23660.30000000447,25055.89999999851,25625.5,29028.30000000447,30812.60000000149,32616,35255.70000000298,36057,37941.80000000447,40890.5,44856.70000000298,46987.60000000149,47962.30000000447]","[]","[0,4387.10000000149,5121.89999999851,6048.39999999851,7035.89999999851,7737.70000000298,8553.70000000298,9327.70000000298,11568.89999999851,12253.60000000149,13026.5,15467.30000000447,15889.70000000298,16120.80000000447,17455.80000000447,20746.70000000298,21563.39999999851,22748.80000000447,23660.30000000447,25055.89999999851,25625.5,29028.30000000447,29930.30000000447,30812.60000000149,32616,34278.20000000298,34727.60000000149,35255.70000000298,36057,37941.80000000447,40890.5,44856.70000000298,46987.60000000149,47406.80000000447,47962.30000000447,48808.20000000298]","0.5714285714285714","0.3","0","","","","","","","","","","","","","","","","","","","","","","","","","","","","",""
"8388","","","","survey-template","19","284270","0.0-7.0-8.0","2","1","2025-07-02 10:18:09","80fe4187154257d5fb01684ea91b68b9","94.134.108.170","Mozilla/5.0 (Windows NT 10.0; Win64; x64) AppleWebKit/537.36 (KHTML, like Gecko) Chrome/138.0.0.0 Safari/537.36","WebKit","Chrome","138.0.0.0","Windows","10.0","https://app.prolific.com/","de-DE,de;q=0.9,en-DE;q=0.8,en;q=0.7,es-ES;q=0.6,es;q=0.5,en-US;q=0.4","646219bb0b91a6f3327e39fb","683db6dfa200031b80f2a654","686507578aa5dd9bc054b4a1","646219bb0b91a6f3327e39fb","2025-07-02T10:22:56.515Z","","","","","","stress","{""Q01"":""2"",""Q02"":""3"",""Q03"":""0""}","[0,1,2]","[""Q01"",""Q02"",""Q03""]","[3580.89999999851,7027.89999999851,7766]","[]","[3580.89999999851,7027.89999999851,7766,8387.19999999553]","0.6666666666666666","0","0","","","","","","","","","","","","","","","","","","","","","","","","","","","","",""
"46286","","","","instructions","20","330556","0.0-8.0-0.0","2","1","2025-07-02 10:18:09","80fe4187154257d5fb01684ea91b68b9","94.134.108.170","Mozilla/5.0 (Windows NT 10.0; Win64; x64) AppleWebKit/537.36 (KHTML, like Gecko) Chrome/138.0.0.0 Safari/537.36","WebKit","Chrome","138.0.0.0","Windows","10.0","https://app.prolific.com/","de-DE,de;q=0.9,en-DE;q=0.8,en;q=0.7,es-ES;q=0.6,es;q=0.5,en-US;q=0.4","646219bb0b91a6f3327e39fb","683db6dfa200031b80f2a654","686507578aa5dd9bc054b4a1","646219bb0b91a6f3327e39fb","","[{""page_index"":0,""viewing_time"":12499},{""page_index"":1,""viewing_time"":14428},{""page_index"":2,""viewing_time"":5130},{""page_index"":3,""viewing_time"":14229}]","","","","","","","","","","","","","","","","","","","","","","","","","","","","","","","","","","","","","","","","","","",""
"","","","","ctl-task-cpt","21","358464","0.0-8.0-1.0","2","1","2025-07-02 10:18:09","80fe4187154257d5fb01684ea91b68b9","94.134.108.170","Mozilla/5.0 (Windows NT 10.0; Win64; x64) AppleWebKit/537.36 (KHTML, like Gecko) Chrome/138.0.0.0 Safari/537.36","WebKit","Chrome","138.0.0.0","Windows","10.0","https://app.prolific.com/","de-DE,de;q=0.9,en-DE;q=0.8,en;q=0.7,es-ES;q=0.6,es;q=0.5,en-US;q=0.4","646219bb0b91a6f3327e39fb","683db6dfa200031b80f2a654","686507578aa5dd9bc054b4a1","646219bb0b91a6f3327e39fb","","","","","","","","","","","","","","","","","win-only","2","g1:SE,g2:NW","1","0","1","332543.3","2124.1","6126.4","24901.6","2","4","4","6","2","4","3","3","0","0.022727272727272728","703.2","4000","1630","[""left"",""up""]","{""num_key_presses"":7,""num_perfect"":6,""num_errors"":1,""num_randdir"":0,""num_randdir_good_moves"":0,""num_whilered"":0,""num_whileblue"":0,""num_blue"":0,""num_good_moves"":6}","[545.4285714285714,553.3348214285714,0.3,545.4285714285714,553.3348214285714,101.5,545.4285714285714,553.3348214285714,202.1,545.4285714285714,553.3348214285714,302.1,545.4285714285714,553.3348214285714,402.3,143.42857142857144,136.33482142857144,502.9,104.42857142857143,89.33482142857143,607.8,104.42857142857143,89.33482142857143,715.3,104.42857142857143,89.33482142857143,817.4,104.42857142857143,89.33482142857143,922.1,104.42857142857143,89.33482142857143,1022.1,104.42857142857143,89.33482142857143,1127.4,104.42857142857143,89.33482142857143,1231.3,104.42857142857143,89.33482142857143,1336.8,104.42857142857143,89.33482142857143,1437.2,104.42857142857143,89.33482142857143,1537.5,104.42857142857143,89.33482142857143,1642,104.42857142857143,89.33482142857143,1742.7,104.42857142857143,89.33482142857143,1847.2,104.42857142857143,89.33482142857143,1952.1,104.42857142857143,89.33482142857143,2057.8,104.42857142857143,89.33482142857143,2158.1,104.42857142857143,89.33482142857143,2261.5,104.42857142857143,89.33482142857143,2361.8,104.42857142857143,89.33482142857143,2462.5,104.42857142857143,89.33482142857143,2566.7,104.42857142857143,89.33482142857143,2666.7,104.42857142857143,89.33482142857143,2772.3,104.42857142857143,89.33482142857143,2876.7,104.42857142857143,89.33482142857143,2977.4,104.42857142857143,89.33482142857143,3081.6,104.42857142857143,89.33482142857143,3181.7,104.42857142857143,89.33482142857143,3287,104.42857142857143,89.33482142857143,3387.5,104.42857142857143,89.33482142857143,3487.6,104.42857142857143,89.33482142857143,3592.7,104.42857142857143,89.33482142857143,3697.2,104.42857142857143,89.33482142857143,3801.4,104.42857142857143,89.33482142857143,3901.4]","[1616.2,1616.2,1000,0,616.2,""smooth"",""up"",""up"",""good_move"",1856.4,239.9,3072,1616.5,-2832.1,""error"",""-"",""-"",""no_move"",5878.9,4022.2,2521.9,2859,498,""smooth"",""up"",""up"",""good_move"",9107.6,3228.5,2786.2,5879.1,442.3,""smooth"",""left"",""left"",""good_move"",12630.7,3522.8,3234.4,9107.9,288.4,""smooth"",""left"",""left"",""good_move"",15560.6,2929.7,2609.6,12631,320,""smooth"",""left"",""left"",""good_move"",18662.7,3101.9,2828.7,15560.8,273.2,""smooth"",""up"",""up"",""good_move""]","",""
"7418","","","","instructions","22","365883","0.0-8.0-2.0","2","1","2025-07-02 10:18:09","80fe4187154257d5fb01684ea91b68b9","94.134.108.170","Mozilla/5.0 (Windows NT 10.0; Win64; x64) AppleWebKit/537.36 (KHTML, like Gecko) Chrome/138.0.0.0 Safari/537.36","WebKit","Chrome","138.0.0.0","Windows","10.0","https://app.prolific.com/","de-DE,de;q=0.9,en-DE;q=0.8,en;q=0.7,es-ES;q=0.6,es;q=0.5,en-US;q=0.4","646219bb0b91a6f3327e39fb","683db6dfa200031b80f2a654","686507578aa5dd9bc054b4a1","646219bb0b91a6f3327e39fb","","[{""page_index"":0,""viewing_time"":7418}]","","","","","","","","","","","","","","","","","","","","","","","","","","","","","","","","","","","","","","","","","","",""
"","","","","ctl-task-cpt","23","429282","0.0-8.0-3.0","2","1","2025-07-02 10:18:09","80fe4187154257d5fb01684ea91b68b9","94.134.108.170","Mozilla/5.0 (Windows NT 10.0; Win64; x64) AppleWebKit/537.36 (KHTML, like Gecko) Chrome/138.0.0.0 Safari/537.36","WebKit","Chrome","138.0.0.0","Windows","10.0","https://app.prolific.com/","de-DE,de;q=0.9,en-DE;q=0.8,en;q=0.7,es-ES;q=0.6,es;q=0.5,en-US;q=0.4","646219bb0b91a6f3327e39fb","683db6dfa200031b80f2a654","686507578aa5dd9bc054b4a1","646219bb0b91a6f3327e39fb","","","","","","","","","","","","","","","","","win-only","2","g1:SE,g2:NW","0.35","0","3","367869.4","968.6","4970.8","60391.3","2","4","8","6","2","-8","-10","0","0","0","1079","4000","-3000","[""left"",""up""]","{""num_key_presses"":15,""num_perfect"":5,""num_errors"":2,""num_randdir"":8,""num_randdir_good_moves"":5,""num_whilered"":0,""num_whileblue"":2,""num_blue"":5,""num_good_moves"":10}","[560.4285714285714,563.3348214285714,0.2,560.4285714285714,563.3348214285714,102,560.4285714285714,563.3348214285714,202.5,560.4285714285714,563.3348214285714,302.8,560.4285714285714,563.3348214285714,406.7,560.4285714285714,563.3348214285714,506.7,560.4285714285714,563.3348214285714,607.3,470.42857142857144,462.33482142857144,711.6,231.42857142857144,186.33482142857144,811.7,178.42857142857144,164.33482142857144,911.9,122.42857142857143,154.33482142857144,1017.3,116.42857142857143,144.33482142857144,1117.9,116.42857142857143,144.33482142857144,1222.5,116.42857142857143,144.33482142857144,1327.8,116.42857142857143,144.33482142857144,1433.9,116.42857142857143,144.33482142857144,1537.4,116.42857142857143,144.33482142857144,1638.9,116.42857142857143,144.33482142857144,1742.9,116.42857142857143,144.33482142857144,1846.8,116.42857142857143,144.33482142857144,1952.5,116.42857142857143,144.33482142857144,2052.5,116.42857142857143,144.33482142857144,2157,116.42857142857143,144.33482142857144,2261.9,116.42857142857143,144.33482142857144,2362,116.42857142857143,144.33482142857144,2462.2,116.42857142857143,144.33482142857144,2568,116.42857142857143,144.33482142857144,2671.7,116.42857142857143,144.33482142857144,2772.6,116.42857142857143,144.33482142857144,2873.5,116.42857142857143,144.33482142857144,2976.7,116.42857142857143,144.33482142857144,3076.7,116.42857142857143,144.33482142857144,3177.6,116.42857142857143,144.33482142857144,3277.7,116.42857142857143,144.33482142857144,3382.4,116.42857142857143,144.33482142857144,3486.8,116.42857142857143,144.33482142857144,3586.9,116.42857142857143,144.33482142857144,3687.5,116.42857142857143,144.33482142857144,3792.1,116.42857142857143,144.33482142857144,3897.1,116.42857142857143,144.33482142857144,3997.6]","[1513.4,1513.4,1000.6,0,512.8,""while_blue"",""left"",""down"",""bad_move"",4378.3,2864.6,2535,1513.7,329.6,""smooth"",""left"",""left"",""good_move"",7259.6,2881.1,2584.8,4378.5,296.3,""oops"",""left"",""right"",""bad_move"",10387.8,3128,2835.7,7259.8,292.3,""oops"",""left"",""left"",""good_move"",13328.3,2940.3,2618.5,10388,321.8,""oops"",""up"",""left"",""good_move"",23213,9884.6,2592.6,20194.7,425.7,""oops"",""up"",""up"",""good_move"",25989.9,2776.7,2447.4,23213.2,329.3,""smooth"",""up"",""up"",""good_move"",28430.4,2440.3,2079.5,25990.1,360.8,""smooth"",""up"",""up"",""good_move"",31679.2,3248.6,2933,28430.6,315.6,""oops"",""up"",""down"",""bad_move"",34623.7,2944.3,2674.2,31679.4,270.1,""smooth"",""up"",""up"",""good_move"",41291.8,6667.9,2355.5,38644.4,291.9,""oops"",""left"",""right"",""bad_move"",44060.7,2768.7,2489.7,41292,279.1,""oops"",""left"",""up"",""good_move"",47049.5,2988.6,2703.6,44060.9,285,""while_blue"",""left"",""down"",""bad_move"",50797.5,3747.7,3463.3,47049.8,284.4,""oops"",""left"",""left"",""good_move"",52922.4,2124.7,1871.6,50797.7,253.2,""smooth"",""left"",""left"",""good_move""]","",""
"9935","","","","instructions","24","439218","0.0-8.0-4.0","2","1","2025-07-02 10:18:09","80fe4187154257d5fb01684ea91b68b9","94.134.108.170","Mozilla/5.0 (Windows NT 10.0; Win64; x64) AppleWebKit/537.36 (KHTML, like Gecko) Chrome/138.0.0.0 Safari/537.36","WebKit","Chrome","138.0.0.0","Windows","10.0","https://app.prolific.com/","de-DE,de;q=0.9,en-DE;q=0.8,en;q=0.7,es-ES;q=0.6,es;q=0.5,en-US;q=0.4","646219bb0b91a6f3327e39fb","683db6dfa200031b80f2a654","686507578aa5dd9bc054b4a1","646219bb0b91a6f3327e39fb","","[{""page_index"":0,""viewing_time"":4710},{""page_index"":1,""viewing_time"":5223}]","","","","","","","","","","","","","","","","","","","","","","","","","","","","","","","","","","","","","","","","","","",""
"10342","","","{""green_ball"":[""Ball sometimes shakes and moves in a random direction""]}","survey-multi-select","25","449563","0.0-8.0-5.0-0.0","2","1","2025-07-02 10:18:09","80fe4187154257d5fb01684ea91b68b9","94.134.108.170","Mozilla/5.0 (Windows NT 10.0; Win64; x64) AppleWebKit/537.36 (KHTML, like Gecko) Chrome/138.0.0.0 Safari/537.36","WebKit","Chrome","138.0.0.0","Windows","10.0","https://app.prolific.com/","de-DE,de;q=0.9,en-DE;q=0.8,en;q=0.7,es-ES;q=0.6,es;q=0.5,en-US;q=0.4","646219bb0b91a6f3327e39fb","683db6dfa200031b80f2a654","686507578aa5dd9bc054b4a1","646219bb0b91a6f3327e39fb","","","[0]","","","","quiz","","","","","","","","","","","","","","","","","","","","","","","","","","","","","","","","","","","","","true",""
"1015","","<p align='center'><b>CORRECT!</b> Indeed, the green ball may sometimes shake and move in a random direction.</p>","0","html-button-response","26","450580","0.0-8.0-5.0-1.0","2","1","2025-07-02 10:18:09","80fe4187154257d5fb01684ea91b68b9","94.134.108.170","Mozilla/5.0 (Windows NT 10.0; Win64; x64) AppleWebKit/537.36 (KHTML, like Gecko) Chrome/138.0.0.0 Safari/537.36","WebKit","Chrome","138.0.0.0","Windows","10.0","https://app.prolific.com/","de-DE,de;q=0.9,en-DE;q=0.8,en;q=0.7,es-ES;q=0.6,es;q=0.5,en-US;q=0.4","646219bb0b91a6f3327e39fb","683db6dfa200031b80f2a654","686507578aa5dd9bc054b4a1","646219bb0b91a6f3327e39fb","","","","","","","","","","","","","","","","","","","","","","","","","","","","","","","","","","","","","","","","","","","","",""
"4909","","","{""yellow_ball"":[""Ball doesn‘t move and I get -1 penalty point""]}","survey-multi-select","27","455490","0.0-8.0-6.0-0.0","2","1","2025-07-02 10:18:09","80fe4187154257d5fb01684ea91b68b9","94.134.108.170","Mozilla/5.0 (Windows NT 10.0; Win64; x64) AppleWebKit/537.36 (KHTML, like Gecko) Chrome/138.0.0.0 Safari/537.36","WebKit","Chrome","138.0.0.0","Windows","10.0","https://app.prolific.com/","de-DE,de;q=0.9,en-DE;q=0.8,en;q=0.7,es-ES;q=0.6,es;q=0.5,en-US;q=0.4","646219bb0b91a6f3327e39fb","683db6dfa200031b80f2a654","686507578aa5dd9bc054b4a1","646219bb0b91a6f3327e39fb","","","[0]","","","","quiz","","","","","","","","","","","","","","","","","","","","","","","","","","","","","","","","","","","","","true",""
"785","","<p align='center'><b>CORRECT!</b> Indeed, the yellow ball never moves and you receive a penalty.</p>","0","html-button-response","28","456277","0.0-8.0-6.0-1.0","2","1","2025-07-02 10:18:09","80fe4187154257d5fb01684ea91b68b9","94.134.108.170","Mozilla/5.0 (Windows NT 10.0; Win64; x64) AppleWebKit/537.36 (KHTML, like Gecko) Chrome/138.0.0.0 Safari/537.36","WebKit","Chrome","138.0.0.0","Windows","10.0","https://app.prolific.com/","de-DE,de;q=0.9,en-DE;q=0.8,en;q=0.7,es-ES;q=0.6,es;q=0.5,en-US;q=0.4","646219bb0b91a6f3327e39fb","683db6dfa200031b80f2a654","686507578aa5dd9bc054b4a1","646219bb0b91a6f3327e39fb","","","","","","","","","","","","","","","","","","","","","","","","","","","","","","","","","","","","","","","","","","","","",""
"15234","","","{""blue_ball"":[""Ball always shakes and moves in a random direction""]}","survey-multi-select","29","471512","0.0-8.0-7.0-0.0","2","1","2025-07-02 10:18:09","80fe4187154257d5fb01684ea91b68b9","94.134.108.170","Mozilla/5.0 (Windows NT 10.0; Win64; x64) AppleWebKit/537.36 (KHTML, like Gecko) Chrome/138.0.0.0 Safari/537.36","WebKit","Chrome","138.0.0.0","Windows","10.0","https://app.prolific.com/","de-DE,de;q=0.9,en-DE;q=0.8,en;q=0.7,es-ES;q=0.6,es;q=0.5,en-US;q=0.4","646219bb0b91a6f3327e39fb","683db6dfa200031b80f2a654","686507578aa5dd9bc054b4a1","646219bb0b91a6f3327e39fb","","","[0]","","","","quiz","","","","","","","","","","","","","","","","","","","","","","","","","","","","","","","","","","","","","true",""
"958","","<p align='center'><b>CORRECT!</b> Indeed, the blue ball always shakes and moves in a random direction. Also there is a penalty of -1 point.</p>","0","html-button-response","30","472471","0.0-8.0-7.0-1.0","2","1","2025-07-02 10:18:09","80fe4187154257d5fb01684ea91b68b9","94.134.108.170","Mozilla/5.0 (Windows NT 10.0; Win64; x64) AppleWebKit/537.36 (KHTML, like Gecko) Chrome/138.0.0.0 Safari/537.36","WebKit","Chrome","138.0.0.0","Windows","10.0","https://app.prolific.com/","de-DE,de;q=0.9,en-DE;q=0.8,en;q=0.7,es-ES;q=0.6,es;q=0.5,en-US;q=0.4","646219bb0b91a6f3327e39fb","683db6dfa200031b80f2a654","686507578aa5dd9bc054b4a1","646219bb0b91a6f3327e39fb","","","","","","","","","","","","","","","","","","","","","","","","","","","","","","","","","","","","","","","","","","","","",""
"3439","","","{""bonus"":[""When I reach 50% of points""]}","survey-multi-select","31","475912","0.0-8.0-8.0-0.0","2","1","2025-07-02 10:18:09","80fe4187154257d5fb01684ea91b68b9","94.134.108.170","Mozilla/5.0 (Windows NT 10.0; Win64; x64) AppleWebKit/537.36 (KHTML, like Gecko) Chrome/138.0.0.0 Safari/537.36","WebKit","Chrome","138.0.0.0","Windows","10.0","https://app.prolific.com/","de-DE,de;q=0.9,en-DE;q=0.8,en;q=0.7,es-ES;q=0.6,es;q=0.5,en-US;q=0.4","646219bb0b91a6f3327e39fb","683db6dfa200031b80f2a654","686507578aa5dd9bc054b4a1","646219bb0b91a6f3327e39fb","","","[0]","","","","quiz","","","","","","","","","","","","","","","","","","","","","","","","","","","","","","","","","","","","","true",""
"830","","<p align='center'><b>CORRECT!</b> Indeed, you receive 2 pounds extra when you reach 50% of points.</p>","0","html-button-response","32","476743","0.0-8.0-8.0-1.0","2","1","2025-07-02 10:18:09","80fe4187154257d5fb01684ea91b68b9","94.134.108.170","Mozilla/5.0 (Windows NT 10.0; Win64; x64) AppleWebKit/537.36 (KHTML, like Gecko) Chrome/138.0.0.0 Safari/537.36","WebKit","Chrome","138.0.0.0","Windows","10.0","https://app.prolific.com/","de-DE,de;q=0.9,en-DE;q=0.8,en;q=0.7,es-ES;q=0.6,es;q=0.5,en-US;q=0.4","646219bb0b91a6f3327e39fb","683db6dfa200031b80f2a654","686507578aa5dd9bc054b4a1","646219bb0b91a6f3327e39fb","","","","","","","","","","","","","","","","","","","","","","","","","","","","","","","","","","","","","","","","","","","","",""
"1341","","","","instructions","33","478084","0.0-8.0-9.0","2","1","2025-07-02 10:18:09","80fe4187154257d5fb01684ea91b68b9","94.134.108.170","Mozilla/5.0 (Windows NT 10.0; Win64; x64) AppleWebKit/537.36 (KHTML, like Gecko) Chrome/138.0.0.0 Safari/537.36","WebKit","Chrome","138.0.0.0","Windows","10.0","https://app.prolific.com/","de-DE,de;q=0.9,en-DE;q=0.8,en;q=0.7,es-ES;q=0.6,es;q=0.5,en-US;q=0.4","646219bb0b91a6f3327e39fb","683db6dfa200031b80f2a654","686507578aa5dd9bc054b4a1","646219bb0b91a6f3327e39fb","","[{""page_index"":0,""viewing_time"":1341}]","","","","","","","","","","","","","","","","","","","","","","","","","","","","","","","","","","","","","","","","","","",""
"7245","","<p>Before you start with this game please answer the following three questions yourself. </p>
  <p>Through this game, we measure several aspects of your cognitive performance, such as reaction times, multi-tasking capabilities </p>
  <p>and the ability to assess the situation you are in.</p>
  <p></p>
  <p><b>How good do you usually are in such tasks?</b></p>","78","html-slider-response","34","485330","0.0-9.0-0.0","2","1","2025-07-02 10:18:09","80fe4187154257d5fb01684ea91b68b9","94.134.108.170","Mozilla/5.0 (Windows NT 10.0; Win64; x64) AppleWebKit/537.36 (KHTML, like Gecko) Chrome/138.0.0.0 Safari/537.36","WebKit","Chrome","138.0.0.0","Windows","10.0","https://app.prolific.com/","de-DE,de;q=0.9,en-DE;q=0.8,en;q=0.7,es-ES;q=0.6,es;q=0.5,en-US;q=0.4","646219bb0b91a6f3327e39fb","683db6dfa200031b80f2a654","686507578aa5dd9bc054b4a1","646219bb0b91a6f3327e39fb","2025-07-02T10:26:17.575Z","","","","","","PreSkillQ","","","","","","","","","","","","","","","","","","","","","","","","","","","","","","","","","","","","","","50"
"2789","","<div style=""width:500px;"">
  <p>How well do you think you will perform in this task compared to other participants?</p>
  </div>","64","html-slider-response","35","488120","0.0-9.0-1.0","2","1","2025-07-02 10:18:09","80fe4187154257d5fb01684ea91b68b9","94.134.108.170","Mozilla/5.0 (Windows NT 10.0; Win64; x64) AppleWebKit/537.36 (KHTML, like Gecko) Chrome/138.0.0.0 Safari/537.36","WebKit","Chrome","138.0.0.0","Windows","10.0","https://app.prolific.com/","de-DE,de;q=0.9,en-DE;q=0.8,en;q=0.7,es-ES;q=0.6,es;q=0.5,en-US;q=0.4","646219bb0b91a6f3327e39fb","683db6dfa200031b80f2a654","686507578aa5dd9bc054b4a1","646219bb0b91a6f3327e39fb","2025-07-02T10:26:20.365Z","","","","","","PrePerfQ","","","","","","","","","","","","","","","","","","","","","","","","","","","","","","","","","","","","","","50"
"2628","","<div style=""width:500px;"">
  <p>What best describes how you currently feel?</p>
  </div>","61","html-slider-response","36","490749","0.0-9.0-2.0","2","1","2025-07-02 10:18:09","80fe4187154257d5fb01684ea91b68b9","94.134.108.170","Mozilla/5.0 (Windows NT 10.0; Win64; x64) AppleWebKit/537.36 (KHTML, like Gecko) Chrome/138.0.0.0 Safari/537.36","WebKit","Chrome","138.0.0.0","Windows","10.0","https://app.prolific.com/","de-DE,de;q=0.9,en-DE;q=0.8,en;q=0.7,es-ES;q=0.6,es;q=0.5,en-US;q=0.4","646219bb0b91a6f3327e39fb","683db6dfa200031b80f2a654","686507578aa5dd9bc054b4a1","646219bb0b91a6f3327e39fb","2025-07-02T10:26:22.994Z","","","","","","PreMotivationQ","","","","","","","","","","","","","","","","","","","","","","","","","","","","","","","","","","","","","","50"
"","","","","ctl-task-cpt","37","528157","0.0-10.0-0.0","2","1","2025-07-02 10:18:09","80fe4187154257d5fb01684ea91b68b9","94.134.108.170","Mozilla/5.0 (Windows NT 10.0; Win64; x64) AppleWebKit/537.36 (KHTML, like Gecko) Chrome/138.0.0.0 Safari/537.36","WebKit","Chrome","138.0.0.0","Windows","10.0","https://app.prolific.com/","de-DE,de;q=0.9,en-DE;q=0.8,en;q=0.7,es-ES;q=0.6,es;q=0.5,en-US;q=0.4","646219bb0b91a6f3327e39fb","683db6dfa200031b80f2a654","686507578aa5dd9bc054b4a1","646219bb0b91a6f3327e39fb","2025-07-02T10:27:00.402Z","","","","","","","","","","","","","","","","win-only","2","g1:SE,g2:NW","1","1","0","492736.5","1219.3","6220.4","34390.7","1","4","8","6","2","8","8","8","0","0.06060606060606061","671.5","3000","1350","[""left"",""up""]","{""num_key_presses"":6,""num_perfect"":6,""num_errors"":0,""num_randdir"":0,""num_randdir_good_moves"":0,""num_whilered"":0,""num_whileblue"":0,""num_blue"":4,""num_good_moves"":6}","[561.4285714285714,556.3348214285714,0.4,561.4285714285714,556.3348214285714,101,561.4285714285714,556.3348214285714,201.6,557.4285714285714,571.3348214285714,306.7,459.42857142857144,506.33482142857144,412.7,191.42857142857144,214.33482142857144,516.9,132.42857142857144,161.33482142857144,618.1,132.42857142857144,161.33482142857144,722,132.42857142857144,161.33482142857144,826.7,132.42857142857144,161.33482142857144,931.8,132.42857142857144,161.33482142857144,1033,132.42857142857144,161.33482142857144,1136,132.42857142857144,161.33482142857144,1238,132.42857142857144,161.33482142857144,1341.2,132.42857142857144,161.33482142857144,1442.5,132.42857142857144,161.33482142857144,1546.8,132.42857142857144,161.33482142857144,1651.1,132.42857142857144,161.33482142857144,1751.1,132.42857142857144,161.33482142857144,1851.1,132.42857142857144,161.33482142857144,1952,132.42857142857144,161.33482142857144,2056.5,132.42857142857144,161.33482142857144,2156.6,132.42857142857144,161.33482142857144,2256.7,132.42857142857144,161.33482142857144,2361.1,132.42857142857144,161.33482142857144,2461.9,132.42857142857144,161.33482142857144,2566.3,132.42857142857144,161.33482142857144,2666.8,132.42857142857144,161.33482142857144,2767.2,132.42857142857144,161.33482142857144,2871.6,132.42857142857144,161.33482142857144,2976.7,132.42857142857144,161.33482142857144,3076.9,132.42857142857144,161.33482142857144,3181.9,132.42857142857144,161.33482142857144,3286.6,132.42857142857144,161.33482142857144,3391.5,132.42857142857144,161.33482142857144,3496.4,132.42857142857144,161.33482142857144,3596.6,132.42857142857144,161.33482142857144,3697.6,132.42857142857144,161.33482142857144,3801.4,132.42857142857144,161.33482142857144,3906.2,132.42857142857144,161.33482142857144,4007.7,132.42857142857144,161.33482142857144,4112.1,132.42857142857144,161.33482142857144,4216.9,132.42857142857144,161.33482142857144,4316.9,132.42857142857144,161.33482142857144,4417,132.42857142857144,161.33482142857144,4521.5,132.42857142857144,161.33482142857144,4626.9,132.42857142857144,161.33482142857144,4727.7,132.42857142857144,161.33482142857144,4831.2,132.42857142857144,161.33482142857144,4932.9]","[1245.1,1245.1,1000,0,245.1,""smooth"",""left"",""left"",""good_move"",3636.8,2391.3,2135.5,1245.5,255.8,""smooth"",""left"",""left"",""good_move"",5878.1,2241.1,1987.4,3637,253.7,""smooth"",""left"",""left"",""good_move"",11766.7,5888.3,2427.3,9075.5,263.9,""smooth"",""up"",""up"",""good_move"",22289,10521.8,2788.9,19145.1,355,""smooth"",""up"",""up"",""good_move"",28065.9,5776.7,1837.8,25915.8,312.3,""smooth"",""up"",""up"",""good_move""]","",""
"3624","","<div style=""width:500px;"">
  <p>What determined the result of this run?</p>
  </div>","100","html-slider-response","38","531782","0.0-10.0-1.0","2","1","2025-07-02 10:18:09","80fe4187154257d5fb01684ea91b68b9","94.134.108.170","Mozilla/5.0 (Windows NT 10.0; Win64; x64) AppleWebKit/537.36 (KHTML, like Gecko) Chrome/138.0.0.0 Safari/537.36","WebKit","Chrome","138.0.0.0","Windows","10.0","https://app.prolific.com/","de-DE,de;q=0.9,en-DE;q=0.8,en;q=0.7,es-ES;q=0.6,es;q=0.5,en-US;q=0.4","646219bb0b91a6f3327e39fb","683db6dfa200031b80f2a654","686507578aa5dd9bc054b4a1","646219bb0b91a6f3327e39fb","2025-07-02T10:27:04.027Z","","","","","","AttribQ","","","","","","","","","","","","","","","","","","","","","","","","","","","","","","","","","","","","","","50"
"2516","","<div style=""width:500px;"">
  <p>How much control did you have over the ball?</p>
  </div>","100","html-slider-response","39","534300","0.0-10.0-2.0","2","1","2025-07-02 10:18:09","80fe4187154257d5fb01684ea91b68b9","94.134.108.170","Mozilla/5.0 (Windows NT 10.0; Win64; x64) AppleWebKit/537.36 (KHTML, like Gecko) Chrome/138.0.0.0 Safari/537.36","WebKit","Chrome","138.0.0.0","Windows","10.0","https://app.prolific.com/","de-DE,de;q=0.9,en-DE;q=0.8,en;q=0.7,es-ES;q=0.6,es;q=0.5,en-US;q=0.4","646219bb0b91a6f3327e39fb","683db6dfa200031b80f2a654","686507578aa5dd9bc054b4a1","646219bb0b91a6f3327e39fb","2025-07-02T10:27:06.545Z","","","","","","ControlQ","","","","","","","","","","","","","","","","","","","","","","","","","","","","","","","","","","","","","","50"
"5725","","<div style=""width:500px;"">
  <p>How would you describe your current emotional state?</p>
  </div>","57","html-slider-response","40","540026","0.0-10.0-3.0","2","1","2025-07-02 10:18:09","80fe4187154257d5fb01684ea91b68b9","94.134.108.170","Mozilla/5.0 (Windows NT 10.0; Win64; x64) AppleWebKit/537.36 (KHTML, like Gecko) Chrome/138.0.0.0 Safari/537.36","WebKit","Chrome","138.0.0.0","Windows","10.0","https://app.prolific.com/","de-DE,de;q=0.9,en-DE;q=0.8,en;q=0.7,es-ES;q=0.6,es;q=0.5,en-US;q=0.4","646219bb0b91a6f3327e39fb","683db6dfa200031b80f2a654","686507578aa5dd9bc054b4a1","646219bb0b91a6f3327e39fb","2025-07-02T10:27:12.271Z","","","","","","StressQ","","","","","","","","","","","","","","","","","","","","","","","","","","","","","","","","","","","","","","50"
"2934","","<div style=""width:500px;"">
  <p>What best describes how you currently feel?</p>
  </div>","77","html-slider-response","41","542961","0.0-10.0-4.0","2","1","2025-07-02 10:18:09","80fe4187154257d5fb01684ea91b68b9","94.134.108.170","Mozilla/5.0 (Windows NT 10.0; Win64; x64) AppleWebKit/537.36 (KHTML, like Gecko) Chrome/138.0.0.0 Safari/537.36","WebKit","Chrome","138.0.0.0","Windows","10.0","https://app.prolific.com/","de-DE,de;q=0.9,en-DE;q=0.8,en;q=0.7,es-ES;q=0.6,es;q=0.5,en-US;q=0.4","646219bb0b91a6f3327e39fb","683db6dfa200031b80f2a654","686507578aa5dd9bc054b4a1","646219bb0b91a6f3327e39fb","2025-07-02T10:27:15.206Z","","","","","","MotivationQ","","","","","","","","","","","","","","","","","","","","","","","","","","","","","","","","","","","","","","50"
"","","","","ctl-task-cpt","42","568760","0.0-10.0-0.1","2","1","2025-07-02 10:18:09","80fe4187154257d5fb01684ea91b68b9","94.134.108.170","Mozilla/5.0 (Windows NT 10.0; Win64; x64) AppleWebKit/537.36 (KHTML, like Gecko) Chrome/138.0.0.0 Safari/537.36","WebKit","Chrome","138.0.0.0","Windows","10.0","https://app.prolific.com/","de-DE,de;q=0.9,en-DE;q=0.8,en;q=0.7,es-ES;q=0.6,es;q=0.5,en-US;q=0.4","646219bb0b91a6f3327e39fb","683db6dfa200031b80f2a654","686507578aa5dd9bc054b4a1","646219bb0b91a6f3327e39fb","2025-07-02T10:27:41.005Z","","","","","","","","","","","","","","","","win-only","2","g1:SE,g2:NW","0.9","2","0","544948.1","1096","6096.6","22780.3","1","4","4","6","2","4","4","12","8","0.09090909090909091","1141","3000","1150","[""left"",""up""]","{""num_key_presses"":6,""num_perfect"":6,""num_errors"":0,""num_randdir"":0,""num_randdir_good_moves"":0,""num_whilered"":0,""num_whileblue"":0,""num_blue"":0,""num_good_moves"":6}","[560.4285714285714,562.3348214285714,0.3,560.4285714285714,562.3348214285714,100.9,555.4285714285714,564.3348214285714,204.8,554.4285714285714,564.3348214285714,305.7,552.4285714285714,570.3348214285714,406.3,555.4285714285714,585.3348214285714,509.4,557.4285714285714,588.3348214285714,615.3,506.42857142857144,544.3348214285714,719.7,244.42857142857144,304.33482142857144,819.9,201.42857142857144,264.33482142857144,920.5,145.42857142857144,200.33482142857144,1020.8,111.42857142857143,121.33482142857143,1125.2,111.42857142857143,116.33482142857143,1236.3,113.42857142857143,119.33482142857143,1340.1,113.42857142857143,119.33482142857143,1444.7,113.42857142857143,119.33482142857143,1545.1,113.42857142857143,119.33482142857143,1645.6,113.42857142857143,119.33482142857143,1749.7,113.42857142857143,119.33482142857143,1851.9,113.42857142857143,119.33482142857143,1954.8,113.42857142857143,119.33482142857143,2055.4,113.42857142857143,119.33482142857143,2159.3,113.42857142857143,119.33482142857143,2260,113.42857142857143,119.33482142857143,2360,113.42857142857143,119.33482142857143,2460.3,113.42857142857143,119.33482142857143,2564.9,113.42857142857143,119.33482142857143,2670.7,113.42857142857143,119.33482142857143,2775.1,113.42857142857143,119.33482142857143,2879.8,113.42857142857143,119.33482142857143,2981.2,113.42857142857143,119.33482142857143,3084.9,113.42857142857143,119.33482142857143,3190.4,113.42857142857143,119.33482142857143,3290.7,113.42857142857143,119.33482142857143,3394.6,113.42857142857143,119.33482142857143,3496.3,113.42857142857143,119.33482142857143,3600.5,113.42857142857143,119.33482142857143,3705.4,113.42857142857143,119.33482142857143,3809.7,113.42857142857143,119.33482142857143,3909.8,113.42857142857143,119.33482142857143,4010.4,113.42857142857143,119.33482142857143,4115.4,113.42857142857143,119.33482142857143,4216.2,113.42857142857143,119.33482142857143,4319.6,113.42857142857143,119.33482142857143,4424.8,113.42857142857143,119.33482142857143,4530.1,113.42857142857143,119.33482142857143,4635.2,113.42857142857143,119.33482142857143,4740.2,113.42857142857143,119.33482142857143,4845.2,113.42857142857143,119.33482142857143,4949.7]","[1288.2,1288.2,1000,0,288.2,""smooth"",""left"",""left"",""good_move"",4823.1,3534.6,3231.4,1288.5,303.2,""smooth"",""left"",""left"",""good_move"",7624.1,2800.9,2429.5,4823.2,371.4,""smooth"",""left"",""left"",""good_move"",10291.2,2666.9,2370.5,7624.3,296.4,""smooth"",""up"",""up"",""good_move"",13417.1,3125.6,2807.1,10291.5,318.5,""smooth"",""up"",""up"",""good_move"",16591.9,3174.7,2868.2,13417.2,306.5,""smooth"",""up"",""up"",""good_move""]","",""
"2772","","<div style=""width:500px;"">
  <p>What determined the result of this run?</p>
  </div>","100","html-slider-response","43","571533","0.0-10.0-1.1","2","1","2025-07-02 10:18:09","80fe4187154257d5fb01684ea91b68b9","94.134.108.170","Mozilla/5.0 (Windows NT 10.0; Win64; x64) AppleWebKit/537.36 (KHTML, like Gecko) Chrome/138.0.0.0 Safari/537.36","WebKit","Chrome","138.0.0.0","Windows","10.0","https://app.prolific.com/","de-DE,de;q=0.9,en-DE;q=0.8,en;q=0.7,es-ES;q=0.6,es;q=0.5,en-US;q=0.4","646219bb0b91a6f3327e39fb","683db6dfa200031b80f2a654","686507578aa5dd9bc054b4a1","646219bb0b91a6f3327e39fb","2025-07-02T10:27:43.778Z","","","","","","AttribQ","","","","","","","","","","","","","","","","","","","","","","","","","","","","","","","","","","","","","","50"
"1953","","<div style=""width:500px;"">
  <p>How much control did you have over the ball?</p>
  </div>","100","html-slider-response","44","573488","0.0-10.0-2.1","2","1","2025-07-02 10:18:09","80fe4187154257d5fb01684ea91b68b9","94.134.108.170","Mozilla/5.0 (Windows NT 10.0; Win64; x64) AppleWebKit/537.36 (KHTML, like Gecko) Chrome/138.0.0.0 Safari/537.36","WebKit","Chrome","138.0.0.0","Windows","10.0","https://app.prolific.com/","de-DE,de;q=0.9,en-DE;q=0.8,en;q=0.7,es-ES;q=0.6,es;q=0.5,en-US;q=0.4","646219bb0b91a6f3327e39fb","683db6dfa200031b80f2a654","686507578aa5dd9bc054b4a1","646219bb0b91a6f3327e39fb","2025-07-02T10:27:45.733Z","","","","","","ControlQ","","","","","","","","","","","","","","","","","","","","","","","","","","","","","","","","","","","","","","50"
"3368","","<div style=""width:500px;"">
  <p>How would you describe your current emotional state?</p>
  </div>","57","html-slider-response","45","576857","0.0-10.0-3.1","2","1","2025-07-02 10:18:09","80fe4187154257d5fb01684ea91b68b9","94.134.108.170","Mozilla/5.0 (Windows NT 10.0; Win64; x64) AppleWebKit/537.36 (KHTML, like Gecko) Chrome/138.0.0.0 Safari/537.36","WebKit","Chrome","138.0.0.0","Windows","10.0","https://app.prolific.com/","de-DE,de;q=0.9,en-DE;q=0.8,en;q=0.7,es-ES;q=0.6,es;q=0.5,en-US;q=0.4","646219bb0b91a6f3327e39fb","683db6dfa200031b80f2a654","686507578aa5dd9bc054b4a1","646219bb0b91a6f3327e39fb","2025-07-02T10:27:49.102Z","","","","","","StressQ","","","","","","","","","","","","","","","","","","","","","","","","","","","","","","","","","","","","","","50"
"2735","","<div style=""width:500px;"">
  <p>What best describes how you currently feel?</p>
  </div>","86","html-slider-response","46","579593","0.0-10.0-4.1","2","1","2025-07-02 10:18:09","80fe4187154257d5fb01684ea91b68b9","94.134.108.170","Mozilla/5.0 (Windows NT 10.0; Win64; x64) AppleWebKit/537.36 (KHTML, like Gecko) Chrome/138.0.0.0 Safari/537.36","WebKit","Chrome","138.0.0.0","Windows","10.0","https://app.prolific.com/","de-DE,de;q=0.9,en-DE;q=0.8,en;q=0.7,es-ES;q=0.6,es;q=0.5,en-US;q=0.4","646219bb0b91a6f3327e39fb","683db6dfa200031b80f2a654","686507578aa5dd9bc054b4a1","646219bb0b91a6f3327e39fb","2025-07-02T10:27:51.838Z","","","","","","MotivationQ","","","","","","","","","","","","","","","","","","","","","","","","","","","","","","","","","","","","","","50"
"","","","","ctl-task-cpt","47","619853","0.0-10.0-0.2","2","1","2025-07-02 10:18:09","80fe4187154257d5fb01684ea91b68b9","94.134.108.170","Mozilla/5.0 (Windows NT 10.0; Win64; x64) AppleWebKit/537.36 (KHTML, like Gecko) Chrome/138.0.0.0 Safari/537.36","WebKit","Chrome","138.0.0.0","Windows","10.0","https://app.prolific.com/","de-DE,de;q=0.9,en-DE;q=0.8,en;q=0.7,es-ES;q=0.6,es;q=0.5,en-US;q=0.4","646219bb0b91a6f3327e39fb","683db6dfa200031b80f2a654","686507578aa5dd9bc054b4a1","646219bb0b91a6f3327e39fb","2025-07-02T10:28:32.099Z","","","","","","","","","","","","","","","","win-only","1","g1:NE,g2:SW","0.8","3","0","581579.7","1034.9","6036","37241.5","1","4","4","6","2","4","4","16","12","0.12121212121212122","1384.7","3000","1040","[""down"",""left""]","{""num_key_presses"":6,""num_perfect"":5,""num_errors"":0,""num_randdir"":1,""num_randdir_good_moves"":1,""num_whilered"":0,""num_whileblue"":0,""num_blue"":4,""num_good_moves"":6}","[563.4285714285714,562.3348214285714,0.3,563.4285714285714,562.3348214285714,100.6,563.4285714285714,562.3348214285714,200.9,563.4285714285714,564.3348214285714,301.1,563.4285714285714,564.3348214285714,401.3,563.4285714285714,564.3348214285714,501.3,563.4285714285714,564.3348214285714,607,563.4285714285714,564.3348214285714,710.8,563.4285714285714,564.3348214285714,812.4,460.42857142857144,589.3348214285714,912.5,352.42857142857144,802.3348214285714,1012.7,221.42857142857144,876.3348214285714,1116,47.42857142857143,938.3348214285714,1221.5,97.42857142857143,974.3348214285714,1326,119.42857142857143,972.3348214285714,1430.7,119.42857142857143,972.3348214285714,1536.1,120.42857142857143,972.3348214285714,1640.4,120.42857142857143,972.3348214285714,1740.4,120.42857142857143,972.3348214285714,1841.4,120.42857142857143,972.3348214285714,1947.6,120.42857142857143,972.3348214285714,2048.2,120.42857142857143,972.3348214285714,2151.4,120.42857142857143,972.3348214285714,2256.5,120.42857142857143,972.3348214285714,2362.5,120.42857142857143,972.3348214285714,2463.4,120.42857142857143,972.3348214285714,2566.4,120.42857142857143,972.3348214285714,2671.2,120.42857142857143,972.3348214285714,2771.2,120.42857142857143,972.3348214285714,2871.3,120.42857142857143,972.3348214285714,2975.5,120.42857142857143,972.3348214285714,3076.7,120.42857142857143,972.3348214285714,3177.5,120.42857142857143,972.3348214285714,3283.9,120.42857142857143,972.3348214285714,3385.9,120.42857142857143,972.3348214285714,3486.2,120.42857142857143,972.3348214285714,3590.8,120.42857142857143,972.3348214285714,3690.8,120.42857142857143,972.3348214285714,3791,120.42857142857143,972.3348214285714,3892.5,120.42857142857143,972.3348214285714,3996.6,120.42857142857143,972.3348214285714,4099.4,120.42857142857143,972.3348214285714,4200.8,120.42857142857143,972.3348214285714,4301.7,120.42857142857143,972.3348214285714,4401.7,120.42857142857143,972.3348214285714,4502.3,120.42857142857143,972.3348214285714,4605.6,120.42857142857143,972.3348214285714,4706.2,120.42857142857143,972.3348214285714,4806.3,120.42857142857143,972.3348214285714,4906.4]","[1295.8,1295.8,1000,0,295.8,""oops"",""down"",""down"",""good_move"",7902,6605.7,2685.6,4925.1,291.3,""smooth"",""left"",""left"",""good_move"",10398.2,2496,2114.2,7902.2,381.8,""smooth"",""left"",""left"",""good_move"",17152.6,6754.2,3111.9,13721.1,319.6,""smooth"",""down"",""down"",""good_move"",27408.8,10256,2880.6,24191.3,336.9,""smooth"",""down"",""down"",""good_move"",31120.7,3711.8,3335.5,27408.9,376.3,""smooth"",""left"",""left"",""good_move""]","",""
"2526","","<div style=""width:500px;"">
  <p>What determined the result of this run?</p>
  </div>","100","html-slider-response","48","622381","0.0-10.0-1.2","2","1","2025-07-02 10:18:09","80fe4187154257d5fb01684ea91b68b9","94.134.108.170","Mozilla/5.0 (Windows NT 10.0; Win64; x64) AppleWebKit/537.36 (KHTML, like Gecko) Chrome/138.0.0.0 Safari/537.36","WebKit","Chrome","138.0.0.0","Windows","10.0","https://app.prolific.com/","de-DE,de;q=0.9,en-DE;q=0.8,en;q=0.7,es-ES;q=0.6,es;q=0.5,en-US;q=0.4","646219bb0b91a6f3327e39fb","683db6dfa200031b80f2a654","686507578aa5dd9bc054b4a1","646219bb0b91a6f3327e39fb","2025-07-02T10:28:34.626Z","","","","","","AttribQ","","","","","","","","","","","","","","","","","","","","","","","","","","","","","","","","","","","","","","50"
"1796","","<div style=""width:500px;"">
  <p>How much control did you have over the ball?</p>
  </div>","100","html-slider-response","49","624178","0.0-10.0-2.2","2","1","2025-07-02 10:18:09","80fe4187154257d5fb01684ea91b68b9","94.134.108.170","Mozilla/5.0 (Windows NT 10.0; Win64; x64) AppleWebKit/537.36 (KHTML, like Gecko) Chrome/138.0.0.0 Safari/537.36","WebKit","Chrome","138.0.0.0","Windows","10.0","https://app.prolific.com/","de-DE,de;q=0.9,en-DE;q=0.8,en;q=0.7,es-ES;q=0.6,es;q=0.5,en-US;q=0.4","646219bb0b91a6f3327e39fb","683db6dfa200031b80f2a654","686507578aa5dd9bc054b4a1","646219bb0b91a6f3327e39fb","2025-07-02T10:28:36.423Z","","","","","","ControlQ","","","","","","","","","","","","","","","","","","","","","","","","","","","","","","","","","","","","","","50"
"2845","","<div style=""width:500px;"">
  <p>How would you describe your current emotional state?</p>
  </div>","61","html-slider-response","50","627026","0.0-10.0-3.2","2","1","2025-07-02 10:18:09","80fe4187154257d5fb01684ea91b68b9","94.134.108.170","Mozilla/5.0 (Windows NT 10.0; Win64; x64) AppleWebKit/537.36 (KHTML, like Gecko) Chrome/138.0.0.0 Safari/537.36","WebKit","Chrome","138.0.0.0","Windows","10.0","https://app.prolific.com/","de-DE,de;q=0.9,en-DE;q=0.8,en;q=0.7,es-ES;q=0.6,es;q=0.5,en-US;q=0.4","646219bb0b91a6f3327e39fb","683db6dfa200031b80f2a654","686507578aa5dd9bc054b4a1","646219bb0b91a6f3327e39fb","2025-07-02T10:28:39.272Z","","","","","","StressQ","","","","","","","","","","","","","","","","","","","","","","","","","","","","","","","","","","","","","","50"
"2390","","<div style=""width:500px;"">
  <p>What best describes how you currently feel?</p>
  </div>","85","html-slider-response","51","629419","0.0-10.0-4.2","2","1","2025-07-02 10:18:09","80fe4187154257d5fb01684ea91b68b9","94.134.108.170","Mozilla/5.0 (Windows NT 10.0; Win64; x64) AppleWebKit/537.36 (KHTML, like Gecko) Chrome/138.0.0.0 Safari/537.36","WebKit","Chrome","138.0.0.0","Windows","10.0","https://app.prolific.com/","de-DE,de;q=0.9,en-DE;q=0.8,en;q=0.7,es-ES;q=0.6,es;q=0.5,en-US;q=0.4","646219bb0b91a6f3327e39fb","683db6dfa200031b80f2a654","686507578aa5dd9bc054b4a1","646219bb0b91a6f3327e39fb","2025-07-02T10:28:41.664Z","","","","","","MotivationQ","","","","","","","","","","","","","","","","","","","","","","","","","","","","","","","","","","","","","","50"
"","","","","ctl-task-cpt","52","674434","0.0-10.0-0.3","2","1","2025-07-02 10:18:09","80fe4187154257d5fb01684ea91b68b9","94.134.108.170","Mozilla/5.0 (Windows NT 10.0; Win64; x64) AppleWebKit/537.36 (KHTML, like Gecko) Chrome/138.0.0.0 Safari/537.36","WebKit","Chrome","138.0.0.0","Windows","10.0","https://app.prolific.com/","de-DE,de;q=0.9,en-DE;q=0.8,en;q=0.7,es-ES;q=0.6,es;q=0.5,en-US;q=0.4","646219bb0b91a6f3327e39fb","683db6dfa200031b80f2a654","686507578aa5dd9bc054b4a1","646219bb0b91a6f3327e39fb","2025-07-02T10:29:26.679Z","","","","","","","","","","","","","","","","win-only","3","g1:SW,g2:NE","0.7","4","0","631406","1065.7","6066.5","41999.1","1","4","8","6","2","-8","-8","8","16","0.06060606060606061","747.8","3000","-2990","[""up"",""right""]","{""num_key_presses"":10,""num_perfect"":7,""num_errors"":0,""num_randdir"":3,""num_randdir_good_moves"":0,""num_whilered"":0,""num_whileblue"":0,""num_blue"":2,""num_good_moves"":7}","[559.4285714285714,562.3348214285714,0.5,559.4285714285714,562.3348214285714,100.7,559.4285714285714,562.3348214285714,200.8,555.4285714285714,572.3348214285714,308.6,575.4285714285714,586.3348214285714,409.7,888.4285714285714,250.33482142857144,515.4,972.4285714285714,102.33482142857143,619.5,996.4285714285714,76.33482142857143,722.7,996.4285714285714,76.33482142857143,824.5,996.4285714285714,76.33482142857143,925,996.4285714285714,76.33482142857143,1030.3,996.4285714285714,76.33482142857143,1130.4,996.4285714285714,76.33482142857143,1230.5,996.4285714285714,76.33482142857143,1334.6,996.4285714285714,76.33482142857143,1437.4,996.4285714285714,76.33482142857143,1540.1,996.4285714285714,76.33482142857143,1641.3,996.4285714285714,76.33482142857143,1744.8,996.4285714285714,76.33482142857143,1845.5,996.4285714285714,76.33482142857143,1951,996.4285714285714,76.33482142857143,2051.2,996.4285714285714,76.33482142857143,2154.9,996.4285714285714,76.33482142857143,2255.5,996.4285714285714,76.33482142857143,2360.1,996.4285714285714,76.33482142857143,2460.8,996.4285714285714,76.33482142857143,2564.6,996.4285714285714,76.33482142857143,2665.2,996.4285714285714,76.33482142857143,2769.7,996.4285714285714,76.33482142857143,2874.7,996.4285714285714,76.33482142857143,2980.6,996.4285714285714,76.33482142857143,3087.6,996.4285714285714,76.33482142857143,3190.2,996.4285714285714,76.33482142857143,3292.2,996.4285714285714,76.33482142857143,3395.3,996.4285714285714,76.33482142857143,3495.4,996.4285714285714,76.33482142857143,3596.1,996.4285714285714,76.33482142857143,3699.9,996.4285714285714,76.33482142857143,3806.8,996.4285714285714,76.33482142857143,3910.3,996.4285714285714,76.33482142857143,4014.7,996.4285714285714,76.33482142857143,4116,996.4285714285714,76.33482142857143,4222.6,996.4285714285714,76.33482142857143,4325.5,996.4285714285714,76.33482142857143,4430.4,996.4285714285714,76.33482142857143,4535.5,996.4285714285714,76.33482142857143,4637.8,996.4285714285714,76.33482142857143,4739.6,996.4285714285714,76.33482142857143,4839.9,996.4285714285714,76.33482142857143,4941]","[1277.6,1277.6,1000,0,277.6,""smooth"",""right"",""right"",""good_move"",4326.5,3048.6,2734.8,1277.9,313.8,""smooth"",""right"",""right"",""good_move"",7118.1,2791.4,2502.7,4326.7,288.7,""smooth"",""right"",""right"",""good_move"",9986.4,2868.1,2585.7,7118.3,282.4,""oops"",""up"",""down"",""bad_move"",16585.7,6598.9,2807.8,13453.9,324,""oops"",""up"",""down"",""bad_move"",19806,3220.1,2892.8,16585.9,327.3,""smooth"",""up"",""up"",""good_move"",22671,2864.8,2607.6,19806.2,257.2,""smooth"",""up"",""up"",""good_move"",25251.9,2580.7,2268.1,22671.2,312.6,""smooth"",""up"",""up"",""good_move"",31338.8,6086.7,2376.4,28703.8,258.6,""oops"",""up"",""left"",""bad_move"",33934.8,2595.6,2324.3,31339.2,271.3,""smooth"",""up"",""up"",""good_move""]","",""
"4635","","<div style=""width:500px;"">
  <p>What determined the result of this run?</p>
  </div>","0","html-slider-response","53","679071","0.0-10.0-1.3","2","1","2025-07-02 10:18:09","80fe4187154257d5fb01684ea91b68b9","94.134.108.170","Mozilla/5.0 (Windows NT 10.0; Win64; x64) AppleWebKit/537.36 (KHTML, like Gecko) Chrome/138.0.0.0 Safari/537.36","WebKit","Chrome","138.0.0.0","Windows","10.0","https://app.prolific.com/","de-DE,de;q=0.9,en-DE;q=0.8,en;q=0.7,es-ES;q=0.6,es;q=0.5,en-US;q=0.4","646219bb0b91a6f3327e39fb","683db6dfa200031b80f2a654","686507578aa5dd9bc054b4a1","646219bb0b91a6f3327e39fb","2025-07-02T10:29:31.316Z","","","","","","AttribQ","","","","","","","","","","","","","","","","","","","","","","","","","","","","","","","","","","","","","","50"
"2825","","<div style=""width:500px;"">
  <p>How much control did you have over the ball?</p>
  </div>","27","html-slider-response","54","681896","0.0-10.0-2.3","2","1","2025-07-02 10:18:09","80fe4187154257d5fb01684ea91b68b9","94.134.108.170","Mozilla/5.0 (Windows NT 10.0; Win64; x64) AppleWebKit/537.36 (KHTML, like Gecko) Chrome/138.0.0.0 Safari/537.36","WebKit","Chrome","138.0.0.0","Windows","10.0","https://app.prolific.com/","de-DE,de;q=0.9,en-DE;q=0.8,en;q=0.7,es-ES;q=0.6,es;q=0.5,en-US;q=0.4","646219bb0b91a6f3327e39fb","683db6dfa200031b80f2a654","686507578aa5dd9bc054b4a1","646219bb0b91a6f3327e39fb","2025-07-02T10:29:34.141Z","","","","","","ControlQ","","","","","","","","","","","","","","","","","","","","","","","","","","","","","","","","","","","","","","50"
"2906","","<div style=""width:500px;"">
  <p>How would you describe your current emotional state?</p>
  </div>","86","html-slider-response","55","684804","0.0-10.0-3.3","2","1","2025-07-02 10:18:09","80fe4187154257d5fb01684ea91b68b9","94.134.108.170","Mozilla/5.0 (Windows NT 10.0; Win64; x64) AppleWebKit/537.36 (KHTML, like Gecko) Chrome/138.0.0.0 Safari/537.36","WebKit","Chrome","138.0.0.0","Windows","10.0","https://app.prolific.com/","de-DE,de;q=0.9,en-DE;q=0.8,en;q=0.7,es-ES;q=0.6,es;q=0.5,en-US;q=0.4","646219bb0b91a6f3327e39fb","683db6dfa200031b80f2a654","686507578aa5dd9bc054b4a1","646219bb0b91a6f3327e39fb","2025-07-02T10:29:37.049Z","","","","","","StressQ","","","","","","","","","","","","","","","","","","","","","","","","","","","","","","","","","","","","","","50"
"2975","","<div style=""width:500px;"">
  <p>What best describes how you currently feel?</p>
  </div>","66","html-slider-response","56","687782","0.0-10.0-4.3","2","1","2025-07-02 10:18:09","80fe4187154257d5fb01684ea91b68b9","94.134.108.170","Mozilla/5.0 (Windows NT 10.0; Win64; x64) AppleWebKit/537.36 (KHTML, like Gecko) Chrome/138.0.0.0 Safari/537.36","WebKit","Chrome","138.0.0.0","Windows","10.0","https://app.prolific.com/","de-DE,de;q=0.9,en-DE;q=0.8,en;q=0.7,es-ES;q=0.6,es;q=0.5,en-US;q=0.4","646219bb0b91a6f3327e39fb","683db6dfa200031b80f2a654","686507578aa5dd9bc054b4a1","646219bb0b91a6f3327e39fb","2025-07-02T10:29:40.027Z","","","","","","MotivationQ","","","","","","","","","","","","","","","","","","","","","","","","","","","","","","","","","","","","","","50"
"","","","","ctl-task-cpt","57","717488","0.0-10.0-0.4","2","1","2025-07-02 10:18:09","80fe4187154257d5fb01684ea91b68b9","94.134.108.170","Mozilla/5.0 (Windows NT 10.0; Win64; x64) AppleWebKit/537.36 (KHTML, like Gecko) Chrome/138.0.0.0 Safari/537.36","WebKit","Chrome","138.0.0.0","Windows","10.0","https://app.prolific.com/","de-DE,de;q=0.9,en-DE;q=0.8,en;q=0.7,es-ES;q=0.6,es;q=0.5,en-US;q=0.4","646219bb0b91a6f3327e39fb","683db6dfa200031b80f2a654","686507578aa5dd9bc054b4a1","646219bb0b91a6f3327e39fb","2025-07-02T10:30:09.733Z","","","","","","","","","","","","","","","","win-only","1","g1:NE,g2:SW","0.6","5","0","689769.1","968.2","5975.1","26702.4","1","4","4","6","2","4","4","12","8","0.09090909090909091","825","3000","775","[""down"",""left""]","{""num_key_presses"":8,""num_perfect"":5,""num_errors"":0,""num_randdir"":3,""num_randdir_good_moves"":2,""num_whilered"":0,""num_whileblue"":0,""num_blue"":0,""num_good_moves"":7}","[561.4285714285714,551.3348214285714,0.2,561.4285714285714,551.3348214285714,104.8,561.4285714285714,551.3348214285714,208.4,561.4285714285714,551.3348214285714,308.4,561.4285714285714,551.3348214285714,408.5,390.42857142857144,819.3348214285714,508.7,246.42857142857144,922.3348214285714,612.7,184.42857142857144,932.3348214285714,717.4,131.42857142857144,998.3348214285714,817.7,129.42857142857144,1000.3348214285714,918,128.42857142857144,988.3348214285714,1024.8,123.42857142857143,985.3348214285714,1128.6,123.42857142857143,985.3348214285714,1229.8,123.42857142857143,985.3348214285714,1333,123.42857142857143,985.3348214285714,1439.6,123.42857142857143,985.3348214285714,1545.3,123.42857142857143,985.3348214285714,1647.6,123.42857142857143,985.3348214285714,1747.8,123.42857142857143,985.3348214285714,1852.8,123.42857142857143,985.3348214285714,1952.8,123.42857142857143,985.3348214285714,2053.4,123.42857142857143,985.3348214285714,2158.6,123.42857142857143,985.3348214285714,2260.5,123.42857142857143,985.3348214285714,2363,123.42857142857143,985.3348214285714,2467.5,123.42857142857143,985.3348214285714,2568,123.42857142857143,985.3348214285714,2672.2,123.42857142857143,985.3348214285714,2772.9,123.42857142857143,985.3348214285714,2875.4,123.42857142857143,985.3348214285714,2976.6,123.42857142857143,985.3348214285714,3077.7,123.42857142857143,985.3348214285714,3182.1,123.42857142857143,985.3348214285714,3283.7,123.42857142857143,985.3348214285714,3387.6,123.42857142857143,985.3348214285714,3491.2,123.42857142857143,985.3348214285714,3592.2,123.42857142857143,985.3348214285714,3693.1,123.42857142857143,985.3348214285714,3797.8,123.42857142857143,985.3348214285714,3902.8,123.42857142857143,985.3348214285714,4002.8,123.42857142857143,985.3348214285714,4106.6,123.42857142857143,985.3348214285714,4208.4,123.42857142857143,985.3348214285714,4312.5,123.42857142857143,985.3348214285714,4412.9,123.42857142857143,985.3348214285714,4512.9,123.42857142857143,985.3348214285714,4617.8,123.42857142857143,985.3348214285714,4722.6,123.42857142857143,985.3348214285714,4824.1,123.42857142857143,985.3348214285714,4927.8]","[1287.7,1287.7,1000,0,287.7,""smooth"",""left"",""left"",""good_move"",4778.9,3490.6,3200.1,1288.4,290.4,""smooth"",""left"",""left"",""good_move"",7555.3,2776.2,2482.3,4779.1,293.9,""oops"",""left"",""down"",""good_move"",10027.8,2472.3,2164.2,7555.5,308.1,""smooth"",""left"",""left"",""good_move"",12282.6,2254.6,1989.4,10028,265.2,""oops"",""down"",""right"",""bad_move"",14618,2334.9,2017.8,12283.1,317.1,""smooth"",""down"",""down"",""good_move"",17164,2545.8,2262.9,14618.2,282.9,""oops"",""down"",""left"",""good_move"",20625.4,3461.2,3183.7,17164.2,277.5,""smooth"",""down"",""down"",""good_move""]","",""
"6111","","<div style=""width:500px;"">
  <p>What determined the result of this run?</p>
  </div>","41","html-slider-response","58","723601","0.0-10.0-1.4","2","1","2025-07-02 10:18:09","80fe4187154257d5fb01684ea91b68b9","94.134.108.170","Mozilla/5.0 (Windows NT 10.0; Win64; x64) AppleWebKit/537.36 (KHTML, like Gecko) Chrome/138.0.0.0 Safari/537.36","WebKit","Chrome","138.0.0.0","Windows","10.0","https://app.prolific.com/","de-DE,de;q=0.9,en-DE;q=0.8,en;q=0.7,es-ES;q=0.6,es;q=0.5,en-US;q=0.4","646219bb0b91a6f3327e39fb","683db6dfa200031b80f2a654","686507578aa5dd9bc054b4a1","646219bb0b91a6f3327e39fb","2025-07-02T10:30:15.846Z","","","","","","AttribQ","","","","","","","","","","","","","","","","","","","","","","","","","","","","","","","","","","","","","","50"
"3791","","<div style=""width:500px;"">
  <p>How much control did you have over the ball?</p>
  </div>","74","html-slider-response","59","727395","0.0-10.0-2.4","2","1","2025-07-02 10:18:09","80fe4187154257d5fb01684ea91b68b9","94.134.108.170","Mozilla/5.0 (Windows NT 10.0; Win64; x64) AppleWebKit/537.36 (KHTML, like Gecko) Chrome/138.0.0.0 Safari/537.36","WebKit","Chrome","138.0.0.0","Windows","10.0","https://app.prolific.com/","de-DE,de;q=0.9,en-DE;q=0.8,en;q=0.7,es-ES;q=0.6,es;q=0.5,en-US;q=0.4","646219bb0b91a6f3327e39fb","683db6dfa200031b80f2a654","686507578aa5dd9bc054b4a1","646219bb0b91a6f3327e39fb","2025-07-02T10:30:19.640Z","","","","","","ControlQ","","","","","","","","","","","","","","","","","","","","","","","","","","","","","","","","","","","","","","50"
"2906","","<div style=""width:500px;"">
  <p>How would you describe your current emotional state?</p>
  </div>","74","html-slider-response","60","730303","0.0-10.0-3.4","2","1","2025-07-02 10:18:09","80fe4187154257d5fb01684ea91b68b9","94.134.108.170","Mozilla/5.0 (Windows NT 10.0; Win64; x64) AppleWebKit/537.36 (KHTML, like Gecko) Chrome/138.0.0.0 Safari/537.36","WebKit","Chrome","138.0.0.0","Windows","10.0","https://app.prolific.com/","de-DE,de;q=0.9,en-DE;q=0.8,en;q=0.7,es-ES;q=0.6,es;q=0.5,en-US;q=0.4","646219bb0b91a6f3327e39fb","683db6dfa200031b80f2a654","686507578aa5dd9bc054b4a1","646219bb0b91a6f3327e39fb","2025-07-02T10:30:22.548Z","","","","","","StressQ","","","","","","","","","","","","","","","","","","","","","","","","","","","","","","","","","","","","","","50"
"2727","","<div style=""width:500px;"">
  <p>What best describes how you currently feel?</p>
  </div>","81","html-slider-response","61","733031","0.0-10.0-4.4","2","1","2025-07-02 10:18:09","80fe4187154257d5fb01684ea91b68b9","94.134.108.170","Mozilla/5.0 (Windows NT 10.0; Win64; x64) AppleWebKit/537.36 (KHTML, like Gecko) Chrome/138.0.0.0 Safari/537.36","WebKit","Chrome","138.0.0.0","Windows","10.0","https://app.prolific.com/","de-DE,de;q=0.9,en-DE;q=0.8,en;q=0.7,es-ES;q=0.6,es;q=0.5,en-US;q=0.4","646219bb0b91a6f3327e39fb","683db6dfa200031b80f2a654","686507578aa5dd9bc054b4a1","646219bb0b91a6f3327e39fb","2025-07-02T10:30:25.276Z","","","","","","MotivationQ","","","","","","","","","","","","","","","","","","","","","","","","","","","","","","","","","","","","","","50"
"","","","","ctl-task-cpt","62","766233","0.0-10.0-0.5","2","1","2025-07-02 10:18:09","80fe4187154257d5fb01684ea91b68b9","94.134.108.170","Mozilla/5.0 (Windows NT 10.0; Win64; x64) AppleWebKit/537.36 (KHTML, like Gecko) Chrome/138.0.0.0 Safari/537.36","WebKit","Chrome","138.0.0.0","Windows","10.0","https://app.prolific.com/","de-DE,de;q=0.9,en-DE;q=0.8,en;q=0.7,es-ES;q=0.6,es;q=0.5,en-US;q=0.4","646219bb0b91a6f3327e39fb","683db6dfa200031b80f2a654","686507578aa5dd9bc054b4a1","646219bb0b91a6f3327e39fb","2025-07-02T10:30:58.478Z","","","","","","","","","","","","","","","","win-only","0","g1:NW,g2:SE","0.5","6","0","735018.4","1045.5","6046.1","30185.9","1","4","8","6","2","8","8","20","12","0.15151515151515152","721.3","3000","910","[""down"",""right""]","{""num_key_presses"":8,""num_perfect"":4,""num_errors"":0,""num_randdir"":4,""num_randdir_good_moves"":3,""num_whilered"":0,""num_whileblue"":0,""num_blue"":1,""num_good_moves"":7}","[555.4285714285714,555.3348214285714,0.5,555.4285714285714,555.3348214285714,103.8,555.4285714285714,555.3348214285714,210.6,547.4285714285714,558.3348214285714,310.7,550.4285714285714,580.3348214285714,411,866.4285714285714,886.3348214285714,515,935.4285714285714,926.3348214285714,620.9,982.4285714285714,963.3348214285714,725.6,982.4285714285714,963.3348214285714,826.2,981.4285714285714,957.3348214285714,930.1,1231.4285714285713,925.3348214285714,1030.5,1377.4285714285713,926.3348214285714,1135.7,1383.4285714285713,920.3348214285714,1239.8,1381.4285714285713,909.3348214285714,1339.9,1373.4285714285713,899.3348214285714,1440.9,1367.4285714285713,893.3348214285714,1541.7,1359.4285714285713,890.3348214285714,1642.3,1359.4285714285713,890.3348214285714,1744.8,1359.4285714285713,890.3348214285714,1845,1359.4285714285713,890.3348214285714,1945.9,1359.4285714285713,890.3348214285714,2046.7,1359.4285714285713,890.3348214285714,2147,1359.4285714285713,890.3348214285714,2253.8,1359.4285714285713,890.3348214285714,2354.9,1359.4285714285713,890.3348214285714,2461.6,1359.4285714285713,890.3348214285714,2562,1359.4285714285713,890.3348214285714,2664.8,1359.4285714285713,890.3348214285714,2766.5,1359.4285714285713,890.3348214285714,2873.7,1359.4285714285713,890.3348214285714,2976.7,1359.4285714285713,890.3348214285714,3080.5,1359.4285714285713,890.3348214285714,3185.2,1359.4285714285713,890.3348214285714,3290.1,1359.4285714285713,890.3348214285714,3392.1,1359.4285714285713,890.3348214285714,3492.1,1359.4285714285713,890.3348214285714,3593.1,1359.4285714285713,890.3348214285714,3698.3,1359.4285714285713,890.3348214285714,3803.4,1359.4285714285713,890.3348214285714,3910.5,1359.4285714285713,890.3348214285714,4010.5,1359.4285714285713,890.3348214285714,4115.2,1359.4285714285713,890.3348214285714,4215.5,1359.4285714285713,890.3348214285714,4324.3,1359.4285714285713,890.3348214285714,4424.9,1359.4285714285713,890.3348214285714,4525.9,1359.4285714285713,890.3348214285714,4626.9,1359.4285714285713,890.3348214285714,4730.4,1359.4285714285713,890.3348214285714,4830.7,1359.4285714285713,890.3348214285714,4931.1]","[1264,1264,1000,0,264,""oops"",""down"",""down"",""good_move"",4405.9,3141.6,2842.8,1264.3,298.8,""oops"",""down"",""down"",""good_move"",6575.5,2169.4,1903.4,4406.1,266,""oops"",""right"",""up"",""bad_move"",9388.8,2813.1,2503.1,6575.8,310,""smooth"",""right"",""right"",""good_move"",16455.7,7066.3,3266.9,12894.9,293.9,""smooth"",""right"",""right"",""good_move"",19087.9,2632.1,2326.7,16455.8,305.4,""smooth"",""right"",""right"",""good_move"",21769.8,2681.6,2410.8,19088.2,270.8,""smooth"",""down"",""down"",""good_move"",24045.2,2275.1,1984.7,21770.2,290.3,""oops"",""down"",""down"",""good_move""]","",""
"3804","","<div style=""width:500px;"">
  <p>What determined the result of this run?</p>
  </div>","83","html-slider-response","63","770039","0.0-10.0-1.5","2","1","2025-07-02 10:18:09","80fe4187154257d5fb01684ea91b68b9","94.134.108.170","Mozilla/5.0 (Windows NT 10.0; Win64; x64) AppleWebKit/537.36 (KHTML, like Gecko) Chrome/138.0.0.0 Safari/537.36","WebKit","Chrome","138.0.0.0","Windows","10.0","https://app.prolific.com/","de-DE,de;q=0.9,en-DE;q=0.8,en;q=0.7,es-ES;q=0.6,es;q=0.5,en-US;q=0.4","646219bb0b91a6f3327e39fb","683db6dfa200031b80f2a654","686507578aa5dd9bc054b4a1","646219bb0b91a6f3327e39fb","2025-07-02T10:31:02.285Z","","","","","","AttribQ","","","","","","","","","","","","","","","","","","","","","","","","","","","","","","","","","","","","","","50"
"3459","","<div style=""width:500px;"">
  <p>How much control did you have over the ball?</p>
  </div>","83","html-slider-response","64","773502","0.0-10.0-2.5","2","1","2025-07-02 10:18:09","80fe4187154257d5fb01684ea91b68b9","94.134.108.170","Mozilla/5.0 (Windows NT 10.0; Win64; x64) AppleWebKit/537.36 (KHTML, like Gecko) Chrome/138.0.0.0 Safari/537.36","WebKit","Chrome","138.0.0.0","Windows","10.0","https://app.prolific.com/","de-DE,de;q=0.9,en-DE;q=0.8,en;q=0.7,es-ES;q=0.6,es;q=0.5,en-US;q=0.4","646219bb0b91a6f3327e39fb","683db6dfa200031b80f2a654","686507578aa5dd9bc054b4a1","646219bb0b91a6f3327e39fb","2025-07-02T10:31:05.747Z","","","","","","ControlQ","","","","","","","","","","","","","","","","","","","","","","","","","","","","","","","","","","","","","","50"
"3488","","<div style=""width:500px;"">
  <p>How would you describe your current emotional state?</p>
  </div>","74","html-slider-response","65","776991","0.0-10.0-3.5","2","1","2025-07-02 10:18:09","80fe4187154257d5fb01684ea91b68b9","94.134.108.170","Mozilla/5.0 (Windows NT 10.0; Win64; x64) AppleWebKit/537.36 (KHTML, like Gecko) Chrome/138.0.0.0 Safari/537.36","WebKit","Chrome","138.0.0.0","Windows","10.0","https://app.prolific.com/","de-DE,de;q=0.9,en-DE;q=0.8,en;q=0.7,es-ES;q=0.6,es;q=0.5,en-US;q=0.4","646219bb0b91a6f3327e39fb","683db6dfa200031b80f2a654","686507578aa5dd9bc054b4a1","646219bb0b91a6f3327e39fb","2025-07-02T10:31:09.236Z","","","","","","StressQ","","","","","","","","","","","","","","","","","","","","","","","","","","","","","","","","","","","","","","50"
"3256","","<div style=""width:500px;"">
  <p>What best describes how you currently feel?</p>
  </div>","81","html-slider-response","66","780251","0.0-10.0-4.5","2","1","2025-07-02 10:18:09","80fe4187154257d5fb01684ea91b68b9","94.134.108.170","Mozilla/5.0 (Windows NT 10.0; Win64; x64) AppleWebKit/537.36 (KHTML, like Gecko) Chrome/138.0.0.0 Safari/537.36","WebKit","Chrome","138.0.0.0","Windows","10.0","https://app.prolific.com/","de-DE,de;q=0.9,en-DE;q=0.8,en;q=0.7,es-ES;q=0.6,es;q=0.5,en-US;q=0.4","646219bb0b91a6f3327e39fb","683db6dfa200031b80f2a654","686507578aa5dd9bc054b4a1","646219bb0b91a6f3327e39fb","2025-07-02T10:31:12.496Z","","","","","","MotivationQ","","","","","","","","","","","","","","","","","","","","","","","","","","","","","","","","","","","","","","50"
"","","","","ctl-task-cpt","67","827861","0.0-10.0-0.6","2","1","2025-07-02 10:18:09","80fe4187154257d5fb01684ea91b68b9","94.134.108.170","Mozilla/5.0 (Windows NT 10.0; Win64; x64) AppleWebKit/537.36 (KHTML, like Gecko) Chrome/138.0.0.0 Safari/537.36","WebKit","Chrome","138.0.0.0","Windows","10.0","https://app.prolific.com/","de-DE,de;q=0.9,en-DE;q=0.8,en;q=0.7,es-ES;q=0.6,es;q=0.5,en-US;q=0.4","646219bb0b91a6f3327e39fb","683db6dfa200031b80f2a654","686507578aa5dd9bc054b4a1","646219bb0b91a6f3327e39fb","2025-07-02T10:32:00.106Z","","","","","","","","","","","","","","","","win-only","2","g1:SE,g2:NW","0.4","7","0","782240.5","842.7","5846.7","44583.5","1","4","8","6","2","-8","-9","11","20","0.08333333333333333","932.8","3000","-2535","[""left"",""up""]","{""num_key_presses"":12,""num_perfect"":4,""num_errors"":1,""num_randdir"":7,""num_randdir_good_moves"":3,""num_whilered"":0,""num_whileblue"":0,""num_blue"":1,""num_good_moves"":7}","[556.4285714285714,547.3348214285714,0.1,556.4285714285714,547.3348214285714,103.5,555.4285714285714,547.3348214285714,203.8,550.4285714285714,550.3348214285714,311.4,546.4285714285714,559.3348214285714,418.2,535.4285714285714,581.3348214285714,523.7,131.42857142857144,332.33482142857144,629.1,0.4285714285714306,84.33482142857143,730.6,14.42857142857143,62.33482142857143,830.9,99.42857142857143,87.33482142857143,935.4,99.42857142857143,87.33482142857143,1038.1,96.42857142857143,92.33482142857143,1138.5,312.42857142857144,244.33482142857144,1244.3,541.4285714285714,385.33482142857144,1350.3,541.4285714285714,385.33482142857144,1454.8,541.4285714285714,385.33482142857144,1564.2,541.4285714285714,385.33482142857144,1669,541.4285714285714,385.33482142857144,1778.5,541.4285714285714,385.33482142857144,1880.1,541.4285714285714,385.33482142857144,1983.7,541.4285714285714,385.33482142857144,2086,541.4285714285714,385.33482142857144,2187.6,541.4285714285714,385.33482142857144,2288.7,541.4285714285714,385.33482142857144,2389,541.4285714285714,385.33482142857144,2494,541.4285714285714,385.33482142857144,2595,541.4285714285714,385.33482142857144,2698.5,541.4285714285714,385.33482142857144,2798.5,541.4285714285714,385.33482142857144,2900.6,541.4285714285714,385.33482142857144,3003.9,541.4285714285714,385.33482142857144,3116.5,541.4285714285714,385.33482142857144,3218.1,541.4285714285714,385.33482142857144,3319.1,541.4285714285714,385.33482142857144,3428.5,541.4285714285714,385.33482142857144,3529.2,541.4285714285714,385.33482142857144,3629.7,541.4285714285714,385.33482142857144,3735.1,541.4285714285714,385.33482142857144,3845,541.4285714285714,385.33482142857144,3950.3,541.4285714285714,385.33482142857144,4053.6,541.4285714285714,385.33482142857144,4160.5,541.4285714285714,385.33482142857144,4263.1,541.4285714285714,385.33482142857144,4363.8,541.4285714285714,385.33482142857144,4468.3,541.4285714285714,385.33482142857144,4579.4,541.4285714285714,385.33482142857144,4681.7,541.4285714285714,385.33482142857144,4782.6,541.4285714285714,385.33482142857144,4883.3,541.4285714285714,385.33482142857144,4983.9]","[342.8,342.8,1000,0,-657.1,""error"",""-"",""-"",""no_move"",7313.9,6970.9,1989.5,4990,334.4,""oops"",""left"",""up"",""good_move"",9742.5,2428.3,2118.3,7314.2,310,""oops"",""left"",""up"",""good_move"",12614.6,2872,2574.2,9742.6,297.8,""smooth"",""left"",""left"",""good_move"",15867.9,3253.1,2836.6,12614.9,416.5,""smooth"",""left"",""left"",""good_move"",19586.7,3718.5,3426.5,15868.2,292,""oops"",""left"",""down"",""bad_move"",22205.1,2617.7,2304.3,19587.4,313.4,""oops"",""left"",""down"",""bad_move"",25105.4,2900.1,2625.7,22205.3,274.4,""smooth"",""left"",""left"",""good_move"",28391.1,3285.7,3006.4,25105.5,279.3,""smooth"",""up"",""up"",""good_move"",31065.3,2674,2386.7,28391.3,287.3,""oops"",""up"",""up"",""good_move"",34021.5,2956,2613.1,31065.5,342.9,""oops"",""up"",""down"",""bad_move"",36682.4,2660.7,2439,34021.7,221.7,""oops"",""up"",""right"",""bad_move""]","",""
"2400","","<div style=""width:500px;"">
  <p>What determined the result of this run?</p>
  </div>","0","html-slider-response","68","830264","0.0-10.0-1.6","2","1","2025-07-02 10:18:09","80fe4187154257d5fb01684ea91b68b9","94.134.108.170","Mozilla/5.0 (Windows NT 10.0; Win64; x64) AppleWebKit/537.36 (KHTML, like Gecko) Chrome/138.0.0.0 Safari/537.36","WebKit","Chrome","138.0.0.0","Windows","10.0","https://app.prolific.com/","de-DE,de;q=0.9,en-DE;q=0.8,en;q=0.7,es-ES;q=0.6,es;q=0.5,en-US;q=0.4","646219bb0b91a6f3327e39fb","683db6dfa200031b80f2a654","686507578aa5dd9bc054b4a1","646219bb0b91a6f3327e39fb","2025-07-02T10:32:02.509Z","","","","","","AttribQ","","","","","","","","","","","","","","","","","","","","","","","","","","","","","","","","","","","","","","50"
"2611","","<div style=""width:500px;"">
  <p>How much control did you have over the ball?</p>
  </div>","18","html-slider-response","69","832880","0.0-10.0-2.6","2","1","2025-07-02 10:18:09","80fe4187154257d5fb01684ea91b68b9","94.134.108.170","Mozilla/5.0 (Windows NT 10.0; Win64; x64) AppleWebKit/537.36 (KHTML, like Gecko) Chrome/138.0.0.0 Safari/537.36","WebKit","Chrome","138.0.0.0","Windows","10.0","https://app.prolific.com/","de-DE,de;q=0.9,en-DE;q=0.8,en;q=0.7,es-ES;q=0.6,es;q=0.5,en-US;q=0.4","646219bb0b91a6f3327e39fb","683db6dfa200031b80f2a654","686507578aa5dd9bc054b4a1","646219bb0b91a6f3327e39fb","2025-07-02T10:32:05.125Z","","","","","","ControlQ","","","","","","","","","","","","","","","","","","","","","","","","","","","","","","","","","","","","","","50"
"3205","","<div style=""width:500px;"">
  <p>How would you describe your current emotional state?</p>
  </div>","93","html-slider-response","70","836086","0.0-10.0-3.6","2","1","2025-07-02 10:18:09","80fe4187154257d5fb01684ea91b68b9","94.134.108.170","Mozilla/5.0 (Windows NT 10.0; Win64; x64) AppleWebKit/537.36 (KHTML, like Gecko) Chrome/138.0.0.0 Safari/537.36","WebKit","Chrome","138.0.0.0","Windows","10.0","https://app.prolific.com/","de-DE,de;q=0.9,en-DE;q=0.8,en;q=0.7,es-ES;q=0.6,es;q=0.5,en-US;q=0.4","646219bb0b91a6f3327e39fb","683db6dfa200031b80f2a654","686507578aa5dd9bc054b4a1","646219bb0b91a6f3327e39fb","2025-07-02T10:32:08.331Z","","","","","","StressQ","","","","","","","","","","","","","","","","","","","","","","","","","","","","","","","","","","","","","","50"
"4937","","<div style=""width:500px;"">
  <p>What best describes how you currently feel?</p>
  </div>","70","html-slider-response","71","841024","0.0-10.0-4.6","2","1","2025-07-02 10:18:09","80fe4187154257d5fb01684ea91b68b9","94.134.108.170","Mozilla/5.0 (Windows NT 10.0; Win64; x64) AppleWebKit/537.36 (KHTML, like Gecko) Chrome/138.0.0.0 Safari/537.36","WebKit","Chrome","138.0.0.0","Windows","10.0","https://app.prolific.com/","de-DE,de;q=0.9,en-DE;q=0.8,en;q=0.7,es-ES;q=0.6,es;q=0.5,en-US;q=0.4","646219bb0b91a6f3327e39fb","683db6dfa200031b80f2a654","686507578aa5dd9bc054b4a1","646219bb0b91a6f3327e39fb","2025-07-02T10:32:13.269Z","","","","","","MotivationQ","","","","","","","","","","","","","","","","","","","","","","","","","","","","","","","","","","","","","","50"
"","","","","ctl-task-cpt","72","883363","0.0-10.0-0.7","2","1","2025-07-02 10:18:09","80fe4187154257d5fb01684ea91b68b9","94.134.108.170","Mozilla/5.0 (Windows NT 10.0; Win64; x64) AppleWebKit/537.36 (KHTML, like Gecko) Chrome/138.0.0.0 Safari/537.36","WebKit","Chrome","138.0.0.0","Windows","10.0","https://app.prolific.com/","de-DE,de;q=0.9,en-DE;q=0.8,en;q=0.7,es-ES;q=0.6,es;q=0.5,en-US;q=0.4","646219bb0b91a6f3327e39fb","683db6dfa200031b80f2a654","686507578aa5dd9bc054b4a1","646219bb0b91a6f3327e39fb","2025-07-02T10:32:55.608Z","","","","","","","","","","","","","","","","win-only","2","g1:SE,g2:NW","0.3","8","0","843011.6","853.3","5856.7","39316.4","1","4","4","6","2","4","3","14","11","0.10606060606060606","951.1","3000","470","[""left"",""up""]","{""num_key_presses"":12,""num_perfect"":3,""num_errors"":1,""num_randdir"":8,""num_randdir_good_moves"":5,""num_whilered"":0,""num_whileblue"":1,""num_blue"":1,""num_good_moves"":9}","[552.4285714285714,538.3348214285714,0.1,552.4285714285714,538.3348214285714,103.3,552.4285714285714,538.3348214285714,212.1,552.4285714285714,538.3348214285714,314.3,555.4285714285714,552.3348214285714,417.5,542.4285714285714,558.3348214285714,523.2,330.42857142857144,451.33482142857144,624.1,207.42857142857144,327.33482142857144,724.4,205.42857142857144,213.33482142857144,828.9,118.42857142857143,155.33482142857144,932.3,114.42857142857143,151.33482142857144,1035.6,114.42857142857143,151.33482142857144,1138.7,183.42857142857144,243.33482142857144,1244.9,794.4285714285714,612.3348214285714,1351.1,1549.4285714285713,695.3348214285714,1453.6,1605.4285714285713,676.3348214285714,1566.1,1605.4285714285713,676.3348214285714,1668.5,1605.4285714285713,676.3348214285714,1773.8,1605.4285714285713,676.3348214285714,1874.9,1605.4285714285713,676.3348214285714,1976.8,1605.4285714285713,676.3348214285714,2085.1,1605.4285714285713,676.3348214285714,2189.3,1605.4285714285713,676.3348214285714,2292.9,1605.4285714285713,676.3348214285714,2393.5,1605.4285714285713,676.3348214285714,2499.7,1605.4285714285713,676.3348214285714,2604.6,1605.4285714285713,676.3348214285714,2713.8,1605.4285714285713,676.3348214285714,2815.9,1605.4285714285713,676.3348214285714,2916.5,1605.4285714285713,676.3348214285714,3017.6,1605.4285714285713,676.3348214285714,3124.5,1605.4285714285713,676.3348214285714,3230.6,1605.4285714285713,676.3348214285714,3331.2,1605.4285714285713,676.3348214285714,3432.6,1605.4285714285713,676.3348214285714,3535.5,1605.4285714285713,676.3348214285714,3639.5,1605.4285714285713,676.3348214285714,3742.5,1605.4285714285713,676.3348214285714,3845.6,1605.4285714285713,676.3348214285714,3949.8,1605.4285714285713,676.3348214285714,4053.2,1605.4285714285713,676.3348214285714,4159.1,1605.4285714285713,676.3348214285714,4262.9,1605.4285714285713,676.3348214285714,4363.3,1605.4285714285713,676.3348214285714,4464.6,1605.4285714285713,676.3348214285714,4567.5,1605.4285714285713,676.3348214285714,4668.7,1605.4285714285713,676.3348214285714,4771.1,1605.4285714285713,676.3348214285714,4879.6,1605.4285714285713,676.3348214285714,4980.3]","[1324.4,1324.4,1000,0,324.4,""oops"",""left"",""up"",""good_move"",3397.5,2072.7,1760.7,1324.8,312,""oops"",""left"",""down"",""bad_move"",6706.9,3309.2,3016.5,3397.8,292.6,""oops"",""left"",""down"",""bad_move"",9182.9,2475.7,2192.8,6707.2,282.9,""smooth"",""left"",""left"",""good_move"",12825.6,3642.4,3342.9,9183.2,299.5,""oops"",""left"",""up"",""good_move"",14415.3,1589.4,1197,12825.9,392.4,""smooth"",""left"",""left"",""good_move"",17280.1,2864.7,2568.9,14415.4,295.8,""oops"",""up"",""left"",""good_move"",20458.4,3178.1,2919.5,17280.3,258.6,""oops"",""up"",""right"",""bad_move"",23478.6,3019.9,2685.9,20458.7,334,""while_blue"",""up"",""up"",""good_move"",26842,3363.2,3034.6,23478.8,328.6,""smooth"",""up"",""up"",""good_move"",30228,3385.9,3109.6,26842.1,276.3,""oops"",""up"",""up"",""good_move"",33351.9,3123.8,2783.7,30228.1,340.1,""oops"",""left"",""left"",""good_move""]","",""
"4189","","<div style=""width:500px;"">
  <p>What determined the result of this run?</p>
  </div>","66","html-slider-response","73","887554","0.0-10.0-1.7","2","1","2025-07-02 10:18:09","80fe4187154257d5fb01684ea91b68b9","94.134.108.170","Mozilla/5.0 (Windows NT 10.0; Win64; x64) AppleWebKit/537.36 (KHTML, like Gecko) Chrome/138.0.0.0 Safari/537.36","WebKit","Chrome","138.0.0.0","Windows","10.0","https://app.prolific.com/","de-DE,de;q=0.9,en-DE;q=0.8,en;q=0.7,es-ES;q=0.6,es;q=0.5,en-US;q=0.4","646219bb0b91a6f3327e39fb","683db6dfa200031b80f2a654","686507578aa5dd9bc054b4a1","646219bb0b91a6f3327e39fb","2025-07-02T10:32:59.799Z","","","","","","AttribQ","","","","","","","","","","","","","","","","","","","","","","","","","","","","","","","","","","","","","","50"
"5676","","<div style=""width:500px;"">
  <p>How much control did you have over the ball?</p>
  </div>","63","html-slider-response","74","893234","0.0-10.0-2.7","2","1","2025-07-02 10:18:09","80fe4187154257d5fb01684ea91b68b9","94.134.108.170","Mozilla/5.0 (Windows NT 10.0; Win64; x64) AppleWebKit/537.36 (KHTML, like Gecko) Chrome/138.0.0.0 Safari/537.36","WebKit","Chrome","138.0.0.0","Windows","10.0","https://app.prolific.com/","de-DE,de;q=0.9,en-DE;q=0.8,en;q=0.7,es-ES;q=0.6,es;q=0.5,en-US;q=0.4","646219bb0b91a6f3327e39fb","683db6dfa200031b80f2a654","686507578aa5dd9bc054b4a1","646219bb0b91a6f3327e39fb","2025-07-02T10:33:05.480Z","","","","","","ControlQ","","","","","","","","","","","","","","","","","","","","","","","","","","","","","","","","","","","","","","50"
"3847","","<div style=""width:500px;"">
  <p>How would you describe your current emotional state?</p>
  </div>","86","html-slider-response","75","897085","0.0-10.0-3.7","2","1","2025-07-02 10:18:09","80fe4187154257d5fb01684ea91b68b9","94.134.108.170","Mozilla/5.0 (Windows NT 10.0; Win64; x64) AppleWebKit/537.36 (KHTML, like Gecko) Chrome/138.0.0.0 Safari/537.36","WebKit","Chrome","138.0.0.0","Windows","10.0","https://app.prolific.com/","de-DE,de;q=0.9,en-DE;q=0.8,en;q=0.7,es-ES;q=0.6,es;q=0.5,en-US;q=0.4","646219bb0b91a6f3327e39fb","683db6dfa200031b80f2a654","686507578aa5dd9bc054b4a1","646219bb0b91a6f3327e39fb","2025-07-02T10:33:09.330Z","","","","","","StressQ","","","","","","","","","","","","","","","","","","","","","","","","","","","","","","","","","","","","","","50"
"2686","","<div style=""width:500px;"">
  <p>What best describes how you currently feel?</p>
  </div>","73","html-slider-response","76","899773","0.0-10.0-4.7","2","1","2025-07-02 10:18:09","80fe4187154257d5fb01684ea91b68b9","94.134.108.170","Mozilla/5.0 (Windows NT 10.0; Win64; x64) AppleWebKit/537.36 (KHTML, like Gecko) Chrome/138.0.0.0 Safari/537.36","WebKit","Chrome","138.0.0.0","Windows","10.0","https://app.prolific.com/","de-DE,de;q=0.9,en-DE;q=0.8,en;q=0.7,es-ES;q=0.6,es;q=0.5,en-US;q=0.4","646219bb0b91a6f3327e39fb","683db6dfa200031b80f2a654","686507578aa5dd9bc054b4a1","646219bb0b91a6f3327e39fb","2025-07-02T10:33:12.018Z","","","","","","MotivationQ","","","","","","","","","","","","","","","","","","","","","","","","","","","","","","","","","","","","","","50"
"","","","","ctl-task-cpt","77","954894","0.0-10.0-0.8","2","1","2025-07-02 10:18:09","80fe4187154257d5fb01684ea91b68b9","94.134.108.170","Mozilla/5.0 (Windows NT 10.0; Win64; x64) AppleWebKit/537.36 (KHTML, like Gecko) Chrome/138.0.0.0 Safari/537.36","WebKit","Chrome","138.0.0.0","Windows","10.0","https://app.prolific.com/","de-DE,de;q=0.9,en-DE;q=0.8,en;q=0.7,es-ES;q=0.6,es;q=0.5,en-US;q=0.4","646219bb0b91a6f3327e39fb","683db6dfa200031b80f2a654","686507578aa5dd9bc054b4a1","646219bb0b91a6f3327e39fb","2025-07-02T10:34:07.139Z","","","","","","","","","","","","","","","","win-only","2","g1:SE,g2:NW","0.4","9","0","901763.4","937.3","5939.7","52094.5","1","4","4","6","2","-4","-4","10","14","0.07575757575757576","1073.8","3000","-2400","[""left"",""up""]","{""num_key_presses"":13,""num_perfect"":5,""num_errors"":0,""num_randdir"":8,""num_randdir_good_moves"":3,""num_whilered"":0,""num_whileblue"":0,""num_blue"":3,""num_good_moves"":8}","[559.4285714285714,566.3348214285714,0.2,559.4285714285714,566.3348214285714,100,559.4285714285714,566.3348214285714,204.4,559.4285714285714,566.3348214285714,318.4,559.4285714285714,567.3348214285714,421.8,560.4285714285714,570.3348214285714,523.4,556.4285714285714,570.3348214285714,625.7,403.42857142857144,504.33482142857144,726,180.42857142857144,327.33482142857144,833.4,138.42857142857144,207.33482142857144,942.2,101.42857142857143,129.33482142857144,1051.1,101.42857142857143,121.33482142857143,1154.4,100.42857142857143,129.33482142857144,1254.7,148.42857142857144,203.33482142857144,1355.1,705.4285714285714,528.3348214285714,1460.2,1063.4285714285713,610.3348214285714,1567.2,1204.4285714285713,620.3348214285714,1673.6,1278.4285714285713,622.3348214285714,1775.1,1278.4285714285713,622.3348214285714,1877.9,1278.4285714285713,622.3348214285714,1988.5,1278.4285714285713,622.3348214285714,2090.1,1278.4285714285713,622.3348214285714,2194.1,1278.4285714285713,622.3348214285714,2295.4,1278.4285714285713,622.3348214285714,2398.3,1278.4285714285713,622.3348214285714,2499.5,1278.4285714285713,622.3348214285714,2605.4,1278.4285714285713,622.3348214285714,2709.5,1278.4285714285713,622.3348214285714,2814.4,1278.4285714285713,622.3348214285714,2915,1278.4285714285713,622.3348214285714,3015.4,1278.4285714285713,622.3348214285714,3117.2,1278.4285714285713,622.3348214285714,3217.2,1278.4285714285713,622.3348214285714,3319.7,1278.4285714285713,622.3348214285714,3420.8,1278.4285714285713,622.3348214285714,3521,1278.4285714285713,622.3348214285714,3625.2,1278.4285714285713,622.3348214285714,3728.6,1278.4285714285713,622.3348214285714,3831.1,1278.4285714285713,622.3348214285714,3931.4,1278.4285714285713,622.3348214285714,4038.4,1278.4285714285713,622.3348214285714,4140,1278.4285714285713,622.3348214285714,4241.5,1278.4285714285713,622.3348214285714,4344.1,1278.4285714285713,622.3348214285714,4451.6,1278.4285714285713,622.3348214285714,4555.2,1278.4285714285713,622.3348214285714,4665.6,1278.4285714285713,622.3348214285714,4769.9,1278.4285714285713,622.3348214285714,4870.1,1278.4285714285713,622.3348214285714,4976.7]","[1310.8,1310.8,1000,0,310.8,""smooth"",""left"",""left"",""good_move"",4176.6,2865.5,2578.3,1311.1,287.2,""smooth"",""left"",""left"",""good_move"",6942.1,2765.3,2470.7,4176.8,294.6,""smooth"",""left"",""left"",""good_move"",9947.7,3005.3,2739,6942.4,266.3,""oops"",""up"",""down"",""bad_move"",12435,2486.9,2187.9,9948.1,299,""smooth"",""up"",""up"",""good_move"",14571.7,2136.3,1832.1,12435.4,304.2,""oops"",""up"",""up"",""good_move"",20745.2,6173.3,2623,17792.2,330,""oops"",""up"",""down"",""bad_move"",26791.3,6046,1820.5,24663.5,307.3,""oops"",""up"",""down"",""bad_move"",29604.4,2812.9,2550.9,26791.5,262,""oops"",""up"",""up"",""good_move"",32220.6,2615.9,2330.6,29604.7,285.3,""oops"",""up"",""right"",""bad_move"",34820.6,2599.8,2329.8,32220.8,270,""oops"",""up"",""left"",""good_move"",37119.2,2298.4,2071,34820.8,227.4,""smooth"",""up"",""up"",""good_move"",39830.2,2710.6,2479.5,37119.6,231.1,""oops"",""up"",""down"",""bad_move""]","",""
"2896","","<div style=""width:500px;"">
  <p>What determined the result of this run?</p>
  </div>","0","html-slider-response","78","957792","0.0-10.0-1.8","2","1","2025-07-02 10:18:09","80fe4187154257d5fb01684ea91b68b9","94.134.108.170","Mozilla/5.0 (Windows NT 10.0; Win64; x64) AppleWebKit/537.36 (KHTML, like Gecko) Chrome/138.0.0.0 Safari/537.36","WebKit","Chrome","138.0.0.0","Windows","10.0","https://app.prolific.com/","de-DE,de;q=0.9,en-DE;q=0.8,en;q=0.7,es-ES;q=0.6,es;q=0.5,en-US;q=0.4","646219bb0b91a6f3327e39fb","683db6dfa200031b80f2a654","686507578aa5dd9bc054b4a1","646219bb0b91a6f3327e39fb","2025-07-02T10:34:10.037Z","","","","","","AttribQ","","","","","","","","","","","","","","","","","","","","","","","","","","","","","","","","","","","","","","50"
"3902","","<div style=""width:500px;"">
  <p>How much control did you have over the ball?</p>
  </div>","4","html-slider-response","79","961697","0.0-10.0-2.8","2","1","2025-07-02 10:18:09","80fe4187154257d5fb01684ea91b68b9","94.134.108.170","Mozilla/5.0 (Windows NT 10.0; Win64; x64) AppleWebKit/537.36 (KHTML, like Gecko) Chrome/138.0.0.0 Safari/537.36","WebKit","Chrome","138.0.0.0","Windows","10.0","https://app.prolific.com/","de-DE,de;q=0.9,en-DE;q=0.8,en;q=0.7,es-ES;q=0.6,es;q=0.5,en-US;q=0.4","646219bb0b91a6f3327e39fb","683db6dfa200031b80f2a654","686507578aa5dd9bc054b4a1","646219bb0b91a6f3327e39fb","2025-07-02T10:34:13.942Z","","","","","","ControlQ","","","","","","","","","","","","","","","","","","","","","","","","","","","","","","","","","","","","","","50"
"2399","","<div style=""width:500px;"">
  <p>How would you describe your current emotional state?</p>
  </div>","100","html-slider-response","80","964097","0.0-10.0-3.8","2","1","2025-07-02 10:18:09","80fe4187154257d5fb01684ea91b68b9","94.134.108.170","Mozilla/5.0 (Windows NT 10.0; Win64; x64) AppleWebKit/537.36 (KHTML, like Gecko) Chrome/138.0.0.0 Safari/537.36","WebKit","Chrome","138.0.0.0","Windows","10.0","https://app.prolific.com/","de-DE,de;q=0.9,en-DE;q=0.8,en;q=0.7,es-ES;q=0.6,es;q=0.5,en-US;q=0.4","646219bb0b91a6f3327e39fb","683db6dfa200031b80f2a654","686507578aa5dd9bc054b4a1","646219bb0b91a6f3327e39fb","2025-07-02T10:34:16.342Z","","","","","","StressQ","","","","","","","","","","","","","","","","","","","","","","","","","","","","","","","","","","","","","","50"
"5008","","<div style=""width:500px;"">
  <p>What best describes how you currently feel?</p>
