"rt","response_timestamp","stimulus","response","trial_type","trial_index","time_elapsed","internal_node_id","run_id","condition","recorded_at","source_code_version","ip","user_agent","device","browser","browser_version","platform","platform_version","referer","accept_language","PROLIFIC_PID","STUDY_ID","SESSION_ID","prolific_id","realtime","view_history","question_order","consent","success","question_id","eventType","responses","item_order","radio_event_ids","radio_event_times","key_event_times","mouse_event_times","straightlining","zigzagging","honeypot","which_type","canvas_config","goals_layout","control_level","trial_number","tutorial_trial_number","trial_start_time","phase1_start_time","phase2_start_time","phase3_start_time","goal_1_value","goal_1_distance","goal_2_value","goal_2_distance","goal_selected","outcome","outcome_total","participant_final_score","participant_initial_score","participant_final_score_prop","goal_choice_rt","allocated_time","allocated_time_remaining","goal_direction","counts","mouse_movements","key_presses","correct","slider_start"
"2758","1751451548932","<p style='font-size:40px;line-height:1.25'><strong>Welcome to the experiment!</strong></p><p style='font-size:1.1em;line-height:1.25'>Thank you for your interest in our experiment! Before you begin, it is important that we obtain your informed consent to participate in the study.</p><p style='font-size:1.1em;line-height:1.25'>On the next screen will be an <strong>information sheet</strong> for you to read. To participate in the study we need you to read this information sheet and the following consent form carefully. If you agree with all the statements, please click the <strong>I agree</strong> button.</p><p style='font-size:1.1em;line-height:1.25'>Press <strong>Next</strong> to read the information sheet.</p>","0","custom-html-button-response","0","2760","0.0-0.0","76","1","2025-07-02 10:19:04","80fe4187154257d5fb01684ea91b68b9","125.237.197.5","Mozilla/5.0 (Macintosh; Intel Mac OS X 10_15_7) AppleWebKit/537.36 (KHTML, like Gecko) Chrome/137.0.0.0 Safari/537.36","Macintosh","Chrome","137.0.0.0","OS X","10_15_7","https://app.prolific.com/","en-GB,en-US;q=0.9,en;q=0.8","646a16e2aae07a0225cdb635","683db6dfa200031b80f2a654","68650777776f59bf216120a7","646a16e2aae07a0225cdb635","2025-07-02T10:19:08.933Z","","","","","","","","","","","","","","","","","","","","","","","","","","","","","","","","","","","","","","","","","","","",""
"19564","","","","instructions","1","22325","0.0-1.0","76","1","2025-07-02 10:19:04","80fe4187154257d5fb01684ea91b68b9","125.237.197.5","Mozilla/5.0 (Macintosh; Intel Mac OS X 10_15_7) AppleWebKit/537.36 (KHTML, like Gecko) Chrome/137.0.0.0 Safari/537.36","Macintosh","Chrome","137.0.0.0","OS X","10_15_7","https://app.prolific.com/","en-GB,en-US;q=0.9,en;q=0.8","646a16e2aae07a0225cdb635","683db6dfa200031b80f2a654","68650777776f59bf216120a7","646a16e2aae07a0225cdb635","","[{""page_index"":0,""viewing_time"":9181},{""page_index"":1,""viewing_time"":10383}]","","","","","","","","","","","","","","","","","","","","","","","","","","","","","","","","","","","","","","","","","","",""
"6433","","","{""Q0"":"""",""Q1"":"""",""Q2"":"""",""Q3"":"""",""Q4"":"""",""Q5"":"""",""Q6"":""I agree""}","survey-multi-choice","2","28760","0.0-2.0","76","1","2025-07-02 10:19:04","80fe4187154257d5fb01684ea91b68b9","125.237.197.5","Mozilla/5.0 (Macintosh; Intel Mac OS X 10_15_7) AppleWebKit/537.36 (KHTML, like Gecko) Chrome/137.0.0.0 Safari/537.36","Macintosh","Chrome","137.0.0.0","OS X","10_15_7","https://app.prolific.com/","en-GB,en-US;q=0.9,en;q=0.8","646a16e2aae07a0225cdb635","683db6dfa200031b80f2a654","68650777776f59bf216120a7","646a16e2aae07a0225cdb635","","","[0,1,2,3,4,5,6]","true","","","","","","","","","","","","","","","","","","","","","","","","","","","","","","","","","","","","","","","","",""
"6179","","","","fullscreen","3","35942","0.0-4.0","76","1","2025-07-02 10:19:04","80fe4187154257d5fb01684ea91b68b9","125.237.197.5","Mozilla/5.0 (Macintosh; Intel Mac OS X 10_15_7) AppleWebKit/537.36 (KHTML, like Gecko) Chrome/137.0.0.0 Safari/537.36","Macintosh","Chrome","137.0.0.0","OS X","10_15_7","https://app.prolific.com/","en-GB,en-US;q=0.9,en;q=0.8","646a16e2aae07a0225cdb635","683db6dfa200031b80f2a654","68650777776f59bf216120a7","646a16e2aae07a0225cdb635","","","","","true","","","","","","","","","","","","","","","","","","","","","","","","","","","","","","","","","","","","","","","",""
"4947","1751451587063"," <p style='font-size:1.1em;line-height:1.25'>Thank you for completing the consent form and closing all other tabs.</p><p style='font-size:1.1em;line-height:1.25'>We will now invite you to fill in some demographic information and questionnaires, before starting the game.<br>This will take about 5 minutes.<br></p><p style='font-size:1.1em;line-height:1.25'>Press the <strong>Next</strong> button to continue.</p>","0","custom-html-button-response","4","40891","0.0-5.0","76","1","2025-07-02 10:19:04","80fe4187154257d5fb01684ea91b68b9","125.237.197.5","Mozilla/5.0 (Macintosh; Intel Mac OS X 10_15_7) AppleWebKit/537.36 (KHTML, like Gecko) Chrome/137.0.0.0 Safari/537.36","Macintosh","Chrome","137.0.0.0","OS X","10_15_7","https://app.prolific.com/","en-GB,en-US;q=0.9,en;q=0.8","646a16e2aae07a0225cdb635","683db6dfa200031b80f2a654","68650777776f59bf216120a7","646a16e2aae07a0225cdb635","2025-07-02T10:19:47.064Z","","","","","","","","","","","","","","","","","","","","","","","","","","","","","","","","","","","","","","","","","","","",""
"2665","","","{""age"":""25""}","survey-text","5","43559","0.0-6.0-0.0","76","1","2025-07-02 10:19:04","80fe4187154257d5fb01684ea91b68b9","125.237.197.5","Mozilla/5.0 (Macintosh; Intel Mac OS X 10_15_7) AppleWebKit/537.36 (KHTML, like Gecko) Chrome/137.0.0.0 Safari/537.36","Macintosh","Chrome","137.0.0.0","OS X","10_15_7","https://app.prolific.com/","en-GB,en-US;q=0.9,en;q=0.8","646a16e2aae07a0225cdb635","683db6dfa200031b80f2a654","68650777776f59bf216120a7","646a16e2aae07a0225cdb635","","","","","","0","demographics","","","","","","","","","","","","","","","","","","","","","","","","","","","","","","","","","","","","","",""
"2131","","","{""gender_identity"":""male/man""}","survey-multi-choice","6","45691","0.0-6.0-1.0","76","1","2025-07-02 10:19:04","80fe4187154257d5fb01684ea91b68b9","125.237.197.5","Mozilla/5.0 (Macintosh; Intel Mac OS X 10_15_7) AppleWebKit/537.36 (KHTML, like Gecko) Chrome/137.0.0.0 Safari/537.36","Macintosh","Chrome","137.0.0.0","OS X","10_15_7","https://app.prolific.com/","en-GB,en-US;q=0.9,en;q=0.8","646a16e2aae07a0225cdb635","683db6dfa200031b80f2a654","68650777776f59bf216120a7","646a16e2aae07a0225cdb635","","","[0]","","","1","demographics","","","","","","","","","","","","","","","","","","","","","","","","","","","","","","","","","","","","","",""
"3165","","","{""assigned_sex"":""male""}","survey-multi-choice","7","48858","0.0-6.0-2.0","76","1","2025-07-02 10:19:04","80fe4187154257d5fb01684ea91b68b9","125.237.197.5","Mozilla/5.0 (Macintosh; Intel Mac OS X 10_15_7) AppleWebKit/537.36 (KHTML, like Gecko) Chrome/137.0.0.0 Safari/537.36","Macintosh","Chrome","137.0.0.0","OS X","10_15_7","https://app.prolific.com/","en-GB,en-US;q=0.9,en;q=0.8","646a16e2aae07a0225cdb635","683db6dfa200031b80f2a654","68650777776f59bf216120a7","646a16e2aae07a0225cdb635","","","[0]","","","2","demographics","","","","","","","","","","","","","","","","","","","","","","","","","","","","","","","","","","","","","",""
"4049","","","{""menstrual_cycle"":""No""}","survey-multi-choice","8","52908","0.0-6.0-3.0","76","1","2025-07-02 10:19:04","80fe4187154257d5fb01684ea91b68b9","125.237.197.5","Mozilla/5.0 (Macintosh; Intel Mac OS X 10_15_7) AppleWebKit/537.36 (KHTML, like Gecko) Chrome/137.0.0.0 Safari/537.36","Macintosh","Chrome","137.0.0.0","OS X","10_15_7","https://app.prolific.com/","en-GB,en-US;q=0.9,en;q=0.8","646a16e2aae07a0225cdb635","683db6dfa200031b80f2a654","68650777776f59bf216120a7","646a16e2aae07a0225cdb635","","","[0]","","","4","demographics","","","","","","","","","","","","","","","","","","","","","","","","","","","","","","","","","","","","","",""
"5515","","","{""education"":""Higher National Diploma""}","survey-multi-choice","9","58424","0.0-6.0-4.0","76","1","2025-07-02 10:19:04","80fe4187154257d5fb01684ea91b68b9","125.237.197.5","Mozilla/5.0 (Macintosh; Intel Mac OS X 10_15_7) AppleWebKit/537.36 (KHTML, like Gecko) Chrome/137.0.0.0 Safari/537.36","Macintosh","Chrome","137.0.0.0","OS X","10_15_7","https://app.prolific.com/","en-GB,en-US;q=0.9,en;q=0.8","646a16e2aae07a0225cdb635","683db6dfa200031b80f2a654","68650777776f59bf216120a7","646a16e2aae07a0225cdb635","","","[0]","","","5","demographics","","","","","","","","","","","","","","","","","","","","","","","","","","","","","","","","","","","","","",""
"25515","","","{""education"":""A-level/National Diploma/Highers""}","survey-multi-choice","10","83940","0.0-6.0-5.0","76","1","2025-07-02 10:19:04","80fe4187154257d5fb01684ea91b68b9","125.237.197.5","Mozilla/5.0 (Macintosh; Intel Mac OS X 10_15_7) AppleWebKit/537.36 (KHTML, like Gecko) Chrome/137.0.0.0 Safari/537.36","Macintosh","Chrome","137.0.0.0","OS X","10_15_7","https://app.prolific.com/","en-GB,en-US;q=0.9,en;q=0.8","646a16e2aae07a0225cdb635","683db6dfa200031b80f2a654","68650777776f59bf216120a7","646a16e2aae07a0225cdb635","2025-07-02T10:20:30.114Z","","[0]","","","6","demographics","","","","","","","","","","","","","","","","","","","","","","","","","","","","","","","","","","","","","",""
"6497","","","{""mental_health_condition"":"""",""mental_health_treatment"":"""",""psychiatric_medication"":""""}","survey-text","11","90439","0.0-7.0-0.0","76","1","2025-07-02 10:19:04","80fe4187154257d5fb01684ea91b68b9","125.237.197.5","Mozilla/5.0 (Macintosh; Intel Mac OS X 10_15_7) AppleWebKit/537.36 (KHTML, like Gecko) Chrome/137.0.0.0 Safari/537.36","Macintosh","Chrome","137.0.0.0","OS X","10_15_7","https://app.prolific.com/","en-GB,en-US;q=0.9,en;q=0.8","646a16e2aae07a0225cdb635","683db6dfa200031b80f2a654","68650777776f59bf216120a7","646a16e2aae07a0225cdb635","2025-07-02T10:20:36.613Z","","","","","1","mental_health","","","","","","","","","","","","","","","","","","","","","","","","","","","","","","","","","","","","","",""
"5448","","","{""depression_history"":[""Yes""]}","survey-multi-select","12","95890","0.0-7.0-1.0","76","1","2025-07-02 10:19:04","80fe4187154257d5fb01684ea91b68b9","125.237.197.5","Mozilla/5.0 (Macintosh; Intel Mac OS X 10_15_7) AppleWebKit/537.36 (KHTML, like Gecko) Chrome/137.0.0.0 Safari/537.36","Macintosh","Chrome","137.0.0.0","OS X","10_15_7","https://app.prolific.com/","en-GB,en-US;q=0.9,en;q=0.8","646a16e2aae07a0225cdb635","683db6dfa200031b80f2a654","68650777776f59bf216120a7","646a16e2aae07a0225cdb635","","","[0]","","","","mental_health","","","","","","","","","","","","","","","","","","","","","","","","","","","","","","","","","","","","","",""
"6265","","","{""depression_episodes"":""1-2"",""depression_recent"":""Within the past year""}","survey-multi-choice","13","102156","0.0-7.0-2.0-0.0","76","1","2025-07-02 10:19:04","80fe4187154257d5fb01684ea91b68b9","125.237.197.5","Mozilla/5.0 (Macintosh; Intel Mac OS X 10_15_7) AppleWebKit/537.36 (KHTML, like Gecko) Chrome/137.0.0.0 Safari/537.36","Macintosh","Chrome","137.0.0.0","OS X","10_15_7","https://app.prolific.com/","en-GB,en-US;q=0.9,en;q=0.8","646a16e2aae07a0225cdb635","683db6dfa200031b80f2a654","68650777776f59bf216120a7","646a16e2aae07a0225cdb635","2025-07-02T10:20:48.330Z","","[0,1]","","","3","mental_health","","","","","","","","","","","","","","","","","","","","","","","","","","","","","","","","","","","","","",""
"43833.10000002384","","","","survey-template","14","145992","0.0-7.0-3.0","76","1","2025-07-02 10:19:04","80fe4187154257d5fb01684ea91b68b9","125.237.197.5","Mozilla/5.0 (Macintosh; Intel Mac OS X 10_15_7) AppleWebKit/537.36 (KHTML, like Gecko) Chrome/137.0.0.0 Safari/537.36","Macintosh","Chrome","137.0.0.0","OS X","10_15_7","https://app.prolific.com/","en-GB,en-US;q=0.9,en;q=0.8","646a16e2aae07a0225cdb635","683db6dfa200031b80f2a654","68650777776f59bf216120a7","646a16e2aae07a0225cdb635","2025-07-02T10:21:32.165Z","","","","","","ius","{""Q01"":""1"",""Q02"":""4"",""Q03"":""3"",""Q04"":""3"",""Q05"":""3"",""Q06"":""4"",""Q07"":""3"",""Q08"":""0"",""Q09"":""3"",""Q10"":""2"",""Q11"":""3"",""Q12"":""3"",""Q13"":""4""}","[0,1,2,3,4,5,6,7,8,9,10,11,12]","[""Q01"",""Q02"",""Q03"",""Q04"",""Q05"",""Q06"",""Q07"",""Q08"",""Q09"",""Q10"",""Q11"",""Q12"",""Q13""]","[3396.2000000476837,6845.800000011921,9062.600000023842,14962.800000011921,18295.900000035763,22379,28045.80000001192,30879.100000023842,33845.200000047684,35662.30000001192,38262.200000047684,40129,43145.700000047684]","[]","[3396.2000000476837,6845.800000011921,9062.600000023842,14962.800000011921,18295.900000035763,21279.100000023842,22379,28045.80000001192,30879.100000023842,33845.200000047684,35662.30000001192,38262.200000047684,40129,42578.90000003576,43145.700000047684,43828.90000003576]","0.5384615384615384","0.5","0","","","","","","","","","","","","","","","","","","","","","","","","","","","","",""
"2661","1751451694826","<p style='font-size:1.1em;line-height:1.25'>In the following, we will ask you a few questions relating to your experiences over the past month.<br></p><p style='font-size:1.1em;line-height:1.25'>Press the <strong>Next</strong> button to continue.</p>","0","custom-html-button-response","15","148654","0.0-7.0-4.0","76","1","2025-07-02 10:19:04","80fe4187154257d5fb01684ea91b68b9","125.237.197.5","Mozilla/5.0 (Macintosh; Intel Mac OS X 10_15_7) AppleWebKit/537.36 (KHTML, like Gecko) Chrome/137.0.0.0 Safari/537.36","Macintosh","Chrome","137.0.0.0","OS X","10_15_7","https://app.prolific.com/","en-GB,en-US;q=0.9,en;q=0.8","646a16e2aae07a0225cdb635","683db6dfa200031b80f2a654","68650777776f59bf216120a7","646a16e2aae07a0225cdb635","2025-07-02T10:21:34.827Z","","","","","","","","","","","","","","","","","","","","","","","","","","","","","","","","","","","","","","","","","","","",""
"39485","","","","survey-template","16","188140","0.0-7.0-5.0","76","1","2025-07-02 10:19:04","80fe4187154257d5fb01684ea91b68b9","125.237.197.5","Mozilla/5.0 (Macintosh; Intel Mac OS X 10_15_7) AppleWebKit/537.36 (KHTML, like Gecko) Chrome/137.0.0.0 Safari/537.36","Macintosh","Chrome","137.0.0.0","OS X","10_15_7","https://app.prolific.com/","en-GB,en-US;q=0.9,en;q=0.8","646a16e2aae07a0225cdb635","683db6dfa200031b80f2a654","68650777776f59bf216120a7","646a16e2aae07a0225cdb635","2025-07-02T10:22:14.313Z","","","","","","pss","{""Q01"":""2"",""Q02"":""3"",""Q03"":""3"",""Q04"":""3"",""Q05"":""3"",""Q06"":""2"",""Q07"":""3"",""Q08"":""3"",""Q09"":""1"",""Q10"":""2""}","[0,1,2,3,4,5,6,7,8,9]","[""Q01"",""Q02"",""Q03"",""Q04"",""Q05"",""Q06"",""Q07"",""Q08"",""Q09"",""Q10""]","[5031.199999988079,8415,10564.699999988079,14114.600000023842,16997.899999976158,23581.100000023842,28031.19999998808,29981.100000023842,32747.69999998808,35197.39999997616]","[]","[0,5031.199999988079,7864.600000023842,8415,10114.899999976158,10564.699999988079,14114.600000023842,16997.899999976158,23581.100000023842,28031.19999998808,29981.100000023842,32747.69999998808,35197.39999997616,39481.30000001192]","0.5","0.4444444444444444","0","","","","","","","","","","","","","","","","","","","","","","","","","","","","",""
"2545","1751451736858","<p style='font-size:1.1em;line-height:1.25'>Thank you for your answers! Now we will ask you a few more questions relating to your feelings in the last 24 hours.<br></p><p style='font-size:1.1em;line-height:1.25'>Press the <strong>Next</strong> button to continue.</p>","0","custom-html-button-response","17","190686","0.0-7.0-6.0","76","1","2025-07-02 10:19:04","80fe4187154257d5fb01684ea91b68b9","125.237.197.5","Mozilla/5.0 (Macintosh; Intel Mac OS X 10_15_7) AppleWebKit/537.36 (KHTML, like Gecko) Chrome/137.0.0.0 Safari/537.36","Macintosh","Chrome","137.0.0.0","OS X","10_15_7","https://app.prolific.com/","en-GB,en-US;q=0.9,en;q=0.8","646a16e2aae07a0225cdb635","683db6dfa200031b80f2a654","68650777776f59bf216120a7","646a16e2aae07a0225cdb635","2025-07-02T10:22:16.859Z","","","","","","","","","","","","","","","","","","","","","","","","","","","","","","","","","","","","","","","","","","","",""
"55135.69999998808","","","","survey-template","18","245823","0.0-7.0-7.0","76","1","2025-07-02 10:19:04","80fe4187154257d5fb01684ea91b68b9","125.237.197.5","Mozilla/5.0 (Macintosh; Intel Mac OS X 10_15_7) AppleWebKit/537.36 (KHTML, like Gecko) Chrome/137.0.0.0 Safari/537.36","Macintosh","Chrome","137.0.0.0","OS X","10_15_7","https://app.prolific.com/","en-GB,en-US;q=0.9,en;q=0.8","646a16e2aae07a0225cdb635","683db6dfa200031b80f2a654","68650777776f59bf216120a7","646a16e2aae07a0225cdb635","2025-07-02T10:23:11.996Z","","","","","","drsp","{""Q01"":""1"",""Q02"":""1"",""Q03"":""1"",""Q04"":""2"",""Q05"":""2"",""Q06"":""0"",""Q07"":""1"",""Q08"":""0"",""Q09"":""0"",""Q10"":""1"",""Q11"":""2"",""Q12"":""1"",""Q13"":""0"",""Q14"":""3"",""Q15"":""3"",""Q16"":""2"",""Q17"":""2"",""Q18"":""0"",""Q19"":""0"",""Q20"":""0"",""Q21"":""1""}","[0,1,2,3,4,5,6,7,8,9,10,11,12,13,14,15,16,17,18,19,20]","[""Q01"",""Q02"",""Q03"",""Q04"",""Q05"",""Q06"",""Q07"",""Q08"",""Q09"",""Q10"",""Q11"",""Q12"",""Q13"",""Q14"",""Q15"",""Q16"",""Q17"",""Q18"",""Q19"",""Q20"",""Q21"",""Q21""]","[1930.6000000238419,2964.300000011921,4614.400000035763,5847.600000023842,7347.199999988079,9214.100000023842,10347.600000023842,12580.900000035763,13997.100000023842,16180.600000023842,17513.900000035763,19663.900000035763,20963.69999998808,28363.69999998808,31147,33280.60000002384,35213.60000002384,36964,41613.30000001192,46897.19999998808,48880.10000002384,49913.40000003576]","[]","[0,1930.6000000238419,2964.300000011921,3947.900000035763,4614.400000035763,5847.600000023842,7347.199999988079,9214.100000023842,10347.600000023842,11781,12580.900000035763,13314.100000023842,13997.100000023842,16180.600000023842,17513.900000035763,19663.900000035763,20963.69999998808,28363.69999998808,31147,33280.60000002384,35213.60000002384,36964,41613.30000001192,46897.19999998808,48880.10000002384,49913.40000003576,55130.90000003576]","0.3333333333333333","0.45","0","","","","","","","","","","","","","","","","","","","","","","","","","","","","",""
"8493.900000035763","","","","survey-template","19","254318","0.0-7.0-8.0","76","1","2025-07-02 10:19:04","80fe4187154257d5fb01684ea91b68b9","125.237.197.5","Mozilla/5.0 (Macintosh; Intel Mac OS X 10_15_7) AppleWebKit/537.36 (KHTML, like Gecko) Chrome/137.0.0.0 Safari/537.36","Macintosh","Chrome","137.0.0.0","OS X","10_15_7","https://app.prolific.com/","en-GB,en-US;q=0.9,en;q=0.8","646a16e2aae07a0225cdb635","683db6dfa200031b80f2a654","68650777776f59bf216120a7","646a16e2aae07a0225cdb635","2025-07-02T10:23:20.491Z","","","","","","stress","{""Q01"":""1"",""Q02"":""4"",""Q03"":""3""}","[0,1,2]","[""Q01"",""Q02"",""Q03""]","[2343,3859.2000000476837,7675.800000011921]","[]","[2343,3859.2000000476837,6909.400000035763,7675.800000011921,8492.600000023842]","0.6666666666666666","0","0","","","","","","","","","","","","","","","","","","","","","","","","","","","","",""
"64314","","","","instructions","20","318632","0.0-8.0-0.0","76","1","2025-07-02 10:19:04","80fe4187154257d5fb01684ea91b68b9","125.237.197.5","Mozilla/5.0 (Macintosh; Intel Mac OS X 10_15_7) AppleWebKit/537.36 (KHTML, like Gecko) Chrome/137.0.0.0 Safari/537.36","Macintosh","Chrome","137.0.0.0","OS X","10_15_7","https://app.prolific.com/","en-GB,en-US;q=0.9,en;q=0.8","646a16e2aae07a0225cdb635","683db6dfa200031b80f2a654","68650777776f59bf216120a7","646a16e2aae07a0225cdb635","","[{""page_index"":0,""viewing_time"":12497},{""page_index"":1,""viewing_time"":22566},{""page_index"":2,""viewing_time"":7050},{""page_index"":3,""viewing_time"":22200}]","","","","","","","","","","","","","","","","","","","","","","","","","","","","","","","","","","","","","","","","","","",""
"","","","","ctl-task-cpt","21","338556","0.0-8.0-1.0","76","1","2025-07-02 10:19:04","80fe4187154257d5fb01684ea91b68b9","125.237.197.5","Mozilla/5.0 (Macintosh; Intel Mac OS X 10_15_7) AppleWebKit/537.36 (KHTML, like Gecko) Chrome/137.0.0.0 Safari/537.36","Macintosh","Chrome","137.0.0.0","OS X","10_15_7","https://app.prolific.com/","en-GB,en-US;q=0.9,en;q=0.8","646a16e2aae07a0225cdb635","683db6dfa200031b80f2a654","68650777776f59bf216120a7","646a16e2aae07a0225cdb635","","","","","","","","","","","","","","","","","win-only","1","g1:NE,g2:SW","1","0","1","321780.2","2364.5","6366.2","16916.5","2","4","4","6","1","2","1","1","0","0.007575757575757576","1986.4","4000","2750","[""up"",""right""]","{""num_key_presses"":4,""num_perfect"":3,""num_errors"":1,""num_randdir"":0,""num_randdir_good_moves"":0,""num_whilered"":0,""num_whileblue"":1,""num_blue"":1,""num_good_moves"":4}","[702.9366071428572,707.7334821428572,0.1,702.9366071428572,707.7334821428572,101.7,702.9366071428572,707.7334821428572,206.7,702.9366071428572,707.7334821428572,312.2,702.9366071428572,707.7334821428572,416.3,702.9366071428572,707.7334821428572,516.4,702.9366071428572,707.7334821428572,616.4,1226.9366071428572,431.73348214285716,716.9,1408.9366071428572,311.73348214285716,821,1408.9366071428572,311.73348214285716,921.7,1398.9366071428572,301.73348214285716,1026.2,1348.9366071428572,215.73348214285716,1126.7,1348.9366071428572,209.73348214285716,1226.8,1348.9366071428572,209.73348214285716,1326.9,1316.9366071428572,205.73348214285716,1427,1290.9366071428572,203.73348214285716,1531.7,1292.9366071428572,201.73348214285716,1631.7,1298.9366071428572,201.73348214285716,1736.7,1302.9366071428572,195.73348214285716,1841.3,1302.9366071428572,187.73348214285716,1942.2,1302.9366071428572,185.73348214285716,2042.4,1302.9366071428572,185.73348214285716,2146.2,1302.9366071428572,185.73348214285716,2247.1,1302.9366071428572,185.73348214285716,2351.2,1302.9366071428572,185.73348214285716,2456.2,1302.9366071428572,185.73348214285716,2556.2,1302.9366071428572,185.73348214285716,2656.9,1302.9366071428572,185.73348214285716,2761.5,1302.9366071428572,185.73348214285716,2861.5,1302.9366071428572,185.73348214285716,2962,1302.9366071428572,185.73348214285716,3062,1302.9366071428572,185.73348214285716,3162.1,1302.9366071428572,185.73348214285716,3266.8,1302.9366071428572,185.73348214285716,3370.8,1302.9366071428572,185.73348214285716,3471,1302.9366071428572,185.73348214285716,3576.7,1302.9366071428572,185.73348214285716,3677.1,1302.9366071428572,185.73348214285716,3782.2,1302.9366071428572,185.73348214285716,3885.7,1302.9366071428572,185.73348214285716,3985.7]","[1340.6,1340.6,1000,0,340.6,""smooth"",""right"",""right"",""good_move"",4734.5,3393.5,2885.3,1341,508.2,""smooth"",""up"",""up"",""good_move"",7863.1,3128.2,2717.5,4734.9,410.7,""smooth"",""up"",""up"",""good_move"",10456.1,2592.8,2261.3,7863.3,331.5,""while_blue"",""right"",""right"",""good_move""]","",""
"10891","","","","instructions","22","349447","0.0-8.0-2.0","76","1","2025-07-02 10:19:04","80fe4187154257d5fb01684ea91b68b9","125.237.197.5","Mozilla/5.0 (Macintosh; Intel Mac OS X 10_15_7) AppleWebKit/537.36 (KHTML, like Gecko) Chrome/137.0.0.0 Safari/537.36","Macintosh","Chrome","137.0.0.0","OS X","10_15_7","https://app.prolific.com/","en-GB,en-US;q=0.9,en;q=0.8","646a16e2aae07a0225cdb635","683db6dfa200031b80f2a654","68650777776f59bf216120a7","646a16e2aae07a0225cdb635","","[{""page_index"":0,""viewing_time"":10890}]","","","","","","","","","","","","","","","","","","","","","","","","","","","","","","","","","","","","","","","","","","",""
"","","","","ctl-task-cpt","23","380825","0.0-8.0-3.0","76","1","2025-07-02 10:19:04","80fe4187154257d5fb01684ea91b68b9","125.237.197.5","Mozilla/5.0 (Macintosh; Intel Mac OS X 10_15_7) AppleWebKit/537.36 (KHTML, like Gecko) Chrome/137.0.0.0 Safari/537.36","Macintosh","Chrome","137.0.0.0","OS X","10_15_7","https://app.prolific.com/","en-GB,en-US;q=0.9,en;q=0.8","646a16e2aae07a0225cdb635","683db6dfa200031b80f2a654","68650777776f59bf216120a7","646a16e2aae07a0225cdb635","","","","","","","","","","","","","","","","","win-only","1","g1:NE,g2:SW","0.35","0","3","352594.5","2935.2","6937.7","28372.6","2","4","8","6","2","8","8","8","0","0.06060606060606061","2445.8","4000","730","[""down"",""left""]","{""num_key_presses"":8,""num_perfect"":4,""num_errors"":0,""num_randdir"":4,""num_randdir_good_moves"":3,""num_whilered"":0,""num_whileblue"":0,""num_blue"":0,""num_good_moves"":7}","[710.9366071428572,705.7334821428572,0.3,710.9366071428572,705.7334821428572,100.1,710.9366071428572,705.7334821428572,200.5,710.9366071428572,705.7334821428572,302.1,710.9366071428572,705.7334821428572,405.5,710.9366071428572,705.7334821428572,505.8,710.9366071428572,705.7334821428572,606.2,710.9366071428572,705.7334821428572,711.5,710.9366071428572,705.7334821428572,816.4,880.9366071428572,645.7334821428572,916.4,898.9366071428572,643.7334821428572,1020.9,898.9366071428572,643.7334821428572,1126.3,1066.9366071428572,445.73348214285716,1226.4,1184.9366071428572,321.73348214285716,1332,1200.9366071428572,301.73348214285716,1436.8,1200.9366071428572,301.73348214285716,1540.4,1188.9366071428572,301.73348214285716,1641.2,416.93660714285716,1003.7334821428572,1746.4,350.93660714285716,1143.7334821428572,1850.6,350.93660714285716,1143.7334821428572,1951.2,190.93660714285716,1257.7334821428572,2056.7,146.93660714285716,1285.7334821428572,2161.6,146.93660714285716,1287.7334821428572,2265.3,146.93660714285716,1289.7334821428572,2366.2,144.93660714285716,1289.7334821428572,2470.3,144.93660714285716,1289.7334821428572,2571,144.93660714285716,1289.7334821428572,2671.1,298.93660714285716,1225.7334821428572,2776.4,526.9366071428572,1055.7334821428572,2877.3,540.9366071428572,1023.7334821428572,2981.6,540.9366071428572,1023.7334821428572,3086.5,540.9366071428572,1023.7334821428572,3187.4,540.9366071428572,1023.7334821428572,3291,540.9366071428572,1023.7334821428572,3396,540.9366071428572,1023.7334821428572,3496.4,540.9366071428572,1023.7334821428572,3600.8,540.9366071428572,1023.7334821428572,3701.4,540.9366071428572,1023.7334821428572,3806.4,540.9366071428572,1023.7334821428572,3911]","[1362.7,1362.7,1000,0,362.7,""oops"",""left"",""down"",""good_move"",4754.5,3391.3,3055.6,1363.3,335.6,""smooth"",""left"",""left"",""good_move"",8212.5,3457.6,2737.3,4754.9,720.3,""smooth"",""left"",""left"",""good_move"",10716.6,2503.7,2097.2,8212.9,406.5,""oops"",""left"",""left"",""good_move"",13096,2379.2,2016.7,10716.8,362.5,""oops"",""down"",""up"",""bad_move"",16182.2,3085.8,2735.3,13096.4,350.5,""smooth"",""down"",""down"",""good_move"",18554.9,2372.5,1975.9,16182.4,396.6,""smooth"",""down"",""down"",""good_move"",21345.1,2790,2406.5,18555.1,383.5,""oops"",""down"",""down"",""good_move""]","",""
"32787","","","","instructions","24","413612","0.0-8.0-4.0","76","1","2025-07-02 10:19:04","80fe4187154257d5fb01684ea91b68b9","125.237.197.5","Mozilla/5.0 (Macintosh; Intel Mac OS X 10_15_7) AppleWebKit/537.36 (KHTML, like Gecko) Chrome/137.0.0.0 Safari/537.36","Macintosh","Chrome","137.0.0.0","OS X","10_15_7","https://app.prolific.com/","en-GB,en-US;q=0.9,en;q=0.8","646a16e2aae07a0225cdb635","683db6dfa200031b80f2a654","68650777776f59bf216120a7","646a16e2aae07a0225cdb635","","[{""page_index"":0,""viewing_time"":22102},{""page_index"":1,""viewing_time"":10685}]","","","","","","","","","","","","","","","","","","","","","","","","","","","","","","","","","","","","","","","","","","",""
"19098","","","{""green_ball"":[""Ball always moves in the direction I press"",""Ball sometimes shakes and moves in a random direction""]}","survey-multi-select","25","432712","0.0-8.0-5.0-0.0","76","1","2025-07-02 10:19:04","80fe4187154257d5fb01684ea91b68b9","125.237.197.5","Mozilla/5.0 (Macintosh; Intel Mac OS X 10_15_7) AppleWebKit/537.36 (KHTML, like Gecko) Chrome/137.0.0.0 Safari/537.36","Macintosh","Chrome","137.0.0.0","OS X","10_15_7","https://app.prolific.com/","en-GB,en-US;q=0.9,en;q=0.8","646a16e2aae07a0225cdb635","683db6dfa200031b80f2a654","68650777776f59bf216120a7","646a16e2aae07a0225cdb635","","","[0]","","","","quiz","","","","","","","","","","","","","","","","","","","","","","","","","","","","","","","","","","","","","false",""
"3831","","<p align='center'><b>INCORRECT.</b> Usually the green ball moves in the indicated direction, but sometimes it shakes and moves randomly. </p>","0","html-button-response","26","436545","0.0-8.0-5.0-1.0","76","1","2025-07-02 10:19:04","80fe4187154257d5fb01684ea91b68b9","125.237.197.5","Mozilla/5.0 (Macintosh; Intel Mac OS X 10_15_7) AppleWebKit/537.36 (KHTML, like Gecko) Chrome/137.0.0.0 Safari/537.36","Macintosh","Chrome","137.0.0.0","OS X","10_15_7","https://app.prolific.com/","en-GB,en-US;q=0.9,en;q=0.8","646a16e2aae07a0225cdb635","683db6dfa200031b80f2a654","68650777776f59bf216120a7","646a16e2aae07a0225cdb635","","","","","","","","","","","","","","","","","","","","","","","","","","","","","","","","","","","","","","","","","","","","",""
"3064","","","{""green_ball"":[""Ball sometimes shakes and moves in a random direction""]}","survey-multi-select","27","439611","0.0-8.0-5.1-0.1","76","1","2025-07-02 10:19:04","80fe4187154257d5fb01684ea91b68b9","125.237.197.5","Mozilla/5.0 (Macintosh; Intel Mac OS X 10_15_7) AppleWebKit/537.36 (KHTML, like Gecko) Chrome/137.0.0.0 Safari/537.36","Macintosh","Chrome","137.0.0.0","OS X","10_15_7","https://app.prolific.com/","en-GB,en-US;q=0.9,en;q=0.8","646a16e2aae07a0225cdb635","683db6dfa200031b80f2a654","68650777776f59bf216120a7","646a16e2aae07a0225cdb635","","","[0]","","","","quiz","","","","","","","","","","","","","","","","","","","","","","","","","","","","","","","","","","","","","true",""
"1182","","<p align='center'><b>CORRECT!</b> Indeed, the green ball may sometimes shake and move in a random direction.</p>","0","html-button-response","28","440794","0.0-8.0-5.1-1.1","76","1","2025-07-02 10:19:04","80fe4187154257d5fb01684ea91b68b9","125.237.197.5","Mozilla/5.0 (Macintosh; Intel Mac OS X 10_15_7) AppleWebKit/537.36 (KHTML, like Gecko) Chrome/137.0.0.0 Safari/537.36","Macintosh","Chrome","137.0.0.0","OS X","10_15_7","https://app.prolific.com/","en-GB,en-US;q=0.9,en;q=0.8","646a16e2aae07a0225cdb635","683db6dfa200031b80f2a654","68650777776f59bf216120a7","646a16e2aae07a0225cdb635","","","","","","","","","","","","","","","","","","","","","","","","","","","","","","","","","","","","","","","","","","","","",""
"8932","","","{""yellow_ball"":[""Ball doesn‘t move and I get -1 penalty point""]}","survey-multi-select","29","449727","0.0-8.0-6.0-0.0","76","1","2025-07-02 10:19:04","80fe4187154257d5fb01684ea91b68b9","125.237.197.5","Mozilla/5.0 (Macintosh; Intel Mac OS X 10_15_7) AppleWebKit/537.36 (KHTML, like Gecko) Chrome/137.0.0.0 Safari/537.36","Macintosh","Chrome","137.0.0.0","OS X","10_15_7","https://app.prolific.com/","en-GB,en-US;q=0.9,en;q=0.8","646a16e2aae07a0225cdb635","683db6dfa200031b80f2a654","68650777776f59bf216120a7","646a16e2aae07a0225cdb635","","","[0]","","","","quiz","","","","","","","","","","","","","","","","","","","","","","","","","","","","","","","","","","","","","true",""
"949","","<p align='center'><b>CORRECT!</b> Indeed, the yellow ball never moves and you receive a penalty.</p>","0","html-button-response","30","450677","0.0-8.0-6.0-1.0","76","1","2025-07-02 10:19:04","80fe4187154257d5fb01684ea91b68b9","125.237.197.5","Mozilla/5.0 (Macintosh; Intel Mac OS X 10_15_7) AppleWebKit/537.36 (KHTML, like Gecko) Chrome/137.0.0.0 Safari/537.36","Macintosh","Chrome","137.0.0.0","OS X","10_15_7","https://app.prolific.com/","en-GB,en-US;q=0.9,en;q=0.8","646a16e2aae07a0225cdb635","683db6dfa200031b80f2a654","68650777776f59bf216120a7","646a16e2aae07a0225cdb635","","","","","","","","","","","","","","","","","","","","","","","","","","","","","","","","","","","","","","","","","","","","",""
"6982","","","{""blue_ball"":[""Ball doesn‘t move and I get -1 penalty point""]}","survey-multi-select","31","457661","0.0-8.0-7.0-0.0","76","1","2025-07-02 10:19:04","80fe4187154257d5fb01684ea91b68b9","125.237.197.5","Mozilla/5.0 (Macintosh; Intel Mac OS X 10_15_7) AppleWebKit/537.36 (KHTML, like Gecko) Chrome/137.0.0.0 Safari/537.36","Macintosh","Chrome","137.0.0.0","OS X","10_15_7","https://app.prolific.com/","en-GB,en-US;q=0.9,en;q=0.8","646a16e2aae07a0225cdb635","683db6dfa200031b80f2a654","68650777776f59bf216120a7","646a16e2aae07a0225cdb635","","","[0]","","","","quiz","","","","","","","","","","","","","","","","","","","","","","","","","","","","","","","","","","","","","false",""
"2265","","<p align='center'><b>INCORRECT.</b> The blue ball always shakes and moves randomly.</p>","0","html-button-response","32","459927","0.0-8.0-7.0-1.0","76","1","2025-07-02 10:19:04","80fe4187154257d5fb01684ea91b68b9","125.237.197.5","Mozilla/5.0 (Macintosh; Intel Mac OS X 10_15_7) AppleWebKit/537.36 (KHTML, like Gecko) Chrome/137.0.0.0 Safari/537.36","Macintosh","Chrome","137.0.0.0","OS X","10_15_7","https://app.prolific.com/","en-GB,en-US;q=0.9,en;q=0.8","646a16e2aae07a0225cdb635","683db6dfa200031b80f2a654","68650777776f59bf216120a7","646a16e2aae07a0225cdb635","","","","","","","","","","","","","","","","","","","","","","","","","","","","","","","","","","","","","","","","","","","","",""
"5582","","","{""blue_ball"":[""Ball always shakes and moves in a random direction""]}","survey-multi-select","33","465510","0.0-8.0-7.1-0.1","76","1","2025-07-02 10:19:04","80fe4187154257d5fb01684ea91b68b9","125.237.197.5","Mozilla/5.0 (Macintosh; Intel Mac OS X 10_15_7) AppleWebKit/537.36 (KHTML, like Gecko) Chrome/137.0.0.0 Safari/537.36","Macintosh","Chrome","137.0.0.0","OS X","10_15_7","https://app.prolific.com/","en-GB,en-US;q=0.9,en;q=0.8","646a16e2aae07a0225cdb635","683db6dfa200031b80f2a654","68650777776f59bf216120a7","646a16e2aae07a0225cdb635","","","[0]","","","","quiz","","","","","","","","","","","","","","","","","","","","","","","","","","","","","","","","","","","","","true",""
"2865","","<p align='center'><b>CORRECT!</b> Indeed, the blue ball always shakes and moves in a random direction. Also there is a penalty of -1 point.</p>","0","html-button-response","34","468376","0.0-8.0-7.1-1.1","76","1","2025-07-02 10:19:04","80fe4187154257d5fb01684ea91b68b9","125.237.197.5","Mozilla/5.0 (Macintosh; Intel Mac OS X 10_15_7) AppleWebKit/537.36 (KHTML, like Gecko) Chrome/137.0.0.0 Safari/537.36","Macintosh","Chrome","137.0.0.0","OS X","10_15_7","https://app.prolific.com/","en-GB,en-US;q=0.9,en;q=0.8","646a16e2aae07a0225cdb635","683db6dfa200031b80f2a654","68650777776f59bf216120a7","646a16e2aae07a0225cdb635","","","","","","","","","","","","","","","","","","","","","","","","","","","","","","","","","","","","","","","","","","","","",""
"9415","","","{""bonus"":[""When I reach 80% of points""]}","survey-multi-select","35","477794","0.0-8.0-8.0-0.0","76","1","2025-07-02 10:19:04","80fe4187154257d5fb01684ea91b68b9","125.237.197.5","Mozilla/5.0 (Macintosh; Intel Mac OS X 10_15_7) AppleWebKit/537.36 (KHTML, like Gecko) Chrome/137.0.0.0 Safari/537.36","Macintosh","Chrome","137.0.0.0","OS X","10_15_7","https://app.prolific.com/","en-GB,en-US;q=0.9,en;q=0.8","646a16e2aae07a0225cdb635","683db6dfa200031b80f2a654","68650777776f59bf216120a7","646a16e2aae07a0225cdb635","","","[0]","","","","quiz","","","","","","","","","","","","","","","","","","","","","","","","","","","","","","","","","","","","","false",""
"2765","","<p align='center'><b>INCORRECT.</b> You receive 2 pounds extra when you reach 50% of points </p>","0","html-button-response","36","480560","0.0-8.0-8.0-1.0","76","1","2025-07-02 10:19:04","80fe4187154257d5fb01684ea91b68b9","125.237.197.5","Mozilla/5.0 (Macintosh; Intel Mac OS X 10_15_7) AppleWebKit/537.36 (KHTML, like Gecko) Chrome/137.0.0.0 Safari/537.36","Macintosh","Chrome","137.0.0.0","OS X","10_15_7","https://app.prolific.com/","en-GB,en-US;q=0.9,en;q=0.8","646a16e2aae07a0225cdb635","683db6dfa200031b80f2a654","68650777776f59bf216120a7","646a16e2aae07a0225cdb635","","","","","","","","","","","","","","","","","","","","","","","","","","","","","","","","","","","","","","","","","","","","",""
"2548","","","{""bonus"":[""When I reach 50% of points""]}","survey-multi-select","37","483110","0.0-8.0-8.1-0.1","76","1","2025-07-02 10:19:04","80fe4187154257d5fb01684ea91b68b9","125.237.197.5","Mozilla/5.0 (Macintosh; Intel Mac OS X 10_15_7) AppleWebKit/537.36 (KHTML, like Gecko) Chrome/137.0.0.0 Safari/537.36","Macintosh","Chrome","137.0.0.0","OS X","10_15_7","https://app.prolific.com/","en-GB,en-US;q=0.9,en;q=0.8","646a16e2aae07a0225cdb635","683db6dfa200031b80f2a654","68650777776f59bf216120a7","646a16e2aae07a0225cdb635","","","[0]","","","","quiz","","","","","","","","","","","","","","","","","","","","","","","","","","","","","","","","","","","","","true",""
"1331","","<p align='center'><b>CORRECT!</b> Indeed, you receive 2 pounds extra when you reach 50% of points.</p>","0","html-button-response","38","484442","0.0-8.0-8.1-1.1","76","1","2025-07-02 10:19:04","80fe4187154257d5fb01684ea91b68b9","125.237.197.5","Mozilla/5.0 (Macintosh; Intel Mac OS X 10_15_7) AppleWebKit/537.36 (KHTML, like Gecko) Chrome/137.0.0.0 Safari/537.36","Macintosh","Chrome","137.0.0.0","OS X","10_15_7","https://app.prolific.com/","en-GB,en-US;q=0.9,en;q=0.8","646a16e2aae07a0225cdb635","683db6dfa200031b80f2a654","68650777776f59bf216120a7","646a16e2aae07a0225cdb635","","","","","","","","","","","","","","","","","","","","","","","","","","","","","","","","","","","","","","","","","","","","",""
"2567","","","","instructions","39","487009","0.0-8.0-9.0","76","1","2025-07-02 10:19:04","80fe4187154257d5fb01684ea91b68b9","125.237.197.5","Mozilla/5.0 (Macintosh; Intel Mac OS X 10_15_7) AppleWebKit/537.36 (KHTML, like Gecko) Chrome/137.0.0.0 Safari/537.36","Macintosh","Chrome","137.0.0.0","OS X","10_15_7","https://app.prolific.com/","en-GB,en-US;q=0.9,en;q=0.8","646a16e2aae07a0225cdb635","683db6dfa200031b80f2a654","68650777776f59bf216120a7","646a16e2aae07a0225cdb635","","[{""page_index"":0,""viewing_time"":2566}]","","","","","","","","","","","","","","","","","","","","","","","","","","","","","","","","","","","","","","","","","","",""
"7348","","<p>Before you start with this game please answer the following three questions yourself. </p>
  <p>Through this game, we measure several aspects of your cognitive performance, such as reaction times, multi-tasking capabilities </p>
  <p>and the ability to assess the situation you are in.</p>
  <p></p>
  <p><b>How good do you usually are in such tasks?</b></p>","27","html-slider-response","40","494359","0.0-9.0-0.0","76","1","2025-07-02 10:19:04","80fe4187154257d5fb01684ea91b68b9","125.237.197.5","Mozilla/5.0 (Macintosh; Intel Mac OS X 10_15_7) AppleWebKit/537.36 (KHTML, like Gecko) Chrome/137.0.0.0 Safari/537.36","Macintosh","Chrome","137.0.0.0","OS X","10_15_7","https://app.prolific.com/","en-GB,en-US;q=0.9,en;q=0.8","646a16e2aae07a0225cdb635","683db6dfa200031b80f2a654","68650777776f59bf216120a7","646a16e2aae07a0225cdb635","2025-07-02T10:27:20.532Z","","","","","","PreSkillQ","","","","","","","","","","","","","","","","","","","","","","","","","","","","","","","","","","","","","","50"
"3365","","<div style=""width:500px;"">
  <p>How well do you think you will perform in this task compared to other participants?</p>
  </div>","36","html-slider-response","41","497725","0.0-9.0-1.0","76","1","2025-07-02 10:19:04","80fe4187154257d5fb01684ea91b68b9","125.237.197.5","Mozilla/5.0 (Macintosh; Intel Mac OS X 10_15_7) AppleWebKit/537.36 (KHTML, like Gecko) Chrome/137.0.0.0 Safari/537.36","Macintosh","Chrome","137.0.0.0","OS X","10_15_7","https://app.prolific.com/","en-GB,en-US;q=0.9,en;q=0.8","646a16e2aae07a0225cdb635","683db6dfa200031b80f2a654","68650777776f59bf216120a7","646a16e2aae07a0225cdb635","2025-07-02T10:27:23.898Z","","","","","","PrePerfQ","","","","","","","","","","","","","","","","","","","","","","","","","","","","","","","","","","","","","","50"
"4599","","<div style=""width:500px;"">
  <p>What best describes how you currently feel?</p>
  </div>","32","html-slider-response","42","502325","0.0-9.0-2.0","76","1","2025-07-02 10:19:04","80fe4187154257d5fb01684ea91b68b9","125.237.197.5","Mozilla/5.0 (Macintosh; Intel Mac OS X 10_15_7) AppleWebKit/537.36 (KHTML, like Gecko) Chrome/137.0.0.0 Safari/537.36","Macintosh","Chrome","137.0.0.0","OS X","10_15_7","https://app.prolific.com/","en-GB,en-US;q=0.9,en;q=0.8","646a16e2aae07a0225cdb635","683db6dfa200031b80f2a654","68650777776f59bf216120a7","646a16e2aae07a0225cdb635","2025-07-02T10:27:28.498Z","","","","","","PreMotivationQ","","","","","","","","","","","","","","","","","","","","","","","","","","","","","","","","","","","","","","50"
"","","","","ctl-task-cpt","43","527671","0.0-10.0-0.0","76","1","2025-07-02 10:19:04","80fe4187154257d5fb01684ea91b68b9","125.237.197.5","Mozilla/5.0 (Macintosh; Intel Mac OS X 10_15_7) AppleWebKit/537.36 (KHTML, like Gecko) Chrome/137.0.0.0 Safari/537.36","Macintosh","Chrome","137.0.0.0","OS X","10_15_7","https://app.prolific.com/","en-GB,en-US;q=0.9,en;q=0.8","646a16e2aae07a0225cdb635","683db6dfa200031b80f2a654","68650777776f59bf216120a7","646a16e2aae07a0225cdb635","2025-07-02T10:27:53.844Z","","","","","","","","","","","","","","","","win-only","1","g1:NE,g2:SW","1","1","0","505478.2","1314.6","6317.3","22337","1","4","8","6","2","8","8","8","0","0.06060606060606061","1349.1","3000","785","[""down"",""left""]","{""num_key_presses"":6,""num_perfect"":6,""num_errors"":0,""num_randdir"":0,""num_randdir_good_moves"":0,""num_whilered"":0,""num_whileblue"":0,""num_blue"":0,""num_good_moves"":6}","[708.9366071428572,703.7334821428572,0.2,708.9366071428572,703.7334821428572,103.4,708.9366071428572,703.7334821428572,207.6,708.9366071428572,703.7334821428572,307.6,708.9366071428572,703.7334821428572,411.5,708.9366071428572,703.7334821428572,516.5,708.9366071428572,703.7334821428572,616.7,708.9366071428572,703.7334821428572,721.3,328.93660714285716,1051.7334821428572,821.9,122.93660714285714,1373.7334821428572,927.9,122.93660714285714,1373.7334821428572,1031.9,122.93660714285714,1373.7334821428572,1137.1,122.93660714285714,1349.7334821428572,1240.9,122.93660714285714,1311.7334821428572,1341.2,122.93660714285714,1311.7334821428572,1446.6,122.93660714285714,1311.7334821428572,1546.9,122.93660714285714,1311.7334821428572,1651.6,122.93660714285714,1311.7334821428572,1756.8,122.93660714285714,1311.7334821428572,1856.8,122.93660714285714,1311.7334821428572,1961.7,122.93660714285714,1311.7334821428572,2061.7,122.93660714285714,1311.7334821428572,2166.7,126.93660714285714,1063.7334821428572,2271.6,86.93660714285714,879.7334821428572,2376.3,86.93660714285714,879.7334821428572,2476.5,-93.06339285714286,825.7334821428572,2577.6,-463.06339285714284,777.7334821428572,2681,-471.06339285714284,777.7334821428572,2781.4,-471.06339285714284,777.7334821428572,2888.3,-471.06339285714284,777.7334821428572,2988.4,-471.06339285714284,777.7334821428572,3091.9,-471.06339285714284,777.7334821428572,3191.9,-471.06339285714284,777.7334821428572,3297.3,-471.06339285714284,777.7334821428572,3401.7,-471.06339285714284,777.7334821428572,3508.4,-471.06339285714284,777.7334821428572,3611.3,-471.06339285714284,777.7334821428572,3711.4,-471.06339285714284,777.7334821428572,3811.5,-471.06339285714284,777.7334821428572,3912,-471.06339285714284,777.7334821428572,4016.6,-471.06339285714284,777.7334821428572,4117.2,-471.06339285714284,777.7334821428572,4223.7,-471.06339285714284,777.7334821428572,4326.4,-471.06339285714284,777.7334821428572,4426.6,-471.06339285714284,777.7334821428572,4526.7,-471.06339285714284,777.7334821428572,4631.4,-471.06339285714284,777.7334821428572,4731.8,-471.06339285714284,777.7334821428572,4837.5,-471.06339285714284,777.7334821428572,4941.6]","[1366,1366,1000,0,366,""smooth"",""left"",""left"",""good_move"",3868.9,2502.5,2131.8,1366.4,370.7,""smooth"",""left"",""left"",""good_move"",6983.9,3114.8,2722.4,3869.1,392.4,""smooth"",""down"",""down"",""good_move"",9787.7,2803.5,2389.7,6984.2,413.8,""smooth"",""left"",""left"",""good_move"",13090.9,3303.1,2977.8,9787.9,325.3,""smooth"",""down"",""down"",""good_move"",15933,2841.8,2459.7,13091.2,382.1,""smooth"",""down"",""down"",""good_move""]","",""
"3485","","<div style=""width:500px;"">
  <p>What determined the result of this run?</p>
  </div>","100","html-slider-response","44","531157","0.0-10.0-1.0","76","1","2025-07-02 10:19:04","80fe4187154257d5fb01684ea91b68b9","125.237.197.5","Mozilla/5.0 (Macintosh; Intel Mac OS X 10_15_7) AppleWebKit/537.36 (KHTML, like Gecko) Chrome/137.0.0.0 Safari/537.36","Macintosh","Chrome","137.0.0.0","OS X","10_15_7","https://app.prolific.com/","en-GB,en-US;q=0.9,en;q=0.8","646a16e2aae07a0225cdb635","683db6dfa200031b80f2a654","68650777776f59bf216120a7","646a16e2aae07a0225cdb635","2025-07-02T10:27:57.331Z","","","","","","AttribQ","","","","","","","","","","","","","","","","","","","","","","","","","","","","","","","","","","","","","","50"
"3117","","<div style=""width:500px;"">
  <p>How much control did you have over the ball?</p>
  </div>","99","html-slider-response","45","534275","0.0-10.0-2.0","76","1","2025-07-02 10:19:04","80fe4187154257d5fb01684ea91b68b9","125.237.197.5","Mozilla/5.0 (Macintosh; Intel Mac OS X 10_15_7) AppleWebKit/537.36 (KHTML, like Gecko) Chrome/137.0.0.0 Safari/537.36","Macintosh","Chrome","137.0.0.0","OS X","10_15_7","https://app.prolific.com/","en-GB,en-US;q=0.9,en;q=0.8","646a16e2aae07a0225cdb635","683db6dfa200031b80f2a654","68650777776f59bf216120a7","646a16e2aae07a0225cdb635","2025-07-02T10:28:00.448Z","","","","","","ControlQ","","","","","","","","","","","","","","","","","","","","","","","","","","","","","","","","","","","","","","50"
"3430","","<div style=""width:500px;"">
  <p>How would you describe your current emotional state?</p>
  </div>","16","html-slider-response","46","537707","0.0-10.0-3.0","76","1","2025-07-02 10:19:04","80fe4187154257d5fb01684ea91b68b9","125.237.197.5","Mozilla/5.0 (Macintosh; Intel Mac OS X 10_15_7) AppleWebKit/537.36 (KHTML, like Gecko) Chrome/137.0.0.0 Safari/537.36","Macintosh","Chrome","137.0.0.0","OS X","10_15_7","https://app.prolific.com/","en-GB,en-US;q=0.9,en;q=0.8","646a16e2aae07a0225cdb635","683db6dfa200031b80f2a654","68650777776f59bf216120a7","646a16e2aae07a0225cdb635","2025-07-02T10:28:03.880Z","","","","","","StressQ","","","","","","","","","","","","","","","","","","","","","","","","","","","","","","","","","","","","","","50"
"3066","","<div style=""width:500px;"">
  <p>What best describes how you currently feel?</p>
  </div>","30","html-slider-response","47","540774","0.0-10.0-4.0","76","1","2025-07-02 10:19:04","80fe4187154257d5fb01684ea91b68b9","125.237.197.5","Mozilla/5.0 (Macintosh; Intel Mac OS X 10_15_7) AppleWebKit/537.36 (KHTML, like Gecko) Chrome/137.0.0.0 Safari/537.36","Macintosh","Chrome","137.0.0.0","OS X","10_15_7","https://app.prolific.com/","en-GB,en-US;q=0.9,en;q=0.8","646a16e2aae07a0225cdb635","683db6dfa200031b80f2a654","68650777776f59bf216120a7","646a16e2aae07a0225cdb635","2025-07-02T10:28:06.947Z","","","","","","MotivationQ","","","","","","","","","","","","","","","","","","","","","","","","","","","","","","","","","","","","","","50"
"","","","","ctl-task-cpt","48","566699","0.0-10.0-0.1","76","1","2025-07-02 10:19:04","80fe4187154257d5fb01684ea91b68b9","125.237.197.5","Mozilla/5.0 (Macintosh; Intel Mac OS X 10_15_7) AppleWebKit/537.36 (KHTML, like Gecko) Chrome/137.0.0.0 Safari/537.36","Macintosh","Chrome","137.0.0.0","OS X","10_15_7","https://app.prolific.com/","en-GB,en-US;q=0.9,en;q=0.8","646a16e2aae07a0225cdb635","683db6dfa200031b80f2a654","68650777776f59bf216120a7","646a16e2aae07a0225cdb635","2025-07-02T10:28:32.873Z","","","","","","","","","","","","","","","","win-only","3","g1:SW,g2:NE","0.9","2","0","543928","1314.4","6316.6","22916.1","1","4","4","6","2","4","3","11","8","0.08333333333333333","1382.6","3000","1205","[""up"",""right""]","{""num_key_presses"":6,""num_perfect"":4,""num_errors"":1,""num_randdir"":1,""num_randdir_good_moves"":1,""num_whilered"":0,""num_whileblue"":1,""num_blue"":1,""num_good_moves"":6}","[706.9366071428572,705.7334821428572,0.2,706.9366071428572,705.7334821428572,104.6,706.9366071428572,705.7334821428572,206.5,706.9366071428572,705.7334821428572,307.1,706.9366071428572,705.7334821428572,411.6,706.9366071428572,705.7334821428572,517.3,706.9366071428572,705.7334821428572,622,706.9366071428572,705.7334821428572,726.8,804.9366071428572,563.7334821428572,827.1,1258.9366071428572,-64.26651785714286,931.9,1258.9366071428572,-64.26651785714286,1036.2,1250.9366071428572,-14.266517857142858,1136.8,1256.9366071428572,157.73348214285716,1237.3,1272.9366071428572,171.73348214285716,1337.3,1276.9366071428572,169.73348214285716,1439.2,1276.9366071428572,169.73348214285716,1541.5,1276.9366071428572,169.73348214285716,1641.5,1276.9366071428572,169.73348214285716,1741.5,1276.9366071428572,169.73348214285716,1847,1276.9366071428572,169.73348214285716,1951.8,1276.9366071428572,169.73348214285716,2053.3,1276.9366071428572,169.73348214285716,2158.6,1276.9366071428572,169.73348214285716,2261.6,1276.9366071428572,169.73348214285716,2361.7,1276.9366071428572,169.73348214285716,2467.2,1276.9366071428572,169.73348214285716,2571.2,1276.9366071428572,169.73348214285716,2671.6,1276.9366071428572,169.73348214285716,2771.6,1276.9366071428572,169.73348214285716,2871.8,1276.9366071428572,169.73348214285716,2974.7,1276.9366071428572,169.73348214285716,3076.6,1276.9366071428572,169.73348214285716,3182.5,1276.9366071428572,169.73348214285716,3286.2,1276.9366071428572,169.73348214285716,3388.1,1276.9366071428572,169.73348214285716,3491.7,1276.9366071428572,169.73348214285716,3596.4,1276.9366071428572,169.73348214285716,3696.6,1276.9366071428572,169.73348214285716,3802.4,1276.9366071428572,169.73348214285716,3907.3,1276.9366071428572,169.73348214285716,4012.4,1276.9366071428572,169.73348214285716,4116.6,1276.9366071428572,169.73348214285716,4217,1276.9366071428572,169.73348214285716,4323,1276.9366071428572,169.73348214285716,4423,1276.9366071428572,169.73348214285716,4526.5,1276.9366071428572,169.73348214285716,4626.8,1276.9366071428572,169.73348214285716,4731.9,1276.9366071428572,169.73348214285716,4836,1276.9366071428572,169.73348214285716,4936.2]","[1373.3,1373.3,1000,0,373.3,""smooth"",""up"",""up"",""good_move"",4350,2976.4,2686.8,1373.6,289.6,""smooth"",""up"",""up"",""good_move"",8132.8,3782.7,3500.1,4350.1,282.6,""smooth"",""right"",""right"",""good_move"",11170.8,3037.8,2721.3,8133.1,316.5,""while_blue"",""right"",""up"",""good_move"",14155.6,2984.5,2464.3,11171.1,520.2,""oops"",""down"",""right"",""good_move"",16505.4,2349.6,1975.8,14155.9,373.7,""smooth"",""right"",""right"",""good_move""]","",""
"3422","","<div style=""width:500px;"">
  <p>What determined the result of this run?</p>
  </div>","32","html-slider-response","49","570122","0.0-10.0-1.1","76","1","2025-07-02 10:19:04","80fe4187154257d5fb01684ea91b68b9","125.237.197.5","Mozilla/5.0 (Macintosh; Intel Mac OS X 10_15_7) AppleWebKit/537.36 (KHTML, like Gecko) Chrome/137.0.0.0 Safari/537.36","Macintosh","Chrome","137.0.0.0","OS X","10_15_7","https://app.prolific.com/","en-GB,en-US;q=0.9,en;q=0.8","646a16e2aae07a0225cdb635","683db6dfa200031b80f2a654","68650777776f59bf216120a7","646a16e2aae07a0225cdb635","2025-07-02T10:28:36.295Z","","","","","","AttribQ","","","","","","","","","","","","","","","","","","","","","","","","","","","","","","","","","","","","","","50"
"2816","","<div style=""width:500px;"">
  <p>How much control did you have over the ball?</p>
  </div>","71","html-slider-response","50","572939","0.0-10.0-2.1","76","1","2025-07-02 10:19:04","80fe4187154257d5fb01684ea91b68b9","125.237.197.5","Mozilla/5.0 (Macintosh; Intel Mac OS X 10_15_7) AppleWebKit/537.36 (KHTML, like Gecko) Chrome/137.0.0.0 Safari/537.36","Macintosh","Chrome","137.0.0.0","OS X","10_15_7","https://app.prolific.com/","en-GB,en-US;q=0.9,en;q=0.8","646a16e2aae07a0225cdb635","683db6dfa200031b80f2a654","68650777776f59bf216120a7","646a16e2aae07a0225cdb635","2025-07-02T10:28:39.112Z","","","","","","ControlQ","","","","","","","","","","","","","","","","","","","","","","","","","","","","","","","","","","","","","","50"
"3033","","<div style=""width:500px;"">
  <p>How would you describe your current emotional state?</p>
  </div>","59","html-slider-response","51","575972","0.0-10.0-3.1","76","1","2025-07-02 10:19:04","80fe4187154257d5fb01684ea91b68b9","125.237.197.5","Mozilla/5.0 (Macintosh; Intel Mac OS X 10_15_7) AppleWebKit/537.36 (KHTML, like Gecko) Chrome/137.0.0.0 Safari/537.36","Macintosh","Chrome","137.0.0.0","OS X","10_15_7","https://app.prolific.com/","en-GB,en-US;q=0.9,en;q=0.8","646a16e2aae07a0225cdb635","683db6dfa200031b80f2a654","68650777776f59bf216120a7","646a16e2aae07a0225cdb635","2025-07-02T10:28:42.146Z","","","","","","StressQ","","","","","","","","","","","","","","","","","","","","","","","","","","","","","","","","","","","","","","50"
"2565","","<div style=""width:500px;"">
  <p>What best describes how you currently feel?</p>
  </div>","38","html-slider-response","52","578538","0.0-10.0-4.1","76","1","2025-07-02 10:19:04","80fe4187154257d5fb01684ea91b68b9","125.237.197.5","Mozilla/5.0 (Macintosh; Intel Mac OS X 10_15_7) AppleWebKit/537.36 (KHTML, like Gecko) Chrome/137.0.0.0 Safari/537.36","Macintosh","Chrome","137.0.0.0","OS X","10_15_7","https://app.prolific.com/","en-GB,en-US;q=0.9,en;q=0.8","646a16e2aae07a0225cdb635","683db6dfa200031b80f2a654","68650777776f59bf216120a7","646a16e2aae07a0225cdb635","2025-07-02T10:28:44.712Z","","","","","","MotivationQ","","","","","","","","","","","","","","","","","","","","","","","","","","","","","","","","","","","","","","50"
"","","","","ctl-task-cpt","53","620041","0.0-10.0-0.2","76","1","2025-07-02 10:19:04","80fe4187154257d5fb01684ea91b68b9","125.237.197.5","Mozilla/5.0 (Macintosh; Intel Mac OS X 10_15_7) AppleWebKit/537.36 (KHTML, like Gecko) Chrome/137.0.0.0 Safari/537.36","Macintosh","Chrome","137.0.0.0","OS X","10_15_7","https://app.prolific.com/","en-GB,en-US;q=0.9,en;q=0.8","646a16e2aae07a0225cdb635","683db6dfa200031b80f2a654","68650777776f59bf216120a7","646a16e2aae07a0225cdb635","2025-07-02T10:29:26.214Z","","","","","","","","","","","","","","","","win-only","0","g1:NW,g2:SE","0.8","3","0","581692.8","2515.3","7516.3","38510.7","1","4","4","6","2","-4","-5","6","11","0.045454545454545456","1366.8","3000","-3000","[""down"",""right""]","{""num_key_presses"":9,""num_perfect"":6,""num_errors"":1,""num_randdir"":2,""num_randdir_good_moves"":0,""num_whilered"":0,""num_whileblue"":1,""num_blue"":2,""num_good_moves"":7}","[712.9366071428572,705.7334821428572,0.2,712.9366071428572,705.7334821428572,100.7,712.9366071428572,705.7334821428572,201,712.9366071428572,705.7334821428572,301.1,712.9366071428572,705.7334821428572,405.3,712.9366071428572,705.7334821428572,510.5,712.9366071428572,705.7334821428572,610.9,652.9366071428572,1033.7334821428572,715.9,708.9366071428572,1149.7334821428572,820.4,708.9366071428572,1149.7334821428572,925.2,1032.9366071428572,1185.7334821428572,1025.3,1208.9366071428572,1199.7334821428572,1125.5,1220.9366071428572,1203.7334821428572,1230.6,1234.9366071428572,1217.7334821428572,1335.8,1236.9366071428572,1221.7334821428572,1437.1,1236.9366071428572,1221.7334821428572,1540.6,1236.9366071428572,1221.7334821428572,1640.6,1236.9366071428572,1221.7334821428572,1740.6,1236.9366071428572,1221.7334821428572,1840.8,1236.9366071428572,1221.7334821428572,1945.5,1236.9366071428572,1221.7334821428572,2045.6,1236.9366071428572,1221.7334821428572,2150.9,1236.9366071428572,1221.7334821428572,2251,1236.9366071428572,1221.7334821428572,2355.1,1024.9366071428572,1217.7334821428572,2455.5,884.9366071428572,1271.7334821428572,2561.3,884.9366071428572,1271.7334821428572,2666.1,120.93660714285714,989.7334821428572,2766.1,-507.06339285714284,911.7334821428572,2870.2,-499.06339285714284,937.7334821428572,2970.4,-523.0633928571428,937.7334821428572,3070.4,-627.0633928571428,1027.7334821428572,3176.6,-627.0633928571428,1027.7334821428572,3280.8,-627.0633928571428,1027.7334821428572,3385.9,-627.0633928571428,1027.7334821428572,3489.9,-627.0633928571428,1027.7334821428572,3590.7,-627.0633928571428,1027.7334821428572,3695.9,-627.0633928571428,1027.7334821428572,3799.9,-627.0633928571428,1027.7334821428572,3900.8,-627.0633928571428,1027.7334821428572,4005.4,-627.0633928571428,1027.7334821428572,4110.1,-627.0633928571428,1027.7334821428572,4210.1,-627.0633928571428,1027.7334821428572,4310.6,-627.0633928571428,1027.7334821428572,4411.1,-627.0633928571428,1027.7334821428572,4515.9,-627.0633928571428,1027.7334821428572,4620.2,-627.0633928571428,1027.7334821428572,4720.2,-627.0633928571428,1027.7334821428572,4820.3,-627.0633928571428,1027.7334821428572,4920.7]","[1375.4,1375.4,1000,0,375.4,""smooth"",""right"",""right"",""good_move"",4057.3,2681.6,2353.9,1375.7,327.7,""smooth"",""down"",""down"",""good_move"",6888.4,2830.5,2492.9,4058,337.5,""oops"",""right"",""up"",""bad_move"",12868.7,5979.9,2044.2,10500.1,324.4,""oops"",""down"",""left"",""bad_move"",15682.9,2813.9,2470.9,12869,343,""while_blue"",""down"",""down"",""good_move"",18733,3049.7,2500.6,15683.3,549.1,""smooth"",""down"",""down"",""good_move"",21505.1,2771.9,2404.2,18733.2,367.7,""smooth"",""right"",""right"",""good_move"",25387,3881.6,3618.2,21505.4,263.4,""smooth"",""right"",""right"",""good_move"",27923.9,2536.7,2236.2,25387.2,300.5,""smooth"",""right"",""right"",""good_move""]","",""
"6592","","<div style=""width:500px;"">
  <p>What determined the result of this run?</p>
  </div>","22","html-slider-response","54","626633","0.0-10.0-1.2","76","1","2025-07-02 10:19:04","80fe4187154257d5fb01684ea91b68b9","125.237.197.5","Mozilla/5.0 (Macintosh; Intel Mac OS X 10_15_7) AppleWebKit/537.36 (KHTML, like Gecko) Chrome/137.0.0.0 Safari/537.36","Macintosh","Chrome","137.0.0.0","OS X","10_15_7","https://app.prolific.com/","en-GB,en-US;q=0.9,en;q=0.8","646a16e2aae07a0225cdb635","683db6dfa200031b80f2a654","68650777776f59bf216120a7","646a16e2aae07a0225cdb635","2025-07-02T10:29:32.806Z","","","","","","AttribQ","","","","","","","","","","","","","","","","","","","","","","","","","","","","","","","","","","","","","","50"
"2648","","<div style=""width:500px;"">
  <p>How much control did you have over the ball?</p>
  </div>","32","html-slider-response","55","629283","0.0-10.0-2.2","76","1","2025-07-02 10:19:04","80fe4187154257d5fb01684ea91b68b9","125.237.197.5","Mozilla/5.0 (Macintosh; Intel Mac OS X 10_15_7) AppleWebKit/537.36 (KHTML, like Gecko) Chrome/137.0.0.0 Safari/537.36","Macintosh","Chrome","137.0.0.0","OS X","10_15_7","https://app.prolific.com/","en-GB,en-US;q=0.9,en;q=0.8","646a16e2aae07a0225cdb635","683db6dfa200031b80f2a654","68650777776f59bf216120a7","646a16e2aae07a0225cdb635","2025-07-02T10:29:35.456Z","","","","","","ControlQ","","","","","","","","","","","","","","","","","","","","","","","","","","","","","","","","","","","","","","50"
"2265","","<div style=""width:500px;"">
  <p>How would you describe your current emotional state?</p>
  </div>","80","html-slider-response","56","631549","0.0-10.0-3.2","76","1","2025-07-02 10:19:04","80fe4187154257d5fb01684ea91b68b9","125.237.197.5","Mozilla/5.0 (Macintosh; Intel Mac OS X 10_15_7) AppleWebKit/537.36 (KHTML, like Gecko) Chrome/137.0.0.0 Safari/537.36","Macintosh","Chrome","137.0.0.0","OS X","10_15_7","https://app.prolific.com/","en-GB,en-US;q=0.9,en;q=0.8","646a16e2aae07a0225cdb635","683db6dfa200031b80f2a654","68650777776f59bf216120a7","646a16e2aae07a0225cdb635","2025-07-02T10:29:37.722Z","","","","","","StressQ","","","","","","","","","","","","","","","","","","","","","","","","","","","","","","","","","","","","","","50"
"4149","","<div style=""width:500px;"">
  <p>What best describes how you currently feel?</p>
  </div>","64","html-slider-response","57","635699","0.0-10.0-4.2","76","1","2025-07-02 10:19:04","80fe4187154257d5fb01684ea91b68b9","125.237.197.5","Mozilla/5.0 (Macintosh; Intel Mac OS X 10_15_7) AppleWebKit/537.36 (KHTML, like Gecko) Chrome/137.0.0.0 Safari/537.36","Macintosh","Chrome","137.0.0.0","OS X","10_15_7","https://app.prolific.com/","en-GB,en-US;q=0.9,en;q=0.8","646a16e2aae07a0225cdb635","683db6dfa200031b80f2a654","68650777776f59bf216120a7","646a16e2aae07a0225cdb635","2025-07-02T10:29:41.872Z","","","","","","MotivationQ","","","","","","","","","","","","","","","","","","","","","","","","","","","","","","","","","","","","","","50"
"","","","","ctl-task-cpt","58","678119","0.0-10.0-0.3","76","1","2025-07-02 10:19:04","80fe4187154257d5fb01684ea91b68b9","125.237.197.5","Mozilla/5.0 (Macintosh; Intel Mac OS X 10_15_7) AppleWebKit/537.36 (KHTML, like Gecko) Chrome/137.0.0.0 Safari/537.36","Macintosh","Chrome","137.0.0.0","OS X","10_15_7","https://app.prolific.com/","en-GB,en-US;q=0.9,en;q=0.8","646a16e2aae07a0225cdb635","683db6dfa200031b80f2a654","68650777776f59bf216120a7","646a16e2aae07a0225cdb635","2025-07-02T10:30:24.292Z","","","","","","","","","","","","","","","","win-only","2","g1:SE,g2:NW","0.7","4","0","638876.3","3114.3","8121.6","39410.4","1","4","8","6","2","-8","-10","0","6","0","1553.2","3000","-2910","[""left"",""up""]","{""num_key_presses"":11,""num_perfect"":6,""num_errors"":2,""num_randdir"":3,""num_randdir_good_moves"":0,""num_whilered"":0,""num_whileblue"":0,""num_blue"":0,""num_good_moves"":5}","[716.9366071428572,701.7334821428572,0.2,716.9366071428572,701.7334821428572,105.7,716.9366071428572,701.7334821428572,209.8,716.9366071428572,701.7334821428572,310.9,716.9366071428572,701.7334821428572,414.6,716.9366071428572,701.7334821428572,520.3,796.9366071428572,707.7334821428572,621.8,1032.9366071428572,807.7334821428572,725.9,1032.9366071428572,807.7334821428572,826.2,1012.9366071428572,797.7334821428572,926.8,268.93660714285716,405.73348214285716,1031.4,76.93660714285714,285.73348214285716,1131.8,76.93660714285714,285.73348214285716,1239.8,76.93660714285714,269.73348214285716,1343.7,88.93660714285714,197.73348214285716,1446.3,100.93660714285714,181.73348214285716,1546.5,100.93660714285714,181.73348214285716,1655.5,100.93660714285714,181.73348214285716,1756.1,100.93660714285714,181.73348214285716,1857.2,100.93660714285714,181.73348214285716,1961.7,100.93660714285714,181.73348214285716,2061.8,100.93660714285714,181.73348214285716,2167.5,100.93660714285714,181.73348214285716,2276.2,100.93660714285714,181.73348214285716,2381.7,100.93660714285714,181.73348214285716,2481.7,100.93660714285714,181.73348214285716,2591.1,100.93660714285714,181.73348214285716,2696.5,100.93660714285714,181.73348214285716,2797.2,100.93660714285714,181.73348214285716,2904,100.93660714285714,181.73348214285716,3006.9,100.93660714285714,181.73348214285716,3111.4,100.93660714285714,181.73348214285716,3211.8,100.93660714285714,181.73348214285716,3317.1,100.93660714285714,181.73348214285716,3425.7,100.93660714285714,181.73348214285716,3526.9,100.93660714285714,181.73348214285716,3632.1,100.93660714285714,181.73348214285716,3739.9,100.93660714285714,181.73348214285716,3840.9,100.93660714285714,181.73348214285716,3940.9,100.93660714285714,181.73348214285716,4041.7,100.93660714285714,181.73348214285716,4142.2,100.93660714285714,181.73348214285716,4246.9,100.93660714285714,181.73348214285716,4351.7,100.93660714285714,181.73348214285716,4461.3,100.93660714285714,181.73348214285716,4565.9,100.93660714285714,181.73348214285716,4666.3,100.93660714285714,181.73348214285716,4772.5,100.93660714285714,181.73348214285716,4876.2,100.93660714285714,181.73348214285716,4976.2]","[1331.3,1331.3,1000,0,331.3,""smooth"",""up"",""up"",""good_move"",4095.6,2763.9,2390.9,1331.7,373,""smooth"",""left"",""left"",""good_move"",6983,2887,2584.3,4096,302.7,""oops"",""up"",""down"",""bad_move"",9899.6,2916,2526.4,6983.6,389.6,""oops"",""up"",""down"",""bad_move"",12963,3063.1,2538.6,9899.9,524.5,""smooth"",""down"",""down"",""bad_move"",15437.5,2474.3,2163.8,12963.2,310.5,""smooth"",""up"",""up"",""good_move"",18746.5,3308.7,3054.5,15437.8,254.2,""oops"",""up"",""down"",""bad_move"",21914.5,3167.8,2876,18746.7,291.8,""smooth"",""up"",""up"",""good_move"",24551.3,2636.6,2766,21914.7,-129.4,""error"",""-"",""-"",""no_move"",25948.5,1396.9,2419,25554.4,-2024.9,""error"",""-"",""-"",""no_move"",28964.8,3016.2,1700.1,26950.2,314.5,""smooth"",""up"",""up"",""good_move""]","",""
"2393","","<div style=""width:500px;"">
  <p>What determined the result of this run?</p>
  </div>","1","html-slider-response","59","680513","0.0-10.0-1.3","76","1","2025-07-02 10:19:04","80fe4187154257d5fb01684ea91b68b9","125.237.197.5","Mozilla/5.0 (Macintosh; Intel Mac OS X 10_15_7) AppleWebKit/537.36 (KHTML, like Gecko) Chrome/137.0.0.0 Safari/537.36","Macintosh","Chrome","137.0.0.0","OS X","10_15_7","https://app.prolific.com/","en-GB,en-US;q=0.9,en;q=0.8","646a16e2aae07a0225cdb635","683db6dfa200031b80f2a654","68650777776f59bf216120a7","646a16e2aae07a0225cdb635","2025-07-02T10:30:26.686Z","","","","","","AttribQ","","","","","","","","","","","","","","","","","","","","","","","","","","","","","","","","","","","","","","50"
"2482","","<div style=""width:500px;"">
  <p>How much control did you have over the ball?</p>
  </div>","0","html-slider-response","60","682996","0.0-10.0-2.3","76","1","2025-07-02 10:19:04","80fe4187154257d5fb01684ea91b68b9","125.237.197.5","Mozilla/5.0 (Macintosh; Intel Mac OS X 10_15_7) AppleWebKit/537.36 (KHTML, like Gecko) Chrome/137.0.0.0 Safari/537.36","Macintosh","Chrome","137.0.0.0","OS X","10_15_7","https://app.prolific.com/","en-GB,en-US;q=0.9,en;q=0.8","646a16e2aae07a0225cdb635","683db6dfa200031b80f2a654","68650777776f59bf216120a7","646a16e2aae07a0225cdb635","2025-07-02T10:30:29.169Z","","","","","","ControlQ","","","","","","","","","","","","","","","","","","","","","","","","","","","","","","","","","","","","","","50"
"2349","","<div style=""width:500px;"">
  <p>How would you describe your current emotional state?</p>
  </div>","76","html-slider-response","61","685346","0.0-10.0-3.3","76","1","2025-07-02 10:19:04","80fe4187154257d5fb01684ea91b68b9","125.237.197.5","Mozilla/5.0 (Macintosh; Intel Mac OS X 10_15_7) AppleWebKit/537.36 (KHTML, like Gecko) Chrome/137.0.0.0 Safari/537.36","Macintosh","Chrome","137.0.0.0","OS X","10_15_7","https://app.prolific.com/","en-GB,en-US;q=0.9,en;q=0.8","646a16e2aae07a0225cdb635","683db6dfa200031b80f2a654","68650777776f59bf216120a7","646a16e2aae07a0225cdb635","2025-07-02T10:30:31.519Z","","","","","","StressQ","","","","","","","","","","","","","","","","","","","","","","","","","","","","","","","","","","","","","","50"
"2716","","<div style=""width:500px;"">
  <p>What best describes how you currently feel?</p>
  </div>","76","html-slider-response","62","688063","0.0-10.0-4.3","76","1","2025-07-02 10:19:04","80fe4187154257d5fb01684ea91b68b9","125.237.197.5","Mozilla/5.0 (Macintosh; Intel Mac OS X 10_15_7) AppleWebKit/537.36 (KHTML, like Gecko) Chrome/137.0.0.0 Safari/537.36","Macintosh","Chrome","137.0.0.0","OS X","10_15_7","https://app.prolific.com/","en-GB,en-US;q=0.9,en;q=0.8","646a16e2aae07a0225cdb635","683db6dfa200031b80f2a654","68650777776f59bf216120a7","646a16e2aae07a0225cdb635","2025-07-02T10:30:34.236Z","","","","","","MotivationQ","","","","","","","","","","","","","","","","","","","","","","","","","","","","","","","","","","","","","","50"
"","","","","ctl-task-cpt","63","725418","0.0-10.0-0.4","76","1","2025-07-02 10:19:04","80fe4187154257d5fb01684ea91b68b9","125.237.197.5","Mozilla/5.0 (Macintosh; Intel Mac OS X 10_15_7) AppleWebKit/537.36 (KHTML, like Gecko) Chrome/137.0.0.0 Safari/537.36","Macintosh","Chrome","137.0.0.0","OS X","10_15_7","https://app.prolific.com/","en-GB,en-US;q=0.9,en;q=0.8","646a16e2aae07a0225cdb635","683db6dfa200031b80f2a654","68650777776f59bf216120a7","646a16e2aae07a0225cdb635","2025-07-02T10:31:11.591Z","","","","","","","","","","","","","","","","win-only","3","g1:SW,g2:NE","0.6","5","0","691242.1","2987.1","7989","34345.3","1","4","4","6","2","4","4","4","0","0.030303030303030304","1150.6","3000","940","[""up"",""right""]","{""num_key_presses"":6,""num_perfect"":4,""num_errors"":0,""num_randdir"":2,""num_randdir_good_moves"":2,""num_whilered"":0,""num_whileblue"":0,""num_blue"":3,""num_good_moves"":6}","[704.9366071428572,705.7334821428572,0.1,704.9366071428572,707.7334821428572,102.1,704.9366071428572,707.7334821428572,203,704.9366071428572,707.7334821428572,303.2,704.9366071428572,707.7334821428572,408.8,704.9366071428572,707.7334821428572,517.1,704.9366071428572,705.7334821428572,619.7,1108.9366071428572,97.73348214285714,722.5,1178.9366071428572,11.733482142857142,823.1,1178.9366071428572,11.733482142857142,923.7,1198.9366071428572,65.73348214285714,1028.3,1242.9366071428572,125.73348214285714,1128.6,1242.9366071428572,125.73348214285714,1231.2,1242.9366071428572,125.73348214285714,1333,1242.9366071428572,125.73348214285714,1438.3,1242.9366071428572,125.73348214285714,1539,1242.9366071428572,125.73348214285714,1643,1242.9366071428572,125.73348214285714,1743.5,1242.9366071428572,125.73348214285714,1843.8,1242.9366071428572,125.73348214285714,1951.3,1242.9366071428572,125.73348214285714,2053.6,1242.9366071428572,125.73348214285714,2153.7,1242.9366071428572,125.73348214285714,2258.6,1242.9366071428572,125.73348214285714,2363.3,1242.9366071428572,125.73348214285714,2473.4,1242.9366071428572,125.73348214285714,2573.5,1242.9366071428572,125.73348214285714,2673.6,1242.9366071428572,125.73348214285714,2774,1242.9366071428572,125.73348214285714,2878.5,1242.9366071428572,125.73348214285714,2989.3,1242.9366071428572,125.73348214285714,3094.4,1242.9366071428572,125.73348214285714,3198,1242.9366071428572,125.73348214285714,3299,1242.9366071428572,125.73348214285714,3403.6,1242.9366071428572,125.73348214285714,3503.7,1242.9366071428572,125.73348214285714,3603.7,1242.9366071428572,125.73348214285714,3703.9,1242.9366071428572,125.73348214285714,3808.4,1242.9366071428572,125.73348214285714,3920,1242.9366071428572,125.73348214285714,4023.2,1242.9366071428572,125.73348214285714,4127.9,1242.9366071428572,125.73348214285714,4229.1,1242.9366071428572,125.73348214285714,4333.6,1242.9366071428572,125.73348214285714,4439.6,1242.9366071428572,125.73348214285714,4543.8,1242.9366071428572,125.73348214285714,4651.6,1242.9366071428572,125.73348214285714,4754.3,1242.9366071428572,125.73348214285714,4858.7,1242.9366071428572,125.73348214285714,4958.8]","[1414,1414,1000,0,414,""oops"",""up"",""up"",""good_move"",4669.3,3255,2840.3,1414.3,414.7,""smooth"",""up"",""up"",""good_move"",8170,3500.5,3110.9,4669.6,389.5,""smooth"",""up"",""up"",""good_move"",13451.6,5281.3,2416.8,10691.7,343.1,""smooth"",""right"",""right"",""good_move"",20062.8,6610.9,3000.4,16776.5,285.9,""oops"",""right"",""right"",""good_move"",26262.4,6199.2,1843,24015.3,404.1,""smooth"",""right"",""right"",""good_move""]","",""
"3726","","<div style=""width:500px;"">
  <p>What determined the result of this run?</p>
  </div>","24","html-slider-response","64","729144","0.0-10.0-1.4","76","1","2025-07-02 10:19:04","80fe4187154257d5fb01684ea91b68b9","125.237.197.5","Mozilla/5.0 (Macintosh; Intel Mac OS X 10_15_7) AppleWebKit/537.36 (KHTML, like Gecko) Chrome/137.0.0.0 Safari/537.36","Macintosh","Chrome","137.0.0.0","OS X","10_15_7","https://app.prolific.com/","en-GB,en-US;q=0.9,en;q=0.8","646a16e2aae07a0225cdb635","683db6dfa200031b80f2a654","68650777776f59bf216120a7","646a16e2aae07a0225cdb635","2025-07-02T10:31:15.318Z","","","","","","AttribQ","","","","","","","","","","","","","","","","","","","","","","","","","","","","","","","","","","","","","","50"
"4749","","<div style=""width:500px;"">
  <p>How much control did you have over the ball?</p>
  </div>","100","html-slider-response","65","733895","0.0-10.0-2.4","76","1","2025-07-02 10:19:04","80fe4187154257d5fb01684ea91b68b9","125.237.197.5","Mozilla/5.0 (Macintosh; Intel Mac OS X 10_15_7) AppleWebKit/537.36 (KHTML, like Gecko) Chrome/137.0.0.0 Safari/537.36","Macintosh","Chrome","137.0.0.0","OS X","10_15_7","https://app.prolific.com/","en-GB,en-US;q=0.9,en;q=0.8","646a16e2aae07a0225cdb635","683db6dfa200031b80f2a654","68650777776f59bf216120a7","646a16e2aae07a0225cdb635","2025-07-02T10:31:20.068Z","","","","","","ControlQ","","","","","","","","","","","","","","","","","","","","","","","","","","","","","","","","","","","","","","50"
"2232","","<div style=""width:500px;"">
  <p>How would you describe your current emotional state?</p>
  </div>","57","html-slider-response","66","736127","0.0-10.0-3.4","76","1","2025-07-02 10:19:04","80fe4187154257d5fb01684ea91b68b9","125.237.197.5","Mozilla/5.0 (Macintosh; Intel Mac OS X 10_15_7) AppleWebKit/537.36 (KHTML, like Gecko) Chrome/137.0.0.0 Safari/537.36","Macintosh","Chrome","137.0.0.0","OS X","10_15_7","https://app.prolific.com/","en-GB,en-US;q=0.9,en;q=0.8","646a16e2aae07a0225cdb635","683db6dfa200031b80f2a654","68650777776f59bf216120a7","646a16e2aae07a0225cdb635","2025-07-02T10:31:22.301Z","","","","","","StressQ","","","","","","","","","","","","","","","","","","","","","","","","","","","","","","","","","","","","","","50"
"4982","","<div style=""width:500px;"">
  <p>What best describes how you currently feel?</p>
  </div>","74","html-slider-response","67","741111","0.0-10.0-4.4","76","1","2025-07-02 10:19:04","80fe4187154257d5fb01684ea91b68b9","125.237.197.5","Mozilla/5.0 (Macintosh; Intel Mac OS X 10_15_7) AppleWebKit/537.36 (KHTML, like Gecko) Chrome/137.0.0.0 Safari/537.36","Macintosh","Chrome","137.0.0.0","OS X","10_15_7","https://app.prolific.com/","en-GB,en-US;q=0.9,en;q=0.8","646a16e2aae07a0225cdb635","683db6dfa200031b80f2a654","68650777776f59bf216120a7","646a16e2aae07a0225cdb635","2025-07-02T10:31:27.284Z","","","","","","MotivationQ","","","","","","","","","","","","","","","","","","","","","","","","","","","","","","","","","","","","","","50"
"","","","","ctl-task-cpt","68","768843","0.0-10.0-0.5","76","1","2025-07-02 10:19:04","80fe4187154257d5fb01684ea91b68b9","125.237.197.5","Mozilla/5.0 (Macintosh; Intel Mac OS X 10_15_7) AppleWebKit/537.36 (KHTML, like Gecko) Chrome/137.0.0.0 Safari/537.36","Macintosh","Chrome","137.0.0.0","OS X","10_15_7","https://app.prolific.com/","en-GB,en-US;q=0.9,en;q=0.8","646a16e2aae07a0225cdb635","683db6dfa200031b80f2a654","68650777776f59bf216120a7","646a16e2aae07a0225cdb635","2025-07-02T10:31:55.016Z","","","","","","","","","","","","","","","","win-only","0","g1:NW,g2:SE","0.5","6","0","744291.9","1398.4","6406.2","24721.7","1","4","8","6","1","1","0","4","4","0.030303030303030304","3317.1","3000","660","[""left"",""up""]","{""num_key_presses"":7,""num_perfect"":4,""num_errors"":1,""num_randdir"":2,""num_randdir_good_moves"":1,""num_whilered"":0,""num_whileblue"":0,""num_blue"":0,""num_good_moves"":5}","[704.9366071428572,713.7334821428572,0.2,704.9366071428572,713.7334821428572,105.8,704.9366071428572,713.7334821428572,206,704.9366071428572,713.7334821428572,307,704.9366071428572,713.7334821428572,408.4,704.9366071428572,713.7334821428572,512,704.9366071428572,713.7334821428572,612.4,866.9366071428572,933.7334821428572,712.8,1266.9366071428572,1351.7334821428572,812.8,1272.9366071428572,1349.7334821428572,917.8,1272.9366071428572,1349.7334821428572,1025.4,1272.9366071428572,1341.7334821428572,1127.5,1272.9366071428572,1321.7334821428572,1232.1,1270.9366071428572,1319.7334821428572,1332.1,1242.9366071428572,1289.7334821428572,1439.9,1242.9366071428572,1287.7334821428572,1540.6,1244.9366071428572,1293.7334821428572,1640.9,1248.9366071428572,1295.7334821428572,1742.6,1248.9366071428572,1295.7334821428572,1847.6,1248.9366071428572,1295.7334821428572,1952.7,1248.9366071428572,1295.7334821428572,2057.2,1248.9366071428572,1295.7334821428572,2161.7,1248.9366071428572,1295.7334821428572,2261.8,1248.9366071428572,1295.7334821428572,2362.2,1248.9366071428572,1295.7334821428572,2467.2,1248.9366071428572,1295.7334821428572,2575.1,1248.9366071428572,1293.7334821428572,2677.4,886.9366071428572,965.7334821428572,2785.1,104.93660714285714,241.73348214285716,2890.1,104.93660714285714,241.73348214285716,2991.8,104.93660714285714,241.73348214285716,3094.5,106.93660714285714,201.73348214285716,3197.5,108.93660714285714,173.73348214285716,3305.2,108.93660714285714,171.73348214285716,3407.3,108.93660714285714,171.73348214285716,3511.9,108.93660714285714,171.73348214285716,3612.6,134.93660714285716,189.73348214285716,3717.3,400.93660714285716,409.73348214285716,3817.3,482.93660714285716,529.7334821428572,3917.6,482.93660714285716,529.7334821428572,4018.1,482.93660714285716,529.7334821428572,4122.1,482.93660714285716,529.7334821428572,4222.8,482.93660714285716,529.7334821428572,4322.9,482.93660714285716,529.7334821428572,4423.3,482.93660714285716,529.7334821428572,4527.6,482.93660714285716,529.7334821428572,4632.6,482.93660714285716,529.7334821428572,4733.3,482.93660714285716,529.7334821428572,4837.1,482.93660714285716,529.7334821428572,4942.2]","[1402.5,1402.5,1000,0,402.5,""oops"",""up"",""right"",""bad_move"",3535.9,2132.9,3015.2,1403,-882.3,""error"",""-"",""-"",""no_move"",7251.4,3715.3,2315.2,4539.6,396.6,""smooth"",""up"",""up"",""good_move"",9645.1,2393.4,1857.9,7251.7,535.5,""smooth"",""left"",""left"",""good_move"",12911.6,3266.2,2812.9,9645.5,453.2,""oops"",""left"",""up"",""good_move"",15359.2,2447.3,2067.7,12911.9,379.6,""smooth"",""left"",""left"",""good_move"",18229.5,2870.1,2551.1,15359.4,319,""smooth"",""left"",""left"",""good_move""]","",""
"2966","","<div style=""width:500px;"">
  <p>What determined the result of this run?</p>
  </div>","34","html-slider-response","69","771809","0.0-10.0-1.5","76","1","2025-07-02 10:19:04","80fe4187154257d5fb01684ea91b68b9","125.237.197.5","Mozilla/5.0 (Macintosh; Intel Mac OS X 10_15_7) AppleWebKit/537.36 (KHTML, like Gecko) Chrome/137.0.0.0 Safari/537.36","Macintosh","Chrome","137.0.0.0","OS X","10_15_7","https://app.prolific.com/","en-GB,en-US;q=0.9,en;q=0.8","646a16e2aae07a0225cdb635","683db6dfa200031b80f2a654","68650777776f59bf216120a7","646a16e2aae07a0225cdb635","2025-07-02T10:31:57.982Z","","","","","","AttribQ","","","","","","","","","","","","","","","","","","","","","","","","","","","","","","","","","","","","","","50"
"2966","","<div style=""width:500px;"">
  <p>How much control did you have over the ball?</p>
  </div>","27","html-slider-response","70","774776","0.0-10.0-2.5","76","1","2025-07-02 10:19:04","80fe4187154257d5fb01684ea91b68b9","125.237.197.5","Mozilla/5.0 (Macintosh; Intel Mac OS X 10_15_7) AppleWebKit/537.36 (KHTML, like Gecko) Chrome/137.0.0.0 Safari/537.36","Macintosh","Chrome","137.0.0.0","OS X","10_15_7","https://app.prolific.com/","en-GB,en-US;q=0.9,en;q=0.8","646a16e2aae07a0225cdb635","683db6dfa200031b80f2a654","68650777776f59bf216120a7","646a16e2aae07a0225cdb635","2025-07-02T10:32:00.949Z","","","","","","ControlQ","","","","","","","","","","","","","","","","","","","","","","","","","","","","","","","","","","","","","","50"
"2082","","<div style=""width:500px;"">
  <p>How would you describe your current emotional state?</p>
  </div>","36","html-slider-response","71","776859","0.0-10.0-3.5","76","1","2025-07-02 10:19:04","80fe4187154257d5fb01684ea91b68b9","125.237.197.5","Mozilla/5.0 (Macintosh; Intel Mac OS X 10_15_7) AppleWebKit/537.36 (KHTML, like Gecko) Chrome/137.0.0.0 Safari/537.36","Macintosh","Chrome","137.0.0.0","OS X","10_15_7","https://app.prolific.com/","en-GB,en-US;q=0.9,en;q=0.8","646a16e2aae07a0225cdb635","683db6dfa200031b80f2a654","68650777776f59bf216120a7","646a16e2aae07a0225cdb635","2025-07-02T10:32:03.032Z","","","","","","StressQ","","","","","","","","","","","","","","","","","","","","","","","","","","","","","","","","","","","","","","50"
"3549","","<div style=""width:500px;"">
  <p>What best describes how you currently feel?</p>
  </div>","38","html-slider-response","72","780409","0.0-10.0-4.5","76","1","2025-07-02 10:19:04","80fe4187154257d5fb01684ea91b68b9","125.237.197.5","Mozilla/5.0 (Macintosh; Intel Mac OS X 10_15_7) AppleWebKit/537.36 (KHTML, like Gecko) Chrome/137.0.0.0 Safari/537.36","Macintosh","Chrome","137.0.0.0","OS X","10_15_7","https://app.prolific.com/","en-GB,en-US;q=0.9,en;q=0.8","646a16e2aae07a0225cdb635","683db6dfa200031b80f2a654","68650777776f59bf216120a7","646a16e2aae07a0225cdb635","2025-07-02T10:32:06.582Z","","","","","","MotivationQ","","","","","","","","","","","","","","","","","","","","","","","","","","","","","","","","","","","","","","50"
"","","","","ctl-task-cpt","73","826712","0.0-10.0-0.6","76","1","2025-07-02 10:19:04","80fe4187154257d5fb01684ea91b68b9","125.237.197.5","Mozilla/5.0 (Macintosh; Intel Mac OS X 10_15_7) AppleWebKit/537.36 (KHTML, like Gecko) Chrome/137.0.0.0 Safari/537.36","Macintosh","Chrome","137.0.0.0","OS X","10_15_7","https://app.prolific.com/","en-GB,en-US;q=0.9,en;q=0.8","646a16e2aae07a0225cdb635","683db6dfa200031b80f2a654","68650777776f59bf216120a7","646a16e2aae07a0225cdb635","2025-07-02T10:32:52.885Z","","","","","","","","","","","","","","","","win-only","0","g1:NW,g2:SE","0.4","7","0","783591.1","5787.2","10788.9","43296.6","1","4","4","6","2","-4","-5","0","4","0","1277.9","3000","-2940","[""down"",""right""]","{""num_key_presses"":10,""num_perfect"":4,""num_errors"":1,""num_randdir"":5,""num_randdir_good_moves"":1,""num_whilered"":0,""num_whileblue"":0,""num_blue"":1,""num_good_moves"":5}","[696.9366071428572,711.7334821428572,0.3,696.9366071428572,711.7334821428572,103.8,696.9366071428572,711.7334821428572,207.1,696.9366071428572,711.7334821428572,307.9,696.9366071428572,711.7334821428572,407.9,696.9366071428572,711.7334821428572,508.9,696.9366071428572,711.7334821428572,609,758.9366071428572,729.7334821428572,713.3,1222.9366071428572,1023.7334821428572,813.5,1376.9366071428572,1219.7334821428572,918.3,1376.9366071428572,1219.7334821428572,1018.3,1376.9366071428572,1221.7334821428572,1120.5,1366.9366071428572,1239.7334821428572,1223.8,1358.9366071428572,1239.7334821428572,1328,1358.9366071428572,1239.7334821428572,1429,1358.9366071428572,1239.7334821428572,1534,1358.9366071428572,1239.7334821428572,1635.9,1358.9366071428572,1239.7334821428572,1738.5,1358.9366071428572,1239.7334821428572,1843,1358.9366071428572,1239.7334821428572,1943,1358.9366071428572,1239.7334821428572,2043.1,1358.9366071428572,1239.7334821428572,2148.5,1358.9366071428572,1239.7334821428572,2253,1358.9366071428572,1239.7334821428572,2353.9,1358.9366071428572,1239.7334821428572,2458.7,1358.9366071428572,1239.7334821428572,2563.9,1358.9366071428572,1239.7334821428572,2668.5,1358.9366071428572,1239.7334821428572,2773.4,1358.9366071428572,1239.7334821428572,2873.8,1358.9366071428572,1239.7334821428572,2974,1358.9366071428572,1239.7334821428572,3078.9,1358.9366071428572,1239.7334821428572,3186.1,1358.9366071428572,1239.7334821428572,3288.9,1358.9366071428572,1239.7334821428572,3393.1,1358.9366071428572,1239.7334821428572,3493.7,1358.9366071428572,1239.7334821428572,3598,1358.9366071428572,1239.7334821428572,3698.4,1358.9366071428572,1239.7334821428572,3802,1358.9366071428572,1239.7334821428572,3903.3,1358.9366071428572,1239.7334821428572,4008.2,1358.9366071428572,1239.7334821428572,4108.4,1358.9366071428572,1239.7334821428572,4215.5,1358.9366071428572,1239.7334821428572,4319.3,1358.9366071428572,1239.7334821428572,4422.1,1358.9366071428572,1239.7334821428572,4523.9,1358.9366071428572,1239.7334821428572,4628.8,1358.9366071428572,1239.7334821428572,4736.7,1358.9366071428572,1239.7334821428572,4838.7,1358.9366071428572,1239.7334821428572,4939]","[1379.3,1379.3,1000,0,379.3,""smooth"",""down"",""down"",""good_move"",4648.6,3268.6,2928,1380.1,340.6,""oops"",""down"",""left"",""bad_move"",8015.5,3366.6,3017.8,4648.9,348.8,""smooth"",""down"",""down"",""good_move"",12942.9,4927.2,2423.8,12569.9,-2050.8,""error"",""-"",""-"",""no_move"",16699.5,3756.4,2428.2,13946.9,324.5,""smooth"",""right"",""right"",""good_move"",19113,2413.1,2019.4,16699.9,393.7,""oops"",""right"",""left"",""bad_move"",21752.3,2639,2266,19113.3,373,""oops"",""right"",""left"",""bad_move"",25060.3,3307.8,2893.9,21752.5,413.9,""smooth"",""right"",""right"",""good_move"",27527.8,2467,2197.3,25060.8,269.7,""oops"",""right"",""up"",""bad_move"",29846.8,2318.7,2003.1,27528.1,315.6,""oops"",""right"",""right"",""good_move""]","",""
"3161","","<div style=""width:500px;"">
  <p>What determined the result of this run?</p>
  </div>","0","html-slider-response","74","829874","0.0-10.0-1.6","76","1","2025-07-02 10:19:04","80fe4187154257d5fb01684ea91b68b9","125.237.197.5","Mozilla/5.0 (Macintosh; Intel Mac OS X 10_15_7) AppleWebKit/537.36 (KHTML, like Gecko) Chrome/137.0.0.0 Safari/537.36","Macintosh","Chrome","137.0.0.0","OS X","10_15_7","https://app.prolific.com/","en-GB,en-US;q=0.9,en;q=0.8","646a16e2aae07a0225cdb635","683db6dfa200031b80f2a654","68650777776f59bf216120a7","646a16e2aae07a0225cdb635","2025-07-02T10:32:56.047Z","","","","","","AttribQ","","","","","","","","","","","","","","","","","","","","","","","","","","","","","","","","","","","","","","50"
"2015","","<div style=""width:500px;"">
  <p>How much control did you have over the ball?</p>
  </div>","7","html-slider-response","75","831890","0.0-10.0-2.6","76","1","2025-07-02 10:19:04","80fe4187154257d5fb01684ea91b68b9","125.237.197.5","Mozilla/5.0 (Macintosh; Intel Mac OS X 10_15_7) AppleWebKit/537.36 (KHTML, like Gecko) Chrome/137.0.0.0 Safari/537.36","Macintosh","Chrome","137.0.0.0","OS X","10_15_7","https://app.prolific.com/","en-GB,en-US;q=0.9,en;q=0.8","646a16e2aae07a0225cdb635","683db6dfa200031b80f2a654","68650777776f59bf216120a7","646a16e2aae07a0225cdb635","2025-07-02T10:32:58.063Z","","","","","","ControlQ","","","","","","","","","","","","","","","","","","","","","","","","","","","","","","","","","","","","","","50"
"2866","","<div style=""width:500px;"">
  <p>How would you describe your current emotional state?</p>
  </div>","34","html-slider-response","76","834757","0.0-10.0-3.6","76","1","2025-07-02 10:19:04","80fe4187154257d5fb01684ea91b68b9","125.237.197.5","Mozilla/5.0 (Macintosh; Intel Mac OS X 10_15_7) AppleWebKit/537.36 (KHTML, like Gecko) Chrome/137.0.0.0 Safari/537.36","Macintosh","Chrome","137.0.0.0","OS X","10_15_7","https://app.prolific.com/","en-GB,en-US;q=0.9,en;q=0.8","646a16e2aae07a0225cdb635","683db6dfa200031b80f2a654","68650777776f59bf216120a7","646a16e2aae07a0225cdb635","2025-07-02T10:33:00.930Z","","","","","","StressQ","","","","","","","","","","","","","","","","","","","","","","","","","","","","","","","","","","","","","","50"
"3283","","<div style=""width:500px;"">
  <p>What best describes how you currently feel?</p>
  </div>","29","html-slider-response","77","838041","0.0-10.0-4.6","76","1","2025-07-02 10:19:04","80fe4187154257d5fb01684ea91b68b9","125.237.197.5","Mozilla/5.0 (Macintosh; Intel Mac OS X 10_15_7) AppleWebKit/537.36 (KHTML, like Gecko) Chrome/137.0.0.0 Safari/537.36","Macintosh","Chrome","137.0.0.0","OS X","10_15_7","https://app.prolific.com/","en-GB,en-US;q=0.9,en;q=0.8","646a16e2aae07a0225cdb635","683db6dfa200031b80f2a654","68650777776f59bf216120a7","646a16e2aae07a0225cdb635","2025-07-02T10:33:04.214Z","","","","","","MotivationQ","","","","","","","","","","","","","","","","","","","","","","","","","","","","","","","","","","","","","","50"
"","","","","ctl-task-cpt","78","884609","0.0-10.0-0.7","76","1","2025-07-02 10:19:04","80fe4187154257d5fb01684ea91b68b9","125.237.197.5","Mozilla/5.0 (Macintosh; Intel Mac OS X 10_15_7) AppleWebKit/537.36 (KHTML, like Gecko) Chrome/137.0.0.0 Safari/537.36","Macintosh","Chrome","137.0.0.0","OS X","10_15_7","https://app.prolific.com/","en-GB,en-US;q=0.9,en;q=0.8","646a16e2aae07a0225cdb635","683db6dfa200031b80f2a654","68650777776f59bf216120a7","646a16e2aae07a0225cdb635","2025-07-02T10:33:50.782Z","","","","","","","","","","","","","","","","win-only","2","g1:SE,g2:NW","0.3","8","0","841224.9","3364.5","8366.4","43559.8","1","4","8","6","2","-8","-11","0","0","0","1449.9","3000","-2905","[""left"",""up""]","{""num_key_presses"":12,""num_perfect"":3,""num_errors"":3,""num_randdir"":6,""num_randdir_good_moves"":2,""num_whilered"":0,""num_whileblue"":2,""num_blue"":2,""num_good_moves"":6}","[702.9366071428572,709.7334821428572,0.3,702.9366071428572,709.7334821428572,101.2,702.9366071428572,709.7334821428572,203.8,702.9366071428572,709.7334821428572,306.4,702.9366071428572,709.7334821428572,411.5,702.9366071428572,709.7334821428572,515.7,702.9366071428572,709.7334821428572,616.6,702.9366071428572,709.7334821428572,716.6,706.9366071428572,675.7334821428572,822.4,376.93660714285716,167.73348214285716,926,254.93660714285716,49.73348214285714,1030.8,254.93660714285716,49.73348214285714,1131.5,236.93660714285716,75.73348214285714,1241.1,210.93660714285716,107.73348214285714,1341.5,190.93660714285716,119.73348214285714,1446.6,190.93660714285716,119.73348214285714,1557,190.93660714285716,119.73348214285714,1661.4,190.93660714285716,119.73348214285714,1761.4,190.93660714285716,119.73348214285714,1865.9,190.93660714285716,119.73348214285714,1966.6,174.93660714285716,167.73348214285716,2071.8,-19.06339285714286,391.73348214285716,2178.7,-19.06339285714286,391.73348214285716,2280.8,-21.06339285714286,391.73348214285716,2381.4,-159.06339285714284,367.73348214285716,2481.6,-145.06339285714284,357.73348214285716,2581.7,-145.06339285714284,357.73348214285716,2688.8,-145.06339285714284,357.73348214285716,2790.4,-145.06339285714284,357.73348214285716,2891.5,-145.06339285714284,357.73348214285716,2994.1,-145.06339285714284,357.73348214285716,3096.7,-145.06339285714284,357.73348214285716,3206.6,-145.06339285714284,357.73348214285716,3308.9,-145.06339285714284,357.73348214285716,3410.7,-145.06339285714284,357.73348214285716,3511.7,-145.06339285714284,357.73348214285716,3618.1,-145.06339285714284,357.73348214285716,3725.2,-145.06339285714284,357.73348214285716,3826.3,-145.06339285714284,357.73348214285716,3926.6,-145.06339285714284,357.73348214285716,4030.6,-145.06339285714284,357.73348214285716,4131.7,-145.06339285714284,357.73348214285716,4240.5,-145.06339285714284,357.73348214285716,4341.3,-145.06339285714284,357.73348214285716,4444.2,-145.06339285714284,357.73348214285716,4546,-145.06339285714284,357.73348214285716,4651.1,-145.06339285714284,357.73348214285716,4751.8,-145.06339285714284,357.73348214285716,4856.7,-145.06339285714284,357.73348214285716,4961]","[1397.8,1397.9,1000,0,397.9,""oops"",""left"",""up"",""good_move"",4303.6,2905.4,2482.6,1398.2,422.8,""oops"",""left"",""right"",""bad_move"",7239.3,2935.4,2515,4303.9,420.4,""smooth"",""up"",""up"",""good_move"",9820.6,2581.1,2254.1,7239.5,327,""smooth"",""left"",""left"",""good_move"",13222.3,3401.3,3049,9821,352.3,""smooth"",""left"",""left"",""good_move"",15725.6,2503.1,2161.9,13222.5,341.2,""oops"",""up"",""down"",""bad_move"",18884.3,3158.5,2833.4,15725.9,325.1,""oops"",""left"",""right"",""bad_move"",21748.9,2864.1,2624.2,18884.8,239.9,""while_blue"",""up"",""right"",""bad_move"",25370.6,3621.5,3273.7,21749.1,347.8,""oops"",""up"",""up"",""good_move"",27824.1,2453.2,2208.7,25370.9,244.5,""while_blue"",""up"",""left"",""good_move"",30302.5,2478.1,2344.3,27824.4,133.8,""oops"",""up"",""right"",""bad_move"",31552,1249.1,2664.9,30302.9,-1415.8,""error"",""-"",""-"",""no_move""]","",""
"2595","","<div style=""width:500px;"">
  <p>What determined the result of this run?</p>
  </div>","5","html-slider-response","79","887205","0.0-10.0-1.7","76","1","2025-07-02 10:19:04","80fe4187154257d5fb01684ea91b68b9","125.237.197.5","Mozilla/5.0 (Macintosh; Intel Mac OS X 10_15_7) AppleWebKit/537.36 (KHTML, like Gecko) Chrome/137.0.0.0 Safari/537.36","Macintosh","Chrome","137.0.0.0","OS X","10_15_7","https://app.prolific.com/","en-GB,en-US;q=0.9,en;q=0.8","646a16e2aae07a0225cdb635","683db6dfa200031b80f2a654","68650777776f59bf216120a7","646a16e2aae07a0225cdb635","2025-07-02T10:33:53.378Z","","","","","","AttribQ","","","","","","","","","","","","","","","","","","","","","","","","","","","","","","","","","","","","","","50"
"2865","","<div style=""width:500px;"">
  <p>How much control did you have over the ball?</p>
  </div>","10","html-slider-response","80","890072","0.0-10.0-2.7","76","1","2025-07-02 10:19:04","80fe4187154257d5fb01684ea91b68b9","125.237.197.5","Mozilla/5.0 (Macintosh; Intel Mac OS X 10_15_7) AppleWebKit/537.36 (KHTML, like Gecko) Chrome/137.0.0.0 Safari/537.36","Macintosh","Chrome","137.0.0.0","OS X","10_15_7","https://app.prolific.com/","en-GB,en-US;q=0.9,en;q=0.8","646a16e2aae07a0225cdb635","683db6dfa200031b80f2a654","68650777776f59bf216120a7","646a16e2aae07a0225cdb635","2025-07-02T10:33:56.245Z","","","","","","ControlQ","","","","","","","","","","","","","","","","","","","","","","","","","","","","","","","","","","","","","","50"
"3332","","<div style=""width:500px;"">
  <p>How would you describe your current emotional state?</p>
  </div>","19","html-slider-response","81","893405","0.0-10.0-3.7","76","1","2025-07-02 10:19:04","80fe4187154257d5fb01684ea91b68b9","125.237.197.5","Mozilla/5.0 (Macintosh; Intel Mac OS X 10_15_7) AppleWebKit/537.36 (KHTML, like Gecko) Chrome/137.0.0.0 Safari/537.36","Macintosh","Chrome","137.0.0.0","OS X","10_15_7","https://app.prolific.com/","en-GB,en-US;q=0.9,en;q=0.8","646a16e2aae07a0225cdb635","683db6dfa200031b80f2a654","68650777776f59bf216120a7","646a16e2aae07a0225cdb635","2025-07-02T10:33:59.578Z","","","","","","StressQ","","","","","","","","","","","","","","","","","","","","","","","","","","","","","","","","","","","","","","50"
"2066","","<div style=""width:500px;"">
  <p>What best describes how you currently feel?</p>
  </div>","29","html-slider-response","82","895471","0.0-10.0-4.7","76","1","2025-07-02 10:19:04","80fe4187154257d5fb01684ea91b68b9","125.237.197.5","Mozilla/5.0 (Macintosh; Intel Mac OS X 10_15_7) AppleWebKit/537.36 (KHTML, like Gecko) Chrome/137.0.0.0 Safari/537.36","Macintosh","Chrome","137.0.0.0","OS X","10_15_7","https://app.prolific.com/","en-GB,en-US;q=0.9,en;q=0.8","646a16e2aae07a0225cdb635","683db6dfa200031b80f2a654","68650777776f59bf216120a7","646a16e2aae07a0225cdb635","2025-07-02T10:34:01.645Z","","","","","","MotivationQ","","","","","","","","","","","","","","","","","","","","","","","","","","","","","","","","","","","","","","50"
"","","","","ctl-task-cpt","83","915396","0.0-10.0-0.8","76","1","2025-07-02 10:19:04","80fe4187154257d5fb01684ea91b68b9","125.237.197.5","Mozilla/5.0 (Macintosh; Intel Mac OS X 10_15_7) AppleWebKit/537.36 (KHTML, like Gecko) Chrome/137.0.0.0 Safari/537.36","Macintosh","Chrome","137.0.0.0","OS X","10_15_7","https://app.prolific.com/","en-GB,en-US;q=0.9,en;q=0.8","646a16e2aae07a0225cdb635","683db6dfa200031b80f2a654","68650777776f59bf216120a7","646a16e2aae07a0225cdb635","2025-07-02T10:34:21.569Z","","","","","","","","","","","","","","","","win-only","1","g1:NE,g2:SW","0.4","9","0","898657.2","1298.4","6300.6","16911.7","1","4","4","6","1","1","1","1","0","0.007575757575757576","1817.1","3000","1225","[""up"",""right""]","{""num_key_presses"":4,""num_perfect"":1,""num_errors"":0,""num_randdir"":3,""num_randdir_good_moves"":3,""num_whilered"":0,""num_whileblue"":0,""num_blue"":0,""num_good_moves"":4}","[690.9366071428572,703.7334821428572,0.3,690.9366071428572,703.7334821428572,102.1,690.9366071428572,703.7334821428572,207.1,690.9366071428572,703.7334821428572,307.3,690.9366071428572,703.7334821428572,409.4,690.9366071428572,703.7334821428572,512.1,690.9366071428572,703.7334821428572,612.7,690.9366071428572,703.7334821428572,717.5,690.9366071428572,703.7334821428572,822.9,688.9366071428572,703.7334821428572,927.4,486.93660714285716,845.7334821428572,1027.8,460.93660714285716,899.7334821428572,1132.6,1008.9366071428572,575.7334821428572,1237,1050.9366071428572,519.7334821428572,1339,1044.9366071428572,519.7334821428572,1446.5,1170.9366071428572,351.73348214285716,1548.1,1230.9366071428572,255.73348214285716,1656.7,1240.9366071428572,215.73348214285716,1757.7,1246.9366071428572,209.73348214285716,1860.2,1246.9366071428572,209.73348214285716,1962.3,1246.9366071428572,209.73348214285716,2062.6,1246.9366071428572,209.73348214285716,2163,1056.9366071428572,401.73348214285716,2267.8,958.9366071428572,541.7334821428572,2372.2,958.9366071428572,541.7334821428572,2472.3,958.9366071428572,541.7334821428572,2574.7,958.9366071428572,541.7334821428572,2677.5,958.9366071428572,541.7334821428572,2781.9,958.9366071428572,541.7334821428572,2881.9,958.9366071428572,541.7334821428572,2982.9,958.9366071428572,541.7334821428572,3093.9,958.9366071428572,541.7334821428572,3195.3,958.9366071428572,541.7334821428572,3296.9,958.9366071428572,541.7334821428572,3397.9,958.9366071428572,541.7334821428572,3502.2,958.9366071428572,541.7334821428572,3606.8,958.9366071428572,541.7334821428572,3707.2,958.9366071428572,541.7334821428572,3807.8,958.9366071428572,541.7334821428572,3913.6,958.9366071428572,541.7334821428572,4017.8,958.9366071428572,541.7334821428572,4119.1,958.9366071428572,541.7334821428572,4222.9,958.9366071428572,541.7334821428572,4327.8,958.9366071428572,541.7334821428572,4432.3,958.9366071428572,541.7334821428572,4542.4,958.9366071428572,541.7334821428572,4647.7,958.9366071428572,541.7334821428572,4752.7,958.9366071428572,541.7334821428572,4856.7,958.9366071428572,541.7334821428572,4957.5]","[1477.6,1477.6,1000,0,477.6,""smooth"",""up"",""up"",""good_move"",5074.9,3596.9,3132,1478,464.9,""oops"",""right"",""up"",""good_move"",7942,2867,2463.7,5075,403.4,""oops"",""right"",""right"",""good_move"",10518.5,2576,2043.1,7942.5,532.9,""oops"",""right"",""right"",""good_move""]","",""
"2557","","<div style=""width:500px;"">
  <p>What determined the result of this run?</p>
  </div>","87","html-slider-response","84","917954","0.0-10.0-1.8","76","1","2025-07-02 10:19:04","80fe4187154257d5fb01684ea91b68b9","125.237.197.5","Mozilla/5.0 (Macintosh; Intel Mac OS X 10_15_7) AppleWebKit/537.36 (KHTML, like Gecko) Chrome/137.0.0.0 Safari/537.36","Macintosh","Chrome","137.0.0.0","OS X","10_15_7","https://app.prolific.com/","en-GB,en-US;q=0.9,en;q=0.8","646a16e2aae07a0225cdb635","683db6dfa200031b80f2a654","68650777776f59bf216120a7","646a16e2aae07a0225cdb635","2025-07-02T10:34:24.127Z","","","","","","AttribQ","","","","","","","","","","","","","","","","","","","","","","","","","","","","","","","","","","","","","","50"
"5383","","<div style=""width:500px;"">
  <p>How much control did you have over the ball?</p>
  </div>","100","html-slider-response","85","923337","0.0-10.0-2.8","76","1","2025-07-02 10:19:04","80fe4187154257d5fb01684ea91b68b9","125.237.197.5","Mozilla/5.0 (Macintosh; Intel Mac OS X 10_15_7) AppleWebKit/537.36 (KHTML, like Gecko) Chrome/137.0.0.0 Safari/537.36","Macintosh","Chrome","137.0.0.0","OS X","10_15_7","https://app.prolific.com/","en-GB,en-US;q=0.9,en;q=0.8","646a16e2aae07a0225cdb635","683db6dfa200031b80f2a654","68650777776f59bf216120a7","646a16e2aae07a0225cdb635","2025-07-02T10:34:29.511Z","","","","","","ControlQ","","","","","","","","","","","","","","","","","","","","","","","","","","","","","","","","","","","","","","50"
"2448","","<div style=""width:500px;"">
  <p>How would you describe your current emotional state?</p>
