"rt","response_timestamp","stimulus","response","trial_type","trial_index","time_elapsed","internal_node_id","run_id","condition","recorded_at","source_code_version","ip","user_agent","device","browser","browser_version","platform","platform_version","referer","accept_language","PROLIFIC_PID","STUDY_ID","SESSION_ID","prolific_id","realtime","view_history","question_order","consent","success","question_id","eventType","responses","item_order","radio_event_ids","radio_event_times","key_event_times","mouse_event_times","straightlining","zigzagging","honeypot","which_type","canvas_config","goals_layout","control_level","trial_number","tutorial_trial_number","trial_start_time","phase1_start_time","phase2_start_time","phase3_start_time","goal_1_value","goal_1_distance","goal_2_value","goal_2_distance","goal_selected","outcome","outcome_total","participant_final_score","participant_initial_score","participant_final_score_prop","goal_choice_rt","allocated_time","allocated_time_remaining","goal_direction","counts","mouse_movements","key_presses","correct","slider_start"
"7537","1751451768314","<p style='font-size:40px;line-height:1.25'><strong>Welcome to the experiment!</strong></p><p style='font-size:1.1em;line-height:1.25'>Thank you for your interest in our experiment! Before you begin, it is important that we obtain your informed consent to participate in the study.</p><p style='font-size:1.1em;line-height:1.25'>On the next screen will be an <strong>information sheet</strong> for you to read. To participate in the study we need you to read this information sheet and the following consent form carefully. If you agree with all the statements, please click the <strong>I agree</strong> button.</p><p style='font-size:1.1em;line-height:1.25'>Press <strong>Next</strong> to read the information sheet.</p>","0","custom-html-button-response","0","7543","0.0-0.0","164","1","2025-07-02 10:22:38","80fe4187154257d5fb01684ea91b68b9","83.233.136.197","Mozilla/5.0 (Windows NT 10.0; Win64; x64) AppleWebKit/537.36 (KHTML, like Gecko) Chrome/137.0.0.0 Safari/537.36","WebKit","Chrome","137.0.0.0","Windows","10.0","https://app.prolific.com/","en-US,en;q=0.9,sv-SE;q=0.8,sv;q=0.7,sl-SI;q=0.6,sl;q=0.5,de;q=0.4,ko;q=0.3","647df23a62de26114fdcb29c","683db6dfa200031b80f2a654","68650784c3087d7c97846950","647df23a62de26114fdcb29c","2025-07-02T10:22:48.316Z","","","","","","","","","","","","","","","","","","","","","","","","","","","","","","","","","","","","","","","","","","","",""
"112912","","","","instructions","1","120457","0.0-1.0","164","1","2025-07-02 10:22:38","80fe4187154257d5fb01684ea91b68b9","83.233.136.197","Mozilla/5.0 (Windows NT 10.0; Win64; x64) AppleWebKit/537.36 (KHTML, like Gecko) Chrome/137.0.0.0 Safari/537.36","WebKit","Chrome","137.0.0.0","Windows","10.0","https://app.prolific.com/","en-US,en;q=0.9,sv-SE;q=0.8,sv;q=0.7,sl-SI;q=0.6,sl;q=0.5,de;q=0.4,ko;q=0.3","647df23a62de26114fdcb29c","683db6dfa200031b80f2a654","68650784c3087d7c97846950","647df23a62de26114fdcb29c","","[{""page_index"":0,""viewing_time"":67416},{""page_index"":1,""viewing_time"":45495}]","","","","","","","","","","","","","","","","","","","","","","","","","","","","","","","","","","","","","","","","","","",""
"46200","","","{""Q0"":"""",""Q1"":"""",""Q2"":"""",""Q3"":"""",""Q4"":"""",""Q5"":"""",""Q6"":""I agree""}","survey-multi-choice","2","166661","0.0-2.0","164","1","2025-07-02 10:22:38","80fe4187154257d5fb01684ea91b68b9","83.233.136.197","Mozilla/5.0 (Windows NT 10.0; Win64; x64) AppleWebKit/537.36 (KHTML, like Gecko) Chrome/137.0.0.0 Safari/537.36","WebKit","Chrome","137.0.0.0","Windows","10.0","https://app.prolific.com/","en-US,en;q=0.9,sv-SE;q=0.8,sv;q=0.7,sl-SI;q=0.6,sl;q=0.5,de;q=0.4,ko;q=0.3","647df23a62de26114fdcb29c","683db6dfa200031b80f2a654","68650784c3087d7c97846950","647df23a62de26114fdcb29c","","","[0,1,2,3,4,5,6]","true","","","","","","","","","","","","","","","","","","","","","","","","","","","","","","","","","","","","","","","","",""
"13733","","","","fullscreen","3","181418","0.0-4.0","164","1","2025-07-02 10:22:38","80fe4187154257d5fb01684ea91b68b9","83.233.136.197","Mozilla/5.0 (Windows NT 10.0; Win64; x64) AppleWebKit/537.36 (KHTML, like Gecko) Chrome/137.0.0.0 Safari/537.36","WebKit","Chrome","137.0.0.0","Windows","10.0","https://app.prolific.com/","en-US,en;q=0.9,sv-SE;q=0.8,sv;q=0.7,sl-SI;q=0.6,sl;q=0.5,de;q=0.4,ko;q=0.3","647df23a62de26114fdcb29c","683db6dfa200031b80f2a654","68650784c3087d7c97846950","647df23a62de26114fdcb29c","","","","","true","","","","","","","","","","","","","","","","","","","","","","","","","","","","","","","","","","","","","","","",""
"6704","1751451948896"," <p style='font-size:1.1em;line-height:1.25'>Thank you for completing the consent form and closing all other tabs.</p><p style='font-size:1.1em;line-height:1.25'>We will now invite you to fill in some demographic information and questionnaires, before starting the game.<br>This will take about 5 minutes.<br></p><p style='font-size:1.1em;line-height:1.25'>Press the <strong>Next</strong> button to continue.</p>","0","custom-html-button-response","4","188124","0.0-5.0","164","1","2025-07-02 10:22:38","80fe4187154257d5fb01684ea91b68b9","83.233.136.197","Mozilla/5.0 (Windows NT 10.0; Win64; x64) AppleWebKit/537.36 (KHTML, like Gecko) Chrome/137.0.0.0 Safari/537.36","WebKit","Chrome","137.0.0.0","Windows","10.0","https://app.prolific.com/","en-US,en;q=0.9,sv-SE;q=0.8,sv;q=0.7,sl-SI;q=0.6,sl;q=0.5,de;q=0.4,ko;q=0.3","647df23a62de26114fdcb29c","683db6dfa200031b80f2a654","68650784c3087d7c97846950","647df23a62de26114fdcb29c","2025-07-02T10:25:48.897Z","","","","","","","","","","","","","","","","","","","","","","","","","","","","","","","","","","","","","","","","","","","",""
"5122","","","{""age"":""37""}","survey-text","5","193259","0.0-6.0-0.0","164","1","2025-07-02 10:22:38","80fe4187154257d5fb01684ea91b68b9","83.233.136.197","Mozilla/5.0 (Windows NT 10.0; Win64; x64) AppleWebKit/537.36 (KHTML, like Gecko) Chrome/137.0.0.0 Safari/537.36","WebKit","Chrome","137.0.0.0","Windows","10.0","https://app.prolific.com/","en-US,en;q=0.9,sv-SE;q=0.8,sv;q=0.7,sl-SI;q=0.6,sl;q=0.5,de;q=0.4,ko;q=0.3","647df23a62de26114fdcb29c","683db6dfa200031b80f2a654","68650784c3087d7c97846950","647df23a62de26114fdcb29c","","","","","","0","demographics","","","","","","","","","","","","","","","","","","","","","","","","","","","","","","","","","","","","","",""
"4175","","","{""gender_identity"":""male/man""}","survey-multi-choice","6","197436","0.0-6.0-1.0","164","1","2025-07-02 10:22:38","80fe4187154257d5fb01684ea91b68b9","83.233.136.197","Mozilla/5.0 (Windows NT 10.0; Win64; x64) AppleWebKit/537.36 (KHTML, like Gecko) Chrome/137.0.0.0 Safari/537.36","WebKit","Chrome","137.0.0.0","Windows","10.0","https://app.prolific.com/","en-US,en;q=0.9,sv-SE;q=0.8,sv;q=0.7,sl-SI;q=0.6,sl;q=0.5,de;q=0.4,ko;q=0.3","647df23a62de26114fdcb29c","683db6dfa200031b80f2a654","68650784c3087d7c97846950","647df23a62de26114fdcb29c","","","[0]","","","1","demographics","","","","","","","","","","","","","","","","","","","","","","","","","","","","","","","","","","","","","",""
"3583","","","{""assigned_sex"":""male""}","survey-multi-choice","7","201021","0.0-6.0-2.0","164","1","2025-07-02 10:22:38","80fe4187154257d5fb01684ea91b68b9","83.233.136.197","Mozilla/5.0 (Windows NT 10.0; Win64; x64) AppleWebKit/537.36 (KHTML, like Gecko) Chrome/137.0.0.0 Safari/537.36","WebKit","Chrome","137.0.0.0","Windows","10.0","https://app.prolific.com/","en-US,en;q=0.9,sv-SE;q=0.8,sv;q=0.7,sl-SI;q=0.6,sl;q=0.5,de;q=0.4,ko;q=0.3","647df23a62de26114fdcb29c","683db6dfa200031b80f2a654","68650784c3087d7c97846950","647df23a62de26114fdcb29c","","","[0]","","","2","demographics","","","","","","","","","","","","","","","","","","","","","","","","","","","","","","","","","","","","","",""
"4682","","","{""menstrual_cycle"":""No""}","survey-multi-choice","8","205708","0.0-6.0-3.0","164","1","2025-07-02 10:22:38","80fe4187154257d5fb01684ea91b68b9","83.233.136.197","Mozilla/5.0 (Windows NT 10.0; Win64; x64) AppleWebKit/537.36 (KHTML, like Gecko) Chrome/137.0.0.0 Safari/537.36","WebKit","Chrome","137.0.0.0","Windows","10.0","https://app.prolific.com/","en-US,en;q=0.9,sv-SE;q=0.8,sv;q=0.7,sl-SI;q=0.6,sl;q=0.5,de;q=0.4,ko;q=0.3","647df23a62de26114fdcb29c","683db6dfa200031b80f2a654","68650784c3087d7c97846950","647df23a62de26114fdcb29c","","","[0]","","","4","demographics","","","","","","","","","","","","","","","","","","","","","","","","","","","","","","","","","","","","","",""
"7817","","","{""education"":""Master's Degree (e.g., MSc)""}","survey-multi-choice","9","213528","0.0-6.0-4.0","164","1","2025-07-02 10:22:38","80fe4187154257d5fb01684ea91b68b9","83.233.136.197","Mozilla/5.0 (Windows NT 10.0; Win64; x64) AppleWebKit/537.36 (KHTML, like Gecko) Chrome/137.0.0.0 Safari/537.36","WebKit","Chrome","137.0.0.0","Windows","10.0","https://app.prolific.com/","en-US,en;q=0.9,sv-SE;q=0.8,sv;q=0.7,sl-SI;q=0.6,sl;q=0.5,de;q=0.4,ko;q=0.3","647df23a62de26114fdcb29c","683db6dfa200031b80f2a654","68650784c3087d7c97846950","647df23a62de26114fdcb29c","","","[0]","","","5","demographics","","","","","","","","","","","","","","","","","","","","","","","","","","","","","","","","","","","","","",""
"7388","","","{""education"":""Master's Degree (e.g., MSc)""}","survey-multi-choice","10","220919","0.0-6.0-5.0","164","1","2025-07-02 10:22:38","80fe4187154257d5fb01684ea91b68b9","83.233.136.197","Mozilla/5.0 (Windows NT 10.0; Win64; x64) AppleWebKit/537.36 (KHTML, like Gecko) Chrome/137.0.0.0 Safari/537.36","WebKit","Chrome","137.0.0.0","Windows","10.0","https://app.prolific.com/","en-US,en;q=0.9,sv-SE;q=0.8,sv;q=0.7,sl-SI;q=0.6,sl;q=0.5,de;q=0.4,ko;q=0.3","647df23a62de26114fdcb29c","683db6dfa200031b80f2a654","68650784c3087d7c97846950","647df23a62de26114fdcb29c","2025-07-02T10:26:21.692Z","","[0]","","","6","demographics","","","","","","","","","","","","","","","","","","","","","","","","","","","","","","","","","","","","","",""
"12174","","","{""mental_health_condition"":"""",""mental_health_treatment"":"""",""psychiatric_medication"":""""}","survey-text","11","233101","0.0-7.0-0.0","164","1","2025-07-02 10:22:38","80fe4187154257d5fb01684ea91b68b9","83.233.136.197","Mozilla/5.0 (Windows NT 10.0; Win64; x64) AppleWebKit/537.36 (KHTML, like Gecko) Chrome/137.0.0.0 Safari/537.36","WebKit","Chrome","137.0.0.0","Windows","10.0","https://app.prolific.com/","en-US,en;q=0.9,sv-SE;q=0.8,sv;q=0.7,sl-SI;q=0.6,sl;q=0.5,de;q=0.4,ko;q=0.3","647df23a62de26114fdcb29c","683db6dfa200031b80f2a654","68650784c3087d7c97846950","647df23a62de26114fdcb29c","2025-07-02T10:26:33.874Z","","","","","1","mental_health","","","","","","","","","","","","","","","","","","","","","","","","","","","","","","","","","","","","","",""
"30926","","","{""depression_history"":[""Yes""]}","survey-multi-select","12","264033","0.0-7.0-1.0","164","1","2025-07-02 10:22:38","80fe4187154257d5fb01684ea91b68b9","83.233.136.197","Mozilla/5.0 (Windows NT 10.0; Win64; x64) AppleWebKit/537.36 (KHTML, like Gecko) Chrome/137.0.0.0 Safari/537.36","WebKit","Chrome","137.0.0.0","Windows","10.0","https://app.prolific.com/","en-US,en;q=0.9,sv-SE;q=0.8,sv;q=0.7,sl-SI;q=0.6,sl;q=0.5,de;q=0.4,ko;q=0.3","647df23a62de26114fdcb29c","683db6dfa200031b80f2a654","68650784c3087d7c97846950","647df23a62de26114fdcb29c","","","[0]","","","","mental_health","","","","","","","","","","","","","","","","","","","","","","","","","","","","","","","","","","","","","",""
"20945","","","{""depression_episodes"":""3-5"",""depression_recent"":""More than 1 year ago""}","survey-multi-choice","13","284981","0.0-7.0-2.0-0.0","164","1","2025-07-02 10:22:38","80fe4187154257d5fb01684ea91b68b9","83.233.136.197","Mozilla/5.0 (Windows NT 10.0; Win64; x64) AppleWebKit/537.36 (KHTML, like Gecko) Chrome/137.0.0.0 Safari/537.36","WebKit","Chrome","137.0.0.0","Windows","10.0","https://app.prolific.com/","en-US,en;q=0.9,sv-SE;q=0.8,sv;q=0.7,sl-SI;q=0.6,sl;q=0.5,de;q=0.4,ko;q=0.3","647df23a62de26114fdcb29c","683db6dfa200031b80f2a654","68650784c3087d7c97846950","647df23a62de26114fdcb29c","2025-07-02T10:27:25.754Z","","[0,1]","","","3","mental_health","","","","","","","","","","","","","","","","","","","","","","","","","","","","","","","","","","","","","",""
"72131.39999985695","","","","survey-template","14","357119","0.0-7.0-3.0","164","1","2025-07-02 10:22:38","80fe4187154257d5fb01684ea91b68b9","83.233.136.197","Mozilla/5.0 (Windows NT 10.0; Win64; x64) AppleWebKit/537.36 (KHTML, like Gecko) Chrome/137.0.0.0 Safari/537.36","WebKit","Chrome","137.0.0.0","Windows","10.0","https://app.prolific.com/","en-US,en;q=0.9,sv-SE;q=0.8,sv;q=0.7,sl-SI;q=0.6,sl;q=0.5,de;q=0.4,ko;q=0.3","647df23a62de26114fdcb29c","683db6dfa200031b80f2a654","68650784c3087d7c97846950","647df23a62de26114fdcb29c","2025-07-02T10:28:37.892Z","","","","","","ius","{""Q01"":""1"",""Q02"":""1"",""Q03"":""2"",""Q04"":""4"",""Q05"":""1"",""Q06"":""0"",""Q07"":""0"",""Q08"":""0"",""Q09"":""3"",""Q10"":""0"",""Q11"":""0"",""Q12"":""2"",""Q13"":""0""}","[0,1,2,3,4,5,6,7,8,9,10,11,12]","[""Q01"",""Q02"",""Q03"",""Q04"",""Q04"",""Q05"",""Q06"",""Q07"",""Q08"",""Q09"",""Q10"",""Q11"",""Q12"",""Q13""]","[10487.299999952316,12975.299999952316,17653.89999985695,20579.199999809265,22624.099999904633,26670.599999904633,29723.099999904633,36162.199999809265,42421.299999952316,48120.199999809265,54039.09999990463,56448.09999990463,60247.59999990463,65982.39999985695]","[]","[10487.299999952316,12975.299999952316,17653.89999985695,20579.199999809265,22624.099999904633,26670.599999904633,29723.099999904633,36162.199999809265,42421.299999952316,48120.199999809265,54039.09999990463,56448.09999990463,60247.59999990463,65982.39999985695,72128.5]","0.46153846153846156","0.16666666666666666","0","","","","","","","","","","","","","","","","","","","","","","","","","","","","",""
"3288","1751452121181","<p style='font-size:1.1em;line-height:1.25'>In the following, we will ask you a few questions relating to your experiences over the past month.<br></p><p style='font-size:1.1em;line-height:1.25'>Press the <strong>Next</strong> button to continue.</p>","0","custom-html-button-response","15","360409","0.0-7.0-4.0","164","1","2025-07-02 10:22:38","80fe4187154257d5fb01684ea91b68b9","83.233.136.197","Mozilla/5.0 (Windows NT 10.0; Win64; x64) AppleWebKit/537.36 (KHTML, like Gecko) Chrome/137.0.0.0 Safari/537.36","WebKit","Chrome","137.0.0.0","Windows","10.0","https://app.prolific.com/","en-US,en;q=0.9,sv-SE;q=0.8,sv;q=0.7,sl-SI;q=0.6,sl;q=0.5,de;q=0.4,ko;q=0.3","647df23a62de26114fdcb29c","683db6dfa200031b80f2a654","68650784c3087d7c97846950","647df23a62de26114fdcb29c","2025-07-02T10:28:41.182Z","","","","","","","","","","","","","","","","","","","","","","","","","","","","","","","","","","","","","","","","","","","",""
"62298","","","","survey-template","16","422710","0.0-7.0-5.0","164","1","2025-07-02 10:22:38","80fe4187154257d5fb01684ea91b68b9","83.233.136.197","Mozilla/5.0 (Windows NT 10.0; Win64; x64) AppleWebKit/537.36 (KHTML, like Gecko) Chrome/137.0.0.0 Safari/537.36","WebKit","Chrome","137.0.0.0","Windows","10.0","https://app.prolific.com/","en-US,en;q=0.9,sv-SE;q=0.8,sv;q=0.7,sl-SI;q=0.6,sl;q=0.5,de;q=0.4,ko;q=0.3","647df23a62de26114fdcb29c","683db6dfa200031b80f2a654","68650784c3087d7c97846950","647df23a62de26114fdcb29c","2025-07-02T10:29:43.484Z","","","","","","pss","{""Q01"":""1"",""Q02"":""2"",""Q03"":""2"",""Q04"":""1"",""Q05"":""2"",""Q06"":""0"",""Q07"":""0"",""Q08"":""2"",""Q09"":""0"",""Q10"":""0""}","[0,1,2,3,4,5,6,7,8,9]","[""Q01"",""Q02"",""Q03"",""Q04"",""Q05"",""Q06"",""Q07"",""Q07"",""Q08"",""Q09"",""Q10"",""Q10""]","[7900.600000143051,16572.800000190735,19209.800000190735,24888.900000095367,28495.10000014305,34685.40000009537,40352.5,41469.40000009537,45382,49817.5,56660.60000014305,59549.40000009537]","[]","[0.10000014305114746,7900.600000143051,15944.700000047684,16572.800000190735,19209.800000190735,24888.900000095367,28495.10000014305,34685.40000009537,40352.5,41469.40000009537,45382,49817.5,56660.60000014305,59549.40000009537,62294.90000009537]","0.4","0.4444444444444444","0","","","","","","","","","","","","","","","","","","","","","","","","","","","","",""
"3987","1751452187472","<p style='font-size:1.1em;line-height:1.25'>Thank you for your answers! Now we will ask you a few more questions relating to your feelings in the last 24 hours.<br></p><p style='font-size:1.1em;line-height:1.25'>Press the <strong>Next</strong> button to continue.</p>","0","custom-html-button-response","17","426700","0.0-7.0-6.0","164","1","2025-07-02 10:22:38","80fe4187154257d5fb01684ea91b68b9","83.233.136.197","Mozilla/5.0 (Windows NT 10.0; Win64; x64) AppleWebKit/537.36 (KHTML, like Gecko) Chrome/137.0.0.0 Safari/537.36","WebKit","Chrome","137.0.0.0","Windows","10.0","https://app.prolific.com/","en-US,en;q=0.9,sv-SE;q=0.8,sv;q=0.7,sl-SI;q=0.6,sl;q=0.5,de;q=0.4,ko;q=0.3","647df23a62de26114fdcb29c","683db6dfa200031b80f2a654","68650784c3087d7c97846950","647df23a62de26114fdcb29c","2025-07-02T10:29:47.473Z","","","","","","","","","","","","","","","","","","","","","","","","","","","","","","","","","","","","","","","","","","","",""
"68562.10000014305","","","","survey-template","18","495267","0.0-7.0-7.0","164","1","2025-07-02 10:22:38","80fe4187154257d5fb01684ea91b68b9","83.233.136.197","Mozilla/5.0 (Windows NT 10.0; Win64; x64) AppleWebKit/537.36 (KHTML, like Gecko) Chrome/137.0.0.0 Safari/537.36","WebKit","Chrome","137.0.0.0","Windows","10.0","https://app.prolific.com/","en-US,en;q=0.9,sv-SE;q=0.8,sv;q=0.7,sl-SI;q=0.6,sl;q=0.5,de;q=0.4,ko;q=0.3","647df23a62de26114fdcb29c","683db6dfa200031b80f2a654","68650784c3087d7c97846950","647df23a62de26114fdcb29c","2025-07-02T10:30:56.041Z","","","","","","drsp","{""Q01"":""0"",""Q02"":""1"",""Q03"":""1"",""Q04"":""2"",""Q05"":""0"",""Q06"":""0"",""Q07"":""0"",""Q08"":""0"",""Q09"":""1"",""Q10"":""0"",""Q11"":""2"",""Q12"":""3"",""Q13"":""3"",""Q14"":""0"",""Q15"":""3"",""Q16"":""0"",""Q17"":""0"",""Q18"":""0"",""Q19"":""0"",""Q20"":""1"",""Q21"":""0""}","[0,1,2,3,4,5,6,7,8,9,10,11,12,13,14,15,16,17,18,19,20]","[""Q01"",""Q02"",""Q03"",""Q04"",""Q05"",""Q06"",""Q07"",""Q08"",""Q09"",""Q10"",""Q11"",""Q12"",""Q13"",""Q14"",""Q15"",""Q16"",""Q17"",""Q18"",""Q19"",""Q20"",""Q21""]","[2867.9000000953674,4413.5,6460.600000143051,10141.700000047684,12863.5,15332.700000047684,16513.700000047684,17967.60000014305,20318.200000047684,22176.5,24111.700000047684,28058.60000014305,29799.800000190735,33009.60000014305,35966.700000047684,38844.40000009537,40212.200000047684,42826.60000014305,48425,55788.700000047684,62901.300000190735]","[]","[0.10000014305114746,2867.9000000953674,4413.5,6460.600000143051,10141.700000047684,12863.5,15332.700000047684,16513.700000047684,17967.60000014305,20318.200000047684,22176.5,24111.700000047684,28058.60000014305,29799.800000190735,33009.60000014305,35966.700000047684,38844.40000009537,40212.200000047684,42826.60000014305,48425,55788.700000047684,62901.300000190735,68554.70000004768]","0.5714285714285714","0.35","0","","","","","","","","","","","","","","","","","","","","","","","","","","","","",""
"20564.299999952316","","","","survey-template","19","515835","0.0-7.0-8.0","164","1","2025-07-02 10:22:38","80fe4187154257d5fb01684ea91b68b9","83.233.136.197","Mozilla/5.0 (Windows NT 10.0; Win64; x64) AppleWebKit/537.36 (KHTML, like Gecko) Chrome/137.0.0.0 Safari/537.36","WebKit","Chrome","137.0.0.0","Windows","10.0","https://app.prolific.com/","en-US,en;q=0.9,sv-SE;q=0.8,sv;q=0.7,sl-SI;q=0.6,sl;q=0.5,de;q=0.4,ko;q=0.3","647df23a62de26114fdcb29c","683db6dfa200031b80f2a654","68650784c3087d7c97846950","647df23a62de26114fdcb29c","2025-07-02T10:31:16.608Z","","","","","","stress","{""Q01"":""2"",""Q02"":""2"",""Q03"":""0""}","[0,1,2]","[""Q01"",""Q02"",""Q03""]","[8359.900000095367,11398.200000047684,14679.400000095367]","[]","[8359.900000095367,11398.200000047684,14679.400000095367,20561.700000047684]","0.3333333333333333","0.5","0","","","","","","","","","","","","","","","","","","","","","","","","","","","","",""
"76786","","","","instructions","20","592624","0.0-8.0-0.0","164","1","2025-07-02 10:22:38","80fe4187154257d5fb01684ea91b68b9","83.233.136.197","Mozilla/5.0 (Windows NT 10.0; Win64; x64) AppleWebKit/537.36 (KHTML, like Gecko) Chrome/137.0.0.0 Safari/537.36","WebKit","Chrome","137.0.0.0","Windows","10.0","https://app.prolific.com/","en-US,en;q=0.9,sv-SE;q=0.8,sv;q=0.7,sl-SI;q=0.6,sl;q=0.5,de;q=0.4,ko;q=0.3","647df23a62de26114fdcb29c","683db6dfa200031b80f2a654","68650784c3087d7c97846950","647df23a62de26114fdcb29c","","[{""page_index"":0,""viewing_time"":20725},{""page_index"":1,""viewing_time"":35958},{""page_index"":2,""viewing_time"":6796},{""page_index"":3,""viewing_time"":13307}]","","","","","","","","","","","","","","","","","","","","","","","","","","","","","","","","","","","","","","","","","","",""
"","","","","ctl-task-cpt","21","609956","0.0-8.0-1.0","164","1","2025-07-02 10:22:38","80fe4187154257d5fb01684ea91b68b9","83.233.136.197","Mozilla/5.0 (Windows NT 10.0; Win64; x64) AppleWebKit/537.36 (KHTML, like Gecko) Chrome/137.0.0.0 Safari/537.36","WebKit","Chrome","137.0.0.0","Windows","10.0","https://app.prolific.com/","en-US,en;q=0.9,sv-SE;q=0.8,sv;q=0.7,sl-SI;q=0.6,sl;q=0.5,de;q=0.4,ko;q=0.3","647df23a62de26114fdcb29c","683db6dfa200031b80f2a654","68650784c3087d7c97846950","647df23a62de26114fdcb29c","","","","","","","","","","","","","","","","","win-only","2","g1:SE,g2:NW","1","0","1","594924.4","2163.1","6166.9","14321","2","4","4","6","2","-4","-4","0","0","0","1148","4000","-3000","[""left"",""up""]","{""num_key_presses"":1,""num_perfect"":1,""num_errors"":0,""num_randdir"":0,""num_randdir_good_moves"":0,""num_whilered"":0,""num_whileblue"":0,""num_blue"":0,""num_good_moves"":1}","[351.14285714285717,343.04910714285717,1.2,351.14285714285717,343.04910714285717,103.4,351.14285714285717,343.04910714285717,203.4,351.14285714285717,343.04910714285717,303.5,351.14285714285717,343.04910714285717,410.6,345.14285714285717,346.04910714285717,514,323.14285714285717,343.04910714285717,617.7,9.142857142857146,105.04910714285714,721.3,53.142857142857146,82.04910714285714,835.4,98.14285714285714,109.04910714285714,940.8,83.14285714285714,102.04910714285714,1047.4,68.14285714285714,82.04910714285714,1152.5,67.14285714285714,82.04910714285714,1252.8,67.14285714285714,84.04910714285714,1353,67.14285714285714,84.04910714285714,1459,67.14285714285714,84.04910714285714,1563.2,67.14285714285714,84.04910714285714,1664,68.14285714285714,85.04910714285714,1764.2,68.14285714285714,85.04910714285714,1868.2,68.14285714285714,85.04910714285714,1968.6,68.14285714285714,85.04910714285714,2075,68.14285714285714,85.04910714285714,2178.6,68.14285714285714,85.04910714285714,2282.9,68.14285714285714,85.04910714285714,2383.3,68.14285714285714,85.04910714285714,2483.3,68.14285714285714,85.04910714285714,2583.5,68.14285714285714,85.04910714285714,2688.2,68.14285714285714,85.04910714285714,2789.1,68.14285714285714,85.04910714285714,2892.7,68.14285714285714,85.04910714285714,2992.9,68.14285714285714,85.04910714285714,3092.9,68.14285714285714,85.04910714285714,3194.1,68.14285714285714,85.04910714285714,3298,68.14285714285714,85.04910714285714,3402.9,68.14285714285714,86.04910714285714,3503,68.14285714285714,86.04910714285714,3607.9,68.14285714285714,86.04910714285714,3719.6,68.14285714285714,86.04910714285714,3822.5,68.14285714285714,86.04910714285714,3923.2]","[4687,4686.9,1000,0.1,3686.9,""smooth"",""left"",""left"",""good_move""]","",""
"9963","","","","instructions","22","619920","0.0-8.0-2.0","164","1","2025-07-02 10:22:38","80fe4187154257d5fb01684ea91b68b9","83.233.136.197","Mozilla/5.0 (Windows NT 10.0; Win64; x64) AppleWebKit/537.36 (KHTML, like Gecko) Chrome/137.0.0.0 Safari/537.36","WebKit","Chrome","137.0.0.0","Windows","10.0","https://app.prolific.com/","en-US,en;q=0.9,sv-SE;q=0.8,sv;q=0.7,sl-SI;q=0.6,sl;q=0.5,de;q=0.4,ko;q=0.3","647df23a62de26114fdcb29c","683db6dfa200031b80f2a654","68650784c3087d7c97846950","647df23a62de26114fdcb29c","","[{""page_index"":0,""viewing_time"":9963}]","","","","","","","","","","","","","","","","","","","","","","","","","","","","","","","","","","","","","","","","","","",""
"","","","","ctl-task-cpt","23","655016","0.0-8.0-3.0","164","1","2025-07-02 10:22:38","80fe4187154257d5fb01684ea91b68b9","83.233.136.197","Mozilla/5.0 (Windows NT 10.0; Win64; x64) AppleWebKit/537.36 (KHTML, like Gecko) Chrome/137.0.0.0 Safari/537.36","WebKit","Chrome","137.0.0.0","Windows","10.0","https://app.prolific.com/","en-US,en;q=0.9,sv-SE;q=0.8,sv;q=0.7,sl-SI;q=0.6,sl;q=0.5,de;q=0.4,ko;q=0.3","647df23a62de26114fdcb29c","683db6dfa200031b80f2a654","68650784c3087d7c97846950","647df23a62de26114fdcb29c","","","","","","","","","","","","","","","","","win-only","2","g1:SE,g2:NW","0.35","0","3","622219.2","1195","5203.7","32087.1","2","4","8","6","1","2","2","2","0","0.015151515151515152","2206.9","4000","1455","[""down"",""right""]","{""num_key_presses"":8,""num_perfect"":4,""num_errors"":0,""num_randdir"":4,""num_randdir_good_moves"":2,""num_whilered"":0,""num_whileblue"":0,""num_blue"":2,""num_good_moves"":6}","[343.14285714285717,347.04910714285717,0.8,343.14285714285717,347.04910714285717,101.8,343.14285714285717,347.04910714285717,210.1,343.14285714285717,347.04910714285717,317.2,343.14285714285717,347.04910714285717,418.3,343.14285714285717,347.04910714285717,522,343.14285714285717,347.04910714285717,628,343.14285714285717,347.04910714285717,731.2,364.14285714285717,372.04910714285717,837.7,519.1428571428571,530.0491071428571,959.2,543.1428571428571,551.0491071428571,1060.2,552.1428571428571,555.0491071428571,1163.9,597.1428571428571,611.0491071428571,1266.1,624.1428571428571,621.0491071428571,1367.1,627.1428571428571,621.0491071428571,1467.6,627.1428571428571,621.0491071428571,1573.7,627.1428571428571,621.0491071428571,1674.1,627.1428571428571,621.0491071428571,1777,627.1428571428571,621.0491071428571,1877.1,627.1428571428571,621.0491071428571,1977.8,627.1428571428571,621.0491071428571,2081.2,627.1428571428571,621.0491071428571,2181.4,627.1428571428571,621.0491071428571,2283.2,627.1428571428571,621.0491071428571,2389.8,627.1428571428571,621.0491071428571,2489.9,627.1428571428571,621.0491071428571,2591.8,627.1428571428571,621.0491071428571,2696.7,627.1428571428571,621.0491071428571,2801.2,627.1428571428571,621.0491071428571,2906.5,627.1428571428571,621.0491071428571,3006.8,627.1428571428571,621.0491071428571,3107.7,627.1428571428571,621.0491071428571,3210.9,627.1428571428571,621.0491071428571,3311.2,627.1428571428571,621.0491071428571,3420.6,627.1428571428571,621.0491071428571,3520.8,627.1428571428571,621.0491071428571,3621.6,627.1428571428571,621.0491071428571,3726.3,627.1428571428571,621.0491071428571,3826.9,627.1428571428571,621.0491071428571,3930.9]","[4383.7,4383.7,1963.4,2013.9,406.4,""smooth"",""right"",""right"",""good_move"",6485,2100,1698.7,4385.1,401.3,""smooth"",""down"",""down"",""good_move"",9385.6,2897.7,2473.6,6487.9,424.1,""smooth"",""right"",""right"",""good_move"",12002.6,2613.4,2238.8,9389.3,374.6,""oops"",""down"",""up"",""bad_move"",15168.9,3164.1,2822.4,12004.8,341.7,""smooth"",""down"",""down"",""good_move"",17940.8,2770.8,2423.6,15170.1,347.1,""oops"",""down"",""up"",""bad_move"",23827.5,5885.3,2382.5,21041.8,403.2,""oops"",""down"",""down"",""good_move"",26773.6,2945.3,2619.4,23828.3,325.9,""oops"",""down"",""down"",""good_move""]","",""
"33020","","","","instructions","24","688036","0.0-8.0-4.0","164","1","2025-07-02 10:22:38","80fe4187154257d5fb01684ea91b68b9","83.233.136.197","Mozilla/5.0 (Windows NT 10.0; Win64; x64) AppleWebKit/537.36 (KHTML, like Gecko) Chrome/137.0.0.0 Safari/537.36","WebKit","Chrome","137.0.0.0","Windows","10.0","https://app.prolific.com/","en-US,en;q=0.9,sv-SE;q=0.8,sv;q=0.7,sl-SI;q=0.6,sl;q=0.5,de;q=0.4,ko;q=0.3","647df23a62de26114fdcb29c","683db6dfa200031b80f2a654","68650784c3087d7c97846950","647df23a62de26114fdcb29c","","[{""page_index"":0,""viewing_time"":7128},{""page_index"":1,""viewing_time"":25891}]","","","","","","","","","","","","","","","","","","","","","","","","","","","","","","","","","","","","","","","","","","",""
"9818","","","{""green_ball"":[""Ball always moves in the direction I press""]}","survey-multi-select","25","697859","0.0-8.0-5.0-0.0","164","1","2025-07-02 10:22:38","80fe4187154257d5fb01684ea91b68b9","83.233.136.197","Mozilla/5.0 (Windows NT 10.0; Win64; x64) AppleWebKit/537.36 (KHTML, like Gecko) Chrome/137.0.0.0 Safari/537.36","WebKit","Chrome","137.0.0.0","Windows","10.0","https://app.prolific.com/","en-US,en;q=0.9,sv-SE;q=0.8,sv;q=0.7,sl-SI;q=0.6,sl;q=0.5,de;q=0.4,ko;q=0.3","647df23a62de26114fdcb29c","683db6dfa200031b80f2a654","68650784c3087d7c97846950","647df23a62de26114fdcb29c","","","[0]","","","","quiz","","","","","","","","","","","","","","","","","","","","","","","","","","","","","","","","","","","","","false",""
"4934","","<p align='center'><b>INCORRECT.</b> Usually the green ball moves in the indicated direction, but sometimes it shakes and moves randomly. </p>","0","html-button-response","26","702798","0.0-8.0-5.0-1.0","164","1","2025-07-02 10:22:38","80fe4187154257d5fb01684ea91b68b9","83.233.136.197","Mozilla/5.0 (Windows NT 10.0; Win64; x64) AppleWebKit/537.36 (KHTML, like Gecko) Chrome/137.0.0.0 Safari/537.36","WebKit","Chrome","137.0.0.0","Windows","10.0","https://app.prolific.com/","en-US,en;q=0.9,sv-SE;q=0.8,sv;q=0.7,sl-SI;q=0.6,sl;q=0.5,de;q=0.4,ko;q=0.3","647df23a62de26114fdcb29c","683db6dfa200031b80f2a654","68650784c3087d7c97846950","647df23a62de26114fdcb29c","","","","","","","","","","","","","","","","","","","","","","","","","","","","","","","","","","","","","","","","","","","","",""
"7401","","","{""green_ball"":[""Ball always moves in the direction I press"",""Ball sometimes shakes and moves in a random direction""]}","survey-multi-select","27","710206","0.0-8.0-5.1-0.1","164","1","2025-07-02 10:22:38","80fe4187154257d5fb01684ea91b68b9","83.233.136.197","Mozilla/5.0 (Windows NT 10.0; Win64; x64) AppleWebKit/537.36 (KHTML, like Gecko) Chrome/137.0.0.0 Safari/537.36","WebKit","Chrome","137.0.0.0","Windows","10.0","https://app.prolific.com/","en-US,en;q=0.9,sv-SE;q=0.8,sv;q=0.7,sl-SI;q=0.6,sl;q=0.5,de;q=0.4,ko;q=0.3","647df23a62de26114fdcb29c","683db6dfa200031b80f2a654","68650784c3087d7c97846950","647df23a62de26114fdcb29c","","","[0]","","","","quiz","","","","","","","","","","","","","","","","","","","","","","","","","","","","","","","","","","","","","false",""
"2250","","<p align='center'><b>INCORRECT.</b> Usually the green ball moves in the indicated direction, but sometimes it shakes and moves randomly. </p>","0","html-button-response","28","712458","0.0-8.0-5.1-1.1","164","1","2025-07-02 10:22:38","80fe4187154257d5fb01684ea91b68b9","83.233.136.197","Mozilla/5.0 (Windows NT 10.0; Win64; x64) AppleWebKit/537.36 (KHTML, like Gecko) Chrome/137.0.0.0 Safari/537.36","WebKit","Chrome","137.0.0.0","Windows","10.0","https://app.prolific.com/","en-US,en;q=0.9,sv-SE;q=0.8,sv;q=0.7,sl-SI;q=0.6,sl;q=0.5,de;q=0.4,ko;q=0.3","647df23a62de26114fdcb29c","683db6dfa200031b80f2a654","68650784c3087d7c97846950","647df23a62de26114fdcb29c","","","","","","","","","","","","","","","","","","","","","","","","","","","","","","","","","","","","","","","","","","","","",""
"6776","","","{""green_ball"":[""Ball sometimes shakes and moves in a random direction""]}","survey-multi-select","29","719237","0.0-8.0-5.2-0.2","164","1","2025-07-02 10:22:38","80fe4187154257d5fb01684ea91b68b9","83.233.136.197","Mozilla/5.0 (Windows NT 10.0; Win64; x64) AppleWebKit/537.36 (KHTML, like Gecko) Chrome/137.0.0.0 Safari/537.36","WebKit","Chrome","137.0.0.0","Windows","10.0","https://app.prolific.com/","en-US,en;q=0.9,sv-SE;q=0.8,sv;q=0.7,sl-SI;q=0.6,sl;q=0.5,de;q=0.4,ko;q=0.3","647df23a62de26114fdcb29c","683db6dfa200031b80f2a654","68650784c3087d7c97846950","647df23a62de26114fdcb29c","","","[0]","","","","quiz","","","","","","","","","","","","","","","","","","","","","","","","","","","","","","","","","","","","","true",""
"2257","","<p align='center'><b>CORRECT!</b> Indeed, the green ball may sometimes shake and move in a random direction.</p>","0","html-button-response","30","721496","0.0-8.0-5.2-1.2","164","1","2025-07-02 10:22:38","80fe4187154257d5fb01684ea91b68b9","83.233.136.197","Mozilla/5.0 (Windows NT 10.0; Win64; x64) AppleWebKit/537.36 (KHTML, like Gecko) Chrome/137.0.0.0 Safari/537.36","WebKit","Chrome","137.0.0.0","Windows","10.0","https://app.prolific.com/","en-US,en;q=0.9,sv-SE;q=0.8,sv;q=0.7,sl-SI;q=0.6,sl;q=0.5,de;q=0.4,ko;q=0.3","647df23a62de26114fdcb29c","683db6dfa200031b80f2a654","68650784c3087d7c97846950","647df23a62de26114fdcb29c","","","","","","","","","","","","","","","","","","","","","","","","","","","","","","","","","","","","","","","","","","","","",""
"6543","","","{""yellow_ball"":[""Ball doesn‘t move and I get -1 penalty point""]}","survey-multi-select","31","728043","0.0-8.0-6.0-0.0","164","1","2025-07-02 10:22:38","80fe4187154257d5fb01684ea91b68b9","83.233.136.197","Mozilla/5.0 (Windows NT 10.0; Win64; x64) AppleWebKit/537.36 (KHTML, like Gecko) Chrome/137.0.0.0 Safari/537.36","WebKit","Chrome","137.0.0.0","Windows","10.0","https://app.prolific.com/","en-US,en;q=0.9,sv-SE;q=0.8,sv;q=0.7,sl-SI;q=0.6,sl;q=0.5,de;q=0.4,ko;q=0.3","647df23a62de26114fdcb29c","683db6dfa200031b80f2a654","68650784c3087d7c97846950","647df23a62de26114fdcb29c","","","[0]","","","","quiz","","","","","","","","","","","","","","","","","","","","","","","","","","","","","","","","","","","","","true",""
"1677","","<p align='center'><b>CORRECT!</b> Indeed, the yellow ball never moves and you receive a penalty.</p>","0","html-button-response","32","729723","0.0-8.0-6.0-1.0","164","1","2025-07-02 10:22:38","80fe4187154257d5fb01684ea91b68b9","83.233.136.197","Mozilla/5.0 (Windows NT 10.0; Win64; x64) AppleWebKit/537.36 (KHTML, like Gecko) Chrome/137.0.0.0 Safari/537.36","WebKit","Chrome","137.0.0.0","Windows","10.0","https://app.prolific.com/","en-US,en;q=0.9,sv-SE;q=0.8,sv;q=0.7,sl-SI;q=0.6,sl;q=0.5,de;q=0.4,ko;q=0.3","647df23a62de26114fdcb29c","683db6dfa200031b80f2a654","68650784c3087d7c97846950","647df23a62de26114fdcb29c","","","","","","","","","","","","","","","","","","","","","","","","","","","","","","","","","","","","","","","","","","","","",""
"14654","","","{""blue_ball"":[""Ball always shakes and moves in a random direction""]}","survey-multi-select","33","744383","0.0-8.0-7.0-0.0","164","1","2025-07-02 10:22:38","80fe4187154257d5fb01684ea91b68b9","83.233.136.197","Mozilla/5.0 (Windows NT 10.0; Win64; x64) AppleWebKit/537.36 (KHTML, like Gecko) Chrome/137.0.0.0 Safari/537.36","WebKit","Chrome","137.0.0.0","Windows","10.0","https://app.prolific.com/","en-US,en;q=0.9,sv-SE;q=0.8,sv;q=0.7,sl-SI;q=0.6,sl;q=0.5,de;q=0.4,ko;q=0.3","647df23a62de26114fdcb29c","683db6dfa200031b80f2a654","68650784c3087d7c97846950","647df23a62de26114fdcb29c","","","[0]","","","","quiz","","","","","","","","","","","","","","","","","","","","","","","","","","","","","","","","","","","","","true",""
"2798","","<p align='center'><b>CORRECT!</b> Indeed, the blue ball always shakes and moves in a random direction. Also there is a penalty of -1 point.</p>","0","html-button-response","34","747183","0.0-8.0-7.0-1.0","164","1","2025-07-02 10:22:38","80fe4187154257d5fb01684ea91b68b9","83.233.136.197","Mozilla/5.0 (Windows NT 10.0; Win64; x64) AppleWebKit/537.36 (KHTML, like Gecko) Chrome/137.0.0.0 Safari/537.36","WebKit","Chrome","137.0.0.0","Windows","10.0","https://app.prolific.com/","en-US,en;q=0.9,sv-SE;q=0.8,sv;q=0.7,sl-SI;q=0.6,sl;q=0.5,de;q=0.4,ko;q=0.3","647df23a62de26114fdcb29c","683db6dfa200031b80f2a654","68650784c3087d7c97846950","647df23a62de26114fdcb29c","","","","","","","","","","","","","","","","","","","","","","","","","","","","","","","","","","","","","","","","","","","","",""
"8034","","","{""bonus"":[""When I reach 50% of points""]}","survey-multi-select","35","755219","0.0-8.0-8.0-0.0","164","1","2025-07-02 10:22:38","80fe4187154257d5fb01684ea91b68b9","83.233.136.197","Mozilla/5.0 (Windows NT 10.0; Win64; x64) AppleWebKit/537.36 (KHTML, like Gecko) Chrome/137.0.0.0 Safari/537.36","WebKit","Chrome","137.0.0.0","Windows","10.0","https://app.prolific.com/","en-US,en;q=0.9,sv-SE;q=0.8,sv;q=0.7,sl-SI;q=0.6,sl;q=0.5,de;q=0.4,ko;q=0.3","647df23a62de26114fdcb29c","683db6dfa200031b80f2a654","68650784c3087d7c97846950","647df23a62de26114fdcb29c","","","[0]","","","","quiz","","","","","","","","","","","","","","","","","","","","","","","","","","","","","","","","","","","","","true",""
"2322","","<p align='center'><b>CORRECT!</b> Indeed, you receive 2 pounds extra when you reach 50% of points.</p>","0","html-button-response","36","757544","0.0-8.0-8.0-1.0","164","1","2025-07-02 10:22:38","80fe4187154257d5fb01684ea91b68b9","83.233.136.197","Mozilla/5.0 (Windows NT 10.0; Win64; x64) AppleWebKit/537.36 (KHTML, like Gecko) Chrome/137.0.0.0 Safari/537.36","WebKit","Chrome","137.0.0.0","Windows","10.0","https://app.prolific.com/","en-US,en;q=0.9,sv-SE;q=0.8,sv;q=0.7,sl-SI;q=0.6,sl;q=0.5,de;q=0.4,ko;q=0.3","647df23a62de26114fdcb29c","683db6dfa200031b80f2a654","68650784c3087d7c97846950","647df23a62de26114fdcb29c","","","","","","","","","","","","","","","","","","","","","","","","","","","","","","","","","","","","","","","","","","","","",""
"3201","","","","instructions","37","760746","0.0-8.0-9.0","164","1","2025-07-02 10:22:38","80fe4187154257d5fb01684ea91b68b9","83.233.136.197","Mozilla/5.0 (Windows NT 10.0; Win64; x64) AppleWebKit/537.36 (KHTML, like Gecko) Chrome/137.0.0.0 Safari/537.36","WebKit","Chrome","137.0.0.0","Windows","10.0","https://app.prolific.com/","en-US,en;q=0.9,sv-SE;q=0.8,sv;q=0.7,sl-SI;q=0.6,sl;q=0.5,de;q=0.4,ko;q=0.3","647df23a62de26114fdcb29c","683db6dfa200031b80f2a654","68650784c3087d7c97846950","647df23a62de26114fdcb29c","","[{""page_index"":0,""viewing_time"":3200}]","","","","","","","","","","","","","","","","","","","","","","","","","","","","","","","","","","","","","","","","","","",""
"18783","","<p>Before you start with this game please answer the following three questions yourself. </p>
  <p>Through this game, we measure several aspects of your cognitive performance, such as reaction times, multi-tasking capabilities </p>
  <p>and the ability to assess the situation you are in.</p>
  <p></p>
  <p><b>How good do you usually are in such tasks?</b></p>","79","html-slider-response","38","779532","0.0-9.0-0.0","164","1","2025-07-02 10:22:38","80fe4187154257d5fb01684ea91b68b9","83.233.136.197","Mozilla/5.0 (Windows NT 10.0; Win64; x64) AppleWebKit/537.36 (KHTML, like Gecko) Chrome/137.0.0.0 Safari/537.36","WebKit","Chrome","137.0.0.0","Windows","10.0","https://app.prolific.com/","en-US,en;q=0.9,sv-SE;q=0.8,sv;q=0.7,sl-SI;q=0.6,sl;q=0.5,de;q=0.4,ko;q=0.3","647df23a62de26114fdcb29c","683db6dfa200031b80f2a654","68650784c3087d7c97846950","647df23a62de26114fdcb29c","2025-07-02T10:35:40.305Z","","","","","","PreSkillQ","","","","","","","","","","","","","","","","","","","","","","","","","","","","","","","","","","","","","","50"
"4468","","<div style=""width:500px;"">
  <p>How well do you think you will perform in this task compared to other participants?</p>
  </div>","63","html-slider-response","39","784002","0.0-9.0-1.0","164","1","2025-07-02 10:22:38","80fe4187154257d5fb01684ea91b68b9","83.233.136.197","Mozilla/5.0 (Windows NT 10.0; Win64; x64) AppleWebKit/537.36 (KHTML, like Gecko) Chrome/137.0.0.0 Safari/537.36","WebKit","Chrome","137.0.0.0","Windows","10.0","https://app.prolific.com/","en-US,en;q=0.9,sv-SE;q=0.8,sv;q=0.7,sl-SI;q=0.6,sl;q=0.5,de;q=0.4,ko;q=0.3","647df23a62de26114fdcb29c","683db6dfa200031b80f2a654","68650784c3087d7c97846950","647df23a62de26114fdcb29c","2025-07-02T10:35:44.775Z","","","","","","PrePerfQ","","","","","","","","","","","","","","","","","","","","","","","","","","","","","","","","","","","","","","50"
"4169","","<div style=""width:500px;"">
  <p>What best describes how you currently feel?</p>
  </div>","96","html-slider-response","40","788173","0.0-9.0-2.0","164","1","2025-07-02 10:22:38","80fe4187154257d5fb01684ea91b68b9","83.233.136.197","Mozilla/5.0 (Windows NT 10.0; Win64; x64) AppleWebKit/537.36 (KHTML, like Gecko) Chrome/137.0.0.0 Safari/537.36","WebKit","Chrome","137.0.0.0","Windows","10.0","https://app.prolific.com/","en-US,en;q=0.9,sv-SE;q=0.8,sv;q=0.7,sl-SI;q=0.6,sl;q=0.5,de;q=0.4,ko;q=0.3","647df23a62de26114fdcb29c","683db6dfa200031b80f2a654","68650784c3087d7c97846950","647df23a62de26114fdcb29c","2025-07-02T10:35:48.946Z","","","","","","PreMotivationQ","","","","","","","","","","","","","","","","","","","","","","","","","","","","","","","","","","","","","","50"
"","","","","ctl-task-cpt","41","817695","0.0-10.0-0.0","164","1","2025-07-02 10:22:38","80fe4187154257d5fb01684ea91b68b9","83.233.136.197","Mozilla/5.0 (Windows NT 10.0; Win64; x64) AppleWebKit/537.36 (KHTML, like Gecko) Chrome/137.0.0.0 Safari/537.36","WebKit","Chrome","137.0.0.0","Windows","10.0","https://app.prolific.com/","en-US,en;q=0.9,sv-SE;q=0.8,sv;q=0.7,sl-SI;q=0.6,sl;q=0.5,de;q=0.4,ko;q=0.3","647df23a62de26114fdcb29c","683db6dfa200031b80f2a654","68650784c3087d7c97846950","647df23a62de26114fdcb29c","2025-07-02T10:36:18.468Z","","","","","","","","","","","","","","","","win-only","2","g1:SE,g2:NW","1","1","0","790474.6","1801.3","6803.3","26505.1","1","4","8","6","2","8","8","8","0","0.06060606060606061","2403.3","3000","1535","[""left"",""up""]","{""num_key_presses"":6,""num_perfect"":6,""num_errors"":0,""num_randdir"":0,""num_randdir_good_moves"":0,""num_whilered"":0,""num_whileblue"":0,""num_blue"":1,""num_good_moves"":6}","[353.14285714285717,344.04910714285717,0.7,353.14285714285717,344.04910714285717,114.6,353.14285714285717,344.04910714285717,215.5,353.14285714285717,344.04910714285717,316.3,353.14285714285717,344.04910714285717,419.9,353.14285714285717,344.04910714285717,521.1,353.14285714285717,344.04910714285717,624.8,351.14285714285717,344.04910714285717,727.2,351.14285714285717,344.04910714285717,834.2,351.14285714285717,344.04910714285717,945.2,351.14285714285717,344.04910714285717,1052.7,387.14285714285717,381.04910714285717,1154.9,456.14285714285717,424.04910714285717,1262.5,567.1428571428571,590.0491071428571,1377.1,593.1428571428571,636.0491071428571,1494.7,618.1428571428571,627.0491071428571,1608.3,629.1428571428571,615.0491071428571,1711.5,176.14285714285714,308.04910714285717,1821.9,100.14285714285714,161.04910714285714,1926.5,80.14285714285714,121.04910714285714,2045.3,73.14285714285714,104.04910714285714,2145.6,73.14285714285714,80.04910714285714,2252.5,74.14285714285714,73.04910714285714,2367.2,74.14285714285714,73.04910714285714,2469.8,74.14285714285714,73.04910714285714,2576,74.14285714285714,73.04910714285714,2687.1,74.14285714285714,73.04910714285714,2793.3,74.14285714285714,73.04910714285714,2897.3,74.14285714285714,73.04910714285714,3002.3,74.14285714285714,73.04910714285714,3115,74.14285714285714,73.04910714285714,3217.7,74.14285714285714,73.04910714285714,3330.2,74.14285714285714,73.04910714285714,3439,74.14285714285714,73.04910714285714,3541.8,74.14285714285714,73.04910714285714,3645.5,74.14285714285714,73.04910714285714,3753.6,74.14285714285714,73.04910714285714,3858.2,74.14285714285714,73.04910714285714,3966.2,74.14285714285714,73.04910714285714,4068.7,74.14285714285714,73.04910714285714,4179.9,74.14285714285714,73.04910714285714,4280,74.14285714285714,73.04910714285714,4389.4,74.14285714285714,73.04910714285714,4491.1,74.14285714285714,73.04910714285714,4592.3,74.14285714285714,73.04910714285714,4694.5,74.14285714285714,73.04910714285714,4795.4,74.14285714285714,73.04910714285714,4912]","[1412.1,1412.1,1000,0,412.1,""smooth"",""up"",""up"",""good_move"",4260.1,2846.4,2402.4,1413.9,443.9,""smooth"",""left"",""left"",""good_move"",7761.9,3500.2,3198.5,4261.7,301.7,""smooth"",""up"",""up"",""good_move"",10973.7,3209.5,2863.8,7764.2,345.7,""smooth"",""left"",""left"",""good_move"",16360.3,5382.4,1725.6,14311.8,322.9,""smooth"",""left"",""left"",""good_move"",19584.5,3223.2,2848.4,16361.3,374.8,""smooth"",""up"",""up"",""good_move""]","",""
"6032","","<div style=""width:500px;"">
  <p>What determined the result of this run?</p>
  </div>","96","html-slider-response","42","823730","0.0-10.0-1.0","164","1","2025-07-02 10:22:38","80fe4187154257d5fb01684ea91b68b9","83.233.136.197","Mozilla/5.0 (Windows NT 10.0; Win64; x64) AppleWebKit/537.36 (KHTML, like Gecko) Chrome/137.0.0.0 Safari/537.36","WebKit","Chrome","137.0.0.0","Windows","10.0","https://app.prolific.com/","en-US,en;q=0.9,sv-SE;q=0.8,sv;q=0.7,sl-SI;q=0.6,sl;q=0.5,de;q=0.4,ko;q=0.3","647df23a62de26114fdcb29c","683db6dfa200031b80f2a654","68650784c3087d7c97846950","647df23a62de26114fdcb29c","2025-07-02T10:36:24.503Z","","","","","","AttribQ","","","","","","","","","","","","","","","","","","","","","","","","","","","","","","","","","","","","","","50"
"3114","","<div style=""width:500px;"">
  <p>How much control did you have over the ball?</p>
  </div>","100","html-slider-response","43","826847","0.0-10.0-2.0","164","1","2025-07-02 10:22:38","80fe4187154257d5fb01684ea91b68b9","83.233.136.197","Mozilla/5.0 (Windows NT 10.0; Win64; x64) AppleWebKit/537.36 (KHTML, like Gecko) Chrome/137.0.0.0 Safari/537.36","WebKit","Chrome","137.0.0.0","Windows","10.0","https://app.prolific.com/","en-US,en;q=0.9,sv-SE;q=0.8,sv;q=0.7,sl-SI;q=0.6,sl;q=0.5,de;q=0.4,ko;q=0.3","647df23a62de26114fdcb29c","683db6dfa200031b80f2a654","68650784c3087d7c97846950","647df23a62de26114fdcb29c","2025-07-02T10:36:27.620Z","","","","","","ControlQ","","","","","","","","","","","","","","","","","","","","","","","","","","","","","","","","","","","","","","50"
"6796","","<div style=""width:500px;"">
  <p>How would you describe your current emotional state?</p>
  </div>","37","html-slider-response","44","833645","0.0-10.0-3.0","164","1","2025-07-02 10:22:38","80fe4187154257d5fb01684ea91b68b9","83.233.136.197","Mozilla/5.0 (Windows NT 10.0; Win64; x64) AppleWebKit/537.36 (KHTML, like Gecko) Chrome/137.0.0.0 Safari/537.36","WebKit","Chrome","137.0.0.0","Windows","10.0","https://app.prolific.com/","en-US,en;q=0.9,sv-SE;q=0.8,sv;q=0.7,sl-SI;q=0.6,sl;q=0.5,de;q=0.4,ko;q=0.3","647df23a62de26114fdcb29c","683db6dfa200031b80f2a654","68650784c3087d7c97846950","647df23a62de26114fdcb29c","2025-07-02T10:36:34.418Z","","","","","","StressQ","","","","","","","","","","","","","","","","","","","","","","","","","","","","","","","","","","","","","","50"
"3797","","<div style=""width:500px;"">
  <p>What best describes how you currently feel?</p>
  </div>","100","html-slider-response","45","837443","0.0-10.0-4.0","164","1","2025-07-02 10:22:38","80fe4187154257d5fb01684ea91b68b9","83.233.136.197","Mozilla/5.0 (Windows NT 10.0; Win64; x64) AppleWebKit/537.36 (KHTML, like Gecko) Chrome/137.0.0.0 Safari/537.36","WebKit","Chrome","137.0.0.0","Windows","10.0","https://app.prolific.com/","en-US,en;q=0.9,sv-SE;q=0.8,sv;q=0.7,sl-SI;q=0.6,sl;q=0.5,de;q=0.4,ko;q=0.3","647df23a62de26114fdcb29c","683db6dfa200031b80f2a654","68650784c3087d7c97846950","647df23a62de26114fdcb29c","2025-07-02T10:36:38.217Z","","","","","","MotivationQ","","","","","","","","","","","","","","","","","","","","","","","","","","","","","","","","","","","","","","50"
"","","","","ctl-task-cpt","46","868108","0.0-10.0-0.1","164","1","2025-07-02 10:22:38","80fe4187154257d5fb01684ea91b68b9","83.233.136.197","Mozilla/5.0 (Windows NT 10.0; Win64; x64) AppleWebKit/537.36 (KHTML, like Gecko) Chrome/137.0.0.0 Safari/537.36","WebKit","Chrome","137.0.0.0","Windows","10.0","https://app.prolific.com/","en-US,en;q=0.9,sv-SE;q=0.8,sv;q=0.7,sl-SI;q=0.6,sl;q=0.5,de;q=0.4,ko;q=0.3","647df23a62de26114fdcb29c","683db6dfa200031b80f2a654","68650784c3087d7c97846950","647df23a62de26114fdcb29c","2025-07-02T10:37:08.881Z","","","","","","","","","","","","","","","","win-only","2","g1:SE,g2:NW","0.9","2","0","839747.7","1305.9","6312.8","27646.1","1","4","4","6","2","4","4","12","8","0.09090909090909091","2374.2","3000","1320","[""left"",""up""]","{""num_key_presses"":6,""num_perfect"":6,""num_errors"":0,""num_randdir"":0,""num_randdir_good_moves"":0,""num_whilered"":0,""num_whileblue"":0,""num_blue"":2,""num_good_moves"":6}","[351.14285714285717,349.04910714285717,1.1,351.14285714285717,349.04910714285717,105.1,351.14285714285717,349.04910714285717,213.8,351.14285714285717,349.04910714285717,315.5,351.14285714285717,349.04910714285717,416.8,351.14285714285717,349.04910714285717,527.8,351.14285714285717,349.04910714285717,629.6,351.14285714285717,349.04910714285717,729.8,351.14285714285717,349.04910714285717,831,351.14285714285717,349.04910714285717,935.7,351.14285714285717,349.04910714285717,1043.9,351.14285714285717,349.04910714285717,1149.1,351.14285714285717,349.04910714285717,1260.3,317.14285714285717,324.04910714285717,1362.8,176.14285714285714,188.04910714285714,1469.8,136.14285714285714,99.04910714285714,1575.7,112.14285714285714,94.04910714285714,1683.2,67.14285714285714,88.04910714285714,1784.1,65.14285714285714,85.04910714285714,1884.5,65.14285714285714,85.04910714285714,1990.1,65.14285714285714,85.04910714285714,2092.5,65.14285714285714,85.04910714285714,2199.9,65.14285714285714,85.04910714285714,2302.4,65.14285714285714,85.04910714285714,2403.4,65.14285714285714,85.04910714285714,2505.4,65.14285714285714,85.04910714285714,2605.8,65.14285714285714,85.04910714285714,2709,65.14285714285714,85.04910714285714,2811.2,65.14285714285714,85.04910714285714,2911.9,65.14285714285714,85.04910714285714,3016.5,65.14285714285714,85.04910714285714,3119.5,65.14285714285714,85.04910714285714,3226.4,65.14285714285714,85.04910714285714,3339.5,65.14285714285714,85.04910714285714,3440.9,65.14285714285714,85.04910714285714,3548.3,65.14285714285714,85.04910714285714,3653.6,65.14285714285714,85.04910714285714,3758.4,65.14285714285714,85.04910714285714,3864.4,65.14285714285714,85.04910714285714,3971.3,65.14285714285714,85.04910714285714,4072.4,65.14285714285714,85.04910714285714,4177.9,65.14285714285714,85.04910714285714,4289.7,65.14285714285714,85.04910714285714,4404.5,65.14285714285714,85.04910714285714,4505.5,65.14285714285714,85.04910714285714,4607.1,65.14285714285714,85.04910714285714,4713.5,65.14285714285714,85.04910714285714,4820,65.14285714285714,85.04910714285714,4924.2]","[4603.9,4603.9,2131.6,2005.4,466.9,""smooth"",""left"",""left"",""good_move"",7264,2658,2273.5,4606,384.5,""smooth"",""up"",""up"",""good_move"",12881.6,5616,2105.4,10382.7,393.5,""smooth"",""left"",""left"",""good_move"",15716.7,2834.1,2426.4,12882.7,407.7,""smooth"",""up"",""up"",""good_move"",18243,2521.6,2101.6,15721.4,420,""smooth"",""left"",""left"",""good_move"",21203.2,2953.3,2576.9,18249.9,376.4,""smooth"",""up"",""up"",""good_move""]","",""
"3171","","<div style=""width:500px;"">
  <p>What determined the result of this run?</p>
  </div>","95","html-slider-response","47","871282","0.0-10.0-1.1","164","1","2025-07-02 10:22:38","80fe4187154257d5fb01684ea91b68b9","83.233.136.197","Mozilla/5.0 (Windows NT 10.0; Win64; x64) AppleWebKit/537.36 (KHTML, like Gecko) Chrome/137.0.0.0 Safari/537.36","WebKit","Chrome","137.0.0.0","Windows","10.0","https://app.prolific.com/","en-US,en;q=0.9,sv-SE;q=0.8,sv;q=0.7,sl-SI;q=0.6,sl;q=0.5,de;q=0.4,ko;q=0.3","647df23a62de26114fdcb29c","683db6dfa200031b80f2a654","68650784c3087d7c97846950","647df23a62de26114fdcb29c","2025-07-02T10:37:12.055Z","","","","","","AttribQ","","","","","","","","","","","","","","","","","","","","","","","","","","","","","","","","","","","","","","50"
"4891","","<div style=""width:500px;"">
  <p>How much control did you have over the ball?</p>
  </div>","100","html-slider-response","48","876175","0.0-10.0-2.1","164","1","2025-07-02 10:22:38","80fe4187154257d5fb01684ea91b68b9","83.233.136.197","Mozilla/5.0 (Windows NT 10.0; Win64; x64) AppleWebKit/537.36 (KHTML, like Gecko) Chrome/137.0.0.0 Safari/537.36","WebKit","Chrome","137.0.0.0","Windows","10.0","https://app.prolific.com/","en-US,en;q=0.9,sv-SE;q=0.8,sv;q=0.7,sl-SI;q=0.6,sl;q=0.5,de;q=0.4,ko;q=0.3","647df23a62de26114fdcb29c","683db6dfa200031b80f2a654","68650784c3087d7c97846950","647df23a62de26114fdcb29c","2025-07-02T10:37:16.948Z","","","","","","ControlQ","","","","","","","","","","","","","","","","","","","","","","","","","","","","","","","","","","","","","","50"
"3717","","<div style=""width:500px;"">
  <p>How would you describe your current emotional state?</p>
  </div>","30","html-slider-response","49","879894","0.0-10.0-3.1","164","1","2025-07-02 10:22:38","80fe4187154257d5fb01684ea91b68b9","83.233.136.197","Mozilla/5.0 (Windows NT 10.0; Win64; x64) AppleWebKit/537.36 (KHTML, like Gecko) Chrome/137.0.0.0 Safari/537.36","WebKit","Chrome","137.0.0.0","Windows","10.0","https://app.prolific.com/","en-US,en;q=0.9,sv-SE;q=0.8,sv;q=0.7,sl-SI;q=0.6,sl;q=0.5,de;q=0.4,ko;q=0.3","647df23a62de26114fdcb29c","683db6dfa200031b80f2a654","68650784c3087d7c97846950","647df23a62de26114fdcb29c","2025-07-02T10:37:20.667Z","","","","","","StressQ","","","","","","","","","","","","","","","","","","","","","","","","","","","","","","","","","","","","","","50"
"2734","","<div style=""width:500px;"">
  <p>What best describes how you currently feel?</p>
  </div>","100","html-slider-response","50","882631","0.0-10.0-4.1","164","1","2025-07-02 10:22:38","80fe4187154257d5fb01684ea91b68b9","83.233.136.197","Mozilla/5.0 (Windows NT 10.0; Win64; x64) AppleWebKit/537.36 (KHTML, like Gecko) Chrome/137.0.0.0 Safari/537.36","WebKit","Chrome","137.0.0.0","Windows","10.0","https://app.prolific.com/","en-US,en;q=0.9,sv-SE;q=0.8,sv;q=0.7,sl-SI;q=0.6,sl;q=0.5,de;q=0.4,ko;q=0.3","647df23a62de26114fdcb29c","683db6dfa200031b80f2a654","68650784c3087d7c97846950","647df23a62de26114fdcb29c","2025-07-02T10:37:23.404Z","","","","","","MotivationQ","","","","","","","","","","","","","","","","","","","","","","","","","","","","","","","","","","","","","","50"
"","","","","ctl-task-cpt","51","926239","0.0-10.0-0.2","164","1","2025-07-02 10:22:38","80fe4187154257d5fb01684ea91b68b9","83.233.136.197","Mozilla/5.0 (Windows NT 10.0; Win64; x64) AppleWebKit/537.36 (KHTML, like Gecko) Chrome/137.0.0.0 Safari/537.36","WebKit","Chrome","137.0.0.0","Windows","10.0","https://app.prolific.com/","en-US,en;q=0.9,sv-SE;q=0.8,sv;q=0.7,sl-SI;q=0.6,sl;q=0.5,de;q=0.4,ko;q=0.3","647df23a62de26114fdcb29c","683db6dfa200031b80f2a654","68650784c3087d7c97846950","647df23a62de26114fdcb29c","2025-07-02T10:38:07.012Z","","","","","","","","","","","","","","","","win-only","0","g1:NW,g2:SE","0.8","3","0","884937.2","2205.2","7208.6","40585.1","1","4","8","6","2","8","8","20","12","0.15151515151515152","1076.3","3000","1110","[""down"",""right""]","{""num_key_presses"":8,""num_perfect"":6,""num_errors"":0,""num_randdir"":2,""num_randdir_good_moves"":1,""num_whilered"":0,""num_whileblue"":0,""num_blue"":3,""num_good_moves"":7}","[345.14285714285717,348.04910714285717,3,345.14285714285717,348.04910714285717,108.3,345.14285714285717,348.04910714285717,211.6,345.14285714285717,348.04910714285717,320,345.14285714285717,348.04910714285717,428.4,345.14285714285717,348.04910714285717,530.1,345.14285714285717,348.04910714285717,632.8,413.14285714285717,405.04910714285717,746.2,604.1428571428571,588.0491071428571,854,617.1428571428571,603.0491071428571,954,594.1428571428571,612.0491071428571,1057.1,595.1428571428571,613.0491071428571,1161.2,595.1428571428571,614.0491071428571,1265.1,595.1428571428571,614.0491071428571,1367.6,595.1428571428571,614.0491071428571,1475.2,595.1428571428571,614.0491071428571,1582,595.1428571428571,614.0491071428571,1685.1,595.1428571428571,614.0491071428571,1790.3,595.1428571428571,614.0491071428571,1890.9,595.1428571428571,614.0491071428571,1991.5,595.1428571428571,614.0491071428571,2092.2,595.1428571428571,614.0491071428571,2200.7,595.1428571428571,614.0491071428571,2309.1,595.1428571428571,614.0491071428571,2409.8,595.1428571428571,614.0491071428571,2515.3,595.1428571428571,614.0491071428571,2619.7,595.1428571428571,614.0491071428571,2728.1,595.1428571428571,614.0491071428571,2829.1,595.1428571428571,614.0491071428571,2935.1,595.1428571428571,614.0491071428571,3056.7,595.1428571428571,614.0491071428571,3162.1,595.1428571428571,614.0491071428571,3267.2,595.1428571428571,614.0491071428571,3367.9,595.1428571428571,614.0491071428571,3471.5,595.1428571428571,614.0491071428571,3574.1,595.1428571428571,614.0491071428571,3688.2,595.1428571428571,614.0491071428571,3789.8,595.1428571428571,614.0491071428571,3898.1,595.1428571428571,614.0491071428571,4005.2,595.1428571428571,614.0491071428571,4106.1,595.1428571428571,614.0491071428571,4209.4,595.1428571428571,614.0491071428571,4311.1,595.1428571428571,614.0491071428571,4417.7,595.1428571428571,614.0491071428571,4518.2,595.1428571428571,614.0491071428571,4620.6,595.1428571428571,614.0491071428571,4723.4,595.1428571428571,614.0491071428571,4832.1,595.1428571428571,614.0491071428571,4935.5]","[1368.2,1367.7,1000,0.5,367.7,""smooth"",""down"",""down"",""good_move"",4666.1,3296.4,2814.1,1369.8,482.3,""smooth"",""right"",""right"",""good_move"",11118.2,6450.4,2984.4,7762.9,370.9,""oops"",""right"",""left"",""bad_move"",17024.3,5904.7,2325.6,14308.5,390.2,""smooth"",""right"",""right"",""good_move"",19896.7,2871.3,2426.1,17025.6,445.2,""oops"",""right"",""right"",""good_move"",23675.9,3776.9,3469.4,19899,307.5,""smooth"",""right"",""right"",""good_move"",30044.2,6366.4,2606.1,27089.8,348.3,""smooth"",""down"",""down"",""good_move"",33221.9,3174.6,2765.1,30047.3,409.5,""smooth"",""down"",""down"",""good_move""]","",""
"6423","","<div style=""width:500px;"">
  <p>What determined the result of this run?</p>
  </div>","82","html-slider-response","52","932669","0.0-10.0-1.2","164","1","2025-07-02 10:22:38","80fe4187154257d5fb01684ea91b68b9","83.233.136.197","Mozilla/5.0 (Windows NT 10.0; Win64; x64) AppleWebKit/537.36 (KHTML, like Gecko) Chrome/137.0.0.0 Safari/537.36","WebKit","Chrome","137.0.0.0","Windows","10.0","https://app.prolific.com/","en-US,en;q=0.9,sv-SE;q=0.8,sv;q=0.7,sl-SI;q=0.6,sl;q=0.5,de;q=0.4,ko;q=0.3","647df23a62de26114fdcb29c","683db6dfa200031b80f2a654","68650784c3087d7c97846950","647df23a62de26114fdcb29c","2025-07-02T10:38:13.442Z","","","","","","AttribQ","","","","","","","","","","","","","","","","","","","","","","","","","","","","","","","","","","","","","","50"
"3153","","<div style=""width:500px;"">
  <p>How much control did you have over the ball?</p>
  </div>","73","html-slider-response","53","935825","0.0-10.0-2.2","164","1","2025-07-02 10:22:38","80fe4187154257d5fb01684ea91b68b9","83.233.136.197","Mozilla/5.0 (Windows NT 10.0; Win64; x64) AppleWebKit/537.36 (KHTML, like Gecko) Chrome/137.0.0.0 Safari/537.36","WebKit","Chrome","137.0.0.0","Windows","10.0","https://app.prolific.com/","en-US,en;q=0.9,sv-SE;q=0.8,sv;q=0.7,sl-SI;q=0.6,sl;q=0.5,de;q=0.4,ko;q=0.3","647df23a62de26114fdcb29c","683db6dfa200031b80f2a654","68650784c3087d7c97846950","647df23a62de26114fdcb29c","2025-07-02T10:38:16.598Z","","","","","","ControlQ","","","","","","","","","","","","","","","","","","","","","","","","","","","","","","","","","","","","","","50"
"3345","","<div style=""width:500px;"">
  <p>How would you describe your current emotional state?</p>
  </div>","37","html-slider-response","54","939172","0.0-10.0-3.2","164","1","2025-07-02 10:22:38","80fe4187154257d5fb01684ea91b68b9","83.233.136.197","Mozilla/5.0 (Windows NT 10.0; Win64; x64) AppleWebKit/537.36 (KHTML, like Gecko) Chrome/137.0.0.0 Safari/537.36","WebKit","Chrome","137.0.0.0","Windows","10.0","https://app.prolific.com/","en-US,en;q=0.9,sv-SE;q=0.8,sv;q=0.7,sl-SI;q=0.6,sl;q=0.5,de;q=0.4,ko;q=0.3","647df23a62de26114fdcb29c","683db6dfa200031b80f2a654","68650784c3087d7c97846950","647df23a62de26114fdcb29c","2025-07-02T10:38:19.946Z","","","","","","StressQ","","","","","","","","","","","","","","","","","","","","","","","","","","","","","","","","","","","","","","50"
"2604","","<div style=""width:500px;"">
  <p>What best describes how you currently feel?</p>
  </div>","100","html-slider-response","55","941780","0.0-10.0-4.2","164","1","2025-07-02 10:22:38","80fe4187154257d5fb01684ea91b68b9","83.233.136.197","Mozilla/5.0 (Windows NT 10.0; Win64; x64) AppleWebKit/537.36 (KHTML, like Gecko) Chrome/137.0.0.0 Safari/537.36","WebKit","Chrome","137.0.0.0","Windows","10.0","https://app.prolific.com/","en-US,en;q=0.9,sv-SE;q=0.8,sv;q=0.7,sl-SI;q=0.6,sl;q=0.5,de;q=0.4,ko;q=0.3","647df23a62de26114fdcb29c","683db6dfa200031b80f2a654","68650784c3087d7c97846950","647df23a62de26114fdcb29c","2025-07-02T10:38:22.553Z","","","","","","MotivationQ","","","","","","","","","","","","","","","","","","","","","","","","","","","","","","","","","","","","","","50"
"","","","","ctl-task-cpt","56","1002567","0.0-10.0-0.3","164","1","2025-07-02 10:22:38","80fe4187154257d5fb01684ea91b68b9","83.233.136.197","Mozilla/5.0 (Windows NT 10.0; Win64; x64) AppleWebKit/537.36 (KHTML, like Gecko) Chrome/137.0.0.0 Safari/537.36","WebKit","Chrome","137.0.0.0","Windows","10.0","https://app.prolific.com/","en-US,en;q=0.9,sv-SE;q=0.8,sv;q=0.7,sl-SI;q=0.6,sl;q=0.5,de;q=0.4,ko;q=0.3","647df23a62de26114fdcb29c","683db6dfa200031b80f2a654","68650784c3087d7c97846950","647df23a62de26114fdcb29c","2025-07-02T10:39:23.340Z","","","","","","","","","","","","","","","","win-only","1","g1:NE,g2:SW","0.7","4","0","944080.1","1317.9","6323.8","57763.4","1","4","4","6","2","4","3","23","20","0.17424242424242425","1259.9","3000","1090","[""down"",""left""]","{""num_key_presses"":14,""num_perfect"":10,""num_errors"":1,""num_randdir"":3,""num_randdir_good_moves"":0,""num_whilered"":0,""num_whileblue"":1,""num_blue"":4,""num_good_moves"":10}","[354.14285714285717,348.04910714285717,0.9,354.14285714285717,348.04910714285717,100.9,354.14285714285717,348.04910714285717,207.1,354.14285714285717,348.04910714285717,311.5,354.14285714285717,348.04910714285717,417.4,354.14285714285717,348.04910714285717,520.2,319.14285714285717,375.04910714285717,631.8,126.14285714285714,531.0491071428571,744.9,78.14285714285714,579.0491071428571,849.3,34.142857142857146,620.0491071428571,954.6,27.142857142857146,643.0491071428571,1060.6,31.142857142857146,641.0491071428571,1177.6,57.142857142857146,630.0491071428571,1278.8,56.142857142857146,630.0491071428571,1389.3,56.142857142857146,630.0491071428571,1495.5,56.142857142857146,630.0491071428571,1597.7,55.142857142857146,630.0491071428571,1700.3,55.142857142857146,630.0491071428571,1805,55.142857142857146,630.0491071428571,1915.7,55.142857142857146,630.0491071428571,2019.8,55.142857142857146,630.0491071428571,2120.3,55.142857142857146,630.0491071428571,2227.3,55.142857142857146,630.0491071428571,2333.4,55.142857142857146,630.0491071428571,2442.7,55.142857142857146,630.0491071428571,2549.2,55.142857142857146,630.0491071428571,2655.4,55.142857142857146,630.0491071428571,2762.2,55.142857142857146,630.0491071428571,2864.9,55.142857142857146,630.0491071428571,2977.1,55.142857142857146,630.0491071428571,3083.2,55.142857142857146,630.0491071428571,3190.9,55.142857142857146,630.0491071428571,3300.7,55.142857142857146,630.0491071428571,3406.1,55.142857142857146,630.0491071428571,3510.8,55.142857142857146,630.0491071428571,3614.2,55.142857142857146,630.0491071428571,3714.9,55.142857142857146,630.0491071428571,3817.1,55.142857142857146,630.0491071428571,3921.5,55.142857142857146,630.0491071428571,4034.1,55.142857142857146,630.0491071428571,4141,55.142857142857146,630.0491071428571,4241.5,55.142857142857146,630.0491071428571,4349.7,55.142857142857146,630.0491071428571,4450.3,55.142857142857146,630.0491071428571,4561.1,55.142857142857146,630.0491071428571,4669.3,55.142857142857146,630.0491071428571,4769.8,55.142857142857146,630.0491071428571,4872.4,55.142857142857146,630.0491071428571,4977.6]","[1418.9,1419,1000,0,419,""smooth"",""down"",""down"",""good_move"",4934.1,3514,3140.6,1420.2,373.4,""smooth"",""down"",""down"",""good_move"",8340.1,3404.5,3006.5,4935.7,397.9,""oops"",""down"",""right"",""bad_move"",11200.8,2855.8,2482.5,8345,373.4,""smooth"",""down"",""down"",""good_move"",14141.1,2938.4,2594,11202.7,344.4,""smooth"",""left"",""left"",""good_move"",20699.5,6554.6,2748.1,17604.3,347.1,""while_blue"",""left"",""right"",""bad_move"",23922,3205.6,2769.9,20716.4,435.7,""smooth"",""left"",""left"",""good_move"",26644.8,2720.3,2268.2,23924.5,452.1,""smooth"",""left"",""left"",""good_move"",29645.2,2993.8,2539.4,26651.4,454.4,""oops"",""left"",""right"",""bad_move"",35306.5,5659,2244.5,32667.4,394.6,""oops"",""left"",""right"",""bad_move"",38265.4,2948.2,2512.6,35317.2,435.6,""smooth"",""left"",""left"",""good_move"",41667.5,3400.6,2992.8,38266.9,407.8,""smooth"",""left"",""left"",""good_move"",48545.4,6875.4,2362.4,45807.4,375.6,""smooth"",""left"",""left"",""good_move"",51205.5,2648,2231.7,48557.5,416.3,""smooth"",""left"",""left"",""good_move""]","",""
"2689","","<div style=""width:500px;"">
  <p>What determined the result of this run?</p>
  </div>","75","html-slider-response","57","1005261","0.0-10.0-1.3","164","1","2025-07-02 10:22:38","80fe4187154257d5fb01684ea91b68b9","83.233.136.197","Mozilla/5.0 (Windows NT 10.0; Win64; x64) AppleWebKit/537.36 (KHTML, like Gecko) Chrome/137.0.0.0 Safari/537.36","WebKit","Chrome","137.0.0.0","Windows","10.0","https://app.prolific.com/","en-US,en;q=0.9,sv-SE;q=0.8,sv;q=0.7,sl-SI;q=0.6,sl;q=0.5,de;q=0.4,ko;q=0.3","647df23a62de26114fdcb29c","683db6dfa200031b80f2a654","68650784c3087d7c97846950","647df23a62de26114fdcb29c","2025-07-02T10:39:26.034Z","","","","","","AttribQ","","","","","","","","","","","","","","","","","","","","","","","","","","","","","","","","","","","","","","50"
"2278","","<div style=""width:500px;"">
  <p>How much control did you have over the ball?</p>
  </div>","81","html-slider-response","58","1007543","0.0-10.0-2.3","164","1","2025-07-02 10:22:38","80fe4187154257d5fb01684ea91b68b9","83.233.136.197","Mozilla/5.0 (Windows NT 10.0; Win64; x64) AppleWebKit/537.36 (KHTML, like Gecko) Chrome/137.0.0.0 Safari/537.36","WebKit","Chrome","137.0.0.0","Windows","10.0","https://app.prolific.com/","en-US,en;q=0.9,sv-SE;q=0.8,sv;q=0.7,sl-SI;q=0.6,sl;q=0.5,de;q=0.4,ko;q=0.3","647df23a62de26114fdcb29c","683db6dfa200031b80f2a654","68650784c3087d7c97846950","647df23a62de26114fdcb29c","2025-07-02T10:39:28.317Z","","","","","","ControlQ","","","","","","","","","","","","","","","","","","","","","","","","","","","","","","","","","","","","","","50"
"4067","","<div style=""width:500px;"">
  <p>How would you describe your current emotional state?</p>
  </div>","43","html-slider-response","59","1011615","0.0-10.0-3.3","164","1","2025-07-02 10:22:38","80fe4187154257d5fb01684ea91b68b9","83.233.136.197","Mozilla/5.0 (Windows NT 10.0; Win64; x64) AppleWebKit/537.36 (KHTML, like Gecko) Chrome/137.0.0.0 Safari/537.36","WebKit","Chrome","137.0.0.0","Windows","10.0","https://app.prolific.com/","en-US,en;q=0.9,sv-SE;q=0.8,sv;q=0.7,sl-SI;q=0.6,sl;q=0.5,de;q=0.4,ko;q=0.3","647df23a62de26114fdcb29c","683db6dfa200031b80f2a654","68650784c3087d7c97846950","647df23a62de26114fdcb29c","2025-07-02T10:39:32.388Z","","","","","","StressQ","","","","","","","","","","","","","","","","","","","","","","","","","","","","","","","","","","","","","","50"
"2577","","<div style=""width:500px;"">
  <p>What best describes how you currently feel?</p>
  </div>","100","html-slider-response","60","1014196","0.0-10.0-4.3","164","1","2025-07-02 10:22:38","80fe4187154257d5fb01684ea91b68b9","83.233.136.197","Mozilla/5.0 (Windows NT 10.0; Win64; x64) AppleWebKit/537.36 (KHTML, like Gecko) Chrome/137.0.0.0 Safari/537.36","WebKit","Chrome","137.0.0.0","Windows","10.0","https://app.prolific.com/","en-US,en;q=0.9,sv-SE;q=0.8,sv;q=0.7,sl-SI;q=0.6,sl;q=0.5,de;q=0.4,ko;q=0.3","647df23a62de26114fdcb29c","683db6dfa200031b80f2a654","68650784c3087d7c97846950","647df23a62de26114fdcb29c","2025-07-02T10:39:34.969Z","","","","","","MotivationQ","","","","","","","","","","","","","","","","","","","","","","","","","","","","","","","","","","","","","","50"
"","","","","ctl-task-cpt","61","1069771","0.0-10.0-0.4","164","1","2025-07-02 10:22:38","80fe4187154257d5fb01684ea91b68b9","83.233.136.197","Mozilla/5.0 (Windows NT 10.0; Win64; x64) AppleWebKit/537.36 (KHTML, like Gecko) Chrome/137.0.0.0 Safari/537.36","WebKit","Chrome","137.0.0.0","Windows","10.0","https://app.prolific.com/","en-US,en;q=0.9,sv-SE;q=0.8,sv;q=0.7,sl-SI;q=0.6,sl;q=0.5,de;q=0.4,ko;q=0.3","647df23a62de26114fdcb29c","683db6dfa200031b80f2a654","68650784c3087d7c97846950","647df23a62de26114fdcb29c","2025-07-02T10:40:30.545Z","","","","","","","","","","","","","","","","win-only","2","g1:SE,g2:NW","0.6","5","0","1016497.1","2517.4","7523.3","52529.5","1","4","8","6","2","8","8","31","23","0.23484848484848486","1084.5","3000","1870","[""left"",""up""]","{""num_key_presses"":12,""num_perfect"":8,""num_errors"":0,""num_randdir"":4,""num_randdir_good_moves"":1,""num_whilered"":0,""num_whileblue"":0,""num_blue"":1,""num_good_moves"":9}","[347.14285714285717,346.04910714285717,1.5,347.14285714285717,346.04910714285717,105.2,347.14285714285717,346.04910714285717,211.6,388.14285714285717,354.04910714285717,320.9,386.14285714285717,355.04910714285717,431.3,338.14285714285717,335.04910714285717,533.8,247.14285714285714,204.04910714285714,657.1,169.14285714285714,116.04910714285714,759.3,134.14285714285714,89.04910714285714,870.5,89.14285714285714,57.049107142857146,986.4,80.14285714285714,55.049107142857146,1096.7,80.14285714285714,55.049107142857146,1210.5,108.14285714285714,70.04910714285714,1328.2,413.14285714285717,184.04910714285714,1439.2,414.14285714285717,184.04910714285714,1547.4,414.14285714285717,184.04910714285714,1650.8,414.14285714285717,184.04910714285714,1751.4,516.1428571428571,248.04910714285714,1867,618.1428571428571,285.04910714285717,1987,620.1428571428571,287.04910714285717,2089.9,620.1428571428571,287.04910714285717,2202.2,620.1428571428571,287.04910714285717,2306.4,620.1428571428571,287.04910714285717,2411.8,620.1428571428571,287.04910714285717,2529.9,620.1428571428571,287.04910714285717,2630,620.1428571428571,287.04910714285717,2732,620.1428571428571,287.04910714285717,2844.9,620.1428571428571,287.04910714285717,2952.6,620.1428571428571,287.04910714285717,3062.5,620.1428571428571,287.04910714285717,3170.9,620.1428571428571,287.04910714285717,3282.3,620.1428571428571,287.04910714285717,3396.4,620.1428571428571,287.04910714285717,3502.1,620.1428571428571,287.04910714285717,3608,620.1428571428571,287.04910714285717,3713.4,620.1428571428571,287.04910714285717,3826.1,620.1428571428571,287.04910714285717,3932.5,620.1428571428571,287.04910714285717,4040.4,620.1428571428571,287.04910714285717,4142.2,620.1428571428571,287.04910714285717,4256.6,620.1428571428571,287.04910714285717,4366.7,620.1428571428571,287.04910714285717,4471.3,620.1428571428571,287.04910714285717,4572.9,620.1428571428571,287.04910714285717,4677.7,620.1428571428571,287.04910714285717,4779.7,620.1428571428571,287.04910714285717,4880.6,620.1428571428571,287.04910714285717,4982.4]","[5190.9,5190.9,2806,2012.8,372.1,""smooth"",""left"",""left"",""good_move"",8369.8,3175.3,2187.6,5194.7,987.6,""smooth"",""left"",""left"",""good_move"",11693.9,3318.4,2408.5,8375.6,909.9,""smooth"",""left"",""left"",""good_move"",15274.2,3578.2,3176.3,11696.1,401.8,""oops"",""up"",""up"",""good_move"",19181.7,3905.4,2467,15276.3,1438.4,""oops"",""up"",""down"",""bad_move"",22080.2,2896.7,2474.5,19183.5,422.2,""smooth"",""up"",""up"",""good_move"",26240.7,4155.8,3462.8,22084.9,693,""oops"",""up"",""down"",""bad_move"",29320.5,3076.5,2654.4,26244,422.1,""smooth"",""up"",""up"",""good_move"",33388.9,4065.7,2525.1,29323.2,1540.6,""oops"",""up"",""down"",""bad_move"",35810.7,2417.2,1904.1,33393.5,513.1,""smooth"",""up"",""up"",""good_move"",40058.5,4245.7,2334.8,35812.8,1910.9,""smooth"",""up"",""up"",""good_move"",44455.9,4391,2539.6,40064.9,1851.4,""smooth"",""up"",""up"",""good_move""]","",""
"2909","","<div style=""width:500px;"">
  <p>What determined the result of this run?</p>
  </div>","62","html-slider-response","62","1072686","0.0-10.0-1.4","164","1","2025-07-02 10:22:38","80fe4187154257d5fb01684ea91b68b9","83.233.136.197","Mozilla/5.0 (Windows NT 10.0; Win64; x64) AppleWebKit/537.36 (KHTML, like Gecko) Chrome/137.0.0.0 Safari/537.36","WebKit","Chrome","137.0.0.0","Windows","10.0","https://app.prolific.com/","en-US,en;q=0.9,sv-SE;q=0.8,sv;q=0.7,sl-SI;q=0.6,sl;q=0.5,de;q=0.4,ko;q=0.3","647df23a62de26114fdcb29c","683db6dfa200031b80f2a654","68650784c3087d7c97846950","647df23a62de26114fdcb29c","2025-07-02T10:40:33.459Z","","","","","","AttribQ","","","","","","","","","","","","","","","","","","","","","","","","","","","","","","","","","","","","","","50"
"2490","","<div style=""width:500px;"">
  <p>How much control did you have over the ball?</p>
  </div>","59","html-slider-response","63","1075182","0.0-10.0-2.4","164","1","2025-07-02 10:22:38","80fe4187154257d5fb01684ea91b68b9","83.233.136.197","Mozilla/5.0 (Windows NT 10.0; Win64; x64) AppleWebKit/537.36 (KHTML, like Gecko) Chrome/137.0.0.0 Safari/537.36","WebKit","Chrome","137.0.0.0","Windows","10.0","https://app.prolific.com/","en-US,en;q=0.9,sv-SE;q=0.8,sv;q=0.7,sl-SI;q=0.6,sl;q=0.5,de;q=0.4,ko;q=0.3","647df23a62de26114fdcb29c","683db6dfa200031b80f2a654","68650784c3087d7c97846950","647df23a62de26114fdcb29c","2025-07-02T10:40:35.955Z","","","","","","ControlQ","","","","","","","","","","","","","","","","","","","","","","","","","","","","","","","","","","","","","","50"
"3006","","<div style=""width:500px;"">
  <p>How would you describe your current emotional state?</p>
  </div>","40","html-slider-response","64","1078191","0.0-10.0-3.4","164","1","2025-07-02 10:22:38","80fe4187154257d5fb01684ea91b68b9","83.233.136.197","Mozilla/5.0 (Windows NT 10.0; Win64; x64) AppleWebKit/537.36 (KHTML, like Gecko) Chrome/137.0.0.0 Safari/537.36","WebKit","Chrome","137.0.0.0","Windows","10.0","https://app.prolific.com/","en-US,en;q=0.9,sv-SE;q=0.8,sv;q=0.7,sl-SI;q=0.6,sl;q=0.5,de;q=0.4,ko;q=0.3","647df23a62de26114fdcb29c","683db6dfa200031b80f2a654","68650784c3087d7c97846950","647df23a62de26114fdcb29c","2025-07-02T10:40:38.964Z","","","","","","StressQ","","","","","","","","","","","","","","","","","","","","","","","","","","","","","","","","","","","","","","50"
"3022","","<div style=""width:500px;"">
  <p>What best describes how you currently feel?</p>
  </div>","100","html-slider-response","65","1081217","0.0-10.0-4.4","164","1","2025-07-02 10:22:38","80fe4187154257d5fb01684ea91b68b9","83.233.136.197","Mozilla/5.0 (Windows NT 10.0; Win64; x64) AppleWebKit/537.36 (KHTML, like Gecko) Chrome/137.0.0.0 Safari/537.36","WebKit","Chrome","137.0.0.0","Windows","10.0","https://app.prolific.com/","en-US,en;q=0.9,sv-SE;q=0.8,sv;q=0.7,sl-SI;q=0.6,sl;q=0.5,de;q=0.4,ko;q=0.3","647df23a62de26114fdcb29c","683db6dfa200031b80f2a654","68650784c3087d7c97846950","647df23a62de26114fdcb29c","2025-07-02T10:40:41.990Z","","","","","","MotivationQ","","","","","","","","","","","","","","","","","","","","","","","","","","","","","","","","","","","","","","50"
"","","","","ctl-task-cpt","66","1126606","0.0-10.0-0.5","164","1","2025-07-02 10:22:38","80fe4187154257d5fb01684ea91b68b9","83.233.136.197","Mozilla/5.0 (Windows NT 10.0; Win64; x64) AppleWebKit/537.36 (KHTML, like Gecko) Chrome/137.0.0.0 Safari/537.36","WebKit","Chrome","137.0.0.0","Windows","10.0","https://app.prolific.com/","en-US,en;q=0.9,sv-SE;q=0.8,sv;q=0.7,sl-SI;q=0.6,sl;q=0.5,de;q=0.4,ko;q=0.3","647df23a62de26114fdcb29c","683db6dfa200031b80f2a654","68650784c3087d7c97846950","647df23a62de26114fdcb29c","2025-07-02T10:41:27.379Z","","","","","","","","","","","","","","","","win-only","2","g1:SE,g2:NW","0.5","6","0","1083518.1","1176.9","6195.2","42345.2","1","4","4","6","2","4","4","35","31","0.26515151515151514","1175.5","3000","1675","[""left"",""up""]","{""num_key_presses"":10,""num_perfect"":5,""num_errors"":0,""num_randdir"":5,""num_randdir_good_moves"":3,""num_whilered"":0,""num_whileblue"":0,""num_blue"":2,""num_good_moves"":8}","[351.14285714285717,351.04910714285717,1.9,351.14285714285717,351.04910714285717,113,351.14285714285717,351.04910714285717,225.6,351.14285714285717,351.04910714285717,345.7,351.14285714285717,351.04910714285717,448.4,348.14285714285717,351.04910714285717,568.1,298.14285714285717,315.04910714285717,669,76.14285714285714,50.049107142857146,795.6,78.14285714285714,80.04910714285714,914.4,85.14285714285714,98.04910714285714,1025.2,82.14285714285714,93.04910714285714,1134.9,82.14285714285714,92.04910714285714,1251.7,82.14285714285714,92.04910714285714,1357.7,82.14285714285714,92.04910714285714,1477.9,82.14285714285714,92.04910714285714,1580.7,397.14285714285717,134.04910714285714,1709.6,824.1428571428571,281.04910714285717,1833.6,857.1428571428571,293.04910714285717,1941.3,857.1428571428571,293.04910714285717,2043.9,857.1428571428571,293.04910714285717,2157,857.1428571428571,293.04910714285717,2276.9,857.1428571428571,293.04910714285717,2405.1,857.1428571428571,293.04910714285717,2525.5,857.1428571428571,293.04910714285717,2642.7,857.1428571428571,293.04910714285717,2759,857.1428571428571,293.04910714285717,2861.7,857.1428571428571,293.04910714285717,2981.2,857.1428571428571,293.04910714285717,3086.9,857.1428571428571,293.04910714285717,3209.8,857.1428571428571,293.04910714285717,3325.7,857.1428571428571,293.04910714285717,3445.6,857.1428571428571,293.04910714285717,3571.6,857.1428571428571,293.04910714285717,3688.2,857.1428571428571,293.04910714285717,3791.9,857.1428571428571,293.04910714285717,3898.3,857.1428571428571,293.04910714285717,4019.5,857.1428571428571,293.04910714285717,4124.8,857.1428571428571,293.04910714285717,4237,857.1428571428571,293.04910714285717,4337.6,857.1428571428571,293.04910714285717,4455.3,857.1428571428571,293.04910714285717,4567.5,857.1428571428571,293.04910714285717,4668.1,857.1428571428571,293.04910714285717,4776.6,857.1428571428571,293.04910714285717,4883.3,857.1428571428571,293.04910714285717,4991.6]","[4517.8,4517.8,2086.8,2010.7,420.3,""smooth"",""up"",""up"",""good_move"",7568.9,3043,2293.5,4525.9,749.5,""smooth"",""up"",""up"",""good_move"",11018.5,3446.3,3062.7,7572.2,383.6,""oops"",""up"",""up"",""good_move"",17501.4,6474.1,2119.3,14968.7,413.4,""oops"",""left"",""down"",""bad_move"",20695.1,3192.5,2702.7,17502.6,489.8,""smooth"",""left"",""left"",""good_move"",24153.2,3456.3,2104.5,20696.9,1351.8,""smooth"",""left"",""left"",""good_move"",27293,3136.2,2750.7,24156.9,385.4,""oops"",""left"",""right"",""bad_move"",30080.3,2783.3,2409.7,27297.1,373.5,""oops"",""up"",""left"",""good_move"",32732,2645.5,2145.4,30086.7,499.9,""smooth"",""up"",""up"",""good_move"",35875.4,3138.2,2725.5,32737.2,412.7,""oops"",""left"",""left"",""good_move""]","",""
"2792","","<div style=""width:500px;"">
  <p>What determined the result of this run?</p>
  </div>","69","html-slider-response","67","1129409","0.0-10.0-1.5","164","1","2025-07-02 10:22:38","80fe4187154257d5fb01684ea91b68b9","83.233.136.197","Mozilla/5.0 (Windows NT 10.0; Win64; x64) AppleWebKit/537.36 (KHTML, like Gecko) Chrome/137.0.0.0 Safari/537.36","WebKit","Chrome","137.0.0.0","Windows","10.0","https://app.prolific.com/","en-US,en;q=0.9,sv-SE;q=0.8,sv;q=0.7,sl-SI;q=0.6,sl;q=0.5,de;q=0.4,ko;q=0.3","647df23a62de26114fdcb29c","683db6dfa200031b80f2a654","68650784c3087d7c97846950","647df23a62de26114fdcb29c","2025-07-02T10:41:30.182Z","","","","","","AttribQ","","","","","","","","","","","","","","","","","","","","","","","","","","","","","","","","","","","","","","50"
"2293","","<div style=""width:500px;"">
  <p>How much control did you have over the ball?</p>
  </div>","69","html-slider-response","68","1131707","0.0-10.0-2.5","164","1","2025-07-02 10:22:38","80fe4187154257d5fb01684ea91b68b9","83.233.136.197","Mozilla/5.0 (Windows NT 10.0; Win64; x64) AppleWebKit/537.36 (KHTML, like Gecko) Chrome/137.0.0.0 Safari/537.36","WebKit","Chrome","137.0.0.0","Windows","10.0","https://app.prolific.com/","en-US,en;q=0.9,sv-SE;q=0.8,sv;q=0.7,sl-SI;q=0.6,sl;q=0.5,de;q=0.4,ko;q=0.3","647df23a62de26114fdcb29c","683db6dfa200031b80f2a654","68650784c3087d7c97846950","647df23a62de26114fdcb29c","2025-07-02T10:41:32.481Z","","","","","","ControlQ","","","","","","","","","","","","","","","","","","","","","","","","","","","","","","","","","","","","","","50"
"2640","","<div style=""width:500px;"">
  <p>How would you describe your current emotional state?</p>
  </div>","32","html-slider-response","69","1134350","0.0-10.0-3.5","164","1","2025-07-02 10:22:38","80fe4187154257d5fb01684ea91b68b9","83.233.136.197","Mozilla/5.0 (Windows NT 10.0; Win64; x64) AppleWebKit/537.36 (KHTML, like Gecko) Chrome/137.0.0.0 Safari/537.36","WebKit","Chrome","137.0.0.0","Windows","10.0","https://app.prolific.com/","en-US,en;q=0.9,sv-SE;q=0.8,sv;q=0.7,sl-SI;q=0.6,sl;q=0.5,de;q=0.4,ko;q=0.3","647df23a62de26114fdcb29c","683db6dfa200031b80f2a654","68650784c3087d7c97846950","647df23a62de26114fdcb29c","2025-07-02T10:41:35.124Z","","","","","","StressQ","","","","","","","","","","","","","","","","","","","","","","","","","","","","","","","","","","","","","","50"
"2358","","<div style=""width:500px;"">
  <p>What best describes how you currently feel?</p>
  </div>","100","html-slider-response","70","1136712","0.0-10.0-4.5","164","1","2025-07-02 10:22:38","80fe4187154257d5fb01684ea91b68b9","83.233.136.197","Mozilla/5.0 (Windows NT 10.0; Win64; x64) AppleWebKit/537.36 (KHTML, like Gecko) Chrome/137.0.0.0 Safari/537.36","WebKit","Chrome","137.0.0.0","Windows","10.0","https://app.prolific.com/","en-US,en;q=0.9,sv-SE;q=0.8,sv;q=0.7,sl-SI;q=0.6,sl;q=0.5,de;q=0.4,ko;q=0.3","647df23a62de26114fdcb29c","683db6dfa200031b80f2a654","68650784c3087d7c97846950","647df23a62de26114fdcb29c","2025-07-02T10:41:37.485Z","","","","","","MotivationQ","","","","","","","","","","","","","","","","","","","","","","","","","","","","","","","","","","","","","","50"
"","","","","ctl-task-cpt","71","1171770","0.0-10.0-0.6","164","1","2025-07-02 10:22:38","80fe4187154257d5fb01684ea91b68b9","83.233.136.197","Mozilla/5.0 (Windows NT 10.0; Win64; x64) AppleWebKit/537.36 (KHTML, like Gecko) Chrome/137.0.0.0 Safari/537.36","WebKit","Chrome","137.0.0.0","Windows","10.0","https://app.prolific.com/","en-US,en;q=0.9,sv-SE;q=0.8,sv;q=0.7,sl-SI;q=0.6,sl;q=0.5,de;q=0.4,ko;q=0.3","647df23a62de26114fdcb29c","683db6dfa200031b80f2a654","68650784c3087d7c97846950","647df23a62de26114fdcb29c","2025-07-02T10:42:12.543Z","","","","","","","","","","","","","","","","win-only","2","g1:SE,g2:NW","0.4","7","0","1139013.7","1697.6","6703.5","32039.9","1","4","4","6","2","4","4","39","35","0.29545454545454547","867.8","3000","2090","[""left"",""up""]","{""num_key_presses"":8,""num_perfect"":4,""num_errors"":0,""num_randdir"":4,""num_randdir_good_moves"":3,""num_whilered"":0,""num_whileblue"":0,""num_blue"":0,""num_good_moves"":7}","[350.14285714285717,347.04910714285717,0.9,350.14285714285717,347.04910714285717,107.9,350.14285714285717,347.04910714285717,213.7,350.14285714285717,347.04910714285717,315.3,310.14285714285717,317.04910714285717,434.5,129.14285714285714,161.04910714285714,553.1,110.14285714285714,108.04910714285714,672.5,92.14285714285714,91.04910714285714,800.4,85.14285714285714,84.04910714285714,903.6,85.14285714285714,84.04910714285714,1014.9,423.14285714285717,126.04910714285714,1128.8,870.1428571428571,216.04910714285714,1240.8,904.1428571428571,228.04910714285714,1352.7,904.1428571428571,228.04910714285714,1459.8,904.1428571428571,228.04910714285714,1572.4,904.1428571428571,228.04910714285714,1678,904.1428571428571,228.04910714285714,1780.3,904.1428571428571,228.04910714285714,1888.4,904.1428571428571,228.04910714285714,1990.8,904.1428571428571,228.04910714285714,2102.8,904.1428571428571,228.04910714285714,2221,904.1428571428571,228.04910714285714,2330.3,904.1428571428571,228.04910714285714,2442.5,904.1428571428571,228.04910714285714,2556.6,904.1428571428571,228.04910714285714,2660.6,904.1428571428571,228.04910714285714,2769.7,904.1428571428571,228.04910714285714,2890.9,904.1428571428571,228.04910714285714,2997,904.1428571428571,228.04910714285714,3097.2,904.1428571428571,228.04910714285714,3200.9,904.1428571428571,228.04910714285714,3301,904.1428571428571,228.04910714285714,3408.1,904.1428571428571,228.04910714285714,3510.5,904.1428571428571,228.04910714285714,3611.2,904.1428571428571,228.04910714285714,3719.5,904.1428571428571,228.04910714285714,3824.9,904.1428571428571,228.04910714285714,3928.9,904.1428571428571,228.04910714285714,4047.2,904.1428571428571,228.04910714285714,4157.9,904.1428571428571,228.04910714285714,4259,904.1428571428571,228.04910714285714,4361.7,904.1428571428571,228.04910714285714,4465.2,904.1428571428571,228.04910714285714,4574.5,904.1428571428571,228.04910714285714,4677.9,904.1428571428571,228.04910714285714,4785.3,904.1428571428571,228.04910714285714,4889.9]","[1423,1423,1000,0,423,""smooth"",""up"",""up"",""good_move"",4701.3,3276.4,2867.5,1424.9,408.9,""oops"",""up"",""left"",""good_move"",8081.4,3378.1,3000.8,4703.3,377.3,""oops"",""up"",""down"",""bad_move"",11475.5,3392,2996.5,8083.5,395.5,""smooth"",""up"",""up"",""good_move"",14883.1,3390.4,2837.4,11492.7,553,""oops"",""up"",""left"",""good_move"",18614.5,3726.1,2825.7,14888.4,900.5,""smooth"",""up"",""up"",""good_move"",22301.5,3679.4,2883.4,18622.1,796,""oops"",""left"",""left"",""good_move"",25008.2,2705.1,2282.5,22303.1,422.6,""smooth"",""up"",""up"",""good_move""]","",""
"2261","","<div style=""width:500px;"">
  <p>What determined the result of this run?</p>
  </div>","89","html-slider-response","72","1174034","0.0-10.0-1.6","164","1","2025-07-02 10:22:38","80fe4187154257d5fb01684ea91b68b9","83.233.136.197","Mozilla/5.0 (Windows NT 10.0; Win64; x64) AppleWebKit/537.36 (KHTML, like Gecko) Chrome/137.0.0.0 Safari/537.36","WebKit","Chrome","137.0.0.0","Windows","10.0","https://app.prolific.com/","en-US,en;q=0.9,sv-SE;q=0.8,sv;q=0.7,sl-SI;q=0.6,sl;q=0.5,de;q=0.4,ko;q=0.3","647df23a62de26114fdcb29c","683db6dfa200031b80f2a654","68650784c3087d7c97846950","647df23a62de26114fdcb29c","2025-07-02T10:42:14.808Z","","","","","","AttribQ","","","","","","","","","","","","","","","","","","","","","","","","","","","","","","","","","","","","","","50"
"2109","","<div style=""width:500px;"">
  <p>How much control did you have over the ball?</p>
  </div>","79","html-slider-response","73","1176146","0.0-10.0-2.6","164","1","2025-07-02 10:22:38","80fe4187154257d5fb01684ea91b68b9","83.233.136.197","Mozilla/5.0 (Windows NT 10.0; Win64; x64) AppleWebKit/537.36 (KHTML, like Gecko) Chrome/137.0.0.0 Safari/537.36","WebKit","Chrome","137.0.0.0","Windows","10.0","https://app.prolific.com/","en-US,en;q=0.9,sv-SE;q=0.8,sv;q=0.7,sl-SI;q=0.6,sl;q=0.5,de;q=0.4,ko;q=0.3","647df23a62de26114fdcb29c","683db6dfa200031b80f2a654","68650784c3087d7c97846950","647df23a62de26114fdcb29c","2025-07-02T10:42:16.919Z","","","","","","ControlQ","","","","","","","","","","","","","","","","","","","","","","","","","","","","","","","","","","","","","","50"
"2244","","<div style=""width:500px;"">
  <p>How would you describe your current emotional state?</p>
  </div>","24","html-slider-response","74","1178395","0.0-10.0-3.6","164","1","2025-07-02 10:22:38","80fe4187154257d5fb01684ea91b68b9","83.233.136.197","Mozilla/5.0 (Windows NT 10.0; Win64; x64) AppleWebKit/537.36 (KHTML, like Gecko) Chrome/137.0.0.0 Safari/537.36","WebKit","Chrome","137.0.0.0","Windows","10.0","https://app.prolific.com/","en-US,en;q=0.9,sv-SE;q=0.8,sv;q=0.7,sl-SI;q=0.6,sl;q=0.5,de;q=0.4,ko;q=0.3","647df23a62de26114fdcb29c","683db6dfa200031b80f2a654","68650784c3087d7c97846950","647df23a62de26114fdcb29c","2025-07-02T10:42:19.168Z","","","","","","StressQ","","","","","","","","","","","","","","","","","","","","","","","","","","","","","","","","","","","","","","50"
"2085","","<div style=""width:500px;"">
  <p>What best describes how you currently feel?</p>
  </div>","100","html-slider-response","75","1180485","0.0-10.0-4.6","164","1","2025-07-02 10:22:38","80fe4187154257d5fb01684ea91b68b9","83.233.136.197","Mozilla/5.0 (Windows NT 10.0; Win64; x64) AppleWebKit/537.36 (KHTML, like Gecko) Chrome/137.0.0.0 Safari/537.36","WebKit","Chrome","137.0.0.0","Windows","10.0","https://app.prolific.com/","en-US,en;q=0.9,sv-SE;q=0.8,sv;q=0.7,sl-SI;q=0.6,sl;q=0.5,de;q=0.4,ko;q=0.3","647df23a62de26114fdcb29c","683db6dfa200031b80f2a654","68650784c3087d7c97846950","647df23a62de26114fdcb29c","2025-07-02T10:42:21.258Z","","","","","","MotivationQ","","","","","","","","","","","","","","","","","","","","","","","","","","","","","","","","","","","","","","50"
"","","","","ctl-task-cpt","76","1261333","0.0-10.0-0.7","164","1","2025-07-02 10:22:38","80fe4187154257d5fb01684ea91b68b9","83.233.136.197","Mozilla/5.0 (Windows NT 10.0; Win64; x64) AppleWebKit/537.36 (KHTML, like Gecko) Chrome/137.0.0.0 Safari/537.36","WebKit","Chrome","137.0.0.0","Windows","10.0","https://app.prolific.com/","en-US,en;q=0.9,sv-SE;q=0.8,sv;q=0.7,sl-SI;q=0.6,sl;q=0.5,de;q=0.4,ko;q=0.3","647df23a62de26114fdcb29c","683db6dfa200031b80f2a654","68650784c3087d7c97846950","647df23a62de26114fdcb29c","2025-07-02T10:43:42.106Z","","","","","","","","","","","","","","","","win-only","0","g1:NW,g2:SE","0.3","8","0","1182786.6","1001.6","6019.7","77819","1","4","8","6","2","8","6","45","39","0.3409090909090909","1132.5","3000","1045","[""down"",""right""]","{""num_key_presses"":21,""num_perfect"":6,""num_errors"":2,""num_randdir"":13,""num_randdir_good_moves"":6,""num_whilered"":0,""num_whileblue"":1,""num_blue"":4,""num_good_moves"":13}","[345.14285714285717,343.04910714285717,0.5,345.14285714285717,343.04910714285717,120.5,345.14285714285717,343.04910714285717,223.4,345.14285714285717,343.04910714285717,325.7,345.14285714285717,343.04910714285717,434.5,366.14285714285717,358.04910714285717,538.3,539.1428571428571,465.04910714285717,676.7,668.1428571428571,570.0491071428571,805.1,667.1428571428571,604.0491071428571,909.3,638.1428571428571,609.0491071428571,1015.9,636.1428571428571,613.0491071428571,1120.5,636.1428571428571,613.0491071428571,1232.1,635.1428571428571,614.0491071428571,1342.4,655.1428571428571,592.0491071428571,1463.6,823.1428571428571,511.04910714285717,1588.9,823.1428571428571,511.04910714285717,1696.5,823.1428571428571,511.04910714285717,1812.5,823.1428571428571,511.04910714285717,1913.3,823.1428571428571,511.04910714285717,2023.9,823.1428571428571,511.04910714285717,2134.5,823.1428571428571,511.04910714285717,2236.7,823.1428571428571,511.04910714285717,2337.7,823.1428571428571,511.04910714285717,2443.8,823.1428571428571,511.04910714285717,2546.7,823.1428571428571,511.04910714285717,2665.3,823.1428571428571,511.04910714285717,2770.9,823.1428571428571,511.04910714285717,2883.9,823.1428571428571,511.04910714285717,2991.9,823.1428571428571,511.04910714285717,3094.3,823.1428571428571,511.04910714285717,3197.3,823.1428571428571,511.04910714285717,3300.6,823.1428571428571,511.04910714285717,3418,823.1428571428571,511.04910714285717,3526.2,823.1428571428571,511.04910714285717,3637.6,823.1428571428571,511.04910714285717,3738.1,823.1428571428571,511.04910714285717,3851,823.1428571428571,511.04910714285717,3952.1,823.1428571428571,511.04910714285717,4053.6,823.1428571428571,511.04910714285717,4174.1,823.1428571428571,511.04910714285717,4275.1,823.1428571428571,511.04910714285717,4379.6,823.1428571428571,511.04910714285717,4485.5,823.1428571428571,511.04910714285717,4592.4,823.1428571428571,511.04910714285717,4705.4,823.1428571428571,511.04910714285717,4811.5,823.1428571428571,511.04910714285717,4922]","[1446.5,1446.5,1000,0,446.5,""smooth"",""down"",""down"",""good_move"",4080.1,2631.8,2259.2,1448.3,372.6,""oops"",""down"",""down"",""good_move"",6612.7,2525.7,2106.5,4087.1,419.2,""smooth"",""down"",""down"",""good_move"",9361.4,2744.5,2356.6,6616.9,387.9,""oops"",""right"",""left"",""bad_move"",12510.6,3144.2,2367.5,9366.4,776.7,""oops"",""right"",""left"",""bad_move"",15693.4,3180.8,2451.2,12512.6,729.6,""oops"",""right"",""up"",""bad_move"",18848.5,3151.5,2461.7,15697,689.8,""oops"",""right"",""down"",""good_move"",21553.5,2698.3,2353.3,18855.2,345,""smooth"",""right"",""right"",""good_move"",23965.6,2409.6,2013,21556,396.6,""oops"",""right"",""up"",""bad_move"",28005.2,4037.3,3094.5,23968.2,942.6,""oops"",""right"",""down"",""good_move"",30385.1,2376.7,1915.2,28008.4,461.5,""oops"",""right"",""left"",""bad_move"",33689.9,3303,3003.7,30386.9,299.3,""while_blue"",""right"",""right"",""good_move"",38099.2,4407.8,2820.4,37649.4,-2370.6,""error"",""-"",""-"",""no_move"",41679,3576.2,2083.3,39119.3,476.4,""smooth"",""right"",""right"",""good_move"",44907.9,3225.3,2824.2,41682.6,401.1,""smooth"",""right"",""right"",""good_move"",48066.7,3156.4,2666.9,44910.3,489.5,""smooth"",""right"",""right"",""good_move"",51757.7,3689.2,3279.7,48068.6,409.4,""oops"",""right"",""up"",""bad_move"",62763.4,11003.1,2459.9,59886.6,416.9,""oops"",""down"",""down"",""good_move"",65008.7,2243.3,1809.6,62765.4,433.7,""oops"",""right"",""left"",""bad_move"",68615.8,3605.2,3201.2,65010.6,404,""oops"",""right"",""right"",""good_move"",71415.3,2798.1,2382.7,68618.3,415.4,""oops"",""right"",""right"",""good_move""]","",""
"3542","","<div style=""width:500px;"">
  <p>What determined the result of this run?</p>
  </div>","37","html-slider-response","77","1264879","0.0-10.0-1.7","164","1","2025-07-02 10:22:38","80fe4187154257d5fb01684ea91b68b9","83.233.136.197","Mozilla/5.0 (Windows NT 10.0; Win64; x64) AppleWebKit/537.36 (KHTML, like Gecko) Chrome/137.0.0.0 Safari/537.36","WebKit","Chrome","137.0.0.0","Windows","10.0","https://app.prolific.com/","en-US,en;q=0.9,sv-SE;q=0.8,sv;q=0.7,sl-SI;q=0.6,sl;q=0.5,de;q=0.4,ko;q=0.3","647df23a62de26114fdcb29c","683db6dfa200031b80f2a654","68650784c3087d7c97846950","647df23a62de26114fdcb29c","2025-07-02T10:43:45.652Z","","","","","","AttribQ","","","","","","","","","","","","","","","","","","","","","","","","","","","","","","","","","","","","","","50"
"3557","","<div style=""width:500px;"">
  <p>How much control did you have over the ball?</p>
  </div>","30","html-slider-response","78","1268439","0.0-10.0-2.7","164","1","2025-07-02 10:22:38","80fe4187154257d5fb01684ea91b68b9","83.233.136.197","Mozilla/5.0 (Windows NT 10.0; Win64; x64) AppleWebKit/537.36 (KHTML, like Gecko) Chrome/137.0.0.0 Safari/537.36","WebKit","Chrome","137.0.0.0","Windows","10.0","https://app.prolific.com/","en-US,en;q=0.9,sv-SE;q=0.8,sv;q=0.7,sl-SI;q=0.6,sl;q=0.5,de;q=0.4,ko;q=0.3","647df23a62de26114fdcb29c","683db6dfa200031b80f2a654","68650784c3087d7c97846950","647df23a62de26114fdcb29c","2025-07-02T10:43:49.213Z","","","","","","ControlQ","","","","","","","","","","","","","","","","","","","","","","","","","","","","","","","","","","","","","","50"
"4233","","<div style=""width:500px;"">
  <p>How would you describe your current emotional state?</p>
  </div>","59","html-slider-response","79","1272679","0.0-10.0-3.7","164","1","2025-07-02 10:22:38","80fe4187154257d5fb01684ea91b68b9","83.233.136.197","Mozilla/5.0 (Windows NT 10.0; Win64; x64) AppleWebKit/537.36 (KHTML, like Gecko) Chrome/137.0.0.0 Safari/537.36","WebKit","Chrome","137.0.0.0","Windows","10.0","https://app.prolific.com/","en-US,en;q=0.9,sv-SE;q=0.8,sv;q=0.7,sl-SI;q=0.6,sl;q=0.5,de;q=0.4,ko;q=0.3","647df23a62de26114fdcb29c","683db6dfa200031b80f2a654","68650784c3087d7c97846950","647df23a62de26114fdcb29c","2025-07-02T10:43:53.453Z","","","","","","StressQ","","","","","","","","","","","","","","","","","","","","","","","","","","","","","","","","","","","","","","50"
"2359","","<div style=""width:500px;"">
  <p>What best describes how you currently feel?</p>
  </div>","100","html-slider-response","80","1275041","0.0-10.0-4.7","164","1","2025-07-02 10:22:38","80fe4187154257d5fb01684ea91b68b9","83.233.136.197","Mozilla/5.0 (Windows NT 10.0; Win64; x64) AppleWebKit/537.36 (KHTML, like Gecko) Chrome/137.0.0.0 Safari/537.36","WebKit","Chrome","137.0.0.0","Windows","10.0","https://app.prolific.com/","en-US,en;q=0.9,sv-SE;q=0.8,sv;q=0.7,sl-SI;q=0.6,sl;q=0.5,de;q=0.4,ko;q=0.3","647df23a62de26114fdcb29c","683db6dfa200031b80f2a654","68650784c3087d7c97846950","647df23a62de26114fdcb29c","2025-07-02T10:43:55.815Z","","","","","","MotivationQ","","","","","","","","","","","","","","","","","","","","","","","","","","","","","","","","","","","","","","50"
