"rt","response_timestamp","stimulus","response","trial_type","trial_index","time_elapsed","internal_node_id","run_id","condition","recorded_at","source_code_version","ip","user_agent","device","browser","browser_version","platform","platform_version","referer","accept_language","PROLIFIC_PID","STUDY_ID","SESSION_ID","prolific_id","realtime","view_history","question_order","consent","success","question_id","eventType","responses","item_order","radio_event_ids","radio_event_times","key_event_times","mouse_event_times","straightlining","zigzagging","honeypot","which_type","canvas_config","goals_layout","control_level","trial_number","tutorial_trial_number","trial_start_time","phase1_start_time","phase2_start_time","phase3_start_time","goal_1_value","goal_1_distance","goal_2_value","goal_2_distance","goal_selected","outcome","outcome_total","participant_final_score","participant_initial_score","participant_final_score_prop","goal_choice_rt","allocated_time","allocated_time_remaining","goal_direction","counts","mouse_movements","key_presses","correct","slider_start"
"4493","1751451568974","<p style='font-size:40px;line-height:1.25'><strong>Welcome to the experiment!</strong></p><p style='font-size:1.1em;line-height:1.25'>Thank you for your interest in our experiment! Before you begin, it is important that we obtain your informed consent to participate in the study.</p><p style='font-size:1.1em;line-height:1.25'>On the next screen will be an <strong>information sheet</strong> for you to read. To participate in the study we need you to read this information sheet and the following consent form carefully. If you agree with all the statements, please click the <strong>I agree</strong> button.</p><p style='font-size:1.1em;line-height:1.25'>Press <strong>Next</strong> to read the information sheet.</p>","0","custom-html-button-response","0","4494","0.0-0.0","100","1","2025-07-02 10:19:23","80fe4187154257d5fb01684ea91b68b9","82.149.7.50","Mozilla/5.0 (Windows NT 10.0; Win64; x64) AppleWebKit/537.36 (KHTML, like Gecko) Chrome/137.0.0.0 Safari/537.36","WebKit","Chrome","137.0.0.0","Windows","10.0","https://app.prolific.com/","sl,en-GB;q=0.9,en;q=0.8,de;q=0.7","64e8b7ad5bda4b68d63f3e16","683db6dfa200031b80f2a654","686507830826abecd3e6a94e","64e8b7ad5bda4b68d63f3e16","2025-07-02T10:19:28.974Z","","","","","","","","","","","","","","","","","","","","","","","","","","","","","","","","","","","","","","","","","","","",""
"5794","","","","instructions","1","10289","0.0-1.0","100","1","2025-07-02 10:19:23","80fe4187154257d5fb01684ea91b68b9","82.149.7.50","Mozilla/5.0 (Windows NT 10.0; Win64; x64) AppleWebKit/537.36 (KHTML, like Gecko) Chrome/137.0.0.0 Safari/537.36","WebKit","Chrome","137.0.0.0","Windows","10.0","https://app.prolific.com/","sl,en-GB;q=0.9,en;q=0.8,de;q=0.7","64e8b7ad5bda4b68d63f3e16","683db6dfa200031b80f2a654","686507830826abecd3e6a94e","64e8b7ad5bda4b68d63f3e16","","[{""page_index"":0,""viewing_time"":4242},{""page_index"":1,""viewing_time"":1552}]","","","","","","","","","","","","","","","","","","","","","","","","","","","","","","","","","","","","","","","","","","",""
"5002","","","{""Q0"":"""",""Q1"":"""",""Q2"":"""",""Q3"":"""",""Q4"":"""",""Q5"":"""",""Q6"":""I agree""}","survey-multi-choice","2","15293","0.0-2.0","100","1","2025-07-02 10:19:23","80fe4187154257d5fb01684ea91b68b9","82.149.7.50","Mozilla/5.0 (Windows NT 10.0; Win64; x64) AppleWebKit/537.36 (KHTML, like Gecko) Chrome/137.0.0.0 Safari/537.36","WebKit","Chrome","137.0.0.0","Windows","10.0","https://app.prolific.com/","sl,en-GB;q=0.9,en;q=0.8,de;q=0.7","64e8b7ad5bda4b68d63f3e16","683db6dfa200031b80f2a654","686507830826abecd3e6a94e","64e8b7ad5bda4b68d63f3e16","","","[0,1,2,3,4,5,6]","true","","","","","","","","","","","","","","","","","","","","","","","","","","","","","","","","","","","","","","","","",""
"8858","","","","fullscreen","3","25160","0.0-4.0","100","1","2025-07-02 10:19:23","80fe4187154257d5fb01684ea91b68b9","82.149.7.50","Mozilla/5.0 (Windows NT 10.0; Win64; x64) AppleWebKit/537.36 (KHTML, like Gecko) Chrome/137.0.0.0 Safari/537.36","WebKit","Chrome","137.0.0.0","Windows","10.0","https://app.prolific.com/","sl,en-GB;q=0.9,en;q=0.8,de;q=0.7","64e8b7ad5bda4b68d63f3e16","683db6dfa200031b80f2a654","686507830826abecd3e6a94e","64e8b7ad5bda4b68d63f3e16","","","","","true","","","","","","","","","","","","","","","","","","","","","","","","","","","","","","","","","","","","","","","",""
"3758","1751451593403"," <p style='font-size:1.1em;line-height:1.25'>Thank you for completing the consent form and closing all other tabs.</p><p style='font-size:1.1em;line-height:1.25'>We will now invite you to fill in some demographic information and questionnaires, before starting the game.<br>This will take about 5 minutes.<br></p><p style='font-size:1.1em;line-height:1.25'>Press the <strong>Next</strong> button to continue.</p>","0","custom-html-button-response","4","28923","0.0-5.0","100","1","2025-07-02 10:19:23","80fe4187154257d5fb01684ea91b68b9","82.149.7.50","Mozilla/5.0 (Windows NT 10.0; Win64; x64) AppleWebKit/537.36 (KHTML, like Gecko) Chrome/137.0.0.0 Safari/537.36","WebKit","Chrome","137.0.0.0","Windows","10.0","https://app.prolific.com/","sl,en-GB;q=0.9,en;q=0.8,de;q=0.7","64e8b7ad5bda4b68d63f3e16","683db6dfa200031b80f2a654","686507830826abecd3e6a94e","64e8b7ad5bda4b68d63f3e16","2025-07-02T10:19:53.403Z","","","","","","","","","","","","","","","","","","","","","","","","","","","","","","","","","","","","","","","","","","","",""
"3125","","","{""age"":""21""}","survey-text","5","32050","0.0-6.0-0.0","100","1","2025-07-02 10:19:23","80fe4187154257d5fb01684ea91b68b9","82.149.7.50","Mozilla/5.0 (Windows NT 10.0; Win64; x64) AppleWebKit/537.36 (KHTML, like Gecko) Chrome/137.0.0.0 Safari/537.36","WebKit","Chrome","137.0.0.0","Windows","10.0","https://app.prolific.com/","sl,en-GB;q=0.9,en;q=0.8,de;q=0.7","64e8b7ad5bda4b68d63f3e16","683db6dfa200031b80f2a654","686507830826abecd3e6a94e","64e8b7ad5bda4b68d63f3e16","","","","","","0","demographics","","","","","","","","","","","","","","","","","","","","","","","","","","","","","","","","","","","","","",""
"3125","","","{""gender_identity"":""male/man""}","survey-multi-choice","6","35175","0.0-6.0-1.0","100","1","2025-07-02 10:19:23","80fe4187154257d5fb01684ea91b68b9","82.149.7.50","Mozilla/5.0 (Windows NT 10.0; Win64; x64) AppleWebKit/537.36 (KHTML, like Gecko) Chrome/137.0.0.0 Safari/537.36","WebKit","Chrome","137.0.0.0","Windows","10.0","https://app.prolific.com/","sl,en-GB;q=0.9,en;q=0.8,de;q=0.7","64e8b7ad5bda4b68d63f3e16","683db6dfa200031b80f2a654","686507830826abecd3e6a94e","64e8b7ad5bda4b68d63f3e16","","","[0]","","","1","demographics","","","","","","","","","","","","","","","","","","","","","","","","","","","","","","","","","","","","","",""
"3051","","","{""assigned_sex"":""male""}","survey-multi-choice","7","38228","0.0-6.0-2.0","100","1","2025-07-02 10:19:23","80fe4187154257d5fb01684ea91b68b9","82.149.7.50","Mozilla/5.0 (Windows NT 10.0; Win64; x64) AppleWebKit/537.36 (KHTML, like Gecko) Chrome/137.0.0.0 Safari/537.36","WebKit","Chrome","137.0.0.0","Windows","10.0","https://app.prolific.com/","sl,en-GB;q=0.9,en;q=0.8,de;q=0.7","64e8b7ad5bda4b68d63f3e16","683db6dfa200031b80f2a654","686507830826abecd3e6a94e","64e8b7ad5bda4b68d63f3e16","","","[0]","","","2","demographics","","","","","","","","","","","","","","","","","","","","","","","","","","","","","","","","","","","","","",""
"2809","","","{""menstrual_cycle"":""No""}","survey-multi-choice","8","41037","0.0-6.0-3.0","100","1","2025-07-02 10:19:23","80fe4187154257d5fb01684ea91b68b9","82.149.7.50","Mozilla/5.0 (Windows NT 10.0; Win64; x64) AppleWebKit/537.36 (KHTML, like Gecko) Chrome/137.0.0.0 Safari/537.36","WebKit","Chrome","137.0.0.0","Windows","10.0","https://app.prolific.com/","sl,en-GB;q=0.9,en;q=0.8,de;q=0.7","64e8b7ad5bda4b68d63f3e16","683db6dfa200031b80f2a654","686507830826abecd3e6a94e","64e8b7ad5bda4b68d63f3e16","","","[0]","","","4","demographics","","","","","","","","","","","","","","","","","","","","","","","","","","","","","","","","","","","","","",""
"17543","","","{""education"":""Higher National Diploma""}","survey-multi-choice","9","58582","0.0-6.0-4.0","100","1","2025-07-02 10:19:23","80fe4187154257d5fb01684ea91b68b9","82.149.7.50","Mozilla/5.0 (Windows NT 10.0; Win64; x64) AppleWebKit/537.36 (KHTML, like Gecko) Chrome/137.0.0.0 Safari/537.36","WebKit","Chrome","137.0.0.0","Windows","10.0","https://app.prolific.com/","sl,en-GB;q=0.9,en;q=0.8,de;q=0.7","64e8b7ad5bda4b68d63f3e16","683db6dfa200031b80f2a654","686507830826abecd3e6a94e","64e8b7ad5bda4b68d63f3e16","","","[0]","","","5","demographics","","","","","","","","","","","","","","","","","","","","","","","","","","","","","","","","","","","","","",""
"4200","","","{""education"":""Bachelor's Degree (e.g., BA)""}","survey-multi-choice","10","62782","0.0-6.0-5.0","100","1","2025-07-02 10:19:23","80fe4187154257d5fb01684ea91b68b9","82.149.7.50","Mozilla/5.0 (Windows NT 10.0; Win64; x64) AppleWebKit/537.36 (KHTML, like Gecko) Chrome/137.0.0.0 Safari/537.36","WebKit","Chrome","137.0.0.0","Windows","10.0","https://app.prolific.com/","sl,en-GB;q=0.9,en;q=0.8,de;q=0.7","64e8b7ad5bda4b68d63f3e16","683db6dfa200031b80f2a654","686507830826abecd3e6a94e","64e8b7ad5bda4b68d63f3e16","2025-07-02T10:20:27.262Z","","[0]","","","6","demographics","","","","","","","","","","","","","","","","","","","","","","","","","","","","","","","","","","","","","",""
"7790","","","{""mental_health_condition"":"""",""mental_health_treatment"":"""",""psychiatric_medication"":""""}","survey-text","11","70574","0.0-7.0-0.0","100","1","2025-07-02 10:19:23","80fe4187154257d5fb01684ea91b68b9","82.149.7.50","Mozilla/5.0 (Windows NT 10.0; Win64; x64) AppleWebKit/537.36 (KHTML, like Gecko) Chrome/137.0.0.0 Safari/537.36","WebKit","Chrome","137.0.0.0","Windows","10.0","https://app.prolific.com/","sl,en-GB;q=0.9,en;q=0.8,de;q=0.7","64e8b7ad5bda4b68d63f3e16","683db6dfa200031b80f2a654","686507830826abecd3e6a94e","64e8b7ad5bda4b68d63f3e16","2025-07-02T10:20:35.054Z","","","","","1","mental_health","","","","","","","","","","","","","","","","","","","","","","","","","","","","","","","","","","","","","",""
"7900","","","{""depression_history"":[""No""]}","survey-multi-select","12","78475","0.0-7.0-1.0","100","1","2025-07-02 10:19:23","80fe4187154257d5fb01684ea91b68b9","82.149.7.50","Mozilla/5.0 (Windows NT 10.0; Win64; x64) AppleWebKit/537.36 (KHTML, like Gecko) Chrome/137.0.0.0 Safari/537.36","WebKit","Chrome","137.0.0.0","Windows","10.0","https://app.prolific.com/","sl,en-GB;q=0.9,en;q=0.8,de;q=0.7","64e8b7ad5bda4b68d63f3e16","683db6dfa200031b80f2a654","686507830826abecd3e6a94e","64e8b7ad5bda4b68d63f3e16","","","[0]","","","","mental_health","","","","","","","","","","","","","","","","","","","","","","","","","","","","","","","","","","","","","",""
"45257.39999961853","","","","survey-template","13","123739","0.0-7.0-3.0","100","1","2025-07-02 10:19:23","80fe4187154257d5fb01684ea91b68b9","82.149.7.50","Mozilla/5.0 (Windows NT 10.0; Win64; x64) AppleWebKit/537.36 (KHTML, like Gecko) Chrome/137.0.0.0 Safari/537.36","WebKit","Chrome","137.0.0.0","Windows","10.0","https://app.prolific.com/","sl,en-GB;q=0.9,en;q=0.8,de;q=0.7","64e8b7ad5bda4b68d63f3e16","683db6dfa200031b80f2a654","686507830826abecd3e6a94e","64e8b7ad5bda4b68d63f3e16","2025-07-02T10:21:28.219Z","","","","","","ius","{""Q01"":""3"",""Q02"":""4"",""Q03"":""2"",""Q04"":""3"",""Q05"":""3"",""Q06"":""3"",""Q07"":""4"",""Q08"":""0"",""Q09"":""2"",""Q10"":""3"",""Q11"":""3"",""Q12"":""4"",""Q13"":""2""}","[0,1,2,3,4,5,6,7,8,9,10,11,12]","[""Q01"",""Q02"",""Q03"",""Q04"",""Q05"",""Q06"",""Q06"",""Q07"",""Q08"",""Q09"",""Q10"",""Q11"",""Q13"",""Q13"",""Q12"",""Q12""]","[4245.199999809265,9470.099999904633,10408.199999809265,14959.5,18616.299999713898,21455.799999713898,22623.099999904633,24722.799999713898,27653.099999904633,30806.099999904633,33329.39999961853,35568.09999990463,39957.5,41166.89999961853,42202.09999990463,44185.7999997139]","[]","[4245.199999809265,8143.099999904633,9470.099999904633,10408.199999809265,12836.199999809265,14095,14959.5,18616.299999713898,21455.799999713898,22623.099999904633,24216.099999904633,24722.799999713898,27027.599999904633,27653.099999904633,30806.099999904633,33329.39999961853,35568.09999990463,37831.89999961853,39957.5,40548.5,41166.89999961853,42202.09999990463,43424.699999809265,44185.7999997139,45255.5]","0.46153846153846156","0.5","0","","","","","","","","","","","","","","","","","","","","","","","","","","","","",""
"2841","1751451691061","<p style='font-size:1.1em;line-height:1.25'>In the following, we will ask you a few questions relating to your experiences over the past month.<br></p><p style='font-size:1.1em;line-height:1.25'>Press the <strong>Next</strong> button to continue.</p>","0","custom-html-button-response","14","126581","0.0-7.0-4.0","100","1","2025-07-02 10:19:23","80fe4187154257d5fb01684ea91b68b9","82.149.7.50","Mozilla/5.0 (Windows NT 10.0; Win64; x64) AppleWebKit/537.36 (KHTML, like Gecko) Chrome/137.0.0.0 Safari/537.36","WebKit","Chrome","137.0.0.0","Windows","10.0","https://app.prolific.com/","sl,en-GB;q=0.9,en;q=0.8,de;q=0.7","64e8b7ad5bda4b68d63f3e16","683db6dfa200031b80f2a654","686507830826abecd3e6a94e","64e8b7ad5bda4b68d63f3e16","2025-07-02T10:21:31.061Z","","","","","","","","","","","","","","","","","","","","","","","","","","","","","","","","","","","","","","","","","","","",""
"49652.2999997139","","","","survey-template","15","176238","0.0-7.0-5.0","100","1","2025-07-02 10:19:23","80fe4187154257d5fb01684ea91b68b9","82.149.7.50","Mozilla/5.0 (Windows NT 10.0; Win64; x64) AppleWebKit/537.36 (KHTML, like Gecko) Chrome/137.0.0.0 Safari/537.36","WebKit","Chrome","137.0.0.0","Windows","10.0","https://app.prolific.com/","sl,en-GB;q=0.9,en;q=0.8,de;q=0.7","64e8b7ad5bda4b68d63f3e16","683db6dfa200031b80f2a654","686507830826abecd3e6a94e","64e8b7ad5bda4b68d63f3e16","2025-07-02T10:22:20.718Z","","","","","","pss","{""Q01"":""3"",""Q02"":""2"",""Q03"":""4"",""Q04"":""2"",""Q05"":""3"",""Q06"":""3"",""Q07"":""2"",""Q08"":""3"",""Q09"":""2"",""Q10"":""3""}","[0,1,2,3,4,5,6,7,8,9]","[""Q01"",""Q02"",""Q03"",""Q04"",""Q05"",""Q06"",""Q07"",""Q08"",""Q09"",""Q10""]","[14881.799999713898,17937.799999713898,20367.299999713898,25931.5,30015.39999961853,33052,36311.39999961853,40384.59999990463,45974.39999961853,48837.89999961853]","[]","[0,14881.799999713898,17937.799999713898,20367.299999713898,24967.099999904633,25931.5,29375.699999809265,30015.39999961853,33052,36311.39999961853,40384.59999990463,45974.39999961853,48837.89999961853,49650.89999961853]","0.4","0.6666666666666666","0","","","","","","","","","","","","","","","","","","","","","","","","","","","","",""
"3093","1751451743812","<p style='font-size:1.1em;line-height:1.25'>Thank you for your answers! Now we will ask you a few more questions relating to your feelings in the last 24 hours.<br></p><p style='font-size:1.1em;line-height:1.25'>Press the <strong>Next</strong> button to continue.</p>","0","custom-html-button-response","16","179333","0.0-7.0-6.0","100","1","2025-07-02 10:19:23","80fe4187154257d5fb01684ea91b68b9","82.149.7.50","Mozilla/5.0 (Windows NT 10.0; Win64; x64) AppleWebKit/537.36 (KHTML, like Gecko) Chrome/137.0.0.0 Safari/537.36","WebKit","Chrome","137.0.0.0","Windows","10.0","https://app.prolific.com/","sl,en-GB;q=0.9,en;q=0.8,de;q=0.7","64e8b7ad5bda4b68d63f3e16","683db6dfa200031b80f2a654","686507830826abecd3e6a94e","64e8b7ad5bda4b68d63f3e16","2025-07-02T10:22:23.813Z","","","","","","","","","","","","","","","","","","","","","","","","","","","","","","","","","","","","","","","","","","","",""
"63350.5","","","","survey-template","17","242689","0.0-7.0-7.0","100","1","2025-07-02 10:19:23","80fe4187154257d5fb01684ea91b68b9","82.149.7.50","Mozilla/5.0 (Windows NT 10.0; Win64; x64) AppleWebKit/537.36 (KHTML, like Gecko) Chrome/137.0.0.0 Safari/537.36","WebKit","Chrome","137.0.0.0","Windows","10.0","https://app.prolific.com/","sl,en-GB;q=0.9,en;q=0.8,de;q=0.7","64e8b7ad5bda4b68d63f3e16","683db6dfa200031b80f2a654","686507830826abecd3e6a94e","64e8b7ad5bda4b68d63f3e16","2025-07-02T10:23:27.170Z","","","","","","drsp","{""Q01"":""1"",""Q02"":""1"",""Q03"":""2"",""Q04"":""3"",""Q05"":""1"",""Q06"":""2"",""Q07"":""2"",""Q08"":""0"",""Q09"":""4"",""Q10"":""3"",""Q11"":""5"",""Q12"":""1"",""Q13"":""1"",""Q14"":""4"",""Q15"":""4"",""Q16"":""3"",""Q17"":""3"",""Q18"":""0"",""Q19"":""5"",""Q20"":""3"",""Q21"":""3""}","[0,1,2,3,4,5,6,7,8,9,10,11,12,13,14,15,16,17,18,19,20]","[""Q01"",""Q02"",""Q03"",""Q04"",""Q05"",""Q06"",""Q07"",""Q08"",""Q09"",""Q10"",""Q11"",""Q12"",""Q13"",""Q12"",""Q14"",""Q15"",""Q16"",""Q17"",""Q18"",""Q19"",""Q19"",""Q20"",""Q21"",""Q21"",""Q21""]","[3199.0999999046326,4123.099999904633,5872.400000095367,7422.700000286102,14499.700000286102,15757.5,17086.300000190735,21290.400000095367,22496,24714,27091.200000286102,29146.599999904633,30952.400000095367,32594.700000286102,36182.90000009537,38745.800000190735,41208.5,42473.09999990463,48512.5,54029.5,54842.40000009537,57720.5,60151,61353.2000002861,62528.40000009537]","[]","[0,2386,3199.0999999046326,4123.099999904633,5872.400000095367,7422.700000286102,9303.700000286102,14499.700000286102,15757.5,17086.300000190735,19164.800000190735,20637.5,21290.400000095367,22496,24714,27091.200000286102,29146.599999904633,30487,30952.400000095367,32594.700000286102,36182.90000009537,38745.800000190735,41208.5,42473.09999990463,44498.59999990463,46907.300000190735,47532.7000002861,48512.5,54029.5,54842.40000009537,57720.5,60151,61353.2000002861,62528.40000009537,63348.09999990463]","0.2857142857142857","0.3","0","","","","","","","","","","","","","","","","","","","","","","","","","","","","",""
"10407.400000095367","","","","survey-template","18","253098","0.0-7.0-8.0","100","1","2025-07-02 10:19:23","80fe4187154257d5fb01684ea91b68b9","82.149.7.50","Mozilla/5.0 (Windows NT 10.0; Win64; x64) AppleWebKit/537.36 (KHTML, like Gecko) Chrome/137.0.0.0 Safari/537.36","WebKit","Chrome","137.0.0.0","Windows","10.0","https://app.prolific.com/","sl,en-GB;q=0.9,en;q=0.8,de;q=0.7","64e8b7ad5bda4b68d63f3e16","683db6dfa200031b80f2a654","686507830826abecd3e6a94e","64e8b7ad5bda4b68d63f3e16","2025-07-02T10:23:37.578Z","","","","","","stress","{""Q01"":""4"",""Q02"":""3"",""Q03"":""3""}","[0,1,2]","[""Q01"",""Q02"",""Q03""]","[3756.4000000953674,5912,9392.60000038147]","[]","[3756.4000000953674,5912,8093.300000190735,9392.60000038147,10406.900000095367]","0.3333333333333333","0.5","0","","","","","","","","","","","","","","","","","","","","","","","","","","","","",""
"58788","","","","instructions","19","311890","0.0-8.0-0.0","100","1","2025-07-02 10:19:23","80fe4187154257d5fb01684ea91b68b9","82.149.7.50","Mozilla/5.0 (Windows NT 10.0; Win64; x64) AppleWebKit/537.36 (KHTML, like Gecko) Chrome/137.0.0.0 Safari/537.36","WebKit","Chrome","137.0.0.0","Windows","10.0","https://app.prolific.com/","sl,en-GB;q=0.9,en;q=0.8,de;q=0.7","64e8b7ad5bda4b68d63f3e16","683db6dfa200031b80f2a654","686507830826abecd3e6a94e","64e8b7ad5bda4b68d63f3e16","","[{""page_index"":0,""viewing_time"":17239},{""page_index"":1,""viewing_time"":17172},{""page_index"":2,""viewing_time"":7465},{""page_index"":3,""viewing_time"":16913}]","","","","","","","","","","","","","","","","","","","","","","","","","","","","","","","","","","","","","","","","","","",""
"","","","","ctl-task-cpt","20","341666","0.0-8.0-1.0","100","1","2025-07-02 10:19:23","80fe4187154257d5fb01684ea91b68b9","82.149.7.50","Mozilla/5.0 (Windows NT 10.0; Win64; x64) AppleWebKit/537.36 (KHTML, like Gecko) Chrome/137.0.0.0 Safari/537.36","WebKit","Chrome","137.0.0.0","Windows","10.0","https://app.prolific.com/","sl,en-GB;q=0.9,en;q=0.8,de;q=0.7","64e8b7ad5bda4b68d63f3e16","683db6dfa200031b80f2a654","686507830826abecd3e6a94e","64e8b7ad5bda4b68d63f3e16","","","","","","","","","","","","","","","","","win-only","2","g1:SE,g2:NW","1","0","1","313047.6","2434.5","6436.8","26770.7","2","4","4","6","1","2","0","0","0","0","2384.9","4000","2175","[""down"",""right""]","{""num_key_presses"":6,""num_perfect"":4,""num_errors"":2,""num_randdir"":0,""num_randdir_good_moves"":0,""num_whilered"":0,""num_whileblue"":0,""num_blue"":2,""num_good_moves"":4}","[419.0714133126395,422.82142761775424,0.2,419.0714133126395,422.82142761775424,100.8,419.0714133126395,422.82142761775424,201.5,419.0714133126395,422.82142761775424,301.8,419.0714133126395,422.82142761775424,407.1,419.0714133126395,422.82142761775424,511.2,419.0714133126395,422.82142761775424,611.4,419.0714133126395,422.82142761775424,711.4,419.0714133126395,422.82142761775424,815.8,419.0714133126395,422.82142761775424,916.7,419.0714133126395,422.82142761775424,1022.4,419.0714133126395,422.82142761775424,1127,419.0714133126395,422.82142761775424,1227.2,419.0714133126395,422.82142761775424,1331.1,419.0714133126395,422.82142761775424,1436.3,555.3214133126395,542.8214276177542,1536.3,670.3214133126395,697.8214276177542,1641.3,699.0714133126395,715.3214276177542,1741.4,730.3214133126395,717.8214276177542,1842,746.5714133126395,732.8214276177542,1947,751.5714133126395,739.0714276177542,2051.7,751.5714133126395,740.3214276177542,2156.1,751.5714133126395,740.3214276177542,2257.2,749.0714133126395,739.0714276177542,2361.5,749.0714133126395,739.0714276177542,2461.7,749.0714133126395,739.0714276177542,2568.4,749.0714133126395,739.0714276177542,2668.5,749.0714133126395,739.0714276177542,2768.7,749.0714133126395,739.0714276177542,2868.9,749.0714133126395,739.0714276177542,2971.4,749.0714133126395,739.0714276177542,3076,749.0714133126395,739.0714276177542,3177.1,749.0714133126395,739.0714276177542,3284.9,749.0714133126395,739.0714276177542,3384.9,749.0714133126395,739.0714276177542,3485,749.0714133126395,739.0714276177542,3585.1,749.0714133126395,739.0714276177542,3685.3,749.0714133126395,739.0714276177542,3785.6,749.0714133126395,739.0714276177542,3886.3,749.0714133126395,739.0714276177542,3990.8]","[1599.9,1599.9,1000,0,599.9,""smooth"",""right"",""right"",""good_move"",1866.2,266.1,2100,1600.2,-1834,""error"",""-"",""-"",""no_move"",5883.3,4017,2299.2,2869.1,715.1,""smooth"",""down"",""down"",""good_move"",6034.2,150.5,2611.7,5883.7,-2461.2,""error"",""-"",""-"",""no_move"",13888.6,7854.2,3299.6,10218.7,370.3,""smooth"",""down"",""down"",""good_move"",20222.7,6333.8,2582.7,17269.3,370.7,""smooth"",""right"",""right"",""good_move""]","",""
"15016","","","","instructions","21","356682","0.0-8.0-2.0","100","1","2025-07-02 10:19:23","80fe4187154257d5fb01684ea91b68b9","82.149.7.50","Mozilla/5.0 (Windows NT 10.0; Win64; x64) AppleWebKit/537.36 (KHTML, like Gecko) Chrome/137.0.0.0 Safari/537.36","WebKit","Chrome","137.0.0.0","Windows","10.0","https://app.prolific.com/","sl,en-GB;q=0.9,en;q=0.8,de;q=0.7","64e8b7ad5bda4b68d63f3e16","683db6dfa200031b80f2a654","686507830826abecd3e6a94e","64e8b7ad5bda4b68d63f3e16","","[{""page_index"":0,""viewing_time"":15016}]","","","","","","","","","","","","","","","","","","","","","","","","","","","","","","","","","","","","","","","","","","",""
"","","","","ctl-task-cpt","22","395744","0.0-8.0-3.0","100","1","2025-07-02 10:19:23","80fe4187154257d5fb01684ea91b68b9","82.149.7.50","Mozilla/5.0 (Windows NT 10.0; Win64; x64) AppleWebKit/537.36 (KHTML, like Gecko) Chrome/137.0.0.0 Safari/537.36","WebKit","Chrome","137.0.0.0","Windows","10.0","https://app.prolific.com/","sl,en-GB;q=0.9,en;q=0.8,de;q=0.7","64e8b7ad5bda4b68d63f3e16","683db6dfa200031b80f2a654","686507830826abecd3e6a94e","64e8b7ad5bda4b68d63f3e16","","","","","","","","","","","","","","","","","win-only","2","g1:SE,g2:NW","0.35","0","3","357836.3","946.3","4951.4","36040.6","2","4","8","6","2","8","8","8","0","0.06060606060606061","967.1","4000","1150","[""left"",""up""]","{""num_key_presses"":8,""num_perfect"":4,""num_errors"":0,""num_randdir"":4,""num_randdir_good_moves"":3,""num_whilered"":0,""num_whileblue"":0,""num_blue"":3,""num_good_moves"":7}","[421.5714133126395,416.57142761775424,0.1,421.5714133126395,416.57142761775424,104.8,421.5714133126395,416.57142761775424,209.5,421.5714133126395,416.57142761775424,314.9,396.5714133126395,401.57142761775424,418.9,201.5714133126395,224.07142761775424,524.3,141.5714133126395,147.82142761775424,624.8,129.0714133126395,131.57142761775424,729.4,121.5714133126395,124.07142761775425,829.8,111.5714133126395,107.82142761775425,929.8,109.0714133126395,102.82142761775425,1030.2,109.0714133126395,102.82142761775425,1134.7,109.0714133126395,102.82142761775425,1239.6,109.0714133126395,102.82142761775425,1344.3,109.0714133126395,102.82142761775425,1444.9,109.0714133126395,102.82142761775425,1549.2,109.0714133126395,102.82142761775425,1654,109.0714133126395,102.82142761775425,1754.1,109.0714133126395,102.82142761775425,1859.5,109.0714133126395,102.82142761775425,1959.5,109.0714133126395,102.82142761775425,2059.6,109.0714133126395,102.82142761775425,2164.2,109.0714133126395,102.82142761775425,2264.2,109.0714133126395,102.82142761775425,2368.8,109.0714133126395,102.82142761775425,2469,109.0714133126395,102.82142761775425,2574.1,109.0714133126395,102.82142761775425,2674.4,109.0714133126395,102.82142761775425,2774.4,109.0714133126395,102.82142761775425,2874.5,109.0714133126395,102.82142761775425,2979.4,109.0714133126395,102.82142761775425,3084.5,109.0714133126395,102.82142761775425,3189.5,109.0714133126395,102.82142761775425,3294.6,109.0714133126395,102.82142761775425,3394.6,109.0714133126395,102.82142761775425,3494.8,109.0714133126395,102.82142761775425,3600.3,109.0714133126395,102.82142761775425,3704.1,109.0714133126395,102.82142761775425,3809.2,109.0714133126395,102.82142761775425,3909.5]","[4285.5,4285.5,1917.8,2004.4,363.3,""oops"",""up"",""left"",""good_move"",10170.2,5884.4,2039.7,7824,306.5,""oops"",""up"",""down"",""bad_move"",13331.6,3161.2,2652.9,10170.4,508.3,""oops"",""up"",""up"",""good_move"",19738.3,6406.4,2521.9,16929.5,286.9,""smooth"",""up"",""up"",""good_move"",22952.3,3213.9,2801.5,19738.4,412.4,""smooth"",""left"",""left"",""good_move"",26547.2,3594.7,3264.2,22952.5,330.5,""oops"",""up"",""left"",""good_move"",28697.2,2149.9,1748.4,26547.3,401.5,""smooth"",""up"",""up"",""good_move"",30993.2,2295.8,2007.4,28697.4,288.4,""smooth"",""up"",""up"",""good_move""]","",""
"58926","","","","instructions","23","454674","0.0-8.0-4.0","100","1","2025-07-02 10:19:23","80fe4187154257d5fb01684ea91b68b9","82.149.7.50","Mozilla/5.0 (Windows NT 10.0; Win64; x64) AppleWebKit/537.36 (KHTML, like Gecko) Chrome/137.0.0.0 Safari/537.36","WebKit","Chrome","137.0.0.0","Windows","10.0","https://app.prolific.com/","sl,en-GB;q=0.9,en;q=0.8,de;q=0.7","64e8b7ad5bda4b68d63f3e16","683db6dfa200031b80f2a654","686507830826abecd3e6a94e","64e8b7ad5bda4b68d63f3e16","","[{""page_index"":0,""viewing_time"":12687},{""page_index"":1,""viewing_time"":46239}]","","","","","","","","","","","","","","","","","","","","","","","","","","","","","","","","","","","","","","","","","","",""
"13849","","","{""green_ball"":[""Ball sometimes shakes and moves in a random direction""]}","survey-multi-select","24","468525","0.0-8.0-5.0-0.0","100","1","2025-07-02 10:19:23","80fe4187154257d5fb01684ea91b68b9","82.149.7.50","Mozilla/5.0 (Windows NT 10.0; Win64; x64) AppleWebKit/537.36 (KHTML, like Gecko) Chrome/137.0.0.0 Safari/537.36","WebKit","Chrome","137.0.0.0","Windows","10.0","https://app.prolific.com/","sl,en-GB;q=0.9,en;q=0.8,de;q=0.7","64e8b7ad5bda4b68d63f3e16","683db6dfa200031b80f2a654","686507830826abecd3e6a94e","64e8b7ad5bda4b68d63f3e16","","","[0]","","","","quiz","","","","","","","","","","","","","","","","","","","","","","","","","","","","","","","","","","","","","true",""
"1991","","<p align='center'><b>CORRECT!</b> Indeed, the green ball may sometimes shake and move in a random direction.</p>","0","html-button-response","25","470517","0.0-8.0-5.0-1.0","100","1","2025-07-02 10:19:23","80fe4187154257d5fb01684ea91b68b9","82.149.7.50","Mozilla/5.0 (Windows NT 10.0; Win64; x64) AppleWebKit/537.36 (KHTML, like Gecko) Chrome/137.0.0.0 Safari/537.36","WebKit","Chrome","137.0.0.0","Windows","10.0","https://app.prolific.com/","sl,en-GB;q=0.9,en;q=0.8,de;q=0.7","64e8b7ad5bda4b68d63f3e16","683db6dfa200031b80f2a654","686507830826abecd3e6a94e","64e8b7ad5bda4b68d63f3e16","","","","","","","","","","","","","","","","","","","","","","","","","","","","","","","","","","","","","","","","","","","","",""
"6336","","","{""yellow_ball"":[""Ball doesn‘t move and I get -1 penalty point""]}","survey-multi-select","26","476854","0.0-8.0-6.0-0.0","100","1","2025-07-02 10:19:23","80fe4187154257d5fb01684ea91b68b9","82.149.7.50","Mozilla/5.0 (Windows NT 10.0; Win64; x64) AppleWebKit/537.36 (KHTML, like Gecko) Chrome/137.0.0.0 Safari/537.36","WebKit","Chrome","137.0.0.0","Windows","10.0","https://app.prolific.com/","sl,en-GB;q=0.9,en;q=0.8,de;q=0.7","64e8b7ad5bda4b68d63f3e16","683db6dfa200031b80f2a654","686507830826abecd3e6a94e","64e8b7ad5bda4b68d63f3e16","","","[0]","","","","quiz","","","","","","","","","","","","","","","","","","","","","","","","","","","","","","","","","","","","","true",""
"1464","","<p align='center'><b>CORRECT!</b> Indeed, the yellow ball never moves and you receive a penalty.</p>","0","html-button-response","27","478319","0.0-8.0-6.0-1.0","100","1","2025-07-02 10:19:23","80fe4187154257d5fb01684ea91b68b9","82.149.7.50","Mozilla/5.0 (Windows NT 10.0; Win64; x64) AppleWebKit/537.36 (KHTML, like Gecko) Chrome/137.0.0.0 Safari/537.36","WebKit","Chrome","137.0.0.0","Windows","10.0","https://app.prolific.com/","sl,en-GB;q=0.9,en;q=0.8,de;q=0.7","64e8b7ad5bda4b68d63f3e16","683db6dfa200031b80f2a654","686507830826abecd3e6a94e","64e8b7ad5bda4b68d63f3e16","","","","","","","","","","","","","","","","","","","","","","","","","","","","","","","","","","","","","","","","","","","","",""
"6780","","","{""blue_ball"":[""Ball doesn‘t move and I get -1 penalty point""]}","survey-multi-select","28","485100","0.0-8.0-7.0-0.0","100","1","2025-07-02 10:19:23","80fe4187154257d5fb01684ea91b68b9","82.149.7.50","Mozilla/5.0 (Windows NT 10.0; Win64; x64) AppleWebKit/537.36 (KHTML, like Gecko) Chrome/137.0.0.0 Safari/537.36","WebKit","Chrome","137.0.0.0","Windows","10.0","https://app.prolific.com/","sl,en-GB;q=0.9,en;q=0.8,de;q=0.7","64e8b7ad5bda4b68d63f3e16","683db6dfa200031b80f2a654","686507830826abecd3e6a94e","64e8b7ad5bda4b68d63f3e16","","","[0]","","","","quiz","","","","","","","","","","","","","","","","","","","","","","","","","","","","","","","","","","","","","false",""
"2590","","<p align='center'><b>INCORRECT.</b> The blue ball always shakes and moves randomly.</p>","0","html-button-response","29","487691","0.0-8.0-7.0-1.0","100","1","2025-07-02 10:19:23","80fe4187154257d5fb01684ea91b68b9","82.149.7.50","Mozilla/5.0 (Windows NT 10.0; Win64; x64) AppleWebKit/537.36 (KHTML, like Gecko) Chrome/137.0.0.0 Safari/537.36","WebKit","Chrome","137.0.0.0","Windows","10.0","https://app.prolific.com/","sl,en-GB;q=0.9,en;q=0.8,de;q=0.7","64e8b7ad5bda4b68d63f3e16","683db6dfa200031b80f2a654","686507830826abecd3e6a94e","64e8b7ad5bda4b68d63f3e16","","","","","","","","","","","","","","","","","","","","","","","","","","","","","","","","","","","","","","","","","","","","",""
"5067","","","{""blue_ball"":[""Ball always shakes and moves in a random direction""]}","survey-multi-select","30","492759","0.0-8.0-7.1-0.1","100","1","2025-07-02 10:19:23","80fe4187154257d5fb01684ea91b68b9","82.149.7.50","Mozilla/5.0 (Windows NT 10.0; Win64; x64) AppleWebKit/537.36 (KHTML, like Gecko) Chrome/137.0.0.0 Safari/537.36","WebKit","Chrome","137.0.0.0","Windows","10.0","https://app.prolific.com/","sl,en-GB;q=0.9,en;q=0.8,de;q=0.7","64e8b7ad5bda4b68d63f3e16","683db6dfa200031b80f2a654","686507830826abecd3e6a94e","64e8b7ad5bda4b68d63f3e16","","","[0]","","","","quiz","","","","","","","","","","","","","","","","","","","","","","","","","","","","","","","","","","","","","true",""
"2686","","<p align='center'><b>CORRECT!</b> Indeed, the blue ball always shakes and moves in a random direction. Also there is a penalty of -1 point.</p>","0","html-button-response","31","495446","0.0-8.0-7.1-1.1","100","1","2025-07-02 10:19:23","80fe4187154257d5fb01684ea91b68b9","82.149.7.50","Mozilla/5.0 (Windows NT 10.0; Win64; x64) AppleWebKit/537.36 (KHTML, like Gecko) Chrome/137.0.0.0 Safari/537.36","WebKit","Chrome","137.0.0.0","Windows","10.0","https://app.prolific.com/","sl,en-GB;q=0.9,en;q=0.8,de;q=0.7","64e8b7ad5bda4b68d63f3e16","683db6dfa200031b80f2a654","686507830826abecd3e6a94e","64e8b7ad5bda4b68d63f3e16","","","","","","","","","","","","","","","","","","","","","","","","","","","","","","","","","","","","","","","","","","","","",""
"3181","","","{""bonus"":[""When I reach 50% of points""]}","survey-multi-select","32","498629","0.0-8.0-8.0-0.0","100","1","2025-07-02 10:19:23","80fe4187154257d5fb01684ea91b68b9","82.149.7.50","Mozilla/5.0 (Windows NT 10.0; Win64; x64) AppleWebKit/537.36 (KHTML, like Gecko) Chrome/137.0.0.0 Safari/537.36","WebKit","Chrome","137.0.0.0","Windows","10.0","https://app.prolific.com/","sl,en-GB;q=0.9,en;q=0.8,de;q=0.7","64e8b7ad5bda4b68d63f3e16","683db6dfa200031b80f2a654","686507830826abecd3e6a94e","64e8b7ad5bda4b68d63f3e16","","","[0]","","","","quiz","","","","","","","","","","","","","","","","","","","","","","","","","","","","","","","","","","","","","true",""
"1677","","<p align='center'><b>CORRECT!</b> Indeed, you receive 2 pounds extra when you reach 50% of points.</p>","0","html-button-response","33","500306","0.0-8.0-8.0-1.0","100","1","2025-07-02 10:19:23","80fe4187154257d5fb01684ea91b68b9","82.149.7.50","Mozilla/5.0 (Windows NT 10.0; Win64; x64) AppleWebKit/537.36 (KHTML, like Gecko) Chrome/137.0.0.0 Safari/537.36","WebKit","Chrome","137.0.0.0","Windows","10.0","https://app.prolific.com/","sl,en-GB;q=0.9,en;q=0.8,de;q=0.7","64e8b7ad5bda4b68d63f3e16","683db6dfa200031b80f2a654","686507830826abecd3e6a94e","64e8b7ad5bda4b68d63f3e16","","","","","","","","","","","","","","","","","","","","","","","","","","","","","","","","","","","","","","","","","","","","",""
"1846","","","","instructions","34","502153","0.0-8.0-9.0","100","1","2025-07-02 10:19:23","80fe4187154257d5fb01684ea91b68b9","82.149.7.50","Mozilla/5.0 (Windows NT 10.0; Win64; x64) AppleWebKit/537.36 (KHTML, like Gecko) Chrome/137.0.0.0 Safari/537.36","WebKit","Chrome","137.0.0.0","Windows","10.0","https://app.prolific.com/","sl,en-GB;q=0.9,en;q=0.8,de;q=0.7","64e8b7ad5bda4b68d63f3e16","683db6dfa200031b80f2a654","686507830826abecd3e6a94e","64e8b7ad5bda4b68d63f3e16","","[{""page_index"":0,""viewing_time"":1846}]","","","","","","","","","","","","","","","","","","","","","","","","","","","","","","","","","","","","","","","","","","",""
"15756","","<p>Before you start with this game please answer the following three questions yourself. </p>
  <p>Through this game, we measure several aspects of your cognitive performance, such as reaction times, multi-tasking capabilities </p>
  <p>and the ability to assess the situation you are in.</p>
  <p></p>
  <p><b>How good do you usually are in such tasks?</b></p>","75","html-slider-response","35","517913","0.0-9.0-0.0","100","1","2025-07-02 10:19:23","80fe4187154257d5fb01684ea91b68b9","82.149.7.50","Mozilla/5.0 (Windows NT 10.0; Win64; x64) AppleWebKit/537.36 (KHTML, like Gecko) Chrome/137.0.0.0 Safari/537.36","WebKit","Chrome","137.0.0.0","Windows","10.0","https://app.prolific.com/","sl,en-GB;q=0.9,en;q=0.8,de;q=0.7","64e8b7ad5bda4b68d63f3e16","683db6dfa200031b80f2a654","686507830826abecd3e6a94e","64e8b7ad5bda4b68d63f3e16","2025-07-02T10:28:02.393Z","","","","","","PreSkillQ","","","","","","","","","","","","","","","","","","","","","","","","","","","","","","","","","","","","","","50"
"3497","","<div style=""width:500px;"">
  <p>How well do you think you will perform in this task compared to other participants?</p>
  </div>","65","html-slider-response","36","521411","0.0-9.0-1.0","100","1","2025-07-02 10:19:23","80fe4187154257d5fb01684ea91b68b9","82.149.7.50","Mozilla/5.0 (Windows NT 10.0; Win64; x64) AppleWebKit/537.36 (KHTML, like Gecko) Chrome/137.0.0.0 Safari/537.36","WebKit","Chrome","137.0.0.0","Windows","10.0","https://app.prolific.com/","sl,en-GB;q=0.9,en;q=0.8,de;q=0.7","64e8b7ad5bda4b68d63f3e16","683db6dfa200031b80f2a654","686507830826abecd3e6a94e","64e8b7ad5bda4b68d63f3e16","2025-07-02T10:28:05.891Z","","","","","","PrePerfQ","","","","","","","","","","","","","","","","","","","","","","","","","","","","","","","","","","","","","","50"
"3681","","<div style=""width:500px;"">
  <p>What best describes how you currently feel?</p>
  </div>","37","html-slider-response","37","525093","0.0-9.0-2.0","100","1","2025-07-02 10:19:23","80fe4187154257d5fb01684ea91b68b9","82.149.7.50","Mozilla/5.0 (Windows NT 10.0; Win64; x64) AppleWebKit/537.36 (KHTML, like Gecko) Chrome/137.0.0.0 Safari/537.36","WebKit","Chrome","137.0.0.0","Windows","10.0","https://app.prolific.com/","sl,en-GB;q=0.9,en;q=0.8,de;q=0.7","64e8b7ad5bda4b68d63f3e16","683db6dfa200031b80f2a654","686507830826abecd3e6a94e","64e8b7ad5bda4b68d63f3e16","2025-07-02T10:28:09.573Z","","","","","","PreMotivationQ","","","","","","","","","","","","","","","","","","","","","","","","","","","","","","","","","","","","","","50"
"","","","","ctl-task-cpt","38","564920","0.0-10.0-0.0","100","1","2025-07-02 10:19:23","80fe4187154257d5fb01684ea91b68b9","82.149.7.50","Mozilla/5.0 (Windows NT 10.0; Win64; x64) AppleWebKit/537.36 (KHTML, like Gecko) Chrome/137.0.0.0 Safari/537.36","WebKit","Chrome","137.0.0.0","Windows","10.0","https://app.prolific.com/","sl,en-GB;q=0.9,en;q=0.8,de;q=0.7","64e8b7ad5bda4b68d63f3e16","683db6dfa200031b80f2a654","686507830826abecd3e6a94e","64e8b7ad5bda4b68d63f3e16","2025-07-02T10:28:49.400Z","","","","","","","","","","","","","","","","win-only","0","g1:NW,g2:SE","1","1","0","526238","11000.9","16006.2","36811.1","1","4","8","6","2","8","8","8","0","0.06060606060606061","1273.6","3000","885","[""down"",""right""]","{""num_key_presses"":6,""num_perfect"":6,""num_errors"":0,""num_randdir"":0,""num_randdir_good_moves"":0,""num_whilered"":0,""num_whileblue"":0,""num_blue"":2,""num_good_moves"":6}","[416.5714133126395,420.32142761775424,0.2,416.5714133126395,420.32142761775424,104.8,416.5714133126395,420.32142761775424,209.8,416.5714133126395,420.32142761775424,314.7,416.5714133126395,420.32142761775424,415,321.5714133126395,326.57142761775424,515.1,302.8214133126395,311.57142761775424,615.1,341.5714133126395,327.82142761775424,715.2,854.0714133126395,691.5714276177542,819.6,854.0714133126395,691.5714276177542,920.8,826.5714133126395,719.0714276177542,1024.4,769.0714133126395,761.5714276177542,1124.5,766.5714133126395,762.8214276177542,1226.1,766.5714133126395,762.8214276177542,1329.3,766.5714133126395,762.8214276177542,1430,766.5714133126395,762.8214276177542,1530,766.5714133126395,762.8214276177542,1634.9,766.5714133126395,762.8214276177542,1739.5,766.5714133126395,762.8214276177542,1845.1,766.5714133126395,762.8214276177542,1945.1,766.5714133126395,762.8214276177542,2049.4,766.5714133126395,762.8214276177542,2154.3,766.5714133126395,762.8214276177542,2254.4,766.5714133126395,762.8214276177542,2355.2,766.5714133126395,762.8214276177542,2459.4,766.5714133126395,762.8214276177542,2559.9,766.5714133126395,762.8214276177542,2664.8,766.5714133126395,762.8214276177542,2764.9,766.5714133126395,762.8214276177542,2865,766.5714133126395,762.8214276177542,2965,766.5714133126395,762.8214276177542,3070,766.5714133126395,762.8214276177542,3176.7,766.5714133126395,762.8214276177542,3280.3,766.5714133126395,762.8214276177542,3384.5,766.5714133126395,762.8214276177542,3484.5,766.5714133126395,762.8214276177542,3584.9,766.5714133126395,762.8214276177542,3689.4,766.5714133126395,762.8214276177542,3790.1,766.5714133126395,762.8214276177542,3894.9,766.5714133126395,762.8214276177542,3999.3,766.5714133126395,762.8214276177542,4099.3,766.5714133126395,762.8214276177542,4199.7,766.5714133126395,762.8214276177542,4305,766.5714133126395,762.8214276177542,4409.4,766.5714133126395,762.8214276177542,4510.1,766.5714133126395,762.8214276177542,4610.3,766.5714133126395,762.8214276177542,4714.4,766.5714133126395,762.8214276177542,4815,766.5714133126395,762.8214276177542,4919.6]","[1382.1,1382.1,1000,0,382.1,""smooth"",""down"",""down"",""good_move"",4332.4,2950,2611.6,1382.4,338.4,""smooth"",""down"",""down"",""good_move"",6943.5,2610.9,2268.1,4332.6,342.8,""smooth"",""right"",""right"",""good_move"",14699.3,7755.5,1503,12824.8,371.5,""smooth"",""right"",""right"",""good_move"",17749.4,3049.9,2659.4,14699.5,390.5,""smooth"",""right"",""right"",""good_move"",20718.9,2969.4,2644.7,17749.5,324.7,""smooth"",""down"",""down"",""good_move""]","",""
"6507","","<div style=""width:500px;"">
  <p>What determined the result of this run?</p>
  </div>","93","html-slider-response","39","571428","0.0-10.0-1.0","100","1","2025-07-02 10:19:23","80fe4187154257d5fb01684ea91b68b9","82.149.7.50","Mozilla/5.0 (Windows NT 10.0; Win64; x64) AppleWebKit/537.36 (KHTML, like Gecko) Chrome/137.0.0.0 Safari/537.36","WebKit","Chrome","137.0.0.0","Windows","10.0","https://app.prolific.com/","sl,en-GB;q=0.9,en;q=0.8,de;q=0.7","64e8b7ad5bda4b68d63f3e16","683db6dfa200031b80f2a654","686507830826abecd3e6a94e","64e8b7ad5bda4b68d63f3e16","2025-07-02T10:28:55.908Z","","","","","","AttribQ","","","","","","","","","","","","","","","","","","","","","","","","","","","","","","","","","","","","","","50"
"2936","","<div style=""width:500px;"">
  <p>How much control did you have over the ball?</p>
  </div>","100","html-slider-response","40","574368","0.0-10.0-2.0","100","1","2025-07-02 10:19:23","80fe4187154257d5fb01684ea91b68b9","82.149.7.50","Mozilla/5.0 (Windows NT 10.0; Win64; x64) AppleWebKit/537.36 (KHTML, like Gecko) Chrome/137.0.0.0 Safari/537.36","WebKit","Chrome","137.0.0.0","Windows","10.0","https://app.prolific.com/","sl,en-GB;q=0.9,en;q=0.8,de;q=0.7","64e8b7ad5bda4b68d63f3e16","683db6dfa200031b80f2a654","686507830826abecd3e6a94e","64e8b7ad5bda4b68d63f3e16","2025-07-02T10:28:58.848Z","","","","","","ControlQ","","","","","","","","","","","","","","","","","","","","","","","","","","","","","","","","","","","","","","50"
"9543","","<div style=""width:500px;"">
  <p>How would you describe your current emotional state?</p>
  </div>","25","html-slider-response","41","583912","0.0-10.0-3.0","100","1","2025-07-02 10:19:23","80fe4187154257d5fb01684ea91b68b9","82.149.7.50","Mozilla/5.0 (Windows NT 10.0; Win64; x64) AppleWebKit/537.36 (KHTML, like Gecko) Chrome/137.0.0.0 Safari/537.36","WebKit","Chrome","137.0.0.0","Windows","10.0","https://app.prolific.com/","sl,en-GB;q=0.9,en;q=0.8,de;q=0.7","64e8b7ad5bda4b68d63f3e16","683db6dfa200031b80f2a654","686507830826abecd3e6a94e","64e8b7ad5bda4b68d63f3e16","2025-07-02T10:29:08.392Z","","","","","","StressQ","","","","","","","","","","","","","","","","","","","","","","","","","","","","","","","","","","","","","","50"
"4737","","<div style=""width:500px;"">
  <p>What best describes how you currently feel?</p>
  </div>","86","html-slider-response","42","588649","0.0-10.0-4.0","100","1","2025-07-02 10:19:23","80fe4187154257d5fb01684ea91b68b9","82.149.7.50","Mozilla/5.0 (Windows NT 10.0; Win64; x64) AppleWebKit/537.36 (KHTML, like Gecko) Chrome/137.0.0.0 Safari/537.36","WebKit","Chrome","137.0.0.0","Windows","10.0","https://app.prolific.com/","sl,en-GB;q=0.9,en;q=0.8,de;q=0.7","64e8b7ad5bda4b68d63f3e16","683db6dfa200031b80f2a654","686507830826abecd3e6a94e","64e8b7ad5bda4b68d63f3e16","2025-07-02T10:29:13.129Z","","","","","","MotivationQ","","","","","","","","","","","","","","","","","","","","","","","","","","","","","","","","","","","","","","50"
"","","","","ctl-task-cpt","43","620483","0.0-10.0-0.1","100","1","2025-07-02 10:19:23","80fe4187154257d5fb01684ea91b68b9","82.149.7.50","Mozilla/5.0 (Windows NT 10.0; Win64; x64) AppleWebKit/537.36 (KHTML, like Gecko) Chrome/137.0.0.0 Safari/537.36","WebKit","Chrome","137.0.0.0","Windows","10.0","https://app.prolific.com/","sl,en-GB;q=0.9,en;q=0.8,de;q=0.7","64e8b7ad5bda4b68d63f3e16","683db6dfa200031b80f2a654","686507830826abecd3e6a94e","64e8b7ad5bda4b68d63f3e16","2025-07-02T10:29:44.964Z","","","","","","","","","","","","","","","","win-only","2","g1:SE,g2:NW","0.9","2","0","589791.4","3616.6","8620.7","28816.4","1","4","4","6","2","4","4","12","8","0.09090909090909091","1562.3","3000","1000","[""left"",""up""]","{""num_key_presses"":6,""num_perfect"":6,""num_errors"":0,""num_randdir"":0,""num_randdir_good_moves"":0,""num_whilered"":0,""num_whileblue"":0,""num_blue"":1,""num_good_moves"":6}","[417.8214133126395,426.57142761775424,0.1,417.8214133126395,426.57142761775424,103.7,417.8214133126395,426.57142761775424,203.7,417.8214133126395,426.57142761775424,309,417.8214133126395,426.57142761775424,413.7,417.8214133126395,426.57142761775424,518.8,466.5714133126395,459.07142761775424,619.5,97.8214133126395,96.57142761775425,723.8,89.0714133126395,36.57142761775425,824.7,89.0714133126395,36.57142761775425,929.1,89.0714133126395,36.57142761775425,1033.8,89.0714133126395,36.57142761775425,1134.6,89.0714133126395,36.57142761775425,1235,89.0714133126395,36.57142761775425,1338.8,89.0714133126395,36.57142761775425,1439.5,89.0714133126395,36.57142761775425,1544.1,89.0714133126395,36.57142761775425,1644.5,89.0714133126395,36.57142761775425,1749.4,89.0714133126395,36.57142761775425,1854.3,89.0714133126395,36.57142761775425,1959.3,89.0714133126395,36.57142761775425,2064.8,89.0714133126395,36.57142761775425,2168.9,89.0714133126395,36.57142761775425,2268.9,89.0714133126395,36.57142761775425,2369.2,89.0714133126395,36.57142761775425,2469.2,89.0714133126395,36.57142761775425,2569.5,89.0714133126395,36.57142761775425,2674.4,89.0714133126395,36.57142761775425,2779.5,89.0714133126395,36.57142761775425,2884.5,89.0714133126395,36.57142761775425,2984.6,89.0714133126395,36.57142761775425,3088.9,89.0714133126395,36.57142761775425,3189.5,89.0714133126395,36.57142761775425,3293.6,89.0714133126395,36.57142761775425,3393.7,89.0714133126395,36.57142761775425,3494,89.0714133126395,36.57142761775425,3594.1,89.0714133126395,36.57142761775425,3698.7,89.0714133126395,36.57142761775425,3799,89.0714133126395,36.57142761775425,3904.3,89.0714133126395,36.57142761775425,4004.6,89.0714133126395,36.57142761775425,4109.1,89.0714133126395,36.57142761775425,4209.5,89.0714133126395,36.57142761775425,4309.6,89.0714133126395,36.57142761775425,4414,89.0714133126395,36.57142761775425,4514.7,89.0714133126395,36.57142761775425,4618.6,89.0714133126395,36.57142761775425,4718.8,89.0714133126395,36.57142761775425,4818.9,89.0714133126395,36.57142761775425,4918.9]","[1383.2,1383.2,1000,0,383.2,""smooth"",""up"",""up"",""good_move"",4688.5,3305.1,2934.8,1383.4,370.3,""smooth"",""up"",""up"",""good_move"",7757.5,3068.8,2741,4688.7,327.8,""smooth"",""left"",""left"",""good_move"",14252.8,6495,2857,11055.2,340.7,""smooth"",""left"",""left"",""good_move"",17288,3035,2707.7,14253,327.3,""smooth"",""up"",""up"",""good_move"",20091.2,2803,2526.6,17288.2,276.4,""smooth"",""left"",""left"",""good_move""]","",""
"3401","","<div style=""width:500px;"">
  <p>What determined the result of this run?</p>
  </div>","92","html-slider-response","44","623885","0.0-10.0-1.1","100","1","2025-07-02 10:19:23","80fe4187154257d5fb01684ea91b68b9","82.149.7.50","Mozilla/5.0 (Windows NT 10.0; Win64; x64) AppleWebKit/537.36 (KHTML, like Gecko) Chrome/137.0.0.0 Safari/537.36","WebKit","Chrome","137.0.0.0","Windows","10.0","https://app.prolific.com/","sl,en-GB;q=0.9,en;q=0.8,de;q=0.7","64e8b7ad5bda4b68d63f3e16","683db6dfa200031b80f2a654","686507830826abecd3e6a94e","64e8b7ad5bda4b68d63f3e16","2025-07-02T10:29:48.365Z","","","","","","AttribQ","","","","","","","","","","","","","","","","","","","","","","","","","","","","","","","","","","","","","","50"
"3017","","<div style=""width:500px;"">
  <p>How much control did you have over the ball?</p>
  </div>","100","html-slider-response","45","626903","0.0-10.0-2.1","100","1","2025-07-02 10:19:23","80fe4187154257d5fb01684ea91b68b9","82.149.7.50","Mozilla/5.0 (Windows NT 10.0; Win64; x64) AppleWebKit/537.36 (KHTML, like Gecko) Chrome/137.0.0.0 Safari/537.36","WebKit","Chrome","137.0.0.0","Windows","10.0","https://app.prolific.com/","sl,en-GB;q=0.9,en;q=0.8,de;q=0.7","64e8b7ad5bda4b68d63f3e16","683db6dfa200031b80f2a654","686507830826abecd3e6a94e","64e8b7ad5bda4b68d63f3e16","2025-07-02T10:29:51.383Z","","","","","","ControlQ","","","","","","","","","","","","","","","","","","","","","","","","","","","","","","","","","","","","","","50"
"2994","","<div style=""width:500px;"">
  <p>How would you describe your current emotional state?</p>
  </div>","27","html-slider-response","46","629898","0.0-10.0-3.1","100","1","2025-07-02 10:19:23","80fe4187154257d5fb01684ea91b68b9","82.149.7.50","Mozilla/5.0 (Windows NT 10.0; Win64; x64) AppleWebKit/537.36 (KHTML, like Gecko) Chrome/137.0.0.0 Safari/537.36","WebKit","Chrome","137.0.0.0","Windows","10.0","https://app.prolific.com/","sl,en-GB;q=0.9,en;q=0.8,de;q=0.7","64e8b7ad5bda4b68d63f3e16","683db6dfa200031b80f2a654","686507830826abecd3e6a94e","64e8b7ad5bda4b68d63f3e16","2025-07-02T10:29:54.378Z","","","","","","StressQ","","","","","","","","","","","","","","","","","","","","","","","","","","","","","","","","","","","","","","50"
"2478","","<div style=""width:500px;"">
  <p>What best describes how you currently feel?</p>
  </div>","93","html-slider-response","47","632376","0.0-10.0-4.1","100","1","2025-07-02 10:19:23","80fe4187154257d5fb01684ea91b68b9","82.149.7.50","Mozilla/5.0 (Windows NT 10.0; Win64; x64) AppleWebKit/537.36 (KHTML, like Gecko) Chrome/137.0.0.0 Safari/537.36","WebKit","Chrome","137.0.0.0","Windows","10.0","https://app.prolific.com/","sl,en-GB;q=0.9,en;q=0.8,de;q=0.7","64e8b7ad5bda4b68d63f3e16","683db6dfa200031b80f2a654","686507830826abecd3e6a94e","64e8b7ad5bda4b68d63f3e16","2025-07-02T10:29:56.857Z","","","","","","MotivationQ","","","","","","","","","","","","","","","","","","","","","","","","","","","","","","","","","","","","","","50"
"","","","","ctl-task-cpt","48","657252","0.0-10.0-0.2","100","1","2025-07-02 10:19:23","80fe4187154257d5fb01684ea91b68b9","82.149.7.50","Mozilla/5.0 (Windows NT 10.0; Win64; x64) AppleWebKit/537.36 (KHTML, like Gecko) Chrome/137.0.0.0 Safari/537.36","WebKit","Chrome","137.0.0.0","Windows","10.0","https://app.prolific.com/","sl,en-GB;q=0.9,en;q=0.8,de;q=0.7","64e8b7ad5bda4b68d63f3e16","683db6dfa200031b80f2a654","686507830826abecd3e6a94e","64e8b7ad5bda4b68d63f3e16","2025-07-02T10:30:21.732Z","","","","","","","","","","","","","","","","win-only","0","g1:NW,g2:SE","0.8","3","0","633518.7","1309.4","6310.4","21856.1","1","4","8","6","2","8","8","20","12","0.15151515151515152","1570","3000","1025","[""down"",""right""]","{""num_key_presses"":6,""num_perfect"":5,""num_errors"":0,""num_randdir"":1,""num_randdir_good_moves"":1,""num_whilered"":0,""num_whileblue"":0,""num_blue"":0,""num_good_moves"":6}","[411.5714133126395,414.07142761775424,0.2,411.5714133126395,414.07142761775424,101.5,411.5714133126395,414.07142761775424,206.9,411.5714133126395,414.07142761775424,311.2,411.5714133126395,414.07142761775424,416.4,411.5714133126395,414.07142761775424,521,411.5714133126395,414.07142761775424,621,669.0714133126395,612.8214276177542,721.3,751.5714133126395,731.5714276177542,826.8,751.5714133126395,741.5714276177542,931.6,761.5714133126395,767.8214276177542,1031.6,764.0714133126395,772.8214276177542,1136.8,747.8214133126395,754.0714276177542,1241.3,746.5714133126395,751.5714276177542,1347,745.3214133126395,747.8214276177542,1451.1,745.3214133126395,746.5714276177542,1551.4,745.3214133126395,746.5714276177542,1656.7,745.3214133126395,746.5714276177542,1761.3,745.3214133126395,746.5714276177542,1866.2,745.3214133126395,746.5714276177542,1966.5,745.3214133126395,746.5714276177542,2067.1,966.5714133126395,216.57142761775424,2171.1,966.5714133126395,211.57142761775424,2271.1,966.5714133126395,211.57142761775424,2376.4,966.5714133126395,211.57142761775424,2481.5,966.5714133126395,211.57142761775424,2586.8,966.5714133126395,211.57142761775424,2691.5,966.5714133126395,211.57142761775424,2796.5,966.5714133126395,211.57142761775424,2901.1,966.5714133126395,211.57142761775424,3002.2,966.5714133126395,211.57142761775424,3107,966.5714133126395,211.57142761775424,3211.4,966.5714133126395,211.57142761775424,3316.7,966.5714133126395,211.57142761775424,3416.8,966.5714133126395,211.57142761775424,3521,966.5714133126395,211.57142761775424,3626,966.5714133126395,211.57142761775424,3726.6,966.5714133126395,211.57142761775424,3830.9,966.5714133126395,211.57142761775424,3930.9,966.5714133126395,211.57142761775424,4031.7,966.5714133126395,211.57142761775424,4136,966.5714133126395,211.57142761775424,4236.2,966.5714133126395,211.57142761775424,4336.3,966.5714133126395,211.57142761775424,4436.5,966.5714133126395,211.57142761775424,4541.1,966.5714133126395,211.57142761775424,4641.2,966.5714133126395,211.57142761775424,4746,966.5714133126395,211.57142761775424,4846.3,966.5714133126395,211.57142761775424,4947.3]","[1325.9,1325.9,1000,0,325.9,""smooth"",""right"",""right"",""good_move"",4070.5,2744.4,2302.1,1326.2,442.3,""smooth"",""right"",""right"",""good_move"",6361.4,2290.7,1959.9,4070.7,330.8,""oops"",""right"",""down"",""good_move"",9418.2,3056.6,2720.2,6361.6,336.4,""smooth"",""right"",""right"",""good_move"",12451.2,3032.8,2751.5,9418.4,281.3,""smooth"",""down"",""down"",""good_move"",15446,2994.6,2699.5,12451.4,295.1,""smooth"",""down"",""down"",""good_move""]","",""
"5998","","<div style=""width:500px;"">
  <p>What determined the result of this run?</p>
  </div>","78","html-slider-response","49","663251","0.0-10.0-1.2","100","1","2025-07-02 10:19:23","80fe4187154257d5fb01684ea91b68b9","82.149.7.50","Mozilla/5.0 (Windows NT 10.0; Win64; x64) AppleWebKit/537.36 (KHTML, like Gecko) Chrome/137.0.0.0 Safari/537.36","WebKit","Chrome","137.0.0.0","Windows","10.0","https://app.prolific.com/","sl,en-GB;q=0.9,en;q=0.8,de;q=0.7","64e8b7ad5bda4b68d63f3e16","683db6dfa200031b80f2a654","686507830826abecd3e6a94e","64e8b7ad5bda4b68d63f3e16","2025-07-02T10:30:27.731Z","","","","","","AttribQ","","","","","","","","","","","","","","","","","","","","","","","","","","","","","","","","","","","","","","50"
"4461","","<div style=""width:500px;"">
  <p>How much control did you have over the ball?</p>
  </div>","86","html-slider-response","50","667712","0.0-10.0-2.2","100","1","2025-07-02 10:19:23","80fe4187154257d5fb01684ea91b68b9","82.149.7.50","Mozilla/5.0 (Windows NT 10.0; Win64; x64) AppleWebKit/537.36 (KHTML, like Gecko) Chrome/137.0.0.0 Safari/537.36","WebKit","Chrome","137.0.0.0","Windows","10.0","https://app.prolific.com/","sl,en-GB;q=0.9,en;q=0.8,de;q=0.7","64e8b7ad5bda4b68d63f3e16","683db6dfa200031b80f2a654","686507830826abecd3e6a94e","64e8b7ad5bda4b68d63f3e16","2025-07-02T10:30:32.192Z","","","","","","ControlQ","","","","","","","","","","","","","","","","","","","","","","","","","","","","","","","","","","","","","","50"
"4309","","<div style=""width:500px;"">
  <p>How would you describe your current emotional state?</p>
  </div>","40","html-slider-response","51","672022","0.0-10.0-3.2","100","1","2025-07-02 10:19:23","80fe4187154257d5fb01684ea91b68b9","82.149.7.50","Mozilla/5.0 (Windows NT 10.0; Win64; x64) AppleWebKit/537.36 (KHTML, like Gecko) Chrome/137.0.0.0 Safari/537.36","WebKit","Chrome","137.0.0.0","Windows","10.0","https://app.prolific.com/","sl,en-GB;q=0.9,en;q=0.8,de;q=0.7","64e8b7ad5bda4b68d63f3e16","683db6dfa200031b80f2a654","686507830826abecd3e6a94e","64e8b7ad5bda4b68d63f3e16","2025-07-02T10:30:36.502Z","","","","","","StressQ","","","","","","","","","","","","","","","","","","","","","","","","","","","","","","","","","","","","","","50"
"3799","","<div style=""width:500px;"">
  <p>What best describes how you currently feel?</p>
  </div>","92","html-slider-response","52","675822","0.0-10.0-4.2","100","1","2025-07-02 10:19:23","80fe4187154257d5fb01684ea91b68b9","82.149.7.50","Mozilla/5.0 (Windows NT 10.0; Win64; x64) AppleWebKit/537.36 (KHTML, like Gecko) Chrome/137.0.0.0 Safari/537.36","WebKit","Chrome","137.0.0.0","Windows","10.0","https://app.prolific.com/","sl,en-GB;q=0.9,en;q=0.8,de;q=0.7","64e8b7ad5bda4b68d63f3e16","683db6dfa200031b80f2a654","686507830826abecd3e6a94e","64e8b7ad5bda4b68d63f3e16","2025-07-02T10:30:40.302Z","","","","","","MotivationQ","","","","","","","","","","","","","","","","","","","","","","","","","","","","","","","","","","","","","","50"
"","","","","ctl-task-cpt","53","716695","0.0-10.0-0.3","100","1","2025-07-02 10:19:23","80fe4187154257d5fb01684ea91b68b9","82.149.7.50","Mozilla/5.0 (Windows NT 10.0; Win64; x64) AppleWebKit/537.36 (KHTML, like Gecko) Chrome/137.0.0.0 Safari/537.36","WebKit","Chrome","137.0.0.0","Windows","10.0","https://app.prolific.com/","sl,en-GB;q=0.9,en;q=0.8,de;q=0.7","64e8b7ad5bda4b68d63f3e16","683db6dfa200031b80f2a654","686507830826abecd3e6a94e","64e8b7ad5bda4b68d63f3e16","2025-07-02T10:31:21.175Z","","","","","","","","","","","","","","","","win-only","1","g1:NE,g2:SW","0.7","4","0","676961.7","2758.7","7760.9","37850.8","1","4","4","6","2","-4","-4","16","20","0.12121212121212122","1477.9","3000","-3010","[""down"",""left""]","{""num_key_presses"":9,""num_perfect"":6,""num_errors"":0,""num_randdir"":3,""num_randdir_good_moves"":0,""num_whilered"":0,""num_whileblue"":0,""num_blue"":1,""num_good_moves"":6}","[415.3214133126395,411.57142761775424,0.2,415.3214133126395,411.57142761775424,102.3,415.3214133126395,411.57142761775424,206.9,415.3214133126395,411.57142761775424,307.1,415.3214133126395,411.57142761775424,411.6,415.3214133126395,411.57142761775424,511.9,424.0714133126395,449.07142761775424,611.9,155.3214133126395,700.3214276177542,717,155.3214133126395,700.3214276177542,821.6,155.3214133126395,700.3214276177542,922.5,101.5714133126395,741.5714276177542,1026.9,81.5714133126395,756.5714276177542,1126.9,71.5714133126395,771.5714276177542,1232.3,60.32141331263951,777.8214276177542,1337.2,60.32141331263951,776.5714276177542,1437.3,60.32141331263951,775.3214276177542,1542.7,60.32141331263951,775.3214276177542,1646.7,60.32141331263951,775.3214276177542,1746.8,60.32141331263951,775.3214276177542,1848.3,60.32141331263951,775.3214276177542,1952,60.32141331263951,775.3214276177542,2056.8,60.32141331263951,775.3214276177542,2156.8,60.32141331263951,775.3214276177542,2257.1,60.32141331263951,775.3214276177542,2362.5,60.32141331263951,775.3214276177542,2467.5,60.32141331263951,775.3214276177542,2571.9,60.32141331263951,775.3214276177542,2672.6,60.32141331263951,775.3214276177542,2777.4,60.32141331263951,775.3214276177542,2881.7,60.32141331263951,775.3214276177542,2982.2,60.32141331263951,775.3214276177542,3086.5,60.32141331263951,775.3214276177542,3186.9,60.32141331263951,775.3214276177542,3292.4,60.32141331263951,775.3214276177542,3392.4,60.32141331263951,775.3214276177542,3496.8,60.32141331263951,775.3214276177542,3597.3,60.32141331263951,775.3214276177542,3702.8,60.32141331263951,775.3214276177542,3807.6,60.32141331263951,775.3214276177542,3911.5,60.32141331263951,775.3214276177542,4012.7,60.32141331263951,775.3214276177542,4113,60.32141331263951,775.3214276177542,4217.3,60.32141331263951,775.3214276177542,4317.5,60.32141331263951,775.3214276177542,4422.1,60.32141331263951,775.3214276177542,4526.7,60.32141331263951,775.3214276177542,4627.3,60.32141331263951,775.3214276177542,4727.5,60.32141331263951,775.3214276177542,4831.7,60.32141331263951,775.3214276177542,4931.7]","[1355.4,1355.4,1000,0,355.4,""oops"",""down"",""right"",""bad_move"",4040.6,2685,2337,1355.6,348,""smooth"",""down"",""down"",""good_move"",6850.8,2809.9,2485.1,4040.9,324.8,""smooth"",""down"",""down"",""good_move"",9461.2,2610.3,2272.6,6850.9,337.7,""smooth"",""left"",""left"",""good_move"",12111.9,2650.4,2325.3,9461.5,325.1,""oops"",""left"",""up"",""bad_move"",15217.2,3105,2800.4,12112.2,304.7,""smooth"",""down"",""down"",""good_move"",18086.7,2869.3,2570.2,15217.4,299.1,""smooth"",""left"",""left"",""good_move"",24716.1,6629.3,2877.7,21574.5,263.9,""smooth"",""left"",""left"",""good_move"",27282.1,2565.8,2262.8,24716.3,303,""oops"",""down"",""up"",""bad_move""]","",""
"7387","","<div style=""width:500px;"">
  <p>What determined the result of this run?</p>
  </div>","25","html-slider-response","54","724083","0.0-10.0-1.3","100","1","2025-07-02 10:19:23","80fe4187154257d5fb01684ea91b68b9","82.149.7.50","Mozilla/5.0 (Windows NT 10.0; Win64; x64) AppleWebKit/537.36 (KHTML, like Gecko) Chrome/137.0.0.0 Safari/537.36","WebKit","Chrome","137.0.0.0","Windows","10.0","https://app.prolific.com/","sl,en-GB;q=0.9,en;q=0.8,de;q=0.7","64e8b7ad5bda4b68d63f3e16","683db6dfa200031b80f2a654","686507830826abecd3e6a94e","64e8b7ad5bda4b68d63f3e16","2025-07-02T10:31:28.563Z","","","","","","AttribQ","","","","","","","","","","","","","","","","","","","","","","","","","","","","","","","","","","","","","","50"
"3309","","<div style=""width:500px;"">
  <p>How much control did you have over the ball?</p>
  </div>","35","html-slider-response","55","727393","0.0-10.0-2.3","100","1","2025-07-02 10:19:23","80fe4187154257d5fb01684ea91b68b9","82.149.7.50","Mozilla/5.0 (Windows NT 10.0; Win64; x64) AppleWebKit/537.36 (KHTML, like Gecko) Chrome/137.0.0.0 Safari/537.36","WebKit","Chrome","137.0.0.0","Windows","10.0","https://app.prolific.com/","sl,en-GB;q=0.9,en;q=0.8,de;q=0.7","64e8b7ad5bda4b68d63f3e16","683db6dfa200031b80f2a654","686507830826abecd3e6a94e","64e8b7ad5bda4b68d63f3e16","2025-07-02T10:31:31.874Z","","","","","","ControlQ","","","","","","","","","","","","","","","","","","","","","","","","","","","","","","","","","","","","","","50"
"4188","","<div style=""width:500px;"">
  <p>How would you describe your current emotional state?</p>
  </div>","78","html-slider-response","56","731582","0.0-10.0-3.3","100","1","2025-07-02 10:19:23","80fe4187154257d5fb01684ea91b68b9","82.149.7.50","Mozilla/5.0 (Windows NT 10.0; Win64; x64) AppleWebKit/537.36 (KHTML, like Gecko) Chrome/137.0.0.0 Safari/537.36","WebKit","Chrome","137.0.0.0","Windows","10.0","https://app.prolific.com/","sl,en-GB;q=0.9,en;q=0.8,de;q=0.7","64e8b7ad5bda4b68d63f3e16","683db6dfa200031b80f2a654","686507830826abecd3e6a94e","64e8b7ad5bda4b68d63f3e16","2025-07-02T10:31:36.062Z","","","","","","StressQ","","","","","","","","","","","","","","","","","","","","","","","","","","","","","","","","","","","","","","50"
"4279","","<div style=""width:500px;"">
  <p>What best describes how you currently feel?</p>
  </div>","84","html-slider-response","57","735862","0.0-10.0-4.3","100","1","2025-07-02 10:19:23","80fe4187154257d5fb01684ea91b68b9","82.149.7.50","Mozilla/5.0 (Windows NT 10.0; Win64; x64) AppleWebKit/537.36 (KHTML, like Gecko) Chrome/137.0.0.0 Safari/537.36","WebKit","Chrome","137.0.0.0","Windows","10.0","https://app.prolific.com/","sl,en-GB;q=0.9,en;q=0.8,de;q=0.7","64e8b7ad5bda4b68d63f3e16","683db6dfa200031b80f2a654","686507830826abecd3e6a94e","64e8b7ad5bda4b68d63f3e16","2025-07-02T10:31:40.342Z","","","","","","MotivationQ","","","","","","","","","","","","","","","","","","","","","","","","","","","","","","","","","","","","","","50"
"","","","","ctl-task-cpt","58","774878","0.0-10.0-0.4","100","1","2025-07-02 10:19:23","80fe4187154257d5fb01684ea91b68b9","82.149.7.50","Mozilla/5.0 (Windows NT 10.0; Win64; x64) AppleWebKit/537.36 (KHTML, like Gecko) Chrome/137.0.0.0 Safari/537.36","WebKit","Chrome","137.0.0.0","Windows","10.0","https://app.prolific.com/","sl,en-GB;q=0.9,en;q=0.8,de;q=0.7","64e8b7ad5bda4b68d63f3e16","683db6dfa200031b80f2a654","686507830826abecd3e6a94e","64e8b7ad5bda4b68d63f3e16","2025-07-02T10:32:19.358Z","","","","","","","","","","","","","","","","win-only","2","g1:SE,g2:NW","0.6","5","0","736998.3","1466.4","6470.9","35996.4","1","4","8","6","2","8","7","23","16","0.17424242424242425","1178.4","3000","25","[""left"",""up""]","{""num_key_presses"":10,""num_perfect"":6,""num_errors"":1,""num_randdir"":3,""num_randdir_good_moves"":2,""num_whilered"":0,""num_whileblue"":1,""num_blue"":2,""num_good_moves"":8}","[410.3214133126395,419.07142761775424,0.1,410.3214133126395,419.07142761775424,103.8,410.3214133126395,419.07142761775424,204,410.3214133126395,419.07142761775424,304.4,410.3214133126395,419.07142761775424,409.1,410.3214133126395,419.07142761775424,509.3,410.3214133126395,419.07142761775424,613.7,217.8214133126395,261.57142761775424,714.4,56.57141331263951,81.57142761775425,814.6,56.57141331263951,76.57142761775425,914.9,56.57141331263951,76.57142761775425,1018.7,56.57141331263951,76.57142761775425,1119.4,56.57141331263951,76.57142761775425,1224.2,56.57141331263951,76.57142761775425,1329.3,56.57141331263951,76.57142761775425,1429.3,56.57141331263951,76.57142761775425,1534.4,56.57141331263951,76.57142761775425,1639.4,332.8214133126395,176.57142761775424,1743.9,361.5714133126395,189.07142761775424,1844.4,361.5714133126395,189.07142761775424,1944.4,361.5714133126395,189.07142761775424,2049.3,361.5714133126395,189.07142761775424,2156.6,361.5714133126395,189.07142761775424,2259.8,361.5714133126395,189.07142761775424,2364.3,361.5714133126395,189.07142761775424,2468.9,361.5714133126395,189.07142761775424,2569,361.5714133126395,189.07142761775424,2669.1,361.5714133126395,189.07142761775424,2769.1,361.5714133126395,189.07142761775424,2874.1,361.5714133126395,189.07142761775424,2974.4,361.5714133126395,189.07142761775424,3078.9,361.5714133126395,189.07142761775424,3179.7,361.5714133126395,189.07142761775424,3284.2,361.5714133126395,189.07142761775424,3384.7,361.5714133126395,189.07142761775424,3489.1,361.5714133126395,189.07142761775424,3593.8,361.5714133126395,189.07142761775424,3693.9,361.5714133126395,189.07142761775424,3794.5,361.5714133126395,189.07142761775424,3894.5,361.5714133126395,189.07142761775424,3999.2,361.5714133126395,189.07142761775424,4104.3,361.5714133126395,189.07142761775424,4204.5,361.5714133126395,189.07142761775424,4304.5,361.5714133126395,189.07142761775424,4409.1,361.5714133126395,189.07142761775424,4514.2,361.5714133126395,189.07142761775424,4614.3,361.5714133126395,189.07142761775424,4714.4,361.5714133126395,189.07142761775424,4819.1,361.5714133126395,189.07142761775424,4919.6]","[1360.4,1360.4,1000,0,360.4,""oops"",""up"",""up"",""good_move"",4219.4,2858.7,2517.8,1360.7,340.9,""smooth"",""up"",""up"",""good_move"",6885.2,2665.6,2325.6,4219.6,340,""smooth"",""left"",""left"",""good_move"",10444,3558.6,3232.8,6885.4,325.8,""oops"",""left"",""right"",""bad_move"",13454.5,3010.2,2695.3,10444.3,314.9,""while_blue"",""left"",""down"",""bad_move"",16288,2833.1,2425.1,13454.9,408,""smooth"",""left"",""left"",""good_move"",19045.1,2757,2434.1,16288.1,322.9,""smooth"",""up"",""up"",""good_move"",21850.1,2804.7,2484.7,19045.4,320,""smooth"",""left"",""left"",""good_move"",27152.5,5302.1,1874.5,24944.8,333.2,""oops"",""up"",""left"",""good_move"",29437.9,2285.2,2002.8,27152.7,282.4,""smooth"",""up"",""up"",""good_move""]","",""
"3495","","<div style=""width:500px;"">
  <p>What determined the result of this run?</p>
  </div>","63","html-slider-response","59","778374","0.0-10.0-1.4","100","1","2025-07-02 10:19:23","80fe4187154257d5fb01684ea91b68b9","82.149.7.50","Mozilla/5.0 (Windows NT 10.0; Win64; x64) AppleWebKit/537.36 (KHTML, like Gecko) Chrome/137.0.0.0 Safari/537.36","WebKit","Chrome","137.0.0.0","Windows","10.0","https://app.prolific.com/","sl,en-GB;q=0.9,en;q=0.8,de;q=0.7","64e8b7ad5bda4b68d63f3e16","683db6dfa200031b80f2a654","686507830826abecd3e6a94e","64e8b7ad5bda4b68d63f3e16","2025-07-02T10:32:22.854Z","","","","","","AttribQ","","","","","","","","","","","","","","","","","","","","","","","","","","","","","","","","","","","","","","50"
"4349","","<div style=""width:500px;"">
  <p>How much control did you have over the ball?</p>
  </div>","60","html-slider-response","60","782724","0.0-10.0-2.4","100","1","2025-07-02 10:19:23","80fe4187154257d5fb01684ea91b68b9","82.149.7.50","Mozilla/5.0 (Windows NT 10.0; Win64; x64) AppleWebKit/537.36 (KHTML, like Gecko) Chrome/137.0.0.0 Safari/537.36","WebKit","Chrome","137.0.0.0","Windows","10.0","https://app.prolific.com/","sl,en-GB;q=0.9,en;q=0.8,de;q=0.7","64e8b7ad5bda4b68d63f3e16","683db6dfa200031b80f2a654","686507830826abecd3e6a94e","64e8b7ad5bda4b68d63f3e16","2025-07-02T10:32:27.204Z","","","","","","ControlQ","","","","","","","","","","","","","","","","","","","","","","","","","","","","","","","","","","","","","","50"
"5583","","<div style=""width:500px;"">
  <p>How would you describe your current emotional state?</p>
  </div>","68","html-slider-response","61","788307","0.0-10.0-3.4","100","1","2025-07-02 10:19:23","80fe4187154257d5fb01684ea91b68b9","82.149.7.50","Mozilla/5.0 (Windows NT 10.0; Win64; x64) AppleWebKit/537.36 (KHTML, like Gecko) Chrome/137.0.0.0 Safari/537.36","WebKit","Chrome","137.0.0.0","Windows","10.0","https://app.prolific.com/","sl,en-GB;q=0.9,en;q=0.8,de;q=0.7","64e8b7ad5bda4b68d63f3e16","683db6dfa200031b80f2a654","686507830826abecd3e6a94e","64e8b7ad5bda4b68d63f3e16","2025-07-02T10:32:32.787Z","","","","","","StressQ","","","","","","","","","","","","","","","","","","","","","","","","","","","","","","","","","","","","","","50"
"4193","","<div style=""width:500px;"">
  <p>What best describes how you currently feel?</p>
  </div>","77","html-slider-response","62","792501","0.0-10.0-4.4","100","1","2025-07-02 10:19:23","80fe4187154257d5fb01684ea91b68b9","82.149.7.50","Mozilla/5.0 (Windows NT 10.0; Win64; x64) AppleWebKit/537.36 (KHTML, like Gecko) Chrome/137.0.0.0 Safari/537.36","WebKit","Chrome","137.0.0.0","Windows","10.0","https://app.prolific.com/","sl,en-GB;q=0.9,en;q=0.8,de;q=0.7","64e8b7ad5bda4b68d63f3e16","683db6dfa200031b80f2a654","686507830826abecd3e6a94e","64e8b7ad5bda4b68d63f3e16","2025-07-02T10:32:36.981Z","","","","","","MotivationQ","","","","","","","","","","","","","","","","","","","","","","","","","","","","","","","","","","","","","","50"
"","","","","ctl-task-cpt","63","830842","0.0-10.0-0.5","100","1","2025-07-02 10:19:23","80fe4187154257d5fb01684ea91b68b9","82.149.7.50","Mozilla/5.0 (Windows NT 10.0; Win64; x64) AppleWebKit/537.36 (KHTML, like Gecko) Chrome/137.0.0.0 Safari/537.36","WebKit","Chrome","137.0.0.0","Windows","10.0","https://app.prolific.com/","sl,en-GB;q=0.9,en;q=0.8,de;q=0.7","64e8b7ad5bda4b68d63f3e16","683db6dfa200031b80f2a654","686507830826abecd3e6a94e","64e8b7ad5bda4b68d63f3e16","2025-07-02T10:33:15.322Z","","","","","","","","","","","","","","","","win-only","1","g1:NE,g2:SW","0.5","6","0","793634.6","967.6","5970.9","35320.3","1","4","4","6","2","-4","-4","19","23","0.14393939393939395","2476.8","3000","-3010","[""down"",""left""]","{""num_key_presses"":9,""num_perfect"":5,""num_errors"":0,""num_randdir"":4,""num_randdir_good_moves"":1,""num_whilered"":0,""num_whileblue"":0,""num_blue"":1,""num_good_moves"":6}","[417.8214133126395,416.57142761775424,0,417.8214133126395,416.57142761775424,103.9,417.8214133126395,416.57142761775424,208.8,417.8214133126395,416.57142761775424,312.5,417.8214133126395,416.57142761775424,413.8,417.8214133126395,416.57142761775424,513.9,409.0714133126395,424.07142761775424,618.4,151.5714133126395,671.5714276177542,723,151.5714133126395,671.5714276177542,827.6,151.5714133126395,671.5714276177542,927.6,151.5714133126395,671.5714276177542,1027.6,145.3214133126395,676.5714276177542,1128.3,36.57141331263951,775.3214276177542,1233.3,36.57141331263951,776.5714276177542,1333.4,40.32141331263951,776.5714276177542,1438.2,44.07141331263951,776.5714276177542,1543.5,64.0714133126395,765.3214276177542,1648.3,64.0714133126395,762.8214276177542,1753.2,64.0714133126395,762.8214276177542,1858,62.82141331263951,761.5714276177542,1964.2,62.82141331263951,761.5714276177542,2067.9,62.82141331263951,761.5714276177542,2172.7,62.82141331263951,761.5714276177542,2273,62.82141331263951,761.5714276177542,2377.9,62.82141331263951,761.5714276177542,2478.2,62.82141331263951,761.5714276177542,2578.4,62.82141331263951,761.5714276177542,2682.5,62.82141331263951,761.5714276177542,2782.8,62.82141331263951,761.5714276177542,2883,62.82141331263951,761.5714276177542,2983.4,62.82141331263951,761.5714276177542,3088.5,62.82141331263951,761.5714276177542,3188.6,62.82141331263951,761.5714276177542,3293.4,62.82141331263951,761.5714276177542,3397.5,62.82141331263951,761.5714276177542,3497.6,62.82141331263951,761.5714276177542,3598.5,62.82141331263951,761.5714276177542,3703.6,62.82141331263951,761.5714276177542,3808.1,62.82141331263951,761.5714276177542,3908.4,62.82141331263951,761.5714276177542,4013.5,62.82141331263951,761.5714276177542,4118.3,62.82141331263951,761.5714276177542,4218.6,62.82141331263951,761.5714276177542,4322.8,62.82141331263951,761.5714276177542,4427.7,62.82141331263951,761.5714276177542,4528.5,62.82141331263951,761.5714276177542,4633.9,62.82141331263951,761.5714276177542,4734.1,62.82141331263951,761.5714276177542,4838.2,62.82141331263951,761.5714276177542,4943.2]","[1372.3,1372.3,1000,0,372.3,""smooth"",""left"",""left"",""good_move"",4854.3,3481.7,3156.9,1372.7,324.7,""smooth"",""down"",""down"",""good_move"",7399.4,2544.8,2213.3,4854.6,331.5,""oops"",""left"",""right"",""bad_move"",10374.7,2975.1,2654.4,7399.7,320.6,""oops"",""left"",""up"",""bad_move"",13409.4,3034.3,2713.7,10375.1,320.6,""smooth"",""left"",""left"",""good_move"",16289.5,2879.9,2583.3,13409.6,296.6,""oops"",""left"",""left"",""good_move"",19589,3299.3,3014.1,16289.7,285.2,""oops"",""down"",""up"",""bad_move"",24471.3,4882.1,1943.1,22224.4,303.8,""smooth"",""down"",""down"",""good_move"",27446.2,2974.6,2722.9,24471.6,251.7,""smooth"",""down"",""down"",""good_move""]","",""
"2648","","<div style=""width:500px;"">
  <p>What determined the result of this run?</p>
  </div>","16","html-slider-response","64","833491","0.0-10.0-1.5","100","1","2025-07-02 10:19:23","80fe4187154257d5fb01684ea91b68b9","82.149.7.50","Mozilla/5.0 (Windows NT 10.0; Win64; x64) AppleWebKit/537.36 (KHTML, like Gecko) Chrome/137.0.0.0 Safari/537.36","WebKit","Chrome","137.0.0.0","Windows","10.0","https://app.prolific.com/","sl,en-GB;q=0.9,en;q=0.8,de;q=0.7","64e8b7ad5bda4b68d63f3e16","683db6dfa200031b80f2a654","686507830826abecd3e6a94e","64e8b7ad5bda4b68d63f3e16","2025-07-02T10:33:17.971Z","","","","","","AttribQ","","","","","","","","","","","","","","","","","","","","","","","","","","","","","","","","","","","","","","50"
"2798","","<div style=""width:500px;"">
  <p>How much control did you have over the ball?</p>
  </div>","17","html-slider-response","65","836290","0.0-10.0-2.5","100","1","2025-07-02 10:19:23","80fe4187154257d5fb01684ea91b68b9","82.149.7.50","Mozilla/5.0 (Windows NT 10.0; Win64; x64) AppleWebKit/537.36 (KHTML, like Gecko) Chrome/137.0.0.0 Safari/537.36","WebKit","Chrome","137.0.0.0","Windows","10.0","https://app.prolific.com/","sl,en-GB;q=0.9,en;q=0.8,de;q=0.7","64e8b7ad5bda4b68d63f3e16","683db6dfa200031b80f2a654","686507830826abecd3e6a94e","64e8b7ad5bda4b68d63f3e16","2025-07-02T10:33:20.770Z","","","","","","ControlQ","","","","","","","","","","","","","","","","","","","","","","","","","","","","","","","","","","","","","","50"
"2158","","<div style=""width:500px;"">
  <p>How would you describe your current emotional state?</p>
  </div>","93","html-slider-response","66","838449","0.0-10.0-3.5","100","1","2025-07-02 10:19:23","80fe4187154257d5fb01684ea91b68b9","82.149.7.50","Mozilla/5.0 (Windows NT 10.0; Win64; x64) AppleWebKit/537.36 (KHTML, like Gecko) Chrome/137.0.0.0 Safari/537.36","WebKit","Chrome","137.0.0.0","Windows","10.0","https://app.prolific.com/","sl,en-GB;q=0.9,en;q=0.8,de;q=0.7","64e8b7ad5bda4b68d63f3e16","683db6dfa200031b80f2a654","686507830826abecd3e6a94e","64e8b7ad5bda4b68d63f3e16","2025-07-02T10:33:22.929Z","","","","","","StressQ","","","","","","","","","","","","","","","","","","","","","","","","","","","","","","","","","","","","","","50"
"4342","","<div style=""width:500px;"">
  <p>What best describes how you currently feel?</p>
  </div>","57","html-slider-response","67","842791","0.0-10.0-4.5","100","1","2025-07-02 10:19:23","80fe4187154257d5fb01684ea91b68b9","82.149.7.50","Mozilla/5.0 (Windows NT 10.0; Win64; x64) AppleWebKit/537.36 (KHTML, like Gecko) Chrome/137.0.0.0 Safari/537.36","WebKit","Chrome","137.0.0.0","Windows","10.0","https://app.prolific.com/","sl,en-GB;q=0.9,en;q=0.8,de;q=0.7","64e8b7ad5bda4b68d63f3e16","683db6dfa200031b80f2a654","686507830826abecd3e6a94e","64e8b7ad5bda4b68d63f3e16","2025-07-02T10:33:27.271Z","","","","","","MotivationQ","","","","","","","","","","","","","","","","","","","","","","","","","","","","","","","","","","","","","","50"
"","","","","ctl-task-cpt","68","883468","0.0-10.0-0.6","100","1","2025-07-02 10:19:23","80fe4187154257d5fb01684ea91b68b9","82.149.7.50","Mozilla/5.0 (Windows NT 10.0; Win64; x64) AppleWebKit/537.36 (KHTML, like Gecko) Chrome/137.0.0.0 Safari/537.36","WebKit","Chrome","137.0.0.0","Windows","10.0","https://app.prolific.com/","sl,en-GB;q=0.9,en;q=0.8,de;q=0.7","64e8b7ad5bda4b68d63f3e16","683db6dfa200031b80f2a654","686507830826abecd3e6a94e","64e8b7ad5bda4b68d63f3e16","2025-07-02T10:34:07.948Z","","","","","","","","","","","","","","","","win-only","3","g1:SW,g2:NE","0.4","7","0","843921.4","1094.8","6096.5","37655.9","1","4","4","6","1","-1","-1","18","19","0.13636363636363635","1602.2","3000","-3000","[""down"",""left""]","{""num_key_presses"":8,""num_perfect"":2,""num_errors"":0,""num_randdir"":6,""num_randdir_good_moves"":3,""num_whilered"":0,""num_whileblue"":0,""num_blue"":2,""num_good_moves"":5}","[416.5714133126395,411.57142761775424,0.2,416.5714133126395,411.57142761775424,101.5,416.5714133126395,411.57142761775424,206,416.5714133126395,411.57142761775424,306.3,416.5714133126395,411.57142761775424,406.7,416.5714133126395,411.57142761775424,507.1,416.5714133126395,411.57142761775424,611.8,416.5714133126395,411.57142761775424,716.5,416.5714133126395,411.57142761775424,816.7,401.5714133126395,426.57142761775424,921.3,46.57141331263951,781.5714276177542,1021.6,26.571413312639507,799.0714276177542,1126.6,22.821413312639507,799.0714276177542,1231.4,24.071413312639507,797.8214276177542,1336.9,36.57141331263951,791.5714276177542,1441.5,46.57141331263951,787.8214276177542,1545.9,51.57141331263951,782.8214276177542,1651.3,51.57141331263951,782.8214276177542,1756.4,51.57141331263951,782.8214276177542,1856.5,51.57141331263951,782.8214276177542,1961,51.57141331263951,782.8214276177542,2061.4,51.57141331263951,782.8214276177542,2161.8,51.57141331263951,782.8214276177542,2266.3,51.57141331263951,782.8214276177542,2366.7,51.57141331263951,782.8214276177542,2471.3,51.57141331263951,782.8214276177542,2575.4,51.57141331263951,782.8214276177542,2676.4,51.57141331263951,782.8214276177542,2776.8,51.57141331263951,782.8214276177542,2881.8,51.57141331263951,782.8214276177542,2988.8,51.57141331263951,782.8214276177542,3091.6,51.57141331263951,782.8214276177542,3195.8,51.57141331263951,782.8214276177542,3300.9,51.57141331263951,782.8214276177542,3406.1,51.57141331263951,782.8214276177542,3506.2,51.57141331263951,782.8214276177542,3606.3,51.57141331263951,782.8214276177542,3711.4,51.57141331263951,782.8214276177542,3816.7,51.57141331263951,782.8214276177542,3921.4,51.57141331263951,782.8214276177542,4026.5,51.57141331263951,782.8214276177542,4126.5,51.57141331263951,782.8214276177542,4230.5,51.57141331263951,782.8214276177542,4331.6,51.57141331263951,782.8214276177542,4437,51.57141331263951,782.8214276177542,4540.9,51.57141331263951,782.8214276177542,4641.4,51.57141331263951,782.8214276177542,4745.8,51.57141331263951,782.8214276177542,4845.8,51.57141331263951,782.8214276177542,4951.5]","[1542.7,1542.7,1000,0,542.7,""smooth"",""left"",""left"",""good_move"",4782,3239.1,2907.6,1542.9,331.5,""oops"",""down"",""right"",""bad_move"",7801.8,3019.5,2681.9,4782.4,337.5,""oops"",""down"",""down"",""good_move"",13552.7,5750.6,2348.3,10894.1,310.3,""oops"",""left"",""left"",""good_move"",19537.5,5984.7,2659.4,16594.7,283.4,""oops"",""down"",""up"",""bad_move"",22447.8,2910.1,2539.7,19537.7,370.4,""oops"",""down"",""left"",""good_move"",25023.6,2575.7,2128.7,22447.9,447,""oops"",""down"",""right"",""bad_move"",28702.5,3678.5,3382.4,25024,296.1,""smooth"",""down"",""down"",""good_move""]","",""
"1860","","<div style=""width:500px;"">
  <p>What determined the result of this run?</p>
  </div>","4","html-slider-response","69","885329","0.0-10.0-1.6","100","1","2025-07-02 10:19:23","80fe4187154257d5fb01684ea91b68b9","82.149.7.50","Mozilla/5.0 (Windows NT 10.0; Win64; x64) AppleWebKit/537.36 (KHTML, like Gecko) Chrome/137.0.0.0 Safari/537.36","WebKit","Chrome","137.0.0.0","Windows","10.0","https://app.prolific.com/","sl,en-GB;q=0.9,en;q=0.8,de;q=0.7","64e8b7ad5bda4b68d63f3e16","683db6dfa200031b80f2a654","686507830826abecd3e6a94e","64e8b7ad5bda4b68d63f3e16","2025-07-02T10:34:09.809Z","","","","","","AttribQ","","","","","","","","","","","","","","","","","","","","","","","","","","","","","","","","","","","","","","50"
"2160","","<div style=""width:500px;"">
  <p>How much control did you have over the ball?</p>
  </div>","2","html-slider-response","70","887490","0.0-10.0-2.6","100","1","2025-07-02 10:19:23","80fe4187154257d5fb01684ea91b68b9","82.149.7.50","Mozilla/5.0 (Windows NT 10.0; Win64; x64) AppleWebKit/537.36 (KHTML, like Gecko) Chrome/137.0.0.0 Safari/537.36","WebKit","Chrome","137.0.0.0","Windows","10.0","https://app.prolific.com/","sl,en-GB;q=0.9,en;q=0.8,de;q=0.7","64e8b7ad5bda4b68d63f3e16","683db6dfa200031b80f2a654","686507830826abecd3e6a94e","64e8b7ad5bda4b68d63f3e16","2025-07-02T10:34:11.970Z","","","","","","ControlQ","","","","","","","","","","","","","","","","","","","","","","","","","","","","","","","","","","","","","","50"
"2575","","<div style=""width:500px;"">
  <p>How would you describe your current emotional state?</p>
  </div>","96","html-slider-response","71","890066","0.0-10.0-3.6","100","1","2025-07-02 10:19:23","80fe4187154257d5fb01684ea91b68b9","82.149.7.50","Mozilla/5.0 (Windows NT 10.0; Win64; x64) AppleWebKit/537.36 (KHTML, like Gecko) Chrome/137.0.0.0 Safari/537.36","WebKit","Chrome","137.0.0.0","Windows","10.0","https://app.prolific.com/","sl,en-GB;q=0.9,en;q=0.8,de;q=0.7","64e8b7ad5bda4b68d63f3e16","683db6dfa200031b80f2a654","686507830826abecd3e6a94e","64e8b7ad5bda4b68d63f3e16","2025-07-02T10:34:14.546Z","","","","","","StressQ","","","","","","","","","","","","","","","","","","","","","","","","","","","","","","","","","","","","","","50"
"3102","","<div style=""width:500px;"">
  <p>What best describes how you currently feel?</p>
  </div>","41","html-slider-response","72","893169","0.0-10.0-4.6","100","1","2025-07-02 10:19:23","80fe4187154257d5fb01684ea91b68b9","82.149.7.50","Mozilla/5.0 (Windows NT 10.0; Win64; x64) AppleWebKit/537.36 (KHTML, like Gecko) Chrome/137.0.0.0 Safari/537.36","WebKit","Chrome","137.0.0.0","Windows","10.0","https://app.prolific.com/","sl,en-GB;q=0.9,en;q=0.8,de;q=0.7","64e8b7ad5bda4b68d63f3e16","683db6dfa200031b80f2a654","686507830826abecd3e6a94e","64e8b7ad5bda4b68d63f3e16","2025-07-02T10:34:17.650Z","","","","","","MotivationQ","","","","","","","","","","","","","","","","","","","","","","","","","","","","","","","","","","","","","","50"
"","","","","ctl-task-cpt","73","942681","0.0-10.0-0.7","100","1","2025-07-02 10:19:23","80fe4187154257d5fb01684ea91b68b9","82.149.7.50","Mozilla/5.0 (Windows NT 10.0; Win64; x64) AppleWebKit/537.36 (KHTML, like Gecko) Chrome/137.0.0.0 Safari/537.36","WebKit","Chrome","137.0.0.0","Windows","10.0","https://app.prolific.com/","sl,en-GB;q=0.9,en;q=0.8,de;q=0.7","64e8b7ad5bda4b68d63f3e16","683db6dfa200031b80f2a654","686507830826abecd3e6a94e","64e8b7ad5bda4b68d63f3e16","2025-07-02T10:35:07.161Z","","","","","","","","","","","","","","","","win-only","1","g1:NE,g2:SW","0.3","8","0","894296.9","763.5","5771.8","46501.2","1","4","8","6","2","-8","-8","10","18","0.07575757575757576","1093.1","3000","-2700","[""down"",""left""]","{""num_key_presses"":9,""num_perfect"":3,""num_errors"":0,""num_randdir"":6,""num_randdir_good_moves"":2,""num_whilered"":0,""num_whileblue"":0,""num_blue"":4,""num_good_moves"":5}","[419.0714133126395,421.57142761775424,0.1,419.0714133126395,421.57142761775424,102.8,419.0714133126395,421.57142761775424,207.3,419.0714133126395,421.57142761775424,311.9,419.0714133126395,421.57142761775424,417,419.0714133126395,421.57142761775424,521.9,132.8214133126395,736.5714276177542,621.9,72.8214133126395,790.3214276177542,726.8,66.5714133126395,786.5714276177542,827.4,61.57141331263951,781.5714276177542,931.7,61.57141331263951,780.3214276177542,1031.8,61.57141331263951,776.5714276177542,1132.3,61.57141331263951,776.5714276177542,1240.6,61.57141331263951,776.5714276177542,1341,61.57141331263951,776.5714276177542,1441.2,61.57141331263951,776.5714276177542,1542.1,61.57141331263951,776.5714276177542,1646.6,61.57141331263951,776.5714276177542,1748.4,61.57141331263951,776.5714276177542,1858.1,61.57141331263951,776.5714276177542,1958.7,61.57141331263951,776.5714276177542,2061.9,61.57141331263951,776.5714276177542,2162.6,61.57141331263951,776.5714276177542,2266.6,61.57141331263951,776.5714276177542,2366.7,61.57141331263951,776.5714276177542,2467.5,61.57141331263951,776.5714276177542,2567.5,61.57141331263951,776.5714276177542,2667.6,61.57141331263951,776.5714276177542,2767.6,61.57141331263951,776.5714276177542,2873.9,61.57141331263951,776.5714276177542,2974.8,61.57141331263951,776.5714276177542,3074.9,61.57141331263951,776.5714276177542,3175,61.57141331263951,776.5714276177542,3277.8,61.57141331263951,776.5714276177542,3382.6,61.57141331263951,776.5714276177542,3491.1,61.57141331263951,776.5714276177542,3591.5,61.57141331263951,776.5714276177542,3691.7,61.57141331263951,776.5714276177542,3791.7,61.57141331263951,776.5714276177542,3892.2,61.57141331263951,776.5714276177542,3996.9,61.57141331263951,776.5714276177542,4097,61.57141331263951,776.5714276177542,4197.4,61.57141331263951,776.5714276177542,4308.2,61.57141331263951,776.5714276177542,4408.2,61.57141331263951,776.5714276177542,4508.8,61.57141331263951,776.5714276177542,4608.8,61.57141331263951,776.5714276177542,4712.2,61.57141331263951,776.5714276177542,4817.6,61.57141331263951,776.5714276177542,4925.3]","[5067.1,5067.1,2730.7,2004.5,331.9,""oops"",""left"",""right"",""bad_move"",8092.2,3024.8,2637.2,5067.4,387.6,""oops"",""down"",""right"",""bad_move"",11266,3173.5,2838.9,8092.5,334.6,""smooth"",""down"",""down"",""good_move"",16982.7,5716.4,2180.2,14438.9,363.6,""oops"",""down"",""up"",""bad_move"",19593.4,2610.4,2243.1,16983,367.3,""oops"",""down"",""up"",""bad_move"",25638,6044.3,2751.9,22593.4,292.7,""smooth"",""down"",""down"",""good_move"",28693.7,3055.6,2717.9,25638.1,337.7,""smooth"",""down"",""down"",""good_move"",35533.3,6839.4,2621.1,32618.5,293.7,""oops"",""down"",""down"",""good_move"",37843.6,2310,1939.3,35533.6,370.7,""oops"",""left"",""down"",""good_move""]","",""
"2253","","<div style=""width:500px;"">
  <p>What determined the result of this run?</p>
  </div>","0","html-slider-response","74","944935","0.0-10.0-1.7","100","1","2025-07-02 10:19:23","80fe4187154257d5fb01684ea91b68b9","82.149.7.50","Mozilla/5.0 (Windows NT 10.0; Win64; x64) AppleWebKit/537.36 (KHTML, like Gecko) Chrome/137.0.0.0 Safari/537.36","WebKit","Chrome","137.0.0.0","Windows","10.0","https://app.prolific.com/","sl,en-GB;q=0.9,en;q=0.8,de;q=0.7","64e8b7ad5bda4b68d63f3e16","683db6dfa200031b80f2a654","686507830826abecd3e6a94e","64e8b7ad5bda4b68d63f3e16","2025-07-02T10:35:09.415Z","","","","","","AttribQ","","","","","","","","","","","","","","","","","","","","","","","","","","","","","","","","","","","","","","50"
"2052","","<div style=""width:500px;"">
  <p>How much control did you have over the ball?</p>
  </div>","0","html-slider-response","75","946987","0.0-10.0-2.7","100","1","2025-07-02 10:19:23","80fe4187154257d5fb01684ea91b68b9","82.149.7.50","Mozilla/5.0 (Windows NT 10.0; Win64; x64) AppleWebKit/537.36 (KHTML, like Gecko) Chrome/137.0.0.0 Safari/537.36","WebKit","Chrome","137.0.0.0","Windows","10.0","https://app.prolific.com/","sl,en-GB;q=0.9,en;q=0.8,de;q=0.7","64e8b7ad5bda4b68d63f3e16","683db6dfa200031b80f2a654","686507830826abecd3e6a94e","64e8b7ad5bda4b68d63f3e16","2025-07-02T10:35:11.467Z","","","","","","ControlQ","","","","","","","","","","","","","","","","","","","","","","","","","","","","","","","","","","","","","","50"
"2138","","<div style=""width:500px;"">
  <p>How would you describe your current emotional state?</p>
  </div>","100","html-slider-response","76","949126","0.0-10.0-3.7","100","1","2025-07-02 10:19:23","80fe4187154257d5fb01684ea91b68b9","82.149.7.50","Mozilla/5.0 (Windows NT 10.0; Win64; x64) AppleWebKit/537.36 (KHTML, like Gecko) Chrome/137.0.0.0 Safari/537.36","WebKit","Chrome","137.0.0.0","Windows","10.0","https://app.prolific.com/","sl,en-GB;q=0.9,en;q=0.8,de;q=0.7","64e8b7ad5bda4b68d63f3e16","683db6dfa200031b80f2a654","686507830826abecd3e6a94e","64e8b7ad5bda4b68d63f3e16","2025-07-02T10:35:13.606Z","","","","","","StressQ","","","","","","","","","","","","","","","","","","","","","","","","","","","","","","","","","","","","","","50"
"2164","","<div style=""width:500px;"">
  <p>What best describes how you currently feel?</p>
  </div>","9","html-slider-response","77","951291","0.0-10.0-4.7","100","1","2025-07-02 10:19:23","80fe4187154257d5fb01684ea91b68b9","82.149.7.50","Mozilla/5.0 (Windows NT 10.0; Win64; x64) AppleWebKit/537.36 (KHTML, like Gecko) Chrome/137.0.0.0 Safari/537.36","WebKit","Chrome","137.0.0.0","Windows","10.0","https://app.prolific.com/","sl,en-GB;q=0.9,en;q=0.8,de;q=0.7","64e8b7ad5bda4b68d63f3e16","683db6dfa200031b80f2a654","686507830826abecd3e6a94e","64e8b7ad5bda4b68d63f3e16","2025-07-02T10:35:15.772Z","","","","","","MotivationQ","","","","","","","","","","","","","","","","","","","","","","","","","","","","","","","","","","","","","","50"
"","","","","ctl-task-cpt","78","986886","0.0-10.0-0.8","100","1","2025-07-02 10:19:23","80fe4187154257d5fb01684ea91b68b9","82.149.7.50","Mozilla/5.0 (Windows NT 10.0; Win64; x64) AppleWebKit/537.36 (KHTML, like Gecko) Chrome/137.0.0.0 Safari/537.36","WebKit","Chrome","137.0.0.0","Windows","10.0","https://app.prolific.com/","sl,en-GB;q=0.9,en;q=0.8,de;q=0.7","64e8b7ad5bda4b68d63f3e16","683db6dfa200031b80f2a654","686507830826abecd3e6a94e","64e8b7ad5bda4b68d63f3e16","2025-07-02T10:35:51.366Z","","","","","","","","","","","","","","","","win-only","1","g1:NE,g2:SW","0.4","9","0","952415.8","1021.7","6025.9","32576.1","1","4","4","6","1","1","1","11","10","0.08333333333333333","2253.3","3000","240","[""up"",""right""]","{""num_key_presses"":8,""num_perfect"":4,""num_errors"":0,""num_randdir"":4,""num_randdir_good_moves"":2,""num_whilered"":0,""num_whileblue"":0,""num_blue"":1,""num_good_moves"":6}","[419.0714133126395,420.32142761775424,0.2,419.0714133126395,420.32142761775424,104.3,419.0714133126395,420.32142761775424,208.7,419.0714133126395,420.32142761775424,314.1,419.0714133126395,420.32142761775424,414.5,419.0714133126395,420.32142761775424,519,419.0714133126395,420.32142761775424,623.7,419.0714133126395,420.32142761775424,724.3,419.0714133126395,420.32142761775424,829.2,419.0714133126395,420.32142761775424,934.1,419.0714133126395,420.32142761775424,1034.2,419.0714133126395,420.32142761775424,1134.5,419.0714133126395,420.32142761775424,1239.1,419.0714133126395,420.32142761775424,1339.3,419.0714133126395,420.32142761775424,1443.8,419.0714133126395,420.32142761775424,1543.8,419.0714133126395,420.32142761775424,1643.8,419.0714133126395,420.32142761775424,1744,816.5714133126395,66.57142761775425,1844.3,816.5714133126395,72.82142761775425,1948.5,814.0714133126395,74.07142761775425,2048.8,806.5714133126395,74.07142761775425,2153.5,801.5714133126395,72.82142761775425,2262.9,801.5714133126395,72.82142761775425,2364,801.5714133126395,72.82142761775425,2469.2,801.5714133126395,72.82142761775425,2574.2,801.5714133126395,72.82142761775425,2678.9,801.5714133126395,72.82142761775425,2783.4,801.5714133126395,72.82142761775425,2888.6,801.5714133126395,72.82142761775425,2993.9,801.5714133126395,72.82142761775425,3093.9,801.5714133126395,72.82142761775425,3194.1,801.5714133126395,72.82142761775425,3294.7,801.5714133126395,72.82142761775425,3398.5,801.5714133126395,72.82142761775425,3499.1,801.5714133126395,72.82142761775425,3604,801.5714133126395,72.82142761775425,3704.3,801.5714133126395,72.82142761775425,3804.4,801.5714133126395,72.82142761775425,3905.2,801.5714133126395,72.82142761775425,4008.7,801.5714133126395,72.82142761775425,4113.5,801.5714133126395,72.82142761775425,4213.6,801.5714133126395,72.82142761775425,4313.6,801.5714133126395,72.82142761775425,4414,801.5714133126395,72.82142761775425,4518.8,801.5714133126395,72.82142761775425,4624.6,801.5714133126395,72.82142761775425,4729.3,801.5714133126395,72.82142761775425,4834.4,801.5714133126395,72.82142761775425,4938.8]","[1474.5,1474.4,1000,0.1,474.4,""smooth"",""up"",""up"",""good_move"",4679.2,3204.5,2852.4,1474.8,352,""smooth"",""right"",""right"",""good_move"",8732.7,4053.2,3669.9,4679.5,383.3,""oops"",""right"",""left"",""bad_move"",11688.1,2955.1,2620.3,8733,334.8,""smooth"",""right"",""right"",""good_move"",17713.6,6025.3,2640.5,14734.2,338.9,""smooth"",""right"",""right"",""good_move"",20164.4,2450.6,2139,17713.8,311.6,""oops"",""up"",""down"",""bad_move"",23694.2,3529.4,3222.9,20164.8,306.5,""oops"",""up"",""up"",""good_move"",26464.1,2769.6,2464.6,23694.5,305,""oops"",""up"",""up"",""good_move""]","",""
"3674","","<div style=""width:500px;"">
  <p>What determined the result of this run?</p>
  </div>","38","html-slider-response","79","990561","0.0-10.0-1.8","100","1","2025-07-02 10:19:23","80fe4187154257d5fb01684ea91b68b9","82.149.7.50","Mozilla/5.0 (Windows NT 10.0; Win64; x64) AppleWebKit/537.36 (KHTML, like Gecko) Chrome/137.0.0.0 Safari/537.36","WebKit","Chrome","137.0.0.0","Windows","10.0","https://app.prolific.com/","sl,en-GB;q=0.9,en;q=0.8,de;q=0.7","64e8b7ad5bda4b68d63f3e16","683db6dfa200031b80f2a654","686507830826abecd3e6a94e","64e8b7ad5bda4b68d63f3e16","2025-07-02T10:35:55.041Z","","","","","","AttribQ","","","","","","","","","","","","","","","","","","","","","","","","","","","","","","","","","","","","","","50"
"1718","","<div style=""width:500px;"">
  <p>How much control did you have over the ball?</p>
  </div>","34","html-slider-response","80","992280","0.0-10.0-2.8","100","1","2025-07-02 10:19:23","80fe4187154257d5fb01684ea91b68b9","82.149.7.50","Mozilla/5.0 (Windows NT 10.0; Win64; x64) AppleWebKit/537.36 (KHTML, like Gecko) Chrome/137.0.0.0 Safari/537.36","WebKit","Chrome","137.0.0.0","Windows","10.0","https://app.prolific.com/","sl,en-GB;q=0.9,en;q=0.8,de;q=0.7","64e8b7ad5bda4b68d63f3e16","683db6dfa200031b80f2a654","686507830826abecd3e6a94e","64e8b7ad5bda4b68d63f3e16","2025-07-02T10:35:56.760Z","","","","","","ControlQ","","","","","","","","","","","","","","","","","","","","","","","","","","","","","","","","","","","","","","50"
"2856","","<div style=""width:500px;"">
  <p>How would you describe your current emotional state?</p>
  </div>","79","html-slider-response","81","995139","0.0-10.0-3.8","100","1","2025-07-02 10:19:23","80fe4187154257d5fb01684ea91b68b9","82.149.7.50","Mozilla/5.0 (Windows NT 10.0; Win64; x64) AppleWebKit/537.36 (KHTML, like Gecko) Chrome/137.0.0.0 Safari/537.36","WebKit","Chrome","137.0.0.0","Windows","10.0","https://app.prolific.com/","sl,en-GB;q=0.9,en;q=0.8,de;q=0.7","64e8b7ad5bda4b68d63f3e16","683db6dfa200031b80f2a654","686507830826abecd3e6a94e","64e8b7ad5bda4b68d63f3e16","2025-07-02T10:35:59.620Z","","","","","","StressQ","","","","","","","","","","","","","","","","","","","","","","","","","","","","","","","","","","","","","","50"
"2588","","<div style=""width:500px;"">
  <p>What best describes how you currently feel?</p>
  </div>","42","html-slider-response","82","997729","0.0-10.0-4.8","100","1","2025-07-02 10:19:23","80fe4187154257d5fb01684ea91b68b9","82.149.7.50","Mozilla/5.0 (Windows NT 10.0; Win64; x64) AppleWebKit/537.36 (KHTML, like Gecko) Chrome/137.0.0.0 Safari/537.36","WebKit","Chrome","137.0.0.0","Windows","10.0","https://app.prolific.com/","sl,en-GB;q=0.9,en;q=0.8,de;q=0.7","64e8b7ad5bda4b68d63f3e16","683db6dfa200031b80f2a654","686507830826abecd3e6a94e","64e8b7ad5bda4b68d63f3e16","2025-07-02T10:36:02.209Z","","","","","","MotivationQ","","","","","","","","","","","","","","","","","","","","","","","","","","","","","","","","","","","","","","50"
