"rt","response_timestamp","stimulus","response","trial_type","trial_index","time_elapsed","internal_node_id","run_id","condition","recorded_at","source_code_version","ip","user_agent","device","browser","browser_version","platform","platform_version","referer","accept_language","PROLIFIC_PID","STUDY_ID","SESSION_ID","prolific_id","realtime","view_history","question_order","consent","success","question_id","eventType","responses","item_order","radio_event_ids","radio_event_times","key_event_times","mouse_event_times","straightlining","zigzagging","honeypot","which_type","canvas_config","goals_layout","control_level","trial_number","tutorial_trial_number","trial_start_time","phase1_start_time","phase2_start_time","phase3_start_time","goal_1_value","goal_1_distance","goal_2_value","goal_2_distance","goal_selected","outcome","outcome_total","participant_final_score","participant_initial_score","participant_final_score_prop","goal_choice_rt","allocated_time","allocated_time_remaining","goal_direction","counts","mouse_movements","key_presses","correct","slider_start"
"16468","1751451580240","<p style='font-size:40px;line-height:1.25'><strong>Welcome to the experiment!</strong></p><p style='font-size:1.1em;line-height:1.25'>Thank you for your interest in our experiment! Before you begin, it is important that we obtain your informed consent to participate in the study.</p><p style='font-size:1.1em;line-height:1.25'>On the next screen will be an <strong>information sheet</strong> for you to read. To participate in the study we need you to read this information sheet and the following consent form carefully. If you agree with all the statements, please click the <strong>I agree</strong> button.</p><p style='font-size:1.1em;line-height:1.25'>Press <strong>Next</strong> to read the information sheet.</p>","0","custom-html-button-response","0","16471","0.0-0.0","98","1","2025-07-02 10:19:19","80fe4187154257d5fb01684ea91b68b9","79.78.232.115","Mozilla/5.0 (Windows NT 10.0; Win64; x64) AppleWebKit/537.36 (KHTML, like Gecko) Chrome/138.0.0.0 Safari/537.36","WebKit","Chrome","138.0.0.0","Windows","10.0","https://app.prolific.com/","en-GB,en-US;q=0.9,en;q=0.8","65031d5ca9f619d9e0412f0a","683db6dfa200031b80f2a654","6865078f59fd5c6acd471890","65031d5ca9f619d9e0412f0a","2025-07-02T10:19:40.242Z","","","","","","","","","","","","","","","","","","","","","","","","","","","","","","","","","","","","","","","","","","","",""
"6046","","","","instructions","1","22519","0.0-1.0","98","1","2025-07-02 10:19:19","80fe4187154257d5fb01684ea91b68b9","79.78.232.115","Mozilla/5.0 (Windows NT 10.0; Win64; x64) AppleWebKit/537.36 (KHTML, like Gecko) Chrome/138.0.0.0 Safari/537.36","WebKit","Chrome","138.0.0.0","Windows","10.0","https://app.prolific.com/","en-GB,en-US;q=0.9,en;q=0.8","65031d5ca9f619d9e0412f0a","683db6dfa200031b80f2a654","6865078f59fd5c6acd471890","65031d5ca9f619d9e0412f0a","","[{""page_index"":0,""viewing_time"":4000},{""page_index"":1,""viewing_time"":2045}]","","","","","","","","","","","","","","","","","","","","","","","","","","","","","","","","","","","","","","","","","","",""
"4972","","","{""Q0"":"""",""Q1"":"""",""Q2"":"""",""Q3"":"""",""Q4"":"""",""Q5"":"""",""Q6"":""I agree""}","survey-multi-choice","2","27494","0.0-2.0","98","1","2025-07-02 10:19:19","80fe4187154257d5fb01684ea91b68b9","79.78.232.115","Mozilla/5.0 (Windows NT 10.0; Win64; x64) AppleWebKit/537.36 (KHTML, like Gecko) Chrome/138.0.0.0 Safari/537.36","WebKit","Chrome","138.0.0.0","Windows","10.0","https://app.prolific.com/","en-GB,en-US;q=0.9,en;q=0.8","65031d5ca9f619d9e0412f0a","683db6dfa200031b80f2a654","6865078f59fd5c6acd471890","65031d5ca9f619d9e0412f0a","","","[0,1,2,3,4,5,6]","true","","","","","","","","","","","","","","","","","","","","","","","","","","","","","","","","","","","","","","","","",""
"11618","","","","fullscreen","3","40129","0.0-4.0","98","1","2025-07-02 10:19:19","80fe4187154257d5fb01684ea91b68b9","79.78.232.115","Mozilla/5.0 (Windows NT 10.0; Win64; x64) AppleWebKit/537.36 (KHTML, like Gecko) Chrome/138.0.0.0 Safari/537.36","WebKit","Chrome","138.0.0.0","Windows","10.0","https://app.prolific.com/","en-GB,en-US;q=0.9,en;q=0.8","65031d5ca9f619d9e0412f0a","683db6dfa200031b80f2a654","6865078f59fd5c6acd471890","65031d5ca9f619d9e0412f0a","","","","","true","","","","","","","","","","","","","","","","","","","","","","","","","","","","","","","","","","","","","","","",""
"5918","1751451609820"," <p style='font-size:1.1em;line-height:1.25'>Thank you for completing the consent form and closing all other tabs.</p><p style='font-size:1.1em;line-height:1.25'>We will now invite you to fill in some demographic information and questionnaires, before starting the game.<br>This will take about 5 minutes.<br></p><p style='font-size:1.1em;line-height:1.25'>Press the <strong>Next</strong> button to continue.</p>","0","custom-html-button-response","4","46050","0.0-5.0","98","1","2025-07-02 10:19:19","80fe4187154257d5fb01684ea91b68b9","79.78.232.115","Mozilla/5.0 (Windows NT 10.0; Win64; x64) AppleWebKit/537.36 (KHTML, like Gecko) Chrome/138.0.0.0 Safari/537.36","WebKit","Chrome","138.0.0.0","Windows","10.0","https://app.prolific.com/","en-GB,en-US;q=0.9,en;q=0.8","65031d5ca9f619d9e0412f0a","683db6dfa200031b80f2a654","6865078f59fd5c6acd471890","65031d5ca9f619d9e0412f0a","2025-07-02T10:20:09.821Z","","","","","","","","","","","","","","","","","","","","","","","","","","","","","","","","","","","","","","","","","","","",""
"3649","","","{""age"":""21""}","survey-text","5","49718","0.0-6.0-0.0","98","1","2025-07-02 10:19:19","80fe4187154257d5fb01684ea91b68b9","79.78.232.115","Mozilla/5.0 (Windows NT 10.0; Win64; x64) AppleWebKit/537.36 (KHTML, like Gecko) Chrome/138.0.0.0 Safari/537.36","WebKit","Chrome","138.0.0.0","Windows","10.0","https://app.prolific.com/","en-GB,en-US;q=0.9,en;q=0.8","65031d5ca9f619d9e0412f0a","683db6dfa200031b80f2a654","6865078f59fd5c6acd471890","65031d5ca9f619d9e0412f0a","","","","","","0","demographics","","","","","","","","","","","","","","","","","","","","","","","","","","","","","","","","","","","","","",""
"2764","","","{""gender_identity"":""male/man""}","survey-multi-choice","6","52484","0.0-6.0-1.0","98","1","2025-07-02 10:19:19","80fe4187154257d5fb01684ea91b68b9","79.78.232.115","Mozilla/5.0 (Windows NT 10.0; Win64; x64) AppleWebKit/537.36 (KHTML, like Gecko) Chrome/138.0.0.0 Safari/537.36","WebKit","Chrome","138.0.0.0","Windows","10.0","https://app.prolific.com/","en-GB,en-US;q=0.9,en;q=0.8","65031d5ca9f619d9e0412f0a","683db6dfa200031b80f2a654","6865078f59fd5c6acd471890","65031d5ca9f619d9e0412f0a","","","[0]","","","1","demographics","","","","","","","","","","","","","","","","","","","","","","","","","","","","","","","","","","","","","",""
"3071","","","{""assigned_sex"":""male""}","survey-multi-choice","7","55557","0.0-6.0-2.0","98","1","2025-07-02 10:19:19","80fe4187154257d5fb01684ea91b68b9","79.78.232.115","Mozilla/5.0 (Windows NT 10.0; Win64; x64) AppleWebKit/537.36 (KHTML, like Gecko) Chrome/138.0.0.0 Safari/537.36","WebKit","Chrome","138.0.0.0","Windows","10.0","https://app.prolific.com/","en-GB,en-US;q=0.9,en;q=0.8","65031d5ca9f619d9e0412f0a","683db6dfa200031b80f2a654","6865078f59fd5c6acd471890","65031d5ca9f619d9e0412f0a","","","[0]","","","2","demographics","","","","","","","","","","","","","","","","","","","","","","","","","","","","","","","","","","","","","",""
"2783","","","{""menstrual_cycle"":""No""}","survey-multi-choice","8","58341","0.0-6.0-3.0","98","1","2025-07-02 10:19:19","80fe4187154257d5fb01684ea91b68b9","79.78.232.115","Mozilla/5.0 (Windows NT 10.0; Win64; x64) AppleWebKit/537.36 (KHTML, like Gecko) Chrome/138.0.0.0 Safari/537.36","WebKit","Chrome","138.0.0.0","Windows","10.0","https://app.prolific.com/","en-GB,en-US;q=0.9,en;q=0.8","65031d5ca9f619d9e0412f0a","683db6dfa200031b80f2a654","6865078f59fd5c6acd471890","65031d5ca9f619d9e0412f0a","","","[0]","","","4","demographics","","","","","","","","","","","","","","","","","","","","","","","","","","","","","","","","","","","","","",""
"6298","","","{""education"":""A-level/National Diploma/Highers""}","survey-multi-choice","9","64641","0.0-6.0-4.0","98","1","2025-07-02 10:19:19","80fe4187154257d5fb01684ea91b68b9","79.78.232.115","Mozilla/5.0 (Windows NT 10.0; Win64; x64) AppleWebKit/537.36 (KHTML, like Gecko) Chrome/138.0.0.0 Safari/537.36","WebKit","Chrome","138.0.0.0","Windows","10.0","https://app.prolific.com/","en-GB,en-US;q=0.9,en;q=0.8","65031d5ca9f619d9e0412f0a","683db6dfa200031b80f2a654","6865078f59fd5c6acd471890","65031d5ca9f619d9e0412f0a","","","[0]","","","5","demographics","","","","","","","","","","","","","","","","","","","","","","","","","","","","","","","","","","","","","",""
"6729","","","{""education"":""GCSE/Standard Grades""}","survey-multi-choice","10","71372","0.0-6.0-5.0","98","1","2025-07-02 10:19:19","80fe4187154257d5fb01684ea91b68b9","79.78.232.115","Mozilla/5.0 (Windows NT 10.0; Win64; x64) AppleWebKit/537.36 (KHTML, like Gecko) Chrome/138.0.0.0 Safari/537.36","WebKit","Chrome","138.0.0.0","Windows","10.0","https://app.prolific.com/","en-GB,en-US;q=0.9,en;q=0.8","65031d5ca9f619d9e0412f0a","683db6dfa200031b80f2a654","6865078f59fd5c6acd471890","65031d5ca9f619d9e0412f0a","2025-07-02T10:20:35.142Z","","[0]","","","6","demographics","","","","","","","","","","","","","","","","","","","","","","","","","","","","","","","","","","","","","",""
"25148","","","{""mental_health_condition"":""no"",""mental_health_treatment"":""no"",""psychiatric_medication"":""""}","survey-text","11","96539","0.0-7.0-0.0","98","1","2025-07-02 10:19:19","80fe4187154257d5fb01684ea91b68b9","79.78.232.115","Mozilla/5.0 (Windows NT 10.0; Win64; x64) AppleWebKit/537.36 (KHTML, like Gecko) Chrome/138.0.0.0 Safari/537.36","WebKit","Chrome","138.0.0.0","Windows","10.0","https://app.prolific.com/","en-GB,en-US;q=0.9,en;q=0.8","65031d5ca9f619d9e0412f0a","683db6dfa200031b80f2a654","6865078f59fd5c6acd471890","65031d5ca9f619d9e0412f0a","2025-07-02T10:21:00.309Z","","","","","1","mental_health","","","","","","","","","","","","","","","","","","","","","","","","","","","","","","","","","","","","","",""
"12656","","","{""depression_history"":[""Prefer not to say""]}","survey-multi-select","12","109198","0.0-7.0-1.0","98","1","2025-07-02 10:19:19","80fe4187154257d5fb01684ea91b68b9","79.78.232.115","Mozilla/5.0 (Windows NT 10.0; Win64; x64) AppleWebKit/537.36 (KHTML, like Gecko) Chrome/138.0.0.0 Safari/537.36","WebKit","Chrome","138.0.0.0","Windows","10.0","https://app.prolific.com/","en-GB,en-US;q=0.9,en;q=0.8","65031d5ca9f619d9e0412f0a","683db6dfa200031b80f2a654","6865078f59fd5c6acd471890","65031d5ca9f619d9e0412f0a","","","[0]","","","","mental_health","","","","","","","","","","","","","","","","","","","","","","","","","","","","","","","","","","","","","",""
"67365.40000000596","","","","survey-template","13","176569","0.0-7.0-3.0","98","1","2025-07-02 10:19:19","80fe4187154257d5fb01684ea91b68b9","79.78.232.115","Mozilla/5.0 (Windows NT 10.0; Win64; x64) AppleWebKit/537.36 (KHTML, like Gecko) Chrome/138.0.0.0 Safari/537.36","WebKit","Chrome","138.0.0.0","Windows","10.0","https://app.prolific.com/","en-GB,en-US;q=0.9,en;q=0.8","65031d5ca9f619d9e0412f0a","683db6dfa200031b80f2a654","6865078f59fd5c6acd471890","65031d5ca9f619d9e0412f0a","2025-07-02T10:22:20.339Z","","","","","","ius","{""Q01"":""2"",""Q02"":""1"",""Q03"":""1"",""Q04"":""3"",""Q05"":""1"",""Q06"":""0"",""Q07"":""0"",""Q08"":""0"",""Q09"":""1"",""Q10"":""0"",""Q11"":""0"",""Q12"":""2"",""Q13"":""0""}","[0,1,2,3,4,5,6,7,8,9,10,11,12]","[""Q01"",""Q02"",""Q02"",""Q03"",""Q04"",""Q04"",""Q05"",""Q06"",""Q07"",""Q08"",""Q09"",""Q10"",""Q11"",""Q12"",""Q12"",""Q13""]","[4644.4000000059605,5864.9000000059605,6916.200000017881,9560.59999999404,12582.40000000596,22477,23015.30000001192,26689.59999999404,30717.90000000596,36441.30000001192,40145.5,43876.20000001788,45226.40000000596,47192.09999999404,48504.09999999404,66483.09999999404]","[]","[4644.4000000059605,5864.9000000059605,6916.200000017881,9560.59999999404,12582.40000000596,15911.09999999404,18062,20923.70000001788,21721,22477,23015.30000001192,26689.59999999404,30717.90000000596,36441.30000001192,40145.5,43876.20000001788,45226.40000000596,47192.09999999404,48504.09999999404,66483.09999999404,67362.40000000596]","0.46153846153846156","0.3333333333333333","0","","","","","","","","","","","","","","","","","","","","","","","","","","","","",""
"3094","1751451743434","<p style='font-size:1.1em;line-height:1.25'>In the following, we will ask you a few questions relating to your experiences over the past month.<br></p><p style='font-size:1.1em;line-height:1.25'>Press the <strong>Next</strong> button to continue.</p>","0","custom-html-button-response","14","179664","0.0-7.0-4.0","98","1","2025-07-02 10:19:19","80fe4187154257d5fb01684ea91b68b9","79.78.232.115","Mozilla/5.0 (Windows NT 10.0; Win64; x64) AppleWebKit/537.36 (KHTML, like Gecko) Chrome/138.0.0.0 Safari/537.36","WebKit","Chrome","138.0.0.0","Windows","10.0","https://app.prolific.com/","en-GB,en-US;q=0.9,en;q=0.8","65031d5ca9f619d9e0412f0a","683db6dfa200031b80f2a654","6865078f59fd5c6acd471890","65031d5ca9f619d9e0412f0a","2025-07-02T10:22:23.434Z","","","","","","","","","","","","","","","","","","","","","","","","","","","","","","","","","","","","","","","","","","","",""
"52794.09999999404","","","","survey-template","15","232461","0.0-7.0-5.0","98","1","2025-07-02 10:19:19","80fe4187154257d5fb01684ea91b68b9","79.78.232.115","Mozilla/5.0 (Windows NT 10.0; Win64; x64) AppleWebKit/537.36 (KHTML, like Gecko) Chrome/138.0.0.0 Safari/537.36","WebKit","Chrome","138.0.0.0","Windows","10.0","https://app.prolific.com/","en-GB,en-US;q=0.9,en;q=0.8","65031d5ca9f619d9e0412f0a","683db6dfa200031b80f2a654","6865078f59fd5c6acd471890","65031d5ca9f619d9e0412f0a","2025-07-02T10:23:16.231Z","","","","","","pss","{""Q01"":""1"",""Q02"":""1"",""Q03"":""1"",""Q04"":""1"",""Q05"":""1"",""Q06"":""1"",""Q07"":""2"",""Q08"":""2"",""Q09"":""2"",""Q10"":""1""}","[0,1,2,3,4,5,6,7,8,9]","[""Q01"",""Q02"",""Q03"",""Q04"",""Q05"",""Q06"",""Q06"",""Q07"",""Q10"",""Q09"",""Q08""]","[11960.90000000596,12181.59999999404,12563.699999988079,13183.59999999404,16100.699999988079,16462.40000000596,18727.09999999404,21907.69999998808,29232.29999998212,29579.90000000596,30381.19999998808]","[]","[10.599999994039536,11960.90000000596,12181.59999999404,12563.699999988079,13183.59999999404,16100.699999988079,16462.40000000596,18727.09999999404,21907.69999998808,29232.29999998212,29579.90000000596,30381.19999998808,52788.40000000596]","0.5","0.2222222222222222","0","","","","","","","","","","","","","","","","","","","","","","","","","","","","",""
"7536","1751451803768","<p style='font-size:1.1em;line-height:1.25'>Thank you for your answers! Now we will ask you a few more questions relating to your feelings in the last 24 hours.<br></p><p style='font-size:1.1em;line-height:1.25'>Press the <strong>Next</strong> button to continue.</p>","0","custom-html-button-response","16","239999","0.0-7.0-6.0","98","1","2025-07-02 10:19:19","80fe4187154257d5fb01684ea91b68b9","79.78.232.115","Mozilla/5.0 (Windows NT 10.0; Win64; x64) AppleWebKit/537.36 (KHTML, like Gecko) Chrome/138.0.0.0 Safari/537.36","WebKit","Chrome","138.0.0.0","Windows","10.0","https://app.prolific.com/","en-GB,en-US;q=0.9,en;q=0.8","65031d5ca9f619d9e0412f0a","683db6dfa200031b80f2a654","6865078f59fd5c6acd471890","65031d5ca9f619d9e0412f0a","2025-07-02T10:23:23.769Z","","","","","","","","","","","","","","","","","","","","","","","","","","","","","","","","","","","","","","","","","","","",""
"56556.69999998808","","","","survey-template","17","296560","0.0-7.0-7.0","98","1","2025-07-02 10:19:19","80fe4187154257d5fb01684ea91b68b9","79.78.232.115","Mozilla/5.0 (Windows NT 10.0; Win64; x64) AppleWebKit/537.36 (KHTML, like Gecko) Chrome/138.0.0.0 Safari/537.36","WebKit","Chrome","138.0.0.0","Windows","10.0","https://app.prolific.com/","en-GB,en-US;q=0.9,en;q=0.8","65031d5ca9f619d9e0412f0a","683db6dfa200031b80f2a654","6865078f59fd5c6acd471890","65031d5ca9f619d9e0412f0a","2025-07-02T10:24:20.330Z","","","","","","drsp","{""Q01"":""0"",""Q02"":""0"",""Q03"":""0"",""Q04"":""1"",""Q05"":""0"",""Q06"":""0"",""Q07"":""0"",""Q08"":""0"",""Q09"":""2"",""Q10"":""1"",""Q11"":""1"",""Q12"":""2"",""Q13"":""2"",""Q14"":""0"",""Q15"":""0"",""Q16"":""1"",""Q17"":""1"",""Q18"":""0"",""Q19"":""1"",""Q20"":""2"",""Q21"":""3""}","[0,1,2,3,4,5,6,7,8,9,10,11,12,13,14,15,16,17,18,19,20]","[""Q01"",""Q02"",""Q04"",""Q05"",""Q06"",""Q07"",""Q08"",""Q09"",""Q10"",""Q11"",""Q12"",""Q13"",""Q14"",""Q15"",""Q16"",""Q17"",""Q18"",""Q19"",""Q20"",""Q20"",""Q21"",""Q21"",""Q03""]","[7531.799999982119,7776.199999988079,9019.799999982119,9353.90000000596,11412.40000000596,13139.5,13442.699999988079,15656.90000000596,17198.29999998212,17909.59999999404,19744.79999998212,21121.09999999404,22537.29999998212,25087.79999998212,26279.59999999404,27298.59999999404,32880.90000000596,33323.5,36479.69999998808,37040,39830.5,47427.59999999404,53858.40000000596]","[]","[14.5,4011.9000000059605,7531.799999982119,7776.199999988079,8134.699999988079,9019.799999982119,9353.90000000596,11412.40000000596,13139.5,13442.699999988079,15656.90000000596,17198.29999998212,17909.59999999404,19744.79999998212,21121.09999999404,22537.29999998212,25087.79999998212,26279.59999999404,27298.59999999404,32880.90000000596,33323.5,36479.69999998808,37040,39830.5,46142.29999998212,47427.59999999404,51259.19999998808,53858.40000000596,56551.90000000596]","0.47619047619047616","0.45","0","","","","","","","","","","","","","","","","","","","","","","","","","","","","",""
"14115","","","","survey-template","18","310677","0.0-7.0-8.0","98","1","2025-07-02 10:19:19","80fe4187154257d5fb01684ea91b68b9","79.78.232.115","Mozilla/5.0 (Windows NT 10.0; Win64; x64) AppleWebKit/537.36 (KHTML, like Gecko) Chrome/138.0.0.0 Safari/537.36","WebKit","Chrome","138.0.0.0","Windows","10.0","https://app.prolific.com/","en-GB,en-US;q=0.9,en;q=0.8","65031d5ca9f619d9e0412f0a","683db6dfa200031b80f2a654","6865078f59fd5c6acd471890","65031d5ca9f619d9e0412f0a","2025-07-02T10:24:34.447Z","","","","","","stress","{""Q01"":""1"",""Q02"":""1"",""Q03"":""1""}","[0,1,2]","[""Q01"",""Q02"",""Q03""]","[9898.5,10335.799999982119,12761.09999999404]","[]","[9898.5,10335.799999982119,12761.09999999404,14114.09999999404]","0.6666666666666666","0","0","","","","","","","","","","","","","","","","","","","","","","","","","","","","",""
"96538","","","","instructions","19","407216","0.0-8.0-0.0","98","1","2025-07-02 10:19:19","80fe4187154257d5fb01684ea91b68b9","79.78.232.115","Mozilla/5.0 (Windows NT 10.0; Win64; x64) AppleWebKit/537.36 (KHTML, like Gecko) Chrome/138.0.0.0 Safari/537.36","WebKit","Chrome","138.0.0.0","Windows","10.0","https://app.prolific.com/","en-GB,en-US;q=0.9,en;q=0.8","65031d5ca9f619d9e0412f0a","683db6dfa200031b80f2a654","6865078f59fd5c6acd471890","65031d5ca9f619d9e0412f0a","","[{""page_index"":0,""viewing_time"":29957},{""page_index"":1,""viewing_time"":28051},{""page_index"":2,""viewing_time"":11470},{""page_index"":3,""viewing_time"":27059}]","","","","","","","","","","","","","","","","","","","","","","","","","","","","","","","","","","","","","","","","","","",""
"","","","","ctl-task-cpt","20","435051","0.0-8.0-1.0","98","1","2025-07-02 10:19:19","80fe4187154257d5fb01684ea91b68b9","79.78.232.115","Mozilla/5.0 (Windows NT 10.0; Win64; x64) AppleWebKit/537.36 (KHTML, like Gecko) Chrome/138.0.0.0 Safari/537.36","WebKit","Chrome","138.0.0.0","Windows","10.0","https://app.prolific.com/","en-GB,en-US;q=0.9,en;q=0.8","65031d5ca9f619d9e0412f0a","683db6dfa200031b80f2a654","6865078f59fd5c6acd471890","65031d5ca9f619d9e0412f0a","","","","","","","","","","","","","","","","","win-only","0","g1:NW,g2:SE","1","0","1","408425.1","4141.7","8144.9","24830","2","4","4","6","1","2","1","1","0","0.007575757575757576","1877.4","4000","2555","[""left"",""up""]","{""num_key_presses"":5,""num_perfect"":4,""num_errors"":1,""num_randdir"":0,""num_randdir_good_moves"":0,""num_whilered"":0,""num_whileblue"":0,""num_blue"":1,""num_good_moves"":4}","[415.07142857142856,422.1808016640799,0.5,415.07142857142856,422.1808016640799,103.8,415.07142857142856,422.1808016640799,208.9,415.07142857142856,422.1808016640799,309.2,415.07142857142856,422.1808016640799,409.9,415.07142857142856,422.1808016640799,517.9,415.07142857142856,422.1808016640799,620,415.07142857142856,422.1808016640799,731,415.07142857142856,422.1808016640799,836.5,415.07142857142856,422.1808016640799,944.1,373.07142857142856,368.1808016640799,1047.6,371.57142857142856,365.1808016640799,1149.8,371.57142857142856,365.1808016640799,1249.9,145.07142857142856,159.68080166407992,1355.4,49.07142857142857,89.18080166407994,1456.2,41.57142857142857,86.18080166407994,1563.4,41.57142857142857,83.18080166407994,1670.2,41.57142857142857,83.18080166407994,1782.1,41.57142857142857,83.18080166407994,1885.8,41.57142857142857,83.18080166407994,1987.5,41.57142857142857,83.18080166407994,2088.1,41.57142857142857,83.18080166407994,2197.4,41.57142857142857,83.18080166407994,2304.2,41.57142857142857,83.18080166407994,2409.6,41.57142857142857,83.18080166407994,2511.5,44.57142857142857,86.18080166407994,2618.5,94.07142857142857,155.18080166407992,2724.1,104.57142857142857,171.68080166407992,2829.5,104.57142857142857,171.68080166407992,2933.7,104.57142857142857,171.68080166407992,3036.2,104.57142857142857,171.68080166407992,3137.1,104.57142857142857,171.68080166407992,3246,104.57142857142857,171.68080166407992,3350.5,104.57142857142857,171.68080166407992,3453.6,104.57142857142857,171.68080166407992,3554,104.57142857142857,171.68080166407992,3662.2,104.57142857142857,171.68080166407992,3764.9,104.57142857142857,171.68080166407992,3872.6,104.57142857142857,171.68080166407992,3979.9]","[271.9,271.9,1000,0,-728.1,""error"",""-"",""-"",""no_move"",4541.5,4269.5,2650.9,1273.8,616.8,""smooth"",""up"",""up"",""good_move"",11052.9,6510.8,2544.3,8090.6,418,""smooth"",""left"",""left"",""good_move"",13416,2362.5,1749.1,11053.5,613.4,""smooth"",""up"",""up"",""good_move"",16539.3,3122.6,2712.2,13416.8,410.3,""smooth"",""left"",""left"",""good_move""]","",""
"10457","","","","instructions","21","445509","0.0-8.0-2.0","98","1","2025-07-02 10:19:19","80fe4187154257d5fb01684ea91b68b9","79.78.232.115","Mozilla/5.0 (Windows NT 10.0; Win64; x64) AppleWebKit/537.36 (KHTML, like Gecko) Chrome/138.0.0.0 Safari/537.36","WebKit","Chrome","138.0.0.0","Windows","10.0","https://app.prolific.com/","en-GB,en-US;q=0.9,en;q=0.8","65031d5ca9f619d9e0412f0a","683db6dfa200031b80f2a654","6865078f59fd5c6acd471890","65031d5ca9f619d9e0412f0a","","[{""page_index"":0,""viewing_time"":10456}]","","","","","","","","","","","","","","","","","","","","","","","","","","","","","","","","","","","","","","","","","","",""
"","","","","ctl-task-cpt","22","497818","0.0-8.0-3.0","98","1","2025-07-02 10:19:19","80fe4187154257d5fb01684ea91b68b9","79.78.232.115","Mozilla/5.0 (Windows NT 10.0; Win64; x64) AppleWebKit/537.36 (KHTML, like Gecko) Chrome/138.0.0.0 Safari/537.36","WebKit","Chrome","138.0.0.0","Windows","10.0","https://app.prolific.com/","en-GB,en-US;q=0.9,en;q=0.8","65031d5ca9f619d9e0412f0a","683db6dfa200031b80f2a654","6865078f59fd5c6acd471890","65031d5ca9f619d9e0412f0a","","","","","","","","","","","","","","","","","win-only","0","g1:NW,g2:SE","0.35","0","3","446716.4","2154.3","6163.8","49297.7","2","4","8","6","1","2","2","2","0","0.015151515151515152","2416.8","4000","1250","[""left"",""up""]","{""num_key_presses"":12,""num_perfect"":6,""num_errors"":0,""num_randdir"":6,""num_randdir_good_moves"":2,""num_whilered"":0,""num_whileblue"":0,""num_blue"":3,""num_good_moves"":8}","[416.57142857142856,413.1808016640799,1.1,416.57142857142856,413.1808016640799,104.6,416.57142857142856,413.1808016640799,206.3,416.57142857142856,413.1808016640799,314.5,416.57142857142856,413.1808016640799,422.4,416.57142857142856,413.1808016640799,527.8,416.57142857142856,413.1808016640799,628.8,416.57142857142856,413.1808016640799,730.3,416.57142857142856,413.1808016640799,832.6,416.57142857142856,413.1808016640799,933,398.57142857142856,395.1808016640799,1040.1,148.07142857142856,197.18080166407992,1141.4,148.07142857142856,197.18080166407992,1246.9,131.57142857142856,164.18080166407992,1357.7,74.57142857142857,80.18080166407994,1459.2,56.57142857142857,56.18080166407994,1559.2,56.57142857142857,56.18080166407994,1662.2,56.57142857142857,56.18080166407994,1764.5,56.57142857142857,56.18080166407994,1866.9,56.57142857142857,56.18080166407994,1967,56.57142857142857,56.18080166407994,2080.2,56.57142857142857,56.18080166407994,2181.9,56.57142857142857,56.18080166407994,2289.1,56.57142857142857,56.18080166407994,2419.3,56.57142857142857,56.18080166407994,2520.3,56.57142857142857,56.18080166407994,2627.4,56.57142857142857,56.18080166407994,2733.4,56.57142857142857,56.18080166407994,2839.4,56.57142857142857,56.18080166407994,2948.8,56.57142857142857,56.18080166407994,3057,56.57142857142857,56.18080166407994,3164.9,56.57142857142857,56.18080166407994,3270.8,56.57142857142857,56.18080166407994,3372.1,56.57142857142857,56.18080166407994,3477.9,56.57142857142857,56.18080166407994,3582.2,56.57142857142857,56.18080166407994,3682.3,56.57142857142857,56.18080166407994,3782.9,56.57142857142857,56.18080166407994,3888.5,56.57142857142857,56.18080166407994,3995.7]","[5265.7,5265.7,2928.9,2004.8,332,""oops"",""up"",""left"",""good_move"",8448.6,3182,2761.4,5266.6,420.6,""smooth"",""up"",""up"",""good_move"",11394.7,2945.4,2555.7,8449.3,389.7,""smooth"",""left"",""left"",""good_move"",14131,2735.4,2402.4,11395.6,333,""oops"",""up"",""down"",""bad_move"",16451.1,2319.1,1925,14132,394.1,""smooth"",""up"",""up"",""good_move"",22726.1,6274.1,2573.5,19851.5,301.1,""oops"",""up"",""right"",""bad_move"",28295.1,5568.5,2424.8,25562.7,307.6,""oops"",""left"",""down"",""bad_move"",31372,3076.3,2658.8,28295.8,417.4,""oops"",""up"",""down"",""bad_move"",34102.1,2729,2332.6,31373.1,396.6,""oops"",""up"",""up"",""good_move"",37447.7,3344.5,3028.9,34103.2,315.6,""smooth"",""up"",""up"",""good_move"",40330.8,2882.3,2550.3,37448.5,332,""smooth"",""left"",""left"",""good_move"",42995,2663.4,2360.8,40331.6,302.6,""smooth"",""up"",""up"",""good_move""]","",""
"74193","","","","instructions","23","572013","0.0-8.0-4.0","98","1","2025-07-02 10:19:19","80fe4187154257d5fb01684ea91b68b9","79.78.232.115","Mozilla/5.0 (Windows NT 10.0; Win64; x64) AppleWebKit/537.36 (KHTML, like Gecko) Chrome/138.0.0.0 Safari/537.36","WebKit","Chrome","138.0.0.0","Windows","10.0","https://app.prolific.com/","en-GB,en-US;q=0.9,en;q=0.8","65031d5ca9f619d9e0412f0a","683db6dfa200031b80f2a654","6865078f59fd5c6acd471890","65031d5ca9f619d9e0412f0a","","[{""page_index"":0,""viewing_time"":30157},{""page_index"":1,""viewing_time"":44036}]","","","","","","","","","","","","","","","","","","","","","","","","","","","","","","","","","","","","","","","","","","",""
"18032","","","{""green_ball"":[""Ball sometimes shakes and moves in a random direction""]}","survey-multi-select","24","590048","0.0-8.0-5.0-0.0","98","1","2025-07-02 10:19:19","80fe4187154257d5fb01684ea91b68b9","79.78.232.115","Mozilla/5.0 (Windows NT 10.0; Win64; x64) AppleWebKit/537.36 (KHTML, like Gecko) Chrome/138.0.0.0 Safari/537.36","WebKit","Chrome","138.0.0.0","Windows","10.0","https://app.prolific.com/","en-GB,en-US;q=0.9,en;q=0.8","65031d5ca9f619d9e0412f0a","683db6dfa200031b80f2a654","6865078f59fd5c6acd471890","65031d5ca9f619d9e0412f0a","","","[0]","","","","quiz","","","","","","","","","","","","","","","","","","","","","","","","","","","","","","","","","","","","","true",""
"1837","","<p align='center'><b>CORRECT!</b> Indeed, the green ball may sometimes shake and move in a random direction.</p>","0","html-button-response","25","591889","0.0-8.0-5.0-1.0","98","1","2025-07-02 10:19:19","80fe4187154257d5fb01684ea91b68b9","79.78.232.115","Mozilla/5.0 (Windows NT 10.0; Win64; x64) AppleWebKit/537.36 (KHTML, like Gecko) Chrome/138.0.0.0 Safari/537.36","WebKit","Chrome","138.0.0.0","Windows","10.0","https://app.prolific.com/","en-GB,en-US;q=0.9,en;q=0.8","65031d5ca9f619d9e0412f0a","683db6dfa200031b80f2a654","6865078f59fd5c6acd471890","65031d5ca9f619d9e0412f0a","","","","","","","","","","","","","","","","","","","","","","","","","","","","","","","","","","","","","","","","","","","","",""
"5439","","","{""yellow_ball"":[""Ball doesn‘t move and I get -1 penalty point""]}","survey-multi-select","26","597331","0.0-8.0-6.0-0.0","98","1","2025-07-02 10:19:19","80fe4187154257d5fb01684ea91b68b9","79.78.232.115","Mozilla/5.0 (Windows NT 10.0; Win64; x64) AppleWebKit/537.36 (KHTML, like Gecko) Chrome/138.0.0.0 Safari/537.36","WebKit","Chrome","138.0.0.0","Windows","10.0","https://app.prolific.com/","en-GB,en-US;q=0.9,en;q=0.8","65031d5ca9f619d9e0412f0a","683db6dfa200031b80f2a654","6865078f59fd5c6acd471890","65031d5ca9f619d9e0412f0a","","","[0]","","","","quiz","","","","","","","","","","","","","","","","","","","","","","","","","","","","","","","","","","","","","true",""
"3610","","<p align='center'><b>CORRECT!</b> Indeed, the yellow ball never moves and you receive a penalty.</p>","0","html-button-response","27","600943","0.0-8.0-6.0-1.0","98","1","2025-07-02 10:19:19","80fe4187154257d5fb01684ea91b68b9","79.78.232.115","Mozilla/5.0 (Windows NT 10.0; Win64; x64) AppleWebKit/537.36 (KHTML, like Gecko) Chrome/138.0.0.0 Safari/537.36","WebKit","Chrome","138.0.0.0","Windows","10.0","https://app.prolific.com/","en-GB,en-US;q=0.9,en;q=0.8","65031d5ca9f619d9e0412f0a","683db6dfa200031b80f2a654","6865078f59fd5c6acd471890","65031d5ca9f619d9e0412f0a","","","","","","","","","","","","","","","","","","","","","","","","","","","","","","","","","","","","","","","","","","","","",""
"5621","","","{""blue_ball"":[""Ball doesn‘t move and I get -1 penalty point""]}","survey-multi-select","28","606566","0.0-8.0-7.0-0.0","98","1","2025-07-02 10:19:19","80fe4187154257d5fb01684ea91b68b9","79.78.232.115","Mozilla/5.0 (Windows NT 10.0; Win64; x64) AppleWebKit/537.36 (KHTML, like Gecko) Chrome/138.0.0.0 Safari/537.36","WebKit","Chrome","138.0.0.0","Windows","10.0","https://app.prolific.com/","en-GB,en-US;q=0.9,en;q=0.8","65031d5ca9f619d9e0412f0a","683db6dfa200031b80f2a654","6865078f59fd5c6acd471890","65031d5ca9f619d9e0412f0a","","","[0]","","","","quiz","","","","","","","","","","","","","","","","","","","","","","","","","","","","","","","","","","","","","false",""
"2617","","<p align='center'><b>INCORRECT.</b> The blue ball always shakes and moves randomly.</p>","0","html-button-response","29","609184","0.0-8.0-7.0-1.0","98","1","2025-07-02 10:19:19","80fe4187154257d5fb01684ea91b68b9","79.78.232.115","Mozilla/5.0 (Windows NT 10.0; Win64; x64) AppleWebKit/537.36 (KHTML, like Gecko) Chrome/138.0.0.0 Safari/537.36","WebKit","Chrome","138.0.0.0","Windows","10.0","https://app.prolific.com/","en-GB,en-US;q=0.9,en;q=0.8","65031d5ca9f619d9e0412f0a","683db6dfa200031b80f2a654","6865078f59fd5c6acd471890","65031d5ca9f619d9e0412f0a","","","","","","","","","","","","","","","","","","","","","","","","","","","","","","","","","","","","","","","","","","","","",""
"9806","","","{""blue_ball"":[""Ball always shakes and moves in a random direction""]}","survey-multi-select","30","618995","0.0-8.0-7.1-0.1","98","1","2025-07-02 10:19:19","80fe4187154257d5fb01684ea91b68b9","79.78.232.115","Mozilla/5.0 (Windows NT 10.0; Win64; x64) AppleWebKit/537.36 (KHTML, like Gecko) Chrome/138.0.0.0 Safari/537.36","WebKit","Chrome","138.0.0.0","Windows","10.0","https://app.prolific.com/","en-GB,en-US;q=0.9,en;q=0.8","65031d5ca9f619d9e0412f0a","683db6dfa200031b80f2a654","6865078f59fd5c6acd471890","65031d5ca9f619d9e0412f0a","","","[0]","","","","quiz","","","","","","","","","","","","","","","","","","","","","","","","","","","","","","","","","","","","","true",""
"5163","","<p align='center'><b>CORRECT!</b> Indeed, the blue ball always shakes and moves in a random direction. Also there is a penalty of -1 point.</p>","0","html-button-response","31","624161","0.0-8.0-7.1-1.1","98","1","2025-07-02 10:19:19","80fe4187154257d5fb01684ea91b68b9","79.78.232.115","Mozilla/5.0 (Windows NT 10.0; Win64; x64) AppleWebKit/537.36 (KHTML, like Gecko) Chrome/138.0.0.0 Safari/537.36","WebKit","Chrome","138.0.0.0","Windows","10.0","https://app.prolific.com/","en-GB,en-US;q=0.9,en;q=0.8","65031d5ca9f619d9e0412f0a","683db6dfa200031b80f2a654","6865078f59fd5c6acd471890","65031d5ca9f619d9e0412f0a","","","","","","","","","","","","","","","","","","","","","","","","","","","","","","","","","","","","","","","","","","","","",""
"14550","","","{""bonus"":[""When I reach 50% of points""]}","survey-multi-select","32","638713","0.0-8.0-8.0-0.0","98","1","2025-07-02 10:19:19","80fe4187154257d5fb01684ea91b68b9","79.78.232.115","Mozilla/5.0 (Windows NT 10.0; Win64; x64) AppleWebKit/537.36 (KHTML, like Gecko) Chrome/138.0.0.0 Safari/537.36","WebKit","Chrome","138.0.0.0","Windows","10.0","https://app.prolific.com/","en-GB,en-US;q=0.9,en;q=0.8","65031d5ca9f619d9e0412f0a","683db6dfa200031b80f2a654","6865078f59fd5c6acd471890","65031d5ca9f619d9e0412f0a","","","[0]","","","","quiz","","","","","","","","","","","","","","","","","","","","","","","","","","","","","","","","","","","","","true",""
"2002","","<p align='center'><b>CORRECT!</b> Indeed, you receive 2 pounds extra when you reach 50% of points.</p>","0","html-button-response","33","640717","0.0-8.0-8.0-1.0","98","1","2025-07-02 10:19:19","80fe4187154257d5fb01684ea91b68b9","79.78.232.115","Mozilla/5.0 (Windows NT 10.0; Win64; x64) AppleWebKit/537.36 (KHTML, like Gecko) Chrome/138.0.0.0 Safari/537.36","WebKit","Chrome","138.0.0.0","Windows","10.0","https://app.prolific.com/","en-GB,en-US;q=0.9,en;q=0.8","65031d5ca9f619d9e0412f0a","683db6dfa200031b80f2a654","6865078f59fd5c6acd471890","65031d5ca9f619d9e0412f0a","","","","","","","","","","","","","","","","","","","","","","","","","","","","","","","","","","","","","","","","","","","","",""
"2376","","","","instructions","34","643095","0.0-8.0-9.0","98","1","2025-07-02 10:19:19","80fe4187154257d5fb01684ea91b68b9","79.78.232.115","Mozilla/5.0 (Windows NT 10.0; Win64; x64) AppleWebKit/537.36 (KHTML, like Gecko) Chrome/138.0.0.0 Safari/537.36","WebKit","Chrome","138.0.0.0","Windows","10.0","https://app.prolific.com/","en-GB,en-US;q=0.9,en;q=0.8","65031d5ca9f619d9e0412f0a","683db6dfa200031b80f2a654","6865078f59fd5c6acd471890","65031d5ca9f619d9e0412f0a","","[{""page_index"":0,""viewing_time"":2376}]","","","","","","","","","","","","","","","","","","","","","","","","","","","","","","","","","","","","","","","","","","",""
"12452","","<p>Before you start with this game please answer the following three questions yourself. </p>
  <p>Through this game, we measure several aspects of your cognitive performance, such as reaction times, multi-tasking capabilities </p>
  <p>and the ability to assess the situation you are in.</p>
  <p></p>
  <p><b>How good do you usually are in such tasks?</b></p>","78","html-slider-response","35","655549","0.0-9.0-0.0","98","1","2025-07-02 10:19:19","80fe4187154257d5fb01684ea91b68b9","79.78.232.115","Mozilla/5.0 (Windows NT 10.0; Win64; x64) AppleWebKit/537.36 (KHTML, like Gecko) Chrome/138.0.0.0 Safari/537.36","WebKit","Chrome","138.0.0.0","Windows","10.0","https://app.prolific.com/","en-GB,en-US;q=0.9,en;q=0.8","65031d5ca9f619d9e0412f0a","683db6dfa200031b80f2a654","6865078f59fd5c6acd471890","65031d5ca9f619d9e0412f0a","2025-07-02T10:30:19.319Z","","","","","","PreSkillQ","","","","","","","","","","","","","","","","","","","","","","","","","","","","","","","","","","","","","","50"
"4576","","<div style=""width:500px;"">
  <p>How well do you think you will perform in this task compared to other participants?</p>
  </div>","60","html-slider-response","36","660126","0.0-9.0-1.0","98","1","2025-07-02 10:19:19","80fe4187154257d5fb01684ea91b68b9","79.78.232.115","Mozilla/5.0 (Windows NT 10.0; Win64; x64) AppleWebKit/537.36 (KHTML, like Gecko) Chrome/138.0.0.0 Safari/537.36","WebKit","Chrome","138.0.0.0","Windows","10.0","https://app.prolific.com/","en-GB,en-US;q=0.9,en;q=0.8","65031d5ca9f619d9e0412f0a","683db6dfa200031b80f2a654","6865078f59fd5c6acd471890","65031d5ca9f619d9e0412f0a","2025-07-02T10:30:23.896Z","","","","","","PrePerfQ","","","","","","","","","","","","","","","","","","","","","","","","","","","","","","","","","","","","","","50"
"5090","","<div style=""width:500px;"">
  <p>What best describes how you currently feel?</p>
  </div>","81","html-slider-response","37","665219","0.0-9.0-2.0","98","1","2025-07-02 10:19:19","80fe4187154257d5fb01684ea91b68b9","79.78.232.115","Mozilla/5.0 (Windows NT 10.0; Win64; x64) AppleWebKit/537.36 (KHTML, like Gecko) Chrome/138.0.0.0 Safari/537.36","WebKit","Chrome","138.0.0.0","Windows","10.0","https://app.prolific.com/","en-GB,en-US;q=0.9,en;q=0.8","65031d5ca9f619d9e0412f0a","683db6dfa200031b80f2a654","6865078f59fd5c6acd471890","65031d5ca9f619d9e0412f0a","2025-07-02T10:30:28.989Z","","","","","","PreMotivationQ","","","","","","","","","","","","","","","","","","","","","","","","","","","","","","","","","","","","","","50"
"","","","","ctl-task-cpt","38","695399","0.0-10.0-0.0","98","1","2025-07-02 10:19:19","80fe4187154257d5fb01684ea91b68b9","79.78.232.115","Mozilla/5.0 (Windows NT 10.0; Win64; x64) AppleWebKit/537.36 (KHTML, like Gecko) Chrome/138.0.0.0 Safari/537.36","WebKit","Chrome","138.0.0.0","Windows","10.0","https://app.prolific.com/","en-GB,en-US;q=0.9,en;q=0.8","65031d5ca9f619d9e0412f0a","683db6dfa200031b80f2a654","6865078f59fd5c6acd471890","65031d5ca9f619d9e0412f0a","2025-07-02T10:30:59.169Z","","","","","","","","","","","","","","","","win-only","2","g1:SE,g2:NW","1","1","0","666429.7","2486.6","7494.5","27167.8","1","4","8","6","2","8","8","8","0","0.06060606060606061","1737.5","3000","1690","[""left"",""up""]","{""num_key_presses"":6,""num_perfect"":6,""num_errors"":0,""num_randdir"":0,""num_randdir_good_moves"":0,""num_whilered"":0,""num_whileblue"":0,""num_blue"":1,""num_good_moves"":6}","[412.07142857142856,417.6808016640799,0.7,412.07142857142856,417.6808016640799,101.9,412.07142857142856,417.6808016640799,206,412.07142857142856,417.6808016640799,308,412.07142857142856,417.6808016640799,409.5,412.07142857142856,417.6808016640799,509.6,412.07142857142856,417.6808016640799,619.7,206.57142857142856,248.18080166407992,721.9,200.57142857142856,245.18080166407992,833.4,122.57142857142857,164.18080166407992,941.5,77.57142857142857,108.68080166407994,1051.2,77.57142857142857,108.68080166407994,1158,77.57142857142857,108.68080166407994,1258.1,59.57142857142857,83.18080166407994,1362.6,55.07142857142857,81.68080166407994,1468.1,55.07142857142857,81.68080166407994,1570.4,55.07142857142857,81.68080166407994,1672,55.07142857142857,81.68080166407994,1781.2,55.07142857142857,81.68080166407994,1887.8,55.07142857142857,81.68080166407994,1988.8,55.07142857142857,81.68080166407994,2091.8,55.07142857142857,81.68080166407994,2192.1,55.07142857142857,81.68080166407994,2294.3,55.07142857142857,81.68080166407994,2394.8,68.57142857142857,107.18080166407994,2505.1,115.07142857142857,219.68080166407992,2620.2,115.07142857142857,219.68080166407992,2734.5,115.07142857142857,219.68080166407992,2835,115.07142857142857,219.68080166407992,2935,115.07142857142857,219.68080166407992,3039.3,115.07142857142857,219.68080166407992,3154.2,115.07142857142857,219.68080166407992,3254.8,115.07142857142857,219.68080166407992,3365.6,115.07142857142857,219.68080166407992,3471.3,115.07142857142857,219.68080166407992,3576.8,115.07142857142857,219.68080166407992,3683.6,115.07142857142857,219.68080166407992,3789.7,115.07142857142857,219.68080166407992,3890.8,115.07142857142857,219.68080166407992,3992.4,115.07142857142857,219.68080166407992,4095.8,115.07142857142857,219.68080166407992,4203.6,115.07142857142857,219.68080166407992,4303.7,115.07142857142857,219.68080166407992,4408.5,115.07142857142857,219.68080166407992,4510.1,115.07142857142857,219.68080166407992,4617.8,115.07142857142857,219.68080166407992,4720.8,115.07142857142857,219.68080166407992,4825.9,115.07142857142857,219.68080166407992,4928.4]","[1327.4,1327.4,1000,0,327.4,""smooth"",""up"",""up"",""good_move"",3992.6,2664.2,2298,1328.5,366.1,""smooth"",""left"",""left"",""good_move"",7201.4,3207.8,2823.7,3993.6,384.1,""smooth"",""left"",""left"",""good_move"",10160.4,2958.3,2637.8,7202.1,320.5,""smooth"",""up"",""up"",""good_move"",16538.1,6376.8,2542.6,13697,298.5,""smooth"",""left"",""left"",""good_move"",19541.4,3003.1,2656.6,16538.6,346.4,""smooth"",""up"",""up"",""good_move""]","",""
"5777","","<div style=""width:500px;"">
  <p>What determined the result of this run?</p>
  </div>","100","html-slider-response","39","701179","0.0-10.0-1.0","98","1","2025-07-02 10:19:19","80fe4187154257d5fb01684ea91b68b9","79.78.232.115","Mozilla/5.0 (Windows NT 10.0; Win64; x64) AppleWebKit/537.36 (KHTML, like Gecko) Chrome/138.0.0.0 Safari/537.36","WebKit","Chrome","138.0.0.0","Windows","10.0","https://app.prolific.com/","en-GB,en-US;q=0.9,en;q=0.8","65031d5ca9f619d9e0412f0a","683db6dfa200031b80f2a654","6865078f59fd5c6acd471890","65031d5ca9f619d9e0412f0a","2025-07-02T10:31:04.949Z","","","","","","AttribQ","","","","","","","","","","","","","","","","","","","","","","","","","","","","","","","","","","","","","","50"
"2988","","<div style=""width:500px;"">
  <p>How much control did you have over the ball?</p>
  </div>","100","html-slider-response","40","704169","0.0-10.0-2.0","98","1","2025-07-02 10:19:19","80fe4187154257d5fb01684ea91b68b9","79.78.232.115","Mozilla/5.0 (Windows NT 10.0; Win64; x64) AppleWebKit/537.36 (KHTML, like Gecko) Chrome/138.0.0.0 Safari/537.36","WebKit","Chrome","138.0.0.0","Windows","10.0","https://app.prolific.com/","en-GB,en-US;q=0.9,en;q=0.8","65031d5ca9f619d9e0412f0a","683db6dfa200031b80f2a654","6865078f59fd5c6acd471890","65031d5ca9f619d9e0412f0a","2025-07-02T10:31:07.939Z","","","","","","ControlQ","","","","","","","","","","","","","","","","","","","","","","","","","","","","","","","","","","","","","","50"
"3627","","<div style=""width:500px;"">
  <p>How would you describe your current emotional state?</p>
  </div>","0","html-slider-response","41","707797","0.0-10.0-3.0","98","1","2025-07-02 10:19:19","80fe4187154257d5fb01684ea91b68b9","79.78.232.115","Mozilla/5.0 (Windows NT 10.0; Win64; x64) AppleWebKit/537.36 (KHTML, like Gecko) Chrome/138.0.0.0 Safari/537.36","WebKit","Chrome","138.0.0.0","Windows","10.0","https://app.prolific.com/","en-GB,en-US;q=0.9,en;q=0.8","65031d5ca9f619d9e0412f0a","683db6dfa200031b80f2a654","6865078f59fd5c6acd471890","65031d5ca9f619d9e0412f0a","2025-07-02T10:31:11.567Z","","","","","","StressQ","","","","","","","","","","","","","","","","","","","","","","","","","","","","","","","","","","","","","","50"
"4069","","<div style=""width:500px;"">
  <p>What best describes how you currently feel?</p>
  </div>","96","html-slider-response","42","711868","0.0-10.0-4.0","98","1","2025-07-02 10:19:19","80fe4187154257d5fb01684ea91b68b9","79.78.232.115","Mozilla/5.0 (Windows NT 10.0; Win64; x64) AppleWebKit/537.36 (KHTML, like Gecko) Chrome/138.0.0.0 Safari/537.36","WebKit","Chrome","138.0.0.0","Windows","10.0","https://app.prolific.com/","en-GB,en-US;q=0.9,en;q=0.8","65031d5ca9f619d9e0412f0a","683db6dfa200031b80f2a654","6865078f59fd5c6acd471890","65031d5ca9f619d9e0412f0a","2025-07-02T10:31:15.638Z","","","","","","MotivationQ","","","","","","","","","","","","","","","","","","","","","","","","","","","","","","","","","","","","","","50"
"","","","","ctl-task-cpt","43","737516","0.0-10.0-0.1","98","1","2025-07-02 10:19:19","80fe4187154257d5fb01684ea91b68b9","79.78.232.115","Mozilla/5.0 (Windows NT 10.0; Win64; x64) AppleWebKit/537.36 (KHTML, like Gecko) Chrome/138.0.0.0 Safari/537.36","WebKit","Chrome","138.0.0.0","Windows","10.0","https://app.prolific.com/","en-GB,en-US;q=0.9,en;q=0.8","65031d5ca9f619d9e0412f0a","683db6dfa200031b80f2a654","6865078f59fd5c6acd471890","65031d5ca9f619d9e0412f0a","2025-07-02T10:31:41.286Z","","","","","","","","","","","","","","","","win-only","2","g1:SE,g2:NW","0.9","2","0","713077.2","1456.9","6463.2","22628.9","1","4","4","6","2","4","4","12","8","0.09090909090909091","1439.9","3000","1760","[""left"",""up""]","{""num_key_presses"":6,""num_perfect"":6,""num_errors"":0,""num_randdir"":0,""num_randdir_good_moves"":0,""num_whilered"":0,""num_whileblue"":0,""num_blue"":0,""num_good_moves"":6}","[419.57142857142856,416.1808016640799,0.5,419.57142857142856,416.1808016640799,101.4,419.57142857142856,416.1808016640799,213.9,419.57142857142856,416.1808016640799,314.7,419.57142857142856,416.1808016640799,423.5,419.57142857142856,416.1808016640799,524,419.57142857142856,416.1808016640799,633.5,182.57142857142856,212.18080166407992,741.6,104.57142857142857,137.18080166407992,855.1,104.57142857142857,137.18080166407992,969.4,83.57142857142857,117.68080166407994,1069.7,77.57142857142857,110.18080166407994,1173.1,77.57142857142857,110.18080166407994,1273.5,77.57142857142857,110.18080166407994,1373.9,77.57142857142857,110.18080166407994,1479.6,77.57142857142857,110.18080166407994,1587.7,77.57142857142857,110.18080166407994,1692.2,77.57142857142857,110.18080166407994,1793.9,77.57142857142857,110.18080166407994,1905.7,77.57142857142857,110.18080166407994,2017.2,77.57142857142857,110.18080166407994,2118.9,77.57142857142857,110.18080166407994,2220.9,77.57142857142857,110.18080166407994,2321.2,77.57142857142857,110.18080166407994,2423.8,77.57142857142857,110.18080166407994,2532.3,77.57142857142857,110.18080166407994,2640.3,77.57142857142857,110.18080166407994,2746.2,77.57142857142857,110.18080166407994,2857.9,77.57142857142857,110.18080166407994,2958.8,77.57142857142857,110.18080166407994,3068.8,77.57142857142857,110.18080166407994,3173,77.57142857142857,110.18080166407994,3274.3,77.57142857142857,110.18080166407994,3387.6,77.57142857142857,110.18080166407994,3489.4,77.57142857142857,110.18080166407994,3591.1,77.57142857142857,110.18080166407994,3701.5,77.57142857142857,110.18080166407994,3814.3,77.57142857142857,110.18080166407994,3922.1,77.57142857142857,110.18080166407994,4023.5,77.57142857142857,110.18080166407994,4124,77.57142857142857,110.18080166407994,4225.2,77.57142857142857,110.18080166407994,4325.3,77.57142857142857,110.18080166407994,4430.1,77.57142857142857,110.18080166407994,4530.2,77.57142857142857,110.18080166407994,4639.9,77.57142857142857,110.18080166407994,4749.4,77.57142857142857,110.18080166407994,4856.4,77.57142857142857,110.18080166407994,4966.1]","[1426.8,1426.8,1000,0,426.8,""smooth"",""left"",""left"",""good_move"",4699,3271.4,2873.1,1427.6,398.3,""smooth"",""up"",""up"",""good_move"",7825.3,3125.2,2790,4700.1,335.2,""smooth"",""left"",""left"",""good_move"",10779.1,2953.2,2584.2,7825.9,369,""smooth"",""up"",""up"",""good_move"",13039,2259.4,1950.6,10779.6,308.8,""smooth"",""up"",""up"",""good_move"",16017,2977.2,2657.3,13039.8,319.9,""smooth"",""left"",""left"",""good_move""]","",""
"2262","","<div style=""width:500px;"">
  <p>What determined the result of this run?</p>
  </div>","100","html-slider-response","44","739781","0.0-10.0-1.1","98","1","2025-07-02 10:19:19","80fe4187154257d5fb01684ea91b68b9","79.78.232.115","Mozilla/5.0 (Windows NT 10.0; Win64; x64) AppleWebKit/537.36 (KHTML, like Gecko) Chrome/138.0.0.0 Safari/537.36","WebKit","Chrome","138.0.0.0","Windows","10.0","https://app.prolific.com/","en-GB,en-US;q=0.9,en;q=0.8","65031d5ca9f619d9e0412f0a","683db6dfa200031b80f2a654","6865078f59fd5c6acd471890","65031d5ca9f619d9e0412f0a","2025-07-02T10:31:43.551Z","","","","","","AttribQ","","","","","","","","","","","","","","","","","","","","","","","","","","","","","","","","","","","","","","50"
"2027","","<div style=""width:500px;"">
  <p>How much control did you have over the ball?</p>
  </div>","100","html-slider-response","45","741809","0.0-10.0-2.1","98","1","2025-07-02 10:19:19","80fe4187154257d5fb01684ea91b68b9","79.78.232.115","Mozilla/5.0 (Windows NT 10.0; Win64; x64) AppleWebKit/537.36 (KHTML, like Gecko) Chrome/138.0.0.0 Safari/537.36","WebKit","Chrome","138.0.0.0","Windows","10.0","https://app.prolific.com/","en-GB,en-US;q=0.9,en;q=0.8","65031d5ca9f619d9e0412f0a","683db6dfa200031b80f2a654","6865078f59fd5c6acd471890","65031d5ca9f619d9e0412f0a","2025-07-02T10:31:45.579Z","","","","","","ControlQ","","","","","","","","","","","","","","","","","","","","","","","","","","","","","","","","","","","","","","50"
"3054","","<div style=""width:500px;"">
  <p>How would you describe your current emotional state?</p>
  </div>","1","html-slider-response","46","744864","0.0-10.0-3.1","98","1","2025-07-02 10:19:19","80fe4187154257d5fb01684ea91b68b9","79.78.232.115","Mozilla/5.0 (Windows NT 10.0; Win64; x64) AppleWebKit/537.36 (KHTML, like Gecko) Chrome/138.0.0.0 Safari/537.36","WebKit","Chrome","138.0.0.0","Windows","10.0","https://app.prolific.com/","en-GB,en-US;q=0.9,en;q=0.8","65031d5ca9f619d9e0412f0a","683db6dfa200031b80f2a654","6865078f59fd5c6acd471890","65031d5ca9f619d9e0412f0a","2025-07-02T10:31:48.634Z","","","","","","StressQ","","","","","","","","","","","","","","","","","","","","","","","","","","","","","","","","","","","","","","50"
"2185","","<div style=""width:500px;"">
  <p>What best describes how you currently feel?</p>
  </div>","95","html-slider-response","47","747051","0.0-10.0-4.1","98","1","2025-07-02 10:19:19","80fe4187154257d5fb01684ea91b68b9","79.78.232.115","Mozilla/5.0 (Windows NT 10.0; Win64; x64) AppleWebKit/537.36 (KHTML, like Gecko) Chrome/138.0.0.0 Safari/537.36","WebKit","Chrome","138.0.0.0","Windows","10.0","https://app.prolific.com/","en-GB,en-US;q=0.9,en;q=0.8","65031d5ca9f619d9e0412f0a","683db6dfa200031b80f2a654","6865078f59fd5c6acd471890","65031d5ca9f619d9e0412f0a","2025-07-02T10:31:50.821Z","","","","","","MotivationQ","","","","","","","","","","","","","","","","","","","","","","","","","","","","","","","","","","","","","","50"
"","","","","ctl-task-cpt","48","776543","0.0-10.0-0.2","98","1","2025-07-02 10:19:19","80fe4187154257d5fb01684ea91b68b9","79.78.232.115","Mozilla/5.0 (Windows NT 10.0; Win64; x64) AppleWebKit/537.36 (KHTML, like Gecko) Chrome/138.0.0.0 Safari/537.36","WebKit","Chrome","138.0.0.0","Windows","10.0","https://app.prolific.com/","en-GB,en-US;q=0.9,en;q=0.8","65031d5ca9f619d9e0412f0a","683db6dfa200031b80f2a654","6865078f59fd5c6acd471890","65031d5ca9f619d9e0412f0a","2025-07-02T10:32:20.313Z","","","","","","","","","","","","","","","","win-only","1","g1:NE,g2:SW","0.8","3","0","748259","2624.1","7630.5","26477.3","1","4","4","6","2","4","4","16","12","0.12121212121212122","1587.8","3000","1625","[""down"",""left""]","{""num_key_presses"":6,""num_perfect"":4,""num_errors"":0,""num_randdir"":2,""num_randdir_good_moves"":2,""num_whilered"":0,""num_whileblue"":0,""num_blue"":1,""num_good_moves"":6}","[421.07142857142856,417.6808016640799,0.6,421.07142857142856,417.6808016640799,101.6,421.07142857142856,417.6808016640799,219.9,421.07142857142856,417.6808016640799,321.6,421.07142857142856,417.6808016640799,432.3,421.07142857142856,417.6808016640799,536.7,421.07142857142856,417.6808016640799,639.2,421.07142857142856,417.6808016640799,744.5,421.07142857142856,417.6808016640799,846.4,148.07142857142856,653.1808016640799,954.4,148.07142857142856,653.1808016640799,1057.6,140.57142857142856,660.6808016640799,1167.7,97.07142857142857,707.1808016640799,1269.4,80.57142857142857,749.1808016640799,1372.3,80.57142857142857,750.6808016640799,1474.2,80.57142857142857,750.6808016640799,1592.9,80.57142857142857,750.6808016640799,1705,80.57142857142857,750.6808016640799,1817.4,80.57142857142857,750.6808016640799,1917.5,80.57142857142857,750.6808016640799,2019.4,80.57142857142857,750.6808016640799,2121.4,80.57142857142857,750.6808016640799,2234.2,80.57142857142857,750.6808016640799,2336.9,80.57142857142857,750.6808016640799,2441.4,80.57142857142857,750.6808016640799,2543.1,80.57142857142857,750.6808016640799,2644,80.57142857142857,750.6808016640799,2754.7,80.57142857142857,750.6808016640799,2859.3,80.57142857142857,750.6808016640799,2961.7,80.57142857142857,750.6808016640799,3062.5,80.57142857142857,750.6808016640799,3163.1,80.57142857142857,750.6808016640799,3271.3,80.57142857142857,750.6808016640799,3387,80.57142857142857,750.6808016640799,3502.3,80.57142857142857,750.6808016640799,3604,80.57142857142857,750.6808016640799,3706.2,80.57142857142857,750.6808016640799,3808.3,80.57142857142857,750.6808016640799,3911,80.57142857142857,750.6808016640799,4011.6,80.57142857142857,750.6808016640799,4114,80.57142857142857,750.6808016640799,4220.4,80.57142857142857,750.6808016640799,4329.5,80.57142857142857,750.6808016640799,4436.9,80.57142857142857,750.6808016640799,4537.5,80.57142857142857,750.6808016640799,4649.8,80.57142857142857,750.6808016640799,4751.2,80.57142857142857,750.6808016640799,4865.5,80.57142857142857,750.6808016640799,4982]","[1514.7,1514.7,1000,0,514.7,""smooth"",""down"",""down"",""good_move"",7691.8,6176.2,2269.5,5047.7,374.6,""smooth"",""left"",""left"",""good_move"",10787.7,3095,2679.9,7692.7,415.1,""oops"",""down"",""down"",""good_move"",13419.4,2630.8,2203.9,10788.6,426.9,""smooth"",""left"",""left"",""good_move"",16464.6,3044.6,2728.6,13420.1,315.9,""oops"",""down"",""left"",""good_move"",18713.9,2248.7,1857.3,16465.2,391.4,""smooth"",""down"",""down"",""good_move""]","",""
"2336","","<div style=""width:500px;"">
  <p>What determined the result of this run?</p>
  </div>","86","html-slider-response","49","778880","0.0-10.0-1.2","98","1","2025-07-02 10:19:19","80fe4187154257d5fb01684ea91b68b9","79.78.232.115","Mozilla/5.0 (Windows NT 10.0; Win64; x64) AppleWebKit/537.36 (KHTML, like Gecko) Chrome/138.0.0.0 Safari/537.36","WebKit","Chrome","138.0.0.0","Windows","10.0","https://app.prolific.com/","en-GB,en-US;q=0.9,en;q=0.8","65031d5ca9f619d9e0412f0a","683db6dfa200031b80f2a654","6865078f59fd5c6acd471890","65031d5ca9f619d9e0412f0a","2025-07-02T10:32:22.651Z","","","","","","AttribQ","","","","","","","","","","","","","","","","","","","","","","","","","","","","","","","","","","","","","","50"
"2760","","<div style=""width:500px;"">
  <p>How much control did you have over the ball?</p>
  </div>","87","html-slider-response","50","781642","0.0-10.0-2.2","98","1","2025-07-02 10:19:19","80fe4187154257d5fb01684ea91b68b9","79.78.232.115","Mozilla/5.0 (Windows NT 10.0; Win64; x64) AppleWebKit/537.36 (KHTML, like Gecko) Chrome/138.0.0.0 Safari/537.36","WebKit","Chrome","138.0.0.0","Windows","10.0","https://app.prolific.com/","en-GB,en-US;q=0.9,en;q=0.8","65031d5ca9f619d9e0412f0a","683db6dfa200031b80f2a654","6865078f59fd5c6acd471890","65031d5ca9f619d9e0412f0a","2025-07-02T10:32:25.412Z","","","","","","ControlQ","","","","","","","","","","","","","","","","","","","","","","","","","","","","","","","","","","","","","","50"
"2521","","<div style=""width:500px;"">
  <p>How would you describe your current emotional state?</p>
  </div>","11","html-slider-response","51","784164","0.0-10.0-3.2","98","1","2025-07-02 10:19:19","80fe4187154257d5fb01684ea91b68b9","79.78.232.115","Mozilla/5.0 (Windows NT 10.0; Win64; x64) AppleWebKit/537.36 (KHTML, like Gecko) Chrome/138.0.0.0 Safari/537.36","WebKit","Chrome","138.0.0.0","Windows","10.0","https://app.prolific.com/","en-GB,en-US;q=0.9,en;q=0.8","65031d5ca9f619d9e0412f0a","683db6dfa200031b80f2a654","6865078f59fd5c6acd471890","65031d5ca9f619d9e0412f0a","2025-07-02T10:32:27.934Z","","","","","","StressQ","","","","","","","","","","","","","","","","","","","","","","","","","","","","","","","","","","","","","","50"
"2167","","<div style=""width:500px;"">
  <p>What best describes how you currently feel?</p>
  </div>","86","html-slider-response","52","786332","0.0-10.0-4.2","98","1","2025-07-02 10:19:19","80fe4187154257d5fb01684ea91b68b9","79.78.232.115","Mozilla/5.0 (Windows NT 10.0; Win64; x64) AppleWebKit/537.36 (KHTML, like Gecko) Chrome/138.0.0.0 Safari/537.36","WebKit","Chrome","138.0.0.0","Windows","10.0","https://app.prolific.com/","en-GB,en-US;q=0.9,en;q=0.8","65031d5ca9f619d9e0412f0a","683db6dfa200031b80f2a654","6865078f59fd5c6acd471890","65031d5ca9f619d9e0412f0a","2025-07-02T10:32:30.102Z","","","","","","MotivationQ","","","","","","","","","","","","","","","","","","","","","","","","","","","","","","","","","","","","","","50"
"","","","","ctl-task-cpt","53","840291","0.0-10.0-0.3","98","1","2025-07-02 10:19:19","80fe4187154257d5fb01684ea91b68b9","79.78.232.115","Mozilla/5.0 (Windows NT 10.0; Win64; x64) AppleWebKit/537.36 (KHTML, like Gecko) Chrome/138.0.0.0 Safari/537.36","WebKit","Chrome","138.0.0.0","Windows","10.0","https://app.prolific.com/","en-GB,en-US;q=0.9,en;q=0.8","65031d5ca9f619d9e0412f0a","683db6dfa200031b80f2a654","6865078f59fd5c6acd471890","65031d5ca9f619d9e0412f0a","2025-07-02T10:33:24.061Z","","","","","","","","","","","","","","","","win-only","1","g1:NE,g2:SW","0.7","4","0","787540.1","2641.1","7643.2","50931.4","1","4","8","6","2","8","8","24","16","0.18181818181818182","1299.2","3000","675","[""down"",""left""]","{""num_key_presses"":12,""num_perfect"":9,""num_errors"":0,""num_randdir"":3,""num_randdir_good_moves"":0,""num_whilered"":0,""num_whileblue"":0,""num_blue"":3,""num_good_moves"":9}","[418.07142857142856,405.6808016640799,0.8,418.07142857142856,405.6808016640799,105.8,418.07142857142856,405.6808016640799,227.1,418.07142857142856,405.6808016640799,330.7,418.07142857142856,405.6808016640799,432,418.07142857142856,405.6808016640799,534.5,418.07142857142856,405.6808016640799,634.5,265.07142857142856,578.1808016640799,739.4,181.07142857142856,650.1808016640799,855.6,181.07142857142856,650.1808016640799,963.1,95.57142857142857,738.6808016640799,1074.1,92.57142857142857,746.1808016640799,1175.6,92.57142857142857,746.1808016640799,1277,92.57142857142857,746.1808016640799,1379.5,92.57142857142857,746.1808016640799,1481.1,92.57142857142857,746.1808016640799,1589.9,92.57142857142857,746.1808016640799,1702.2,92.57142857142857,746.1808016640799,1802.2,92.57142857142857,746.1808016640799,1905.8,92.57142857142857,746.1808016640799,2014.2,92.57142857142857,746.1808016640799,2126.8,92.57142857142857,746.1808016640799,2243.1,92.57142857142857,746.1808016640799,2345.5,92.57142857142857,746.1808016640799,2453.5,92.57142857142857,746.1808016640799,2555.2,92.57142857142857,746.1808016640799,2656.4,92.57142857142857,746.1808016640799,2756.5,92.57142857142857,746.1808016640799,2857.7,92.57142857142857,746.1808016640799,2959.5,92.57142857142857,746.1808016640799,3068.9,92.57142857142857,746.1808016640799,3173.6,92.57142857142857,746.1808016640799,3288,92.57142857142857,746.1808016640799,3405.4,92.57142857142857,746.1808016640799,3508.5,92.57142857142857,746.1808016640799,3624.1,92.57142857142857,746.1808016640799,3726,92.57142857142857,746.1808016640799,3835,92.57142857142857,746.1808016640799,3940.5,92.57142857142857,746.1808016640799,4058.4,92.57142857142857,746.1808016640799,4164.7,92.57142857142857,746.1808016640799,4271.8,92.57142857142857,746.1808016640799,4374.3,92.57142857142857,746.1808016640799,4490.5,92.57142857142857,746.1808016640799,4602,92.57142857142857,746.1808016640799,4707.1,92.57142857142857,746.1808016640799,4812.6,92.57142857142857,746.1808016640799,4917.9]","[1453.1,1453.1,1000,0,453.1,""smooth"",""left"",""left"",""good_move"",3978.7,2524.5,2133.4,1454.2,391.1,""smooth"",""down"",""down"",""good_move"",14201.3,10222,2204.9,11615.6,380.8,""oops"",""left"",""right"",""bad_move"",17301.5,3099.6,2643.9,14201.9,455.7,""smooth"",""left"",""left"",""good_move"",20392.8,3090.6,2702.6,17302.2,388.1,""smooth"",""left"",""left"",""good_move"",23421,3027.6,2685.7,20393.5,341.9,""smooth"",""down"",""down"",""good_move"",25931.6,2509.5,2183.4,23422.1,326.1,""oops"",""down"",""up"",""bad_move"",28252,2318.8,1984,25933.2,334.8,""smooth"",""down"",""down"",""good_move"",30706.9,2454.3,2127.6,28252.6,326.7,""smooth"",""down"",""down"",""good_move"",33157.9,2449.9,2069.7,30708,380.2,""oops"",""left"",""right"",""bad_move"",39550.8,6391.7,2699.2,36485.2,366.4,""smooth"",""left"",""left"",""good_move"",43133.8,3582.3,3225.8,39551.5,356.5,""smooth"",""left"",""left"",""good_move""]","",""
"3251","","<div style=""width:500px;"">
  <p>What determined the result of this run?</p>
  </div>","87","html-slider-response","54","843543","0.0-10.0-1.3","98","1","2025-07-02 10:19:19","80fe4187154257d5fb01684ea91b68b9","79.78.232.115","Mozilla/5.0 (Windows NT 10.0; Win64; x64) AppleWebKit/537.36 (KHTML, like Gecko) Chrome/138.0.0.0 Safari/537.36","WebKit","Chrome","138.0.0.0","Windows","10.0","https://app.prolific.com/","en-GB,en-US;q=0.9,en;q=0.8","65031d5ca9f619d9e0412f0a","683db6dfa200031b80f2a654","6865078f59fd5c6acd471890","65031d5ca9f619d9e0412f0a","2025-07-02T10:33:27.313Z","","","","","","AttribQ","","","","","","","","","","","","","","","","","","","","","","","","","","","","","","","","","","","","","","50"
"2406","","<div style=""width:500px;"">
  <p>How much control did you have over the ball?</p>
  </div>","94","html-slider-response","55","845951","0.0-10.0-2.3","98","1","2025-07-02 10:19:19","80fe4187154257d5fb01684ea91b68b9","79.78.232.115","Mozilla/5.0 (Windows NT 10.0; Win64; x64) AppleWebKit/537.36 (KHTML, like Gecko) Chrome/138.0.0.0 Safari/537.36","WebKit","Chrome","138.0.0.0","Windows","10.0","https://app.prolific.com/","en-GB,en-US;q=0.9,en;q=0.8","65031d5ca9f619d9e0412f0a","683db6dfa200031b80f2a654","6865078f59fd5c6acd471890","65031d5ca9f619d9e0412f0a","2025-07-02T10:33:29.721Z","","","","","","ControlQ","","","","","","","","","","","","","","","","","","","","","","","","","","","","","","","","","","","","","","50"
"3178","","<div style=""width:500px;"">
  <p>How would you describe your current emotional state?</p>
  </div>","49","html-slider-response","56","849130","0.0-10.0-3.3","98","1","2025-07-02 10:19:19","80fe4187154257d5fb01684ea91b68b9","79.78.232.115","Mozilla/5.0 (Windows NT 10.0; Win64; x64) AppleWebKit/537.36 (KHTML, like Gecko) Chrome/138.0.0.0 Safari/537.36","WebKit","Chrome","138.0.0.0","Windows","10.0","https://app.prolific.com/","en-GB,en-US;q=0.9,en;q=0.8","65031d5ca9f619d9e0412f0a","683db6dfa200031b80f2a654","6865078f59fd5c6acd471890","65031d5ca9f619d9e0412f0a","2025-07-02T10:33:32.900Z","","","","","","StressQ","","","","","","","","","","","","","","","","","","","","","","","","","","","","","","","","","","","","","","50"
"1966","","<div style=""width:500px;"">
  <p>What best describes how you currently feel?</p>
  </div>","84","html-slider-response","57","851097","0.0-10.0-4.3","98","1","2025-07-02 10:19:19","80fe4187154257d5fb01684ea91b68b9","79.78.232.115","Mozilla/5.0 (Windows NT 10.0; Win64; x64) AppleWebKit/537.36 (KHTML, like Gecko) Chrome/138.0.0.0 Safari/537.36","WebKit","Chrome","138.0.0.0","Windows","10.0","https://app.prolific.com/","en-GB,en-US;q=0.9,en;q=0.8","65031d5ca9f619d9e0412f0a","683db6dfa200031b80f2a654","6865078f59fd5c6acd471890","65031d5ca9f619d9e0412f0a","2025-07-02T10:33:34.867Z","","","","","","MotivationQ","","","","","","","","","","","","","","","","","","","","","","","","","","","","","","","","","","","","","","50"
"","","","","ctl-task-cpt","58","904165","0.0-10.0-0.4","98","1","2025-07-02 10:19:19","80fe4187154257d5fb01684ea91b68b9","79.78.232.115","Mozilla/5.0 (Windows NT 10.0; Win64; x64) AppleWebKit/537.36 (KHTML, like Gecko) Chrome/138.0.0.0 Safari/537.36","WebKit","Chrome","138.0.0.0","Windows","10.0","https://app.prolific.com/","en-GB,en-US;q=0.9,en;q=0.8","65031d5ca9f619d9e0412f0a","683db6dfa200031b80f2a654","6865078f59fd5c6acd471890","65031d5ca9f619d9e0412f0a","2025-07-02T10:34:27.935Z","","","","","","","","","","","","","","","","win-only","1","g1:NE,g2:SW","0.6","5","0","852304.9","2709","7718.2","50047.1","1","4","8","6","2","8","8","32","24","0.24242424242424243","1361.3","3000","1295","[""down"",""left""]","{""num_key_presses"":8,""num_perfect"":5,""num_errors"":0,""num_randdir"":3,""num_randdir_good_moves"":2,""num_whilered"":0,""num_whileblue"":0,""num_blue"":6,""num_good_moves"":7}","[410.57142857142856,411.6808016640799,1.5,410.57142857142856,411.6808016640799,111.9,410.57142857142856,411.6808016640799,216.1,410.57142857142856,411.6808016640799,321.6,410.57142857142856,411.6808016640799,434.4,410.57142857142856,411.6808016640799,543.6,410.57142857142856,411.6808016640799,654.1,410.57142857142856,411.6808016640799,770.2,121.07142857142857,711.6808016640799,885,119.57142857142857,713.1808016640799,987,113.57142857142857,720.6808016640799,1087.2,73.07142857142857,756.6808016640799,1187.3,73.07142857142857,756.6808016640799,1289.3,73.07142857142857,756.6808016640799,1393.2,73.07142857142857,756.6808016640799,1495.7,73.07142857142857,756.6808016640799,1603,73.07142857142857,756.6808016640799,1711.2,73.07142857142857,756.6808016640799,1822,73.07142857142857,756.6808016640799,1926.3,73.07142857142857,756.6808016640799,2030.7,73.07142857142857,756.6808016640799,2135.4,73.07142857142857,756.6808016640799,2237,73.07142857142857,756.6808016640799,2353.4,73.07142857142857,756.6808016640799,2455.5,73.07142857142857,756.6808016640799,2556.7,73.07142857142857,756.6808016640799,2661.8,73.07142857142857,756.6808016640799,2768.5,73.07142857142857,756.6808016640799,2868.9,73.07142857142857,756.6808016640799,2977.7,73.07142857142857,756.6808016640799,3087,73.07142857142857,756.6808016640799,3187.4,73.07142857142857,756.6808016640799,3289.1,73.07142857142857,756.6808016640799,3389.6,73.07142857142857,756.6808016640799,3491.5,73.07142857142857,756.6808016640799,3601.9,73.07142857142857,756.6808016640799,3702.3,73.07142857142857,756.6808016640799,3806.2,73.07142857142857,756.6808016640799,3920.2,73.07142857142857,756.6808016640799,4021.6,73.07142857142857,756.6808016640799,4123.1,73.07142857142857,756.6808016640799,4232.8,73.07142857142857,756.6808016640799,4337.1,73.07142857142857,756.6808016640799,4439.6,73.07142857142857,756.6808016640799,4546.9,73.07142857142857,756.6808016640799,4647.4,73.07142857142857,756.6808016640799,4748.2,73.07142857142857,756.6808016640799,4853.1,73.07142857142857,756.6808016640799,4971]","[5482.6,5482.6,3100.5,2010.3,371.8,""smooth"",""left"",""left"",""good_move"",11511.8,6028,2229.2,8928.9,353.7,""smooth"",""down"",""down"",""good_move"",13955.7,2443,2023.9,11512.7,419.1,""oops"",""left"",""up"",""bad_move"",27959,14002.4,2506.1,25105,347.9,""oops"",""down"",""down"",""good_move"",30752.7,2792.8,2407.9,27959.9,384.9,""smooth"",""left"",""left"",""good_move"",36904.8,6151.1,2452.9,34074.3,377.7,""smooth"",""down"",""down"",""good_move"",39696.7,2791.4,2126.5,36905.3,664.9,""oops"",""left"",""left"",""good_move"",42174,2476.4,2070.1,39697.7,406.2,""smooth"",""down"",""down"",""good_move""]","",""
"3573","","<div style=""width:500px;"">
  <p>What determined the result of this run?</p>
  </div>","95","html-slider-response","59","907739","0.0-10.0-1.4","98","1","2025-07-02 10:19:19","80fe4187154257d5fb01684ea91b68b9","79.78.232.115","Mozilla/5.0 (Windows NT 10.0; Win64; x64) AppleWebKit/537.36 (KHTML, like Gecko) Chrome/138.0.0.0 Safari/537.36","WebKit","Chrome","138.0.0.0","Windows","10.0","https://app.prolific.com/","en-GB,en-US;q=0.9,en;q=0.8","65031d5ca9f619d9e0412f0a","683db6dfa200031b80f2a654","6865078f59fd5c6acd471890","65031d5ca9f619d9e0412f0a","2025-07-02T10:34:31.509Z","","","","","","AttribQ","","","","","","","","","","","","","","","","","","","","","","","","","","","","","","","","","","","","","","50"
"2018","","<div style=""width:500px;"">
  <p>How much control did you have over the ball?</p>
  </div>","95","html-slider-response","60","909759","0.0-10.0-2.4","98","1","2025-07-02 10:19:19","80fe4187154257d5fb01684ea91b68b9","79.78.232.115","Mozilla/5.0 (Windows NT 10.0; Win64; x64) AppleWebKit/537.36 (KHTML, like Gecko) Chrome/138.0.0.0 Safari/537.36","WebKit","Chrome","138.0.0.0","Windows","10.0","https://app.prolific.com/","en-GB,en-US;q=0.9,en;q=0.8","65031d5ca9f619d9e0412f0a","683db6dfa200031b80f2a654","6865078f59fd5c6acd471890","65031d5ca9f619d9e0412f0a","2025-07-02T10:34:33.529Z","","","","","","ControlQ","","","","","","","","","","","","","","","","","","","","","","","","","","","","","","","","","","","","","","50"
"2685","","<div style=""width:500px;"">
  <p>How would you describe your current emotional state?</p>
  </div>","41","html-slider-response","61","912445","0.0-10.0-3.4","98","1","2025-07-02 10:19:19","80fe4187154257d5fb01684ea91b68b9","79.78.232.115","Mozilla/5.0 (Windows NT 10.0; Win64; x64) AppleWebKit/537.36 (KHTML, like Gecko) Chrome/138.0.0.0 Safari/537.36","WebKit","Chrome","138.0.0.0","Windows","10.0","https://app.prolific.com/","en-GB,en-US;q=0.9,en;q=0.8","65031d5ca9f619d9e0412f0a","683db6dfa200031b80f2a654","6865078f59fd5c6acd471890","65031d5ca9f619d9e0412f0a","2025-07-02T10:34:36.215Z","","","","","","StressQ","","","","","","","","","","","","","","","","","","","","","","","","","","","","","","","","","","","","","","50"
"3777","","<div style=""width:500px;"">
  <p>What best describes how you currently feel?</p>
  </div>","93","html-slider-response","62","916223","0.0-10.0-4.4","98","1","2025-07-02 10:19:19","80fe4187154257d5fb01684ea91b68b9","79.78.232.115","Mozilla/5.0 (Windows NT 10.0; Win64; x64) AppleWebKit/537.36 (KHTML, like Gecko) Chrome/138.0.0.0 Safari/537.36","WebKit","Chrome","138.0.0.0","Windows","10.0","https://app.prolific.com/","en-GB,en-US;q=0.9,en;q=0.8","65031d5ca9f619d9e0412f0a","683db6dfa200031b80f2a654","6865078f59fd5c6acd471890","65031d5ca9f619d9e0412f0a","2025-07-02T10:34:39.993Z","","","","","","MotivationQ","","","","","","","","","","","","","","","","","","","","","","","","","","","","","","","","","","","","","","50"
"","","","","ctl-task-cpt","63","956403","0.0-10.0-0.5","98","1","2025-07-02 10:19:19","80fe4187154257d5fb01684ea91b68b9","79.78.232.115","Mozilla/5.0 (Windows NT 10.0; Win64; x64) AppleWebKit/537.36 (KHTML, like Gecko) Chrome/138.0.0.0 Safari/537.36","WebKit","Chrome","138.0.0.0","Windows","10.0","https://app.prolific.com/","en-GB,en-US;q=0.9,en;q=0.8","65031d5ca9f619d9e0412f0a","683db6dfa200031b80f2a654","6865078f59fd5c6acd471890","65031d5ca9f619d9e0412f0a","2025-07-02T10:35:20.173Z","","","","","","","","","","","","","","","","win-only","0","g1:NW,g2:SE","0.5","6","0","917431","2560.7","7567.6","37170.5","1","4","4","6","2","4","4","36","32","0.2727272727272727","1400.1","3000","1535","[""down"",""right""]","{""num_key_presses"":8,""num_perfect"":5,""num_errors"":0,""num_randdir"":3,""num_randdir_good_moves"":2,""num_whilered"":0,""num_whileblue"":0,""num_blue"":2,""num_good_moves"":7}","[410.57142857142856,407.1808016640799,0.5,410.57142857142856,407.1808016640799,100.1,410.57142857142856,407.1808016640799,202.2,410.57142857142856,407.1808016640799,307.2,410.57142857142856,407.1808016640799,407.5,410.57142857142856,407.1808016640799,528.5,410.57142857142856,407.1808016640799,637.4,569.5714285714286,567.6808016640799,745.4,626.5714285714286,632.1808016640799,851.5,626.5714285714286,632.1808016640799,958,715.0714285714286,698.1808016640799,1075.8,766.0714285714286,743.1808016640799,1195.7,767.5714285714286,744.6808016640799,1297.9,767.5714285714286,744.6808016640799,1404.2,767.5714285714286,744.6808016640799,1504.6,767.5714285714286,744.6808016640799,1607,767.5714285714286,744.6808016640799,1710.1,767.5714285714286,744.6808016640799,1810.5,767.5714285714286,744.6808016640799,1912.2,767.5714285714286,744.6808016640799,2019,767.5714285714286,744.6808016640799,2149.1,767.5714285714286,744.6808016640799,2251.8,767.5714285714286,744.6808016640799,2351.9,767.5714285714286,744.6808016640799,2471.5,767.5714285714286,744.6808016640799,2579.7,767.5714285714286,744.6808016640799,2692.9,767.5714285714286,744.6808016640799,2829.5,767.5714285714286,744.6808016640799,2932.8,767.5714285714286,744.6808016640799,3035.4,767.5714285714286,744.6808016640799,3162.1,767.5714285714286,744.6808016640799,3265.9,767.5714285714286,744.6808016640799,3374.6,767.5714285714286,744.6808016640799,3476.8,767.5714285714286,744.6808016640799,3576.8,767.5714285714286,744.6808016640799,3690.2,767.5714285714286,744.6808016640799,3807.7,767.5714285714286,744.6808016640799,3908.8,767.5714285714286,744.6808016640799,4010.5,767.5714285714286,744.6808016640799,4110.5,767.5714285714286,744.6808016640799,4210.7,767.5714285714286,744.6808016640799,4325.9,767.5714285714286,744.6808016640799,4428.6,767.5714285714286,744.6808016640799,4540.3,767.5714285714286,744.6808016640799,4643.9,767.5714285714286,744.6808016640799,4748.5,767.5714285714286,744.6808016640799,4848.5,767.5714285714286,744.6808016640799,4949.6]","[5105.6,5105.7,2752.1,2010,343.6,""smooth"",""down"",""down"",""good_move"",8144.8,3038.2,2675,5106.7,363.1,""smooth"",""right"",""right"",""good_move"",10984.6,2836.3,2441.1,8148.4,395.1,""oops"",""down"",""left"",""bad_move"",13598.1,2612.1,2244.7,10986,367.4,""oops"",""down"",""right"",""good_move"",20024.2,6425.6,1989.1,17702.8,332.3,""oops"",""down"",""down"",""good_move"",22990.5,2965,2550.6,20025.5,414.4,""smooth"",""right"",""right"",""good_move"",26441.3,3449.4,3093.4,22991.9,356,""smooth"",""down"",""down"",""good_move"",29420.6,2978.7,2643.2,26441.9,335.5,""smooth"",""right"",""right"",""good_move""]","",""
"4174","","<div style=""width:500px;"">
  <p>What determined the result of this run?</p>
  </div>","97","html-slider-response","64","960580","0.0-10.0-1.5","98","1","2025-07-02 10:19:19","80fe4187154257d5fb01684ea91b68b9","79.78.232.115","Mozilla/5.0 (Windows NT 10.0; Win64; x64) AppleWebKit/537.36 (KHTML, like Gecko) Chrome/138.0.0.0 Safari/537.36","WebKit","Chrome","138.0.0.0","Windows","10.0","https://app.prolific.com/","en-GB,en-US;q=0.9,en;q=0.8","65031d5ca9f619d9e0412f0a","683db6dfa200031b80f2a654","6865078f59fd5c6acd471890","65031d5ca9f619d9e0412f0a","2025-07-02T10:35:24.350Z","","","","","","AttribQ","","","","","","","","","","","","","","","","","","","","","","","","","","","","","","","","","","","","","","50"
"1942","","<div style=""width:500px;"">
  <p>How much control did you have over the ball?</p>
  </div>","94","html-slider-response","65","962523","0.0-10.0-2.5","98","1","2025-07-02 10:19:19","80fe4187154257d5fb01684ea91b68b9","79.78.232.115","Mozilla/5.0 (Windows NT 10.0; Win64; x64) AppleWebKit/537.36 (KHTML, like Gecko) Chrome/138.0.0.0 Safari/537.36","WebKit","Chrome","138.0.0.0","Windows","10.0","https://app.prolific.com/","en-GB,en-US;q=0.9,en;q=0.8","65031d5ca9f619d9e0412f0a","683db6dfa200031b80f2a654","6865078f59fd5c6acd471890","65031d5ca9f619d9e0412f0a","2025-07-02T10:35:26.294Z","","","","","","ControlQ","","","","","","","","","","","","","","","","","","","","","","","","","","","","","","","","","","","","","","50"
"4308","","<div style=""width:500px;"">
  <p>How would you describe your current emotional state?</p>
  </div>","24","html-slider-response","66","966832","0.0-10.0-3.5","98","1","2025-07-02 10:19:19","80fe4187154257d5fb01684ea91b68b9","79.78.232.115","Mozilla/5.0 (Windows NT 10.0; Win64; x64) AppleWebKit/537.36 (KHTML, like Gecko) Chrome/138.0.0.0 Safari/537.36","WebKit","Chrome","138.0.0.0","Windows","10.0","https://app.prolific.com/","en-GB,en-US;q=0.9,en;q=0.8","65031d5ca9f619d9e0412f0a","683db6dfa200031b80f2a654","6865078f59fd5c6acd471890","65031d5ca9f619d9e0412f0a","2025-07-02T10:35:30.603Z","","","","","","StressQ","","","","","","","","","","","","","","","","","","","","","","","","","","","","","","","","","","","","","","50"
"2848","","<div style=""width:500px;"">
  <p>What best describes how you currently feel?</p>
  </div>","94","html-slider-response","67","969682","0.0-10.0-4.5","98","1","2025-07-02 10:19:19","80fe4187154257d5fb01684ea91b68b9","79.78.232.115","Mozilla/5.0 (Windows NT 10.0; Win64; x64) AppleWebKit/537.36 (KHTML, like Gecko) Chrome/138.0.0.0 Safari/537.36","WebKit","Chrome","138.0.0.0","Windows","10.0","https://app.prolific.com/","en-GB,en-US;q=0.9,en;q=0.8","65031d5ca9f619d9e0412f0a","683db6dfa200031b80f2a654","6865078f59fd5c6acd471890","65031d5ca9f619d9e0412f0a","2025-07-02T10:35:33.452Z","","","","","","MotivationQ","","","","","","","","","","","","","","","","","","","","","","","","","","","","","","","","","","","","","","50"
"","","","","ctl-task-cpt","68","1022083","0.0-10.0-0.6","98","1","2025-07-02 10:19:19","80fe4187154257d5fb01684ea91b68b9","79.78.232.115","Mozilla/5.0 (Windows NT 10.0; Win64; x64) AppleWebKit/537.36 (KHTML, like Gecko) Chrome/138.0.0.0 Safari/537.36","WebKit","Chrome","138.0.0.0","Windows","10.0","https://app.prolific.com/","en-GB,en-US;q=0.9,en;q=0.8","65031d5ca9f619d9e0412f0a","683db6dfa200031b80f2a654","6865078f59fd5c6acd471890","65031d5ca9f619d9e0412f0a","2025-07-02T10:36:25.853Z","","","","","","","","","","","","","","","","win-only","2","g1:SE,g2:NW","0.4","7","0","970890.4","3800.8","8826.9","49391.5","1","4","4","6","2","4","3","39","36","0.29545454545454547","1316.3","3000","625","[""left"",""up""]","{""num_key_presses"":14,""num_perfect"":6,""num_errors"":1,""num_randdir"":7,""num_randdir_good_moves"":4,""num_whilered"":0,""num_whileblue"":1,""num_blue"":1,""num_good_moves"":10}","[427.07142857142856,414.6808016640799,0.9,427.07142857142856,414.6808016640799,105.4,427.07142857142856,414.6808016640799,212.4,427.07142857142856,414.6808016640799,312.7,427.07142857142856,414.6808016640799,416.3,427.07142857142856,414.6808016640799,516.6,272.57142857142856,302.1808016640799,712.4,272.57142857142856,302.1808016640799,819.2,64.07142857142857,114.68080166407994,923.7,44.57142857142857,96.68080166407994,1037.3,43.07142857142857,93.68080166407994,1137.7,43.07142857142857,92.18080166407994,1242.9,43.07142857142857,92.18080166407994,1345.5,43.07142857142857,92.18080166407994,1449.1,43.07142857142857,92.18080166407994,1549.9,43.07142857142857,92.18080166407994,1665.4,43.07142857142857,92.18080166407994,1770.3,43.07142857142857,92.18080166407994,1876.1,43.07142857142857,92.18080166407994,1982.3,43.07142857142857,92.18080166407994,2086.6,43.07142857142857,92.18080166407994,2187.5,43.07142857142857,92.18080166407994,2293.3,43.07142857142857,92.18080166407994,2403,43.07142857142857,92.18080166407994,2505.6,43.07142857142857,92.18080166407994,2605.9,43.07142857142857,92.18080166407994,2722.2,43.07142857142857,92.18080166407994,2831.6,43.07142857142857,92.18080166407994,2938.2,43.07142857142857,92.18080166407994,3042.4,43.07142857142857,92.18080166407994,3149.1,43.07142857142857,92.18080166407994,3249.9,43.07142857142857,92.18080166407994,3367.6,43.07142857142857,92.18080166407994,3489.7,43.07142857142857,92.18080166407994,3606.5,43.07142857142857,92.18080166407994,3712,43.07142857142857,92.18080166407994,3812.1,43.07142857142857,92.18080166407994,3922.5,43.07142857142857,92.18080166407994,4024.2,43.07142857142857,92.18080166407994,4127,43.07142857142857,92.18080166407994,4245.4,43.07142857142857,92.18080166407994,4347.4,43.07142857142857,92.18080166407994,4450.1,43.07142857142857,92.18080166407994,4555.8,43.07142857142857,92.18080166407994,4660.7,43.07142857142857,92.18080166407994,4780.8,43.07142857142857,92.18080166407994,4881.1,43.07142857142857,92.18080166407994,4988.8]","[1470.1,1470.1,1000,0,470.1,""oops"",""left"",""left"",""good_move"",4569.1,3098,2746.4,1471.1,351.6,""oops"",""left"",""left"",""good_move"",7372.7,2803,2420.1,4569.7,382.9,""oops"",""up"",""down"",""bad_move"",10425.4,3051.7,2716.6,7373.7,335.1,""smooth"",""up"",""up"",""good_move"",13679.6,3253.3,2948.7,10426.3,304.6,""oops"",""up"",""right"",""bad_move"",16758.8,3078.3,2755.7,13680.7,322.4,""smooth"",""up"",""up"",""good_move"",19521.5,2761.9,2469.9,16759.6,292.1,""while_blue"",""up"",""down"",""bad_move"",22330.9,2807.4,2457,19523.5,350.4,""smooth"",""up"",""up"",""good_move"",25114.9,2782.5,2313.2,22332.5,469.3,""oops"",""up"",""left"",""good_move"",27845.6,2728.7,2350.7,25116.9,378,""oops"",""up"",""down"",""bad_move"",30681.7,2835.3,2383.5,27846.4,451.8,""smooth"",""up"",""up"",""good_move"",33586.7,2903.6,2419,30683.1,484.6,""smooth"",""up"",""up"",""good_move"",37010.6,3423.2,3023.4,33587.4,399.8,""oops"",""left"",""up"",""good_move"",40376.3,3365.3,3011.9,37011,353.4,""smooth"",""left"",""left"",""good_move""]","",""
"2169","","<div style=""width:500px;"">
  <p>What determined the result of this run?</p>
  </div>","89","html-slider-response","69","1024254","0.0-10.0-1.6","98","1","2025-07-02 10:19:19","80fe4187154257d5fb01684ea91b68b9","79.78.232.115","Mozilla/5.0 (Windows NT 10.0; Win64; x64) AppleWebKit/537.36 (KHTML, like Gecko) Chrome/138.0.0.0 Safari/537.36","WebKit","Chrome","138.0.0.0","Windows","10.0","https://app.prolific.com/","en-GB,en-US;q=0.9,en;q=0.8","65031d5ca9f619d9e0412f0a","683db6dfa200031b80f2a654","6865078f59fd5c6acd471890","65031d5ca9f619d9e0412f0a","2025-07-02T10:36:28.024Z","","","","","","AttribQ","","","","","","","","","","","","","","","","","","","","","","","","","","","","","","","","","","","","","","50"
"2159","","<div style=""width:500px;"">
  <p>How much control did you have over the ball?</p>
  </div>","86","html-slider-response","70","1026415","0.0-10.0-2.6","98","1","2025-07-02 10:19:19","80fe4187154257d5fb01684ea91b68b9","79.78.232.115","Mozilla/5.0 (Windows NT 10.0; Win64; x64) AppleWebKit/537.36 (KHTML, like Gecko) Chrome/138.0.0.0 Safari/537.36","WebKit","Chrome","138.0.0.0","Windows","10.0","https://app.prolific.com/","en-GB,en-US;q=0.9,en;q=0.8","65031d5ca9f619d9e0412f0a","683db6dfa200031b80f2a654","6865078f59fd5c6acd471890","65031d5ca9f619d9e0412f0a","2025-07-02T10:36:30.185Z","","","","","","ControlQ","","","","","","","","","","","","","","","","","","","","","","","","","","","","","","","","","","","","","","50"
"2832","","<div style=""width:500px;"">
  <p>How would you describe your current emotional state?</p>
  </div>","37","html-slider-response","71","1029248","0.0-10.0-3.6","98","1","2025-07-02 10:19:19","80fe4187154257d5fb01684ea91b68b9","79.78.232.115","Mozilla/5.0 (Windows NT 10.0; Win64; x64) AppleWebKit/537.36 (KHTML, like Gecko) Chrome/138.0.0.0 Safari/537.36","WebKit","Chrome","138.0.0.0","Windows","10.0","https://app.prolific.com/","en-GB,en-US;q=0.9,en;q=0.8","65031d5ca9f619d9e0412f0a","683db6dfa200031b80f2a654","6865078f59fd5c6acd471890","65031d5ca9f619d9e0412f0a","2025-07-02T10:36:33.018Z","","","","","","StressQ","","","","","","","","","","","","","","","","","","","","","","","","","","","","","","","","","","","","","","50"
"2845","","<div style=""width:500px;"">
  <p>What best describes how you currently feel?</p>
  </div>","88","html-slider-response","72","1032094","0.0-10.0-4.6","98","1","2025-07-02 10:19:19","80fe4187154257d5fb01684ea91b68b9","79.78.232.115","Mozilla/5.0 (Windows NT 10.0; Win64; x64) AppleWebKit/537.36 (KHTML, like Gecko) Chrome/138.0.0.0 Safari/537.36","WebKit","Chrome","138.0.0.0","Windows","10.0","https://app.prolific.com/","en-GB,en-US;q=0.9,en;q=0.8","65031d5ca9f619d9e0412f0a","683db6dfa200031b80f2a654","6865078f59fd5c6acd471890","65031d5ca9f619d9e0412f0a","2025-07-02T10:36:35.865Z","","","","","","MotivationQ","","","","","","","","","","","","","","","","","","","","","","","","","","","","","","","","","","","","","","50"
"","","","","ctl-task-cpt","73","1086905","0.0-10.0-0.7","98","1","2025-07-02 10:19:19","80fe4187154257d5fb01684ea91b68b9","79.78.232.115","Mozilla/5.0 (Windows NT 10.0; Win64; x64) AppleWebKit/537.36 (KHTML, like Gecko) Chrome/138.0.0.0 Safari/537.36","WebKit","Chrome","138.0.0.0","Windows","10.0","https://app.prolific.com/","en-GB,en-US;q=0.9,en;q=0.8","65031d5ca9f619d9e0412f0a","683db6dfa200031b80f2a654","6865078f59fd5c6acd471890","65031d5ca9f619d9e0412f0a","2025-07-02T10:37:30.675Z","","","","","","","","","","","","","","","","win-only","3","g1:SW,g2:NE","0.3","8","0","1033302.7","2690.8","7705.9","51782.7","1","4","8","6","2","8","8","47","39","0.3560606060606061","1750.3","3000","1335","[""up"",""right""]","{""num_key_presses"":8,""num_perfect"":3,""num_errors"":0,""num_randdir"":5,""num_randdir_good_moves"":4,""num_whilered"":0,""num_whileblue"":0,""num_blue"":6,""num_good_moves"":7}","[413.57142857142856,408.6808016640799,0.6,413.57142857142856,408.6808016640799,114.1,413.57142857142856,408.6808016640799,216.2,413.57142857142856,408.6808016640799,331.9,413.57142857142856,408.6808016640799,434,413.57142857142856,408.6808016640799,537.3,413.57142857142856,408.6808016640799,649,413.57142857142856,408.6808016640799,752.5,641.5714285714286,221.18080166407992,854.6,655.0714285714286,200.18080166407992,964.9,655.0714285714286,200.18080166407992,1065.6,776.5714285714286,113.18080166407994,1168,794.5714285714286,95.18080166407994,1287.5,794.5714285714286,93.68080166407994,1390.6,794.5714285714286,92.18080166407994,1492.2,794.5714285714286,92.18080166407994,1599,794.5714285714286,92.18080166407994,1705,794.5714285714286,92.18080166407994,1824.8,794.5714285714286,92.18080166407994,1994.2,794.5714285714286,92.18080166407994,2100.2,794.5714285714286,92.18080166407994,2204.4,794.5714285714286,92.18080166407994,2304.9,794.5714285714286,92.18080166407994,2411.3,794.5714285714286,92.18080166407994,2538.5,794.5714285714286,92.18080166407994,2640,794.5714285714286,92.18080166407994,2774.5,794.5714285714286,92.18080166407994,2884.1,794.5714285714286,92.18080166407994,2984.2,794.5714285714286,92.18080166407994,3103.4,794.5714285714286,92.18080166407994,3205.5,794.5714285714286,92.18080166407994,3305.8,794.5714285714286,92.18080166407994,3417.8,794.5714285714286,92.18080166407994,3526.3,794.5714285714286,92.18080166407994,3636.8,794.5714285714286,92.18080166407994,3743.9,794.5714285714286,92.18080166407994,3846.6,794.5714285714286,92.18080166407994,3949.5,794.5714285714286,92.18080166407994,4050,794.5714285714286,92.18080166407994,4155.9,794.5714285714286,92.18080166407994,4269.9,794.5714285714286,92.18080166407994,4373.3,794.5714285714286,92.18080166407994,4476,794.5714285714286,92.18080166407994,4578.3,794.5714285714286,92.18080166407994,4705.6,794.5714285714286,92.18080166407994,4805.7,794.5714285714286,92.18080166407994,4905.9]","[1454.3,1454.3,1000,0,454.3,""oops"",""right"",""right"",""good_move"",4769.9,3314.9,2894.4,1455,420.6,""oops"",""right"",""up"",""good_move"",8111.1,3339.6,2987.8,4771.5,351.8,""oops"",""right"",""left"",""bad_move"",13640.8,5528,2226.9,10984.7,429.2,""smooth"",""right"",""right"",""good_move"",27911.7,14269.4,2623.3,24844.1,444.3,""smooth"",""right"",""right"",""good_move"",30950.6,3038,2584.5,27912.6,453.5,""smooth"",""up"",""up"",""good_move"",40843.6,9892,2663.3,37746.2,434.1,""oops"",""right"",""right"",""good_move"",43936.4,3091.2,2623.1,40845.2,468.1,""oops"",""up"",""up"",""good_move""]","",""
"3471","","<div style=""width:500px;"">
  <p>What determined the result of this run?</p>
  </div>","96","html-slider-response","74","1090380","0.0-10.0-1.7","98","1","2025-07-02 10:19:19","80fe4187154257d5fb01684ea91b68b9","79.78.232.115","Mozilla/5.0 (Windows NT 10.0; Win64; x64) AppleWebKit/537.36 (KHTML, like Gecko) Chrome/138.0.0.0 Safari/537.36","WebKit","Chrome","138.0.0.0","Windows","10.0","https://app.prolific.com/","en-GB,en-US;q=0.9,en;q=0.8","65031d5ca9f619d9e0412f0a","683db6dfa200031b80f2a654","6865078f59fd5c6acd471890","65031d5ca9f619d9e0412f0a","2025-07-02T10:37:34.152Z","","","","","","AttribQ","","","","","","","","","","","","","","","","","","","","","","","","","","","","","","","","","","","","","","50"
"2816","","<div style=""width:500px;"">
  <p>How much control did you have over the ball?</p>
  </div>","97","html-slider-response","75","1093204","0.0-10.0-2.7","98","1","2025-07-02 10:19:19","80fe4187154257d5fb01684ea91b68b9","79.78.232.115","Mozilla/5.0 (Windows NT 10.0; Win64; x64) AppleWebKit/537.36 (KHTML, like Gecko) Chrome/138.0.0.0 Safari/537.36","WebKit","Chrome","138.0.0.0","Windows","10.0","https://app.prolific.com/","en-GB,en-US;q=0.9,en;q=0.8","65031d5ca9f619d9e0412f0a","683db6dfa200031b80f2a654","6865078f59fd5c6acd471890","65031d5ca9f619d9e0412f0a","2025-07-02T10:37:36.974Z","","","","","","ControlQ","","","","","","","","","","","","","","","","","","","","","","","","","","","","","","","","","","","","","","50"
"2382","","<div style=""width:500px;"">
  <p>How would you describe your current emotional state?</p>
  </div>","12","html-slider-response","76","1095587","0.0-10.0-3.7","98","1","2025-07-02 10:19:19","80fe4187154257d5fb01684ea91b68b9","79.78.232.115","Mozilla/5.0 (Windows NT 10.0; Win64; x64) AppleWebKit/537.36 (KHTML, like Gecko) Chrome/138.0.0.0 Safari/537.36","WebKit","Chrome","138.0.0.0","Windows","10.0","https://app.prolific.com/","en-GB,en-US;q=0.9,en;q=0.8","65031d5ca9f619d9e0412f0a","683db6dfa200031b80f2a654","6865078f59fd5c6acd471890","65031d5ca9f619d9e0412f0a","2025-07-02T10:37:39.357Z","","","","","","StressQ","","","","","","","","","","","","","","","","","","","","","","","","","","","","","","","","","","","","","","50"
"4412","","<div style=""width:500px;"">
  <p>What best describes how you currently feel?</p>
  </div>","91","html-slider-response","77","1100000","0.0-10.0-4.7","98","1","2025-07-02 10:19:19","80fe4187154257d5fb01684ea91b68b9","79.78.232.115","Mozilla/5.0 (Windows NT 10.0; Win64; x64) AppleWebKit/537.36 (KHTML, like Gecko) Chrome/138.0.0.0 Safari/537.36","WebKit","Chrome","138.0.0.0","Windows","10.0","https://app.prolific.com/","en-GB,en-US;q=0.9,en;q=0.8","65031d5ca9f619d9e0412f0a","683db6dfa200031b80f2a654","6865078f59fd5c6acd471890","65031d5ca9f619d9e0412f0a","2025-07-02T10:37:43.770Z","","","","","","MotivationQ","","","","","","","","","","","","","","","","","","","","","","","","","","","","","","","","","","","","","","50"
"","","","","ctl-task-cpt","78","1156647","0.0-10.0-0.8","98","1","2025-07-02 10:19:19","80fe4187154257d5fb01684ea91b68b9","79.78.232.115","Mozilla/5.0 (Windows NT 10.0; Win64; x64) AppleWebKit/537.36 (KHTML, like Gecko) Chrome/138.0.0.0 Safari/537.36","WebKit","Chrome","138.0.0.0","Windows","10.0","https://app.prolific.com/","en-GB,en-US;q=0.9,en;q=0.8","65031d5ca9f619d9e0412f0a","683db6dfa200031b80f2a654","6865078f59fd5c6acd471890","65031d5ca9f619d9e0412f0a","2025-07-02T10:38:40.417Z","","","","","","","","","","","","","","","","win-only","0","g1:NW,g2:SE","0.4","9","0","1101209.4","3980","9000.1","53635.7","1","4","4","6","2","4","4","51","47","0.38636363636363635","1633.2","3000","805","[""down"",""right""]","{""num_key_presses"":12,""num_perfect"":5,""num_errors"":0,""num_randdir"":7,""num_randdir_good_moves"":4,""num_whilered"":0,""num_whileblue"":0,""num_blue"":3,""num_good_moves"":9}","[419.57142857142856,416.1808016640799,0.8,419.57142857142856,416.1808016640799,102.9,419.57142857142856,416.1808016640799,202.9,419.57142857142856,416.1808016640799,304.3,419.57142857142856,416.1808016640799,426.3,419.57142857142856,416.1808016640799,534.5,419.57142857142856,416.1808016640799,635.9,442.07142857142856,435.6808016640799,745.7,709.0714285714286,725.1808016640799,845.7,709.0714285714286,725.1808016640799,966.5,709.0714285714286,725.1808016640799,1066.9,757.0714285714286,759.6808016640799,1172.5,758.5714285714286,759.6808016640799,1275.5,758.5714285714286,759.6808016640799,1376.2,758.5714285714286,759.6808016640799,1483.1,758.5714285714286,759.6808016640799,1637.4,758.5714285714286,759.6808016640799,1745.1,758.5714285714286,759.6808016640799,1845.3,758.5714285714286,759.6808016640799,1948.5,758.5714285714286,759.6808016640799,2052,758.5714285714286,759.6808016640799,2173.6,539.5714285714286,606.6808016640799,2282.2,509.57142857142856,591.6808016640799,2388.2,509.57142857142856,591.6808016640799,2497.7,509.57142857142856,591.6808016640799,2600.8,509.57142857142856,591.6808016640799,2719.6,509.57142857142856,591.6808016640799,2820.7,509.57142857142856,591.6808016640799,2921.9,509.57142857142856,591.6808016640799,3023.9,509.57142857142856,591.6808016640799,3126.1,509.57142857142856,591.6808016640799,3231.7,509.57142857142856,591.6808016640799,3340.7,509.57142857142856,591.6808016640799,3452.8,509.57142857142856,591.6808016640799,3555.6,509.57142857142856,591.6808016640799,3657.5,509.57142857142856,591.6808016640799,3777.6,509.57142857142856,591.6808016640799,3889.3,509.57142857142856,591.6808016640799,3994,509.57142857142856,591.6808016640799,4124.3,509.57142857142856,591.6808016640799,4229.2,509.57142857142856,591.6808016640799,4333.3,509.57142857142856,591.6808016640799,4434.9,509.57142857142856,591.6808016640799,4554,509.57142857142856,591.6808016640799,4658.5,509.57142857142856,591.6808016640799,4761.1,509.57142857142856,591.6808016640799,4874.3,509.57142857142856,591.6808016640799,4981.2]","[1434.6,1434.6,1000,0,434.6,""oops"",""down"",""left"",""bad_move"",4501.4,3065.5,2639.5,1435.9,426,""oops"",""down"",""right"",""good_move"",6911.8,2409,2024,4502.8,385,""oops"",""down"",""left"",""bad_move"",9819.8,2907.4,2528.2,6912.4,379.2,""smooth"",""down"",""down"",""good_move"",13053.4,3232.4,2888.7,9821,343.7,""oops"",""right"",""right"",""good_move"",16342.9,3288.6,2926.2,13054.3,362.4,""oops"",""down"",""right"",""good_move"",25603.2,9259.7,2110.4,23086.8,406,""smooth"",""down"",""down"",""good_move"",29484.8,3880.9,3487.9,25603.9,393,""smooth"",""right"",""right"",""good_move"",32280.9,2795,2406.8,29485.9,388.2,""smooth"",""down"",""down"",""good_move"",34720.2,2438.1,2003.7,32282.1,434.4,""oops"",""right"",""left"",""bad_move"",41383,6661.7,3081.1,37854.6,447.3,""oops"",""right"",""right"",""good_move"",44484.1,3100.4,2670.5,41383.7,429.9,""smooth"",""right"",""right"",""good_move""]","",""
"1457","","<div style=""width:500px;"">
  <p>What determined the result of this run?</p>
  </div>","88","html-slider-response","79","1158106","0.0-10.0-1.8","98","1","2025-07-02 10:19:19","80fe4187154257d5fb01684ea91b68b9","79.78.232.115","Mozilla/5.0 (Windows NT 10.0; Win64; x64) AppleWebKit/537.36 (KHTML, like Gecko) Chrome/138.0.0.0 Safari/537.36","WebKit","Chrome","138.0.0.0","Windows","10.0","https://app.prolific.com/","en-GB,en-US;q=0.9,en;q=0.8","65031d5ca9f619d9e0412f0a","683db6dfa200031b80f2a654","6865078f59fd5c6acd471890","65031d5ca9f619d9e0412f0a","2025-07-02T10:38:41.877Z","","","","","","AttribQ","","","","","","","","","","","","","","","","","","","","","","","","","","","","","","","","","","","","","","50"
"1855","","<div style=""width:500px;"">
  <p>How much control did you have over the ball?</p>
  </div>","83","html-slider-response","80","1159962","0.0-10.0-2.8","98","1","2025-07-02 10:19:19","80fe4187154257d5fb01684ea91b68b9","79.78.232.115","Mozilla/5.0 (Windows NT 10.0; Win64; x64) AppleWebKit/537.36 (KHTML, like Gecko) Chrome/138.0.0.0 Safari/537.36","WebKit","Chrome","138.0.0.0","Windows","10.0","https://app.prolific.com/","en-GB,en-US;q=0.9,en;q=0.8","65031d5ca9f619d9e0412f0a","683db6dfa200031b80f2a654","6865078f59fd5c6acd471890","65031d5ca9f619d9e0412f0a","2025-07-02T10:38:43.733Z","","","","","","ControlQ","","","","","","","","","","","","","","","","","","","","","","","","","","","","","","","","","","","","","","50"
"2777","","<div style=""width:500px;"">
  <p>How would you describe your current emotional state?</p>
  </div>","16","html-slider-response","81","1162740","0.0-10.0-3.8","98","1","2025-07-02 10:19:19","80fe4187154257d5fb01684ea91b68b9","79.78.232.115","Mozilla/5.0 (Windows NT 10.0; Win64; x64) AppleWebKit/537.36 (KHTML, like Gecko) Chrome/138.0.0.0 Safari/537.36","WebKit","Chrome","138.0.0.0","Windows","10.0","https://app.prolific.com/","en-GB,en-US;q=0.9,en;q=0.8","65031d5ca9f619d9e0412f0a","683db6dfa200031b80f2a654","6865078f59fd5c6acd471890","65031d5ca9f619d9e0412f0a","2025-07-02T10:38:46.510Z","","","","","","StressQ","","","","","","","","","","","","","","","","","","","","","","","","","","","","","","","","","","","","","","50"
"3052","","<div style=""width:500px;"">
  <p>What best describes how you currently feel?</p>
  </div>","83","html-slider-response","82","1165793","0.0-10.0-4.8","98","1","2025-07-02 10:19:19","80fe4187154257d5fb01684ea91b68b9","79.78.232.115","Mozilla/5.0 (Windows NT 10.0; Win64; x64) AppleWebKit/537.36 (KHTML, like Gecko) Chrome/138.0.0.0 Safari/537.36","WebKit","Chrome","138.0.0.0","Windows","10.0","https://app.prolific.com/","en-GB,en-US;q=0.9,en;q=0.8","65031d5ca9f619d9e0412f0a","683db6dfa200031b80f2a654","6865078f59fd5c6acd471890","65031d5ca9f619d9e0412f0a","2025-07-02T10:38:49.563Z","","","","","","MotivationQ","","","","","","","","","","","","","","","","","","","","","","","","","","","","","","","","","","","","","","50"
"","","","","ctl-task-cpt","83","1195663","0.0-10.0-0.9","98","1","2025-07-02 10:19:19","80fe4187154257d5fb01684ea91b68b9","79.78.232.115","Mozilla/5.0 (Windows NT 10.0; Win64; x64) AppleWebKit/537.36 (KHTML, like Gecko) Chrome/138.0.0.0 Safari/537.36","WebKit","Chrome","138.0.0.0","Windows","10.0","https://app.prolific.com/","en-GB,en-US;q=0.9,en;q=0.8","65031d5ca9f619d9e0412f0a","683db6dfa200031b80f2a654","6865078f59fd5c6acd471890","65031d5ca9f619d9e0412f0a","2025-07-02T10:39:19.433Z","","","","","","","","","","","","","","","","win-only","0","g1:NW,g2:SE","0.5","10","0","1167002.1","3295.4","8305.3","26845.7","1","4","8","6","2","8","8","59","51","0.44696969696969696","1606.4","3000","2050","[""down"",""right""]","{""num_key_presses"":6,""num_perfect"":3,""num_errors"":0,""num_randdir"":3,""num_randdir_good_moves"":3,""num_whilered"":0,""num_whileblue"":0,""num_blue"":1,""num_good_moves"":6}","[413.57142857142856,425.1808016640799,0.7,413.57142857142856,425.1808016640799,102.8,413.57142857142856,425.1808016640799,210.5,413.57142857142856,425.1808016640799,325.3,413.57142857142856,425.1808016640799,426.8,413.57142857142856,425.1808016640799,543.4,413.57142857142856,425.1808016640799,648.7,599.5714285714286,659.1808016640799,758.1,604.0714285714286,666.6808016640799,873.6,604.0714285714286,666.6808016640799,974.4,727.0714285714286,767.1808016640799,1077.8,752.5714285714286,786.6808016640799,1195,752.5714285714286,786.6808016640799,1299.5,752.5714285714286,786.6808016640799,1413.4,752.5714285714286,786.6808016640799,1516.3,752.5714285714286,786.6808016640799,1621.1,752.5714285714286,786.6808016640799,1725.7,752.5714285714286,786.6808016640799,1829.7,752.5714285714286,786.6808016640799,1935.3,752.5714285714286,786.6808016640799,2047,752.5714285714286,786.6808016640799,2147,752.5714285714286,786.6808016640799,2250.2,752.5714285714286,786.6808016640799,2381.2,752.5714285714286,786.6808016640799,2504.4,752.5714285714286,786.6808016640799,2607.5,752.5714285714286,786.6808016640799,2710.7,752.5714285714286,786.6808016640799,2812.3,752.5714285714286,786.6808016640799,2922.6,752.5714285714286,786.6808016640799,3044.6,752.5714285714286,786.6808016640799,3147.4,752.5714285714286,786.6808016640799,3253.3,752.5714285714286,786.6808016640799,3375.8,752.5714285714286,786.6808016640799,3482.5,752.5714285714286,786.6808016640799,3583.4,752.5714285714286,786.6808016640799,3688,752.5714285714286,786.6808016640799,3792.6,752.5714285714286,786.6808016640799,3902.8,752.5714285714286,786.6808016640799,4007.7,752.5714285714286,786.6808016640799,4121,752.5714285714286,786.6808016640799,4221.9,752.5714285714286,786.6808016640799,4331.6,752.5714285714286,786.6808016640799,4440.7,752.5714285714286,786.6808016640799,4545.8,752.5714285714286,786.6808016640799,4650.2,752.5714285714286,786.6808016640799,4756.2,752.5714285714286,786.6808016640799,4882.1,752.5714285714286,786.6808016640799,4983.1]","[1466.2,1466.2,1000,0,466.2,""smooth"",""down"",""down"",""good_move"",4671.8,3204.9,2791.5,1466.9,413.4,""oops"",""down"",""right"",""good_move"",7397.7,2723.4,2224.8,4674.3,498.6,""oops"",""down"",""down"",""good_move"",9875.9,2477.4,2058,7398.5,419.4,""oops"",""right"",""right"",""good_move"",15866.7,5989.7,2866.4,12646.8,353.5,""smooth"",""down"",""down"",""good_move"",18245,2377.9,1947.8,15867.1,430.1,""smooth"",""right"",""right"",""good_move""]","",""
"7016","","<div style=""width:500px;"">
