"rt","response_timestamp","stimulus","response","trial_type","trial_index","time_elapsed","internal_node_id","run_id","condition","recorded_at","source_code_version","ip","user_agent","device","browser","browser_version","platform","platform_version","referer","accept_language","PROLIFIC_PID","STUDY_ID","SESSION_ID","prolific_id","realtime","view_history","question_order","consent","success","question_id","eventType","responses","item_order","radio_event_ids","radio_event_times","key_event_times","mouse_event_times","straightlining","zigzagging","honeypot","which_type","canvas_config","goals_layout","control_level","trial_number","tutorial_trial_number","trial_start_time","phase1_start_time","phase2_start_time","phase3_start_time","goal_1_value","goal_1_distance","goal_2_value","goal_2_distance","goal_selected","outcome","outcome_total","participant_final_score","participant_initial_score","participant_final_score_prop","goal_choice_rt","allocated_time","allocated_time_remaining","goal_direction","counts","mouse_movements","key_presses","correct","slider_start"
"12463","1751451999546","<p style='font-size:40px;line-height:1.25'><strong>Welcome to the experiment!</strong></p><p style='font-size:1.1em;line-height:1.25'>Thank you for your interest in our experiment! Before you begin, it is important that we obtain your informed consent to participate in the study.</p><p style='font-size:1.1em;line-height:1.25'>On the next screen will be an <strong>information sheet</strong> for you to read. To participate in the study we need you to read this information sheet and the following consent form carefully. If you agree with all the statements, please click the <strong>I agree</strong> button.</p><p style='font-size:1.1em;line-height:1.25'>Press <strong>Next</strong> to read the information sheet.</p>","0","custom-html-button-response","0","12466","0.0-0.0","187","1","2025-07-02 10:25:58","80fe4187154257d5fb01684ea91b68b9","41.13.108.213","Mozilla/5.0 (Windows NT 10.0; Win64; x64) AppleWebKit/537.36 (KHTML, like Gecko) Chrome/138.0.0.0 Safari/537.36 Edg/138.0.0.0","WebKit","Edge","138.0.0.0","Windows","10.0","https://app.prolific.com/","en-US,en;q=0.9,en-ZA;q=0.8","6516ef80edad82a92cb27fb9","683db6dfa200031b80f2a654","68650782ec89b9bf8993aed8","6516ef80edad82a92cb27fb9","2025-07-02T10:26:39.548Z","","","","","","","","","","","","","","","","","","","","","","","","","","","","","","","","","","","","","","","","","","","",""
"61487","","","","instructions","1","73955","0.0-1.0","187","1","2025-07-02 10:25:58","80fe4187154257d5fb01684ea91b68b9","41.13.108.213","Mozilla/5.0 (Windows NT 10.0; Win64; x64) AppleWebKit/537.36 (KHTML, like Gecko) Chrome/138.0.0.0 Safari/537.36 Edg/138.0.0.0","WebKit","Edge","138.0.0.0","Windows","10.0","https://app.prolific.com/","en-US,en;q=0.9,en-ZA;q=0.8","6516ef80edad82a92cb27fb9","683db6dfa200031b80f2a654","68650782ec89b9bf8993aed8","6516ef80edad82a92cb27fb9","","[{""page_index"":0,""viewing_time"":54462},{""page_index"":1,""viewing_time"":7024}]","","","","","","","","","","","","","","","","","","","","","","","","","","","","","","","","","","","","","","","","","","",""
"29032","","","{""Q0"":"""",""Q1"":"""",""Q2"":"""",""Q3"":"""",""Q4"":"""",""Q5"":"""",""Q6"":""I agree""}","survey-multi-choice","2","102991","0.0-2.0","187","1","2025-07-02 10:25:58","80fe4187154257d5fb01684ea91b68b9","41.13.108.213","Mozilla/5.0 (Windows NT 10.0; Win64; x64) AppleWebKit/537.36 (KHTML, like Gecko) Chrome/138.0.0.0 Safari/537.36 Edg/138.0.0.0","WebKit","Edge","138.0.0.0","Windows","10.0","https://app.prolific.com/","en-US,en;q=0.9,en-ZA;q=0.8","6516ef80edad82a92cb27fb9","683db6dfa200031b80f2a654","68650782ec89b9bf8993aed8","6516ef80edad82a92cb27fb9","","","[0,1,2,3,4,5,6]","true","","","","","","","","","","","","","","","","","","","","","","","","","","","","","","","","","","","","","","","","",""
"14610","","","","fullscreen","3","118611","0.0-4.0","187","1","2025-07-02 10:25:58","80fe4187154257d5fb01684ea91b68b9","41.13.108.213","Mozilla/5.0 (Windows NT 10.0; Win64; x64) AppleWebKit/537.36 (KHTML, like Gecko) Chrome/138.0.0.0 Safari/537.36 Edg/138.0.0.0","WebKit","Edge","138.0.0.0","Windows","10.0","https://app.prolific.com/","en-US,en;q=0.9,en-ZA;q=0.8","6516ef80edad82a92cb27fb9","683db6dfa200031b80f2a654","68650782ec89b9bf8993aed8","6516ef80edad82a92cb27fb9","","","","","true","","","","","","","","","","","","","","","","","","","","","","","","","","","","","","","","","","","","","","","",""
"18269","1751452123963"," <p style='font-size:1.1em;line-height:1.25'>Thank you for completing the consent form and closing all other tabs.</p><p style='font-size:1.1em;line-height:1.25'>We will now invite you to fill in some demographic information and questionnaires, before starting the game.<br>This will take about 5 minutes.<br></p><p style='font-size:1.1em;line-height:1.25'>Press the <strong>Next</strong> button to continue.</p>","0","custom-html-button-response","4","136882","0.0-5.0","187","1","2025-07-02 10:25:58","80fe4187154257d5fb01684ea91b68b9","41.13.108.213","Mozilla/5.0 (Windows NT 10.0; Win64; x64) AppleWebKit/537.36 (KHTML, like Gecko) Chrome/138.0.0.0 Safari/537.36 Edg/138.0.0.0","WebKit","Edge","138.0.0.0","Windows","10.0","https://app.prolific.com/","en-US,en;q=0.9,en-ZA;q=0.8","6516ef80edad82a92cb27fb9","683db6dfa200031b80f2a654","68650782ec89b9bf8993aed8","6516ef80edad82a92cb27fb9","2025-07-02T10:28:43.964Z","","","","","","","","","","","","","","","","","","","","","","","","","","","","","","","","","","","","","","","","","","","",""
"4624","","","{""age"":""25""}","survey-text","5","141511","0.0-6.0-0.0","187","1","2025-07-02 10:25:58","80fe4187154257d5fb01684ea91b68b9","41.13.108.213","Mozilla/5.0 (Windows NT 10.0; Win64; x64) AppleWebKit/537.36 (KHTML, like Gecko) Chrome/138.0.0.0 Safari/537.36 Edg/138.0.0.0","WebKit","Edge","138.0.0.0","Windows","10.0","https://app.prolific.com/","en-US,en;q=0.9,en-ZA;q=0.8","6516ef80edad82a92cb27fb9","683db6dfa200031b80f2a654","68650782ec89b9bf8993aed8","6516ef80edad82a92cb27fb9","","","","","","0","demographics","","","","","","","","","","","","","","","","","","","","","","","","","","","","","","","","","","","","","",""
"19512","","","{""gender_identity"":""male/man""}","survey-multi-choice","6","161024","0.0-6.0-1.0","187","1","2025-07-02 10:25:58","80fe4187154257d5fb01684ea91b68b9","41.13.108.213","Mozilla/5.0 (Windows NT 10.0; Win64; x64) AppleWebKit/537.36 (KHTML, like Gecko) Chrome/138.0.0.0 Safari/537.36 Edg/138.0.0.0","WebKit","Edge","138.0.0.0","Windows","10.0","https://app.prolific.com/","en-US,en;q=0.9,en-ZA;q=0.8","6516ef80edad82a92cb27fb9","683db6dfa200031b80f2a654","68650782ec89b9bf8993aed8","6516ef80edad82a92cb27fb9","","","[0]","","","1","demographics","","","","","","","","","","","","","","","","","","","","","","","","","","","","","","","","","","","","","",""
"5780","","","{""assigned_sex"":""male""}","survey-multi-choice","7","166806","0.0-6.0-2.0","187","1","2025-07-02 10:25:58","80fe4187154257d5fb01684ea91b68b9","41.13.108.213","Mozilla/5.0 (Windows NT 10.0; Win64; x64) AppleWebKit/537.36 (KHTML, like Gecko) Chrome/138.0.0.0 Safari/537.36 Edg/138.0.0.0","WebKit","Edge","138.0.0.0","Windows","10.0","https://app.prolific.com/","en-US,en;q=0.9,en-ZA;q=0.8","6516ef80edad82a92cb27fb9","683db6dfa200031b80f2a654","68650782ec89b9bf8993aed8","6516ef80edad82a92cb27fb9","","","[0]","","","2","demographics","","","","","","","","","","","","","","","","","","","","","","","","","","","","","","","","","","","","","",""
"5580","","","{""menstrual_cycle"":""No""}","survey-multi-choice","8","172387","0.0-6.0-3.0","187","1","2025-07-02 10:25:58","80fe4187154257d5fb01684ea91b68b9","41.13.108.213","Mozilla/5.0 (Windows NT 10.0; Win64; x64) AppleWebKit/537.36 (KHTML, like Gecko) Chrome/138.0.0.0 Safari/537.36 Edg/138.0.0.0","WebKit","Edge","138.0.0.0","Windows","10.0","https://app.prolific.com/","en-US,en;q=0.9,en-ZA;q=0.8","6516ef80edad82a92cb27fb9","683db6dfa200031b80f2a654","68650782ec89b9bf8993aed8","6516ef80edad82a92cb27fb9","","","[0]","","","4","demographics","","","","","","","","","","","","","","","","","","","","","","","","","","","","","","","","","","","","","",""
"96162","","","{""education"":""Others""}","survey-multi-choice","9","268551","0.0-6.0-4.0","187","1","2025-07-02 10:25:58","80fe4187154257d5fb01684ea91b68b9","41.13.108.213","Mozilla/5.0 (Windows NT 10.0; Win64; x64) AppleWebKit/537.36 (KHTML, like Gecko) Chrome/138.0.0.0 Safari/537.36 Edg/138.0.0.0","WebKit","Edge","138.0.0.0","Windows","10.0","https://app.prolific.com/","en-US,en;q=0.9,en-ZA;q=0.8","6516ef80edad82a92cb27fb9","683db6dfa200031b80f2a654","68650782ec89b9bf8993aed8","6516ef80edad82a92cb27fb9","","","[0]","","","5","demographics","","","","","","","","","","","","","","","","","","","","","","","","","","","","","","","","","","","","","",""
"8009","","","{""education"":""Others""}","survey-multi-choice","10","276562","0.0-6.0-5.0","187","1","2025-07-02 10:25:58","80fe4187154257d5fb01684ea91b68b9","41.13.108.213","Mozilla/5.0 (Windows NT 10.0; Win64; x64) AppleWebKit/537.36 (KHTML, like Gecko) Chrome/138.0.0.0 Safari/537.36 Edg/138.0.0.0","WebKit","Edge","138.0.0.0","Windows","10.0","https://app.prolific.com/","en-US,en;q=0.9,en-ZA;q=0.8","6516ef80edad82a92cb27fb9","683db6dfa200031b80f2a654","68650782ec89b9bf8993aed8","6516ef80edad82a92cb27fb9","2025-07-02T10:31:03.644Z","","[0]","","","6","demographics","","","","","","","","","","","","","","","","","","","","","","","","","","","","","","","","","","","","","",""
"51751","","","{""mental_health_condition"":""No."",""mental_health_treatment"":""No."",""psychiatric_medication"":""None.""}","survey-text","11","328316","0.0-7.0-0.0","187","1","2025-07-02 10:25:58","80fe4187154257d5fb01684ea91b68b9","41.13.108.213","Mozilla/5.0 (Windows NT 10.0; Win64; x64) AppleWebKit/537.36 (KHTML, like Gecko) Chrome/138.0.0.0 Safari/537.36 Edg/138.0.0.0","WebKit","Edge","138.0.0.0","Windows","10.0","https://app.prolific.com/","en-US,en;q=0.9,en-ZA;q=0.8","6516ef80edad82a92cb27fb9","683db6dfa200031b80f2a654","68650782ec89b9bf8993aed8","6516ef80edad82a92cb27fb9","2025-07-02T10:31:55.398Z","","","","","1","mental_health","","","","","","","","","","","","","","","","","","","","","","","","","","","","","","","","","","","","","",""
"30893","","","{""depression_history"":[""Yes""]}","survey-multi-select","12","359212","0.0-7.0-1.0","187","1","2025-07-02 10:25:58","80fe4187154257d5fb01684ea91b68b9","41.13.108.213","Mozilla/5.0 (Windows NT 10.0; Win64; x64) AppleWebKit/537.36 (KHTML, like Gecko) Chrome/138.0.0.0 Safari/537.36 Edg/138.0.0.0","WebKit","Edge","138.0.0.0","Windows","10.0","https://app.prolific.com/","en-US,en;q=0.9,en-ZA;q=0.8","6516ef80edad82a92cb27fb9","683db6dfa200031b80f2a654","68650782ec89b9bf8993aed8","6516ef80edad82a92cb27fb9","","","[0]","","","","mental_health","","","","","","","","","","","","","","","","","","","","","","","","","","","","","","","","","","","","","",""
"23716","","","{""depression_episodes"":""more than 5"",""depression_recent"":""Currently experiencing an episode""}","survey-multi-choice","13","382929","0.0-7.0-2.0-0.0","187","1","2025-07-02 10:25:58","80fe4187154257d5fb01684ea91b68b9","41.13.108.213","Mozilla/5.0 (Windows NT 10.0; Win64; x64) AppleWebKit/537.36 (KHTML, like Gecko) Chrome/138.0.0.0 Safari/537.36 Edg/138.0.0.0","WebKit","Edge","138.0.0.0","Windows","10.0","https://app.prolific.com/","en-US,en;q=0.9,en-ZA;q=0.8","6516ef80edad82a92cb27fb9","683db6dfa200031b80f2a654","68650782ec89b9bf8993aed8","6516ef80edad82a92cb27fb9","2025-07-02T10:32:50.011Z","","[0,1]","","","3","mental_health","","","","","","","","","","","","","","","","","","","","","","","","","","","","","","","","","","","","","",""
"95884.10000002384","","","","survey-template","14","478818","0.0-7.0-3.0","187","1","2025-07-02 10:25:58","80fe4187154257d5fb01684ea91b68b9","41.13.108.213","Mozilla/5.0 (Windows NT 10.0; Win64; x64) AppleWebKit/537.36 (KHTML, like Gecko) Chrome/138.0.0.0 Safari/537.36 Edg/138.0.0.0","WebKit","Edge","138.0.0.0","Windows","10.0","https://app.prolific.com/","en-US,en;q=0.9,en-ZA;q=0.8","6516ef80edad82a92cb27fb9","683db6dfa200031b80f2a654","68650782ec89b9bf8993aed8","6516ef80edad82a92cb27fb9","2025-07-02T10:34:25.900Z","","","","","","ius","{""Q01"":""4"",""Q02"":""2"",""Q03"":""3"",""Q04"":""3"",""Q05"":""2"",""Q06"":""1"",""Q07"":""3"",""Q08"":""0"",""Q09"":""4"",""Q10"":""2"",""Q11"":""4"",""Q12"":""3"",""Q13"":""2""}","[0,1,2,3,4,5,6,7,8,9,10,11,12]","[""Q01"",""Q02"",""Q03"",""Q04"",""Q05"",""Q05"",""Q06"",""Q07"",""Q08"",""Q09"",""Q10"",""Q11"",""Q12"",""Q13""]","[13698.700000017881,18570.20000001788,24886.30000001192,32754.20000001788,38837.30000001192,40365.90000000596,45791.80000001192,55751.5,59395.70000001788,67067.70000001788,74059.40000000596,78578,85088.5,92102.5]","[]","[13698.700000017881,18570.20000001788,23559.5,24886.30000001192,32754.20000001788,37257.10000002384,38837.30000001192,40365.90000000596,45791.80000001192,54443.40000000596,55751.5,59395.70000001788,67067.70000001788,74059.40000000596,78578,85088.5,92102.5,95880.90000000596]","0.3076923076923077","0.5","0","","","","","","","","","","","","","","","","","","","","","","","","","","","","",""
"8247","1751452474148","<p style='font-size:1.1em;line-height:1.25'>In the following, we will ask you a few questions relating to your experiences over the past month.<br></p><p style='font-size:1.1em;line-height:1.25'>Press the <strong>Next</strong> button to continue.</p>","0","custom-html-button-response","15","487066","0.0-7.0-4.0","187","1","2025-07-02 10:25:58","80fe4187154257d5fb01684ea91b68b9","41.13.108.213","Mozilla/5.0 (Windows NT 10.0; Win64; x64) AppleWebKit/537.36 (KHTML, like Gecko) Chrome/138.0.0.0 Safari/537.36 Edg/138.0.0.0","WebKit","Edge","138.0.0.0","Windows","10.0","https://app.prolific.com/","en-US,en;q=0.9,en-ZA;q=0.8","6516ef80edad82a92cb27fb9","683db6dfa200031b80f2a654","68650782ec89b9bf8993aed8","6516ef80edad82a92cb27fb9","2025-07-02T10:34:34.148Z","","","","","","","","","","","","","","","","","","","","","","","","","","","","","","","","","","","","","","","","","","","",""
"75537.29999998212","","","","survey-template","16","562607","0.0-7.0-5.0","187","1","2025-07-02 10:25:58","80fe4187154257d5fb01684ea91b68b9","41.13.108.213","Mozilla/5.0 (Windows NT 10.0; Win64; x64) AppleWebKit/537.36 (KHTML, like Gecko) Chrome/138.0.0.0 Safari/537.36 Edg/138.0.0.0","WebKit","Edge","138.0.0.0","Windows","10.0","https://app.prolific.com/","en-US,en;q=0.9,en-ZA;q=0.8","6516ef80edad82a92cb27fb9","683db6dfa200031b80f2a654","68650782ec89b9bf8993aed8","6516ef80edad82a92cb27fb9","2025-07-02T10:35:49.689Z","","","","","","pss","{""Q01"":""4"",""Q02"":""2"",""Q03"":""4"",""Q04"":""3"",""Q05"":""3"",""Q06"":""3"",""Q07"":""2"",""Q08"":""3"",""Q09"":""4"",""Q10"":""4""}","[0,1,2,3,4,5,6,7,8,9]","[""Q01"",""Q02"",""Q02"",""Q03"",""Q04"",""Q05"",""Q06"",""Q07"",""Q08"",""Q09"",""Q10""]","[5650.199999988079,11595,14631,22356.90000000596,35382.90000000596,40538.79999998212,50228.19999998808,57212.09999999404,61982,68413.79999998212,73835.5]","[]","[0,5650.199999988079,11595,13358.5,14631,22356.90000000596,35382.90000000596,40538.79999998212,50228.19999998808,57212.09999999404,61982,68413.79999998212,73835.5,75534.69999998808]","0.4","0.2222222222222222","0","","","","","","","","","","","","","","","","","","","","","","","","","","","","",""
"4505","1751452554195","<p style='font-size:1.1em;line-height:1.25'>Thank you for your answers! Now we will ask you a few more questions relating to your feelings in the last 24 hours.<br></p><p style='font-size:1.1em;line-height:1.25'>Press the <strong>Next</strong> button to continue.</p>","0","custom-html-button-response","17","567114","0.0-7.0-6.0","187","1","2025-07-02 10:25:58","80fe4187154257d5fb01684ea91b68b9","41.13.108.213","Mozilla/5.0 (Windows NT 10.0; Win64; x64) AppleWebKit/537.36 (KHTML, like Gecko) Chrome/138.0.0.0 Safari/537.36 Edg/138.0.0.0","WebKit","Edge","138.0.0.0","Windows","10.0","https://app.prolific.com/","en-US,en;q=0.9,en-ZA;q=0.8","6516ef80edad82a92cb27fb9","683db6dfa200031b80f2a654","68650782ec89b9bf8993aed8","6516ef80edad82a92cb27fb9","2025-07-02T10:35:54.196Z","","","","","","","","","","","","","","","","","","","","","","","","","","","","","","","","","","","","","","","","","","","",""
"133471.29999998212","","","","survey-template","18","700589","0.0-7.0-7.0","187","1","2025-07-02 10:25:58","80fe4187154257d5fb01684ea91b68b9","41.13.108.213","Mozilla/5.0 (Windows NT 10.0; Win64; x64) AppleWebKit/537.36 (KHTML, like Gecko) Chrome/138.0.0.0 Safari/537.36 Edg/138.0.0.0","WebKit","Edge","138.0.0.0","Windows","10.0","https://app.prolific.com/","en-US,en;q=0.9,en-ZA;q=0.8","6516ef80edad82a92cb27fb9","683db6dfa200031b80f2a654","68650782ec89b9bf8993aed8","6516ef80edad82a92cb27fb9","2025-07-02T10:38:07.671Z","","","","","","drsp","{""Q01"":""4"",""Q02"":""5"",""Q03"":""4"",""Q04"":""4"",""Q05"":""3"",""Q06"":""3"",""Q07"":""3"",""Q08"":""3"",""Q09"":""4"",""Q10"":""3"",""Q11"":""4"",""Q12"":""0"",""Q13"":""0"",""Q14"":""0"",""Q15"":""5"",""Q16"":""3"",""Q17"":""3"",""Q18"":""0"",""Q19"":""3"",""Q20"":""3"",""Q21"":""4""}","[0,1,2,3,4,5,6,7,8,9,10,11,12,13,14,15,16,17,18,19,20]","[""Q02"",""Q03"",""Q04"",""Q05"",""Q06"",""Q01"",""Q07"",""Q06"",""Q07"",""Q08"",""Q09"",""Q10"",""Q10"",""Q11"",""Q12"",""Q13"",""Q13"",""Q13"",""Q14"",""Q14"",""Q15"",""Q14"",""Q14"",""Q16"",""Q17"",""Q17"",""Q18"",""Q19"",""Q20"",""Q21""]","[9123.199999988079,10890.399999976158,12953.799999982119,15289.5,20498.5,23579.399999976158,27900.69999998808,33280.79999998212,34795,45305.09999999404,52224.09999999404,55645.19999998808,56782.39999997616,60428.29999998212,63828.29999998212,66286.39999997616,67491.29999998212,69525.5,79196.5,82277.19999998808,86088.5,89690.39999997616,94281.19999998808,98765.09999999404,101588.09999999404,104000.19999998808,109115.39999997616,117715.19999998808,123687.09999999404,129630.5]","[]","[0,9123.199999988079,10890.399999976158,12953.799999982119,15289.5,20498.5,23579.399999976158,27900.69999998808,33280.79999998212,34795,45305.09999999404,49284.19999998808,52224.09999999404,55645.19999998808,56782.39999997616,60428.29999998212,63828.29999998212,66286.39999997616,67491.29999998212,69525.5,79196.5,82277.19999998808,86088.5,89690.39999997616,93233.89999997616,94281.19999998808,98765.09999999404,101588.09999999404,102902.39999997616,104000.19999998808,109115.39999997616,117715.19999998808,123687.09999999404,129630.5,133466.19999998808]","0.42857142857142855","0.4","0","","","","","","","","","","","","","","","","","","","","","","","","","","","","",""
"16792","","","","survey-template","19","717382","0.0-7.0-8.0","187","1","2025-07-02 10:25:58","80fe4187154257d5fb01684ea91b68b9","41.13.108.213","Mozilla/5.0 (Windows NT 10.0; Win64; x64) AppleWebKit/537.36 (KHTML, like Gecko) Chrome/138.0.0.0 Safari/537.36 Edg/138.0.0.0","WebKit","Edge","138.0.0.0","Windows","10.0","https://app.prolific.com/","en-US,en;q=0.9,en-ZA;q=0.8","6516ef80edad82a92cb27fb9","683db6dfa200031b80f2a654","68650782ec89b9bf8993aed8","6516ef80edad82a92cb27fb9","2025-07-02T10:38:24.464Z","","","","","","stress","{""Q01"":""4"",""Q02"":""5"",""Q03"":""4""}","[0,1,2]","[""Q01"",""Q02"",""Q03""]","[6222.699999988079,9727.199999988079,14724.199999988079]","[]","[6222.699999988079,9727.199999988079,14724.199999988079,16791.19999998808]","0.6666666666666666","0","0","","","","","","","","","","","","","","","","","","","","","","","","","","","","",""
"308437","","","","instructions","20","1025820","0.0-8.0-0.0","187","1","2025-07-02 10:25:58","80fe4187154257d5fb01684ea91b68b9","41.13.108.213","Mozilla/5.0 (Windows NT 10.0; Win64; x64) AppleWebKit/537.36 (KHTML, like Gecko) Chrome/138.0.0.0 Safari/537.36 Edg/138.0.0.0","WebKit","Edge","138.0.0.0","Windows","10.0","https://app.prolific.com/","en-US,en;q=0.9,en-ZA;q=0.8","6516ef80edad82a92cb27fb9","683db6dfa200031b80f2a654","68650782ec89b9bf8993aed8","6516ef80edad82a92cb27fb9","","[{""page_index"":0,""viewing_time"":51667},{""page_index"":1,""viewing_time"":74432},{""page_index"":2,""viewing_time"":17250},{""page_index"":3,""viewing_time"":165087}]","","","","","","","","","","","","","","","","","","","","","","","","","","","","","","","","","","","","","","","","","","",""
"","","","","ctl-task-cpt","21","1062594","0.0-8.0-1.0","187","1","2025-07-02 10:25:58","80fe4187154257d5fb01684ea91b68b9","41.13.108.213","Mozilla/5.0 (Windows NT 10.0; Win64; x64) AppleWebKit/537.36 (KHTML, like Gecko) Chrome/138.0.0.0 Safari/537.36 Edg/138.0.0.0","WebKit","Edge","138.0.0.0","Windows","10.0","https://app.prolific.com/","en-US,en;q=0.9,en-ZA;q=0.8","6516ef80edad82a92cb27fb9","683db6dfa200031b80f2a654","68650782ec89b9bf8993aed8","6516ef80edad82a92cb27fb9","","","","","","","","","","","","","","","","","win-only","2","g1:SE,g2:NW","1","0","1","1040635.8","6901.2","10905.8","33762","2","4","4","6","1","2","0","0","0","0","4004.5","4000","820","[""down"",""right""]","{""num_key_presses"":9,""num_perfect"":6,""num_errors"":2,""num_randdir"":0,""num_randdir_good_moves"":0,""num_whilered"":1,""num_whileblue"":0,""num_blue"":1,""num_good_moves"":5}","[414.0714133126395,421.57142761775424,0.2,414.0714133126395,421.57142761775424,100.7,414.0714133126395,421.57142761775424,204.7,414.0714133126395,421.57142761775424,312.4,414.0714133126395,421.57142761775424,414.9,414.0714133126395,421.57142761775424,514.9,414.0714133126395,421.57142761775424,614.9,414.0714133126395,421.57142761775424,719,414.0714133126395,421.57142761775424,819.8,414.0714133126395,421.57142761775424,920.8,414.0714133126395,421.57142761775424,1028.9,414.0714133126395,421.57142761775424,1134.6,414.0714133126395,421.57142761775424,1235.6,414.0714133126395,421.57142761775424,1341,414.0714133126395,421.57142761775424,1445.5,414.0714133126395,421.57142761775424,1549.4,414.0714133126395,421.57142761775424,1654.1,414.0714133126395,421.57142761775424,1761.8,414.0714133126395,421.57142761775424,1861.8,414.0714133126395,421.57142761775424,1964.3,414.0714133126395,421.57142761775424,2064.5,414.0714133126395,421.57142761775424,2164.7,414.0714133126395,421.57142761775424,2264.8,414.0714133126395,421.57142761775424,2369.5,414.0714133126395,421.57142761775424,2470.4,414.0714133126395,421.57142761775424,2578.3,414.0714133126395,421.57142761775424,2679.9,414.0714133126395,421.57142761775424,2784.9,414.0714133126395,421.57142761775424,2894.8,414.0714133126395,421.57142761775424,2999.5,414.0714133126395,421.57142761775424,3099.8,414.0714133126395,421.57142761775424,3205,414.0714133126395,421.57142761775424,3311.2,414.0714133126395,421.57142761775424,3411.3,414.0714133126395,421.57142761775424,3514.1,414.0714133126395,421.57142761775424,3614.6,414.0714133126395,421.57142761775424,3714.9,414.0714133126395,421.57142761775424,3820.8,414.0714133126395,421.57142761775424,3927.8]","[1756,1756,1000,0,756,""smooth"",""left"",""left"",""bad_move"",2406.4,650.2,2266.5,1756.2,-1616.3,""error"",""-"",""-"",""no_move"",2838.9,432.4,2266.5,1756.2,-1183.8,""while_red"",""-"",""-"",""no_move"",5638.2,3231.7,3219.4,3409.4,-990.6,""error"",""-"",""-"",""no_move"",13002.2,7363.8,2698.6,9710,593.6,""smooth"",""right"",""right"",""good_move"",15494.4,2491.9,2059,13002.5,432.9,""smooth"",""right"",""right"",""good_move"",17758.4,2264,1692.9,15494.5,571,""smooth"",""down"",""down"",""good_move"",20470.4,2711.7,2099.8,17758.7,611.9,""smooth"",""down"",""down"",""good_move"",22765.6,2295.1,1672.5,20470.5,622.6,""smooth"",""right"",""right"",""good_move""]","",""
"25202","","","","instructions","22","1087796","0.0-8.0-2.0","187","1","2025-07-02 10:25:58","80fe4187154257d5fb01684ea91b68b9","41.13.108.213","Mozilla/5.0 (Windows NT 10.0; Win64; x64) AppleWebKit/537.36 (KHTML, like Gecko) Chrome/138.0.0.0 Safari/537.36 Edg/138.0.0.0","WebKit","Edge","138.0.0.0","Windows","10.0","https://app.prolific.com/","en-US,en;q=0.9,en-ZA;q=0.8","6516ef80edad82a92cb27fb9","683db6dfa200031b80f2a654","68650782ec89b9bf8993aed8","6516ef80edad82a92cb27fb9","","[{""page_index"":0,""viewing_time"":25202}]","","","","","","","","","","","","","","","","","","","","","","","","","","","","","","","","","","","","","","","","","","",""
"","","","","ctl-task-cpt","23","1130874","0.0-8.0-3.0","187","1","2025-07-02 10:25:58","80fe4187154257d5fb01684ea91b68b9","41.13.108.213","Mozilla/5.0 (Windows NT 10.0; Win64; x64) AppleWebKit/537.36 (KHTML, like Gecko) Chrome/138.0.0.0 Safari/537.36 Edg/138.0.0.0","WebKit","Edge","138.0.0.0","Windows","10.0","https://app.prolific.com/","en-US,en;q=0.9,en-ZA;q=0.8","6516ef80edad82a92cb27fb9","683db6dfa200031b80f2a654","68650782ec89b9bf8993aed8","6516ef80edad82a92cb27fb9","","","","","","","","","","","","","","","","","win-only","2","g1:SE,g2:NW","0.35","0","3","1102610.4","3723","7726.1","40071.1","2","4","8","6","1","-2","-2","0","0","0","4003.1","4000","-3005","[""down"",""right""]","{""num_key_presses"":8,""num_perfect"":4,""num_errors"":0,""num_randdir"":4,""num_randdir_good_moves"":1,""num_whilered"":0,""num_whileblue"":0,""num_blue"":2,""num_good_moves"":5}","[412.8214133126395,419.07142761775424,0.1,412.8214133126395,419.07142761775424,103.6,412.8214133126395,419.07142761775424,207.5,412.8214133126395,419.07142761775424,307.9,412.8214133126395,419.07142761775424,412.8,412.8214133126395,419.07142761775424,517.7,412.8214133126395,419.07142761775424,624,412.8214133126395,419.07142761775424,727.5,412.8214133126395,419.07142761775424,827.5,412.8214133126395,419.07142761775424,933.4,412.8214133126395,419.07142761775424,1037.7,412.8214133126395,419.07142761775424,1137.9,412.8214133126395,419.07142761775424,1242.5,412.8214133126395,419.07142761775424,1342.5,412.8214133126395,419.07142761775424,1443.2,412.8214133126395,419.07142761775424,1547.9,412.8214133126395,419.07142761775424,1647.9,412.8214133126395,419.07142761775424,1753,412.8214133126395,419.07142761775424,1857.2,412.8214133126395,419.07142761775424,1957.2,412.8214133126395,419.07142761775424,2063.6,412.8214133126395,419.07142761775424,2167.7,412.8214133126395,419.07142761775424,2267.9,412.8214133126395,419.07142761775424,2373.1,412.8214133126395,419.07142761775424,2473.3,412.8214133126395,419.07142761775424,2577.7,412.8214133126395,419.07142761775424,2682.8,412.8214133126395,419.07142761775424,2788,412.8214133126395,419.07142761775424,2888.1,412.8214133126395,419.07142761775424,2993.2,412.8214133126395,419.07142761775424,3097.4,412.8214133126395,419.07142761775424,3198.1,412.8214133126395,419.07142761775424,3302.5,412.8214133126395,419.07142761775424,3402.9,412.8214133126395,419.07142761775424,3503.1,412.8214133126395,419.07142761775424,3607.4,412.8214133126395,419.07142761775424,3713.3,412.8214133126395,419.07142761775424,3818.1,412.8214133126395,419.07142761775424,3922.4]","[1708,1708,1000,0,708,""oops"",""right"",""up"",""bad_move"",8955.8,7247.6,2625.1,5919.8,410.9,""oops"",""up"",""left"",""bad_move"",14117.5,5161.4,1479.8,12280.2,357.5,""smooth"",""right"",""right"",""good_move"",17123.5,3005.7,2574.6,14117.8,431.1,""smooth"",""right"",""right"",""good_move"",20283.7,3160.1,2725.3,17123.7,434.7,""smooth"",""right"",""right"",""good_move"",23363.5,3079.7,2561.1,20283.8,518.6,""oops"",""down"",""down"",""good_move"",26299.6,2935.8,2474.7,23363.8,461.1,""smooth"",""down"",""down"",""good_move"",29677,3377.2,3067.9,26299.8,309.3,""oops"",""down"",""left"",""bad_move""]","",""
"72487","","","","instructions","24","1203361","0.0-8.0-4.0","187","1","2025-07-02 10:25:58","80fe4187154257d5fb01684ea91b68b9","41.13.108.213","Mozilla/5.0 (Windows NT 10.0; Win64; x64) AppleWebKit/537.36 (KHTML, like Gecko) Chrome/138.0.0.0 Safari/537.36 Edg/138.0.0.0","WebKit","Edge","138.0.0.0","Windows","10.0","https://app.prolific.com/","en-US,en;q=0.9,en-ZA;q=0.8","6516ef80edad82a92cb27fb9","683db6dfa200031b80f2a654","68650782ec89b9bf8993aed8","6516ef80edad82a92cb27fb9","","[{""page_index"":0,""viewing_time"":14346},{""page_index"":1,""viewing_time"":58141}]","","","","","","","","","","","","","","","","","","","","","","","","","","","","","","","","","","","","","","","","","","",""
"96938","","","{""green_ball"":[""Ball always moves in the direction I press"",""Ball sometimes shakes and moves in a random direction""]}","survey-multi-select","25","1300302","0.0-8.0-5.0-0.0","187","1","2025-07-02 10:25:58","80fe4187154257d5fb01684ea91b68b9","41.13.108.213","Mozilla/5.0 (Windows NT 10.0; Win64; x64) AppleWebKit/537.36 (KHTML, like Gecko) Chrome/138.0.0.0 Safari/537.36 Edg/138.0.0.0","WebKit","Edge","138.0.0.0","Windows","10.0","https://app.prolific.com/","en-US,en;q=0.9,en-ZA;q=0.8","6516ef80edad82a92cb27fb9","683db6dfa200031b80f2a654","68650782ec89b9bf8993aed8","6516ef80edad82a92cb27fb9","","","[0]","","","","quiz","","","","","","","","","","","","","","","","","","","","","","","","","","","","","","","","","","","","","false",""
"8727","","<p align='center'><b>INCORRECT.</b> Usually the green ball moves in the indicated direction, but sometimes it shakes and moves randomly. </p>","0","html-button-response","26","1309030","0.0-8.0-5.0-1.0","187","1","2025-07-02 10:25:58","80fe4187154257d5fb01684ea91b68b9","41.13.108.213","Mozilla/5.0 (Windows NT 10.0; Win64; x64) AppleWebKit/537.36 (KHTML, like Gecko) Chrome/138.0.0.0 Safari/537.36 Edg/138.0.0.0","WebKit","Edge","138.0.0.0","Windows","10.0","https://app.prolific.com/","en-US,en;q=0.9,en-ZA;q=0.8","6516ef80edad82a92cb27fb9","683db6dfa200031b80f2a654","68650782ec89b9bf8993aed8","6516ef80edad82a92cb27fb9","","","","","","","","","","","","","","","","","","","","","","","","","","","","","","","","","","","","","","","","","","","","",""
"36637","","","{""green_ball"":[""Ball always shakes and moves in a random direction"",""Ball always moves in the direction I press""]}","survey-multi-select","27","1345671","0.0-8.0-5.1-0.1","187","1","2025-07-02 10:25:58","80fe4187154257d5fb01684ea91b68b9","41.13.108.213","Mozilla/5.0 (Windows NT 10.0; Win64; x64) AppleWebKit/537.36 (KHTML, like Gecko) Chrome/138.0.0.0 Safari/537.36 Edg/138.0.0.0","WebKit","Edge","138.0.0.0","Windows","10.0","https://app.prolific.com/","en-US,en;q=0.9,en-ZA;q=0.8","6516ef80edad82a92cb27fb9","683db6dfa200031b80f2a654","68650782ec89b9bf8993aed8","6516ef80edad82a92cb27fb9","","","[0]","","","","quiz","","","","","","","","","","","","","","","","","","","","","","","","","","","","","","","","","","","","","false",""
"20548","","<p align='center'><b>INCORRECT.</b> Usually the green ball moves in the indicated direction, but sometimes it shakes and moves randomly. </p>","0","html-button-response","28","1366221","0.0-8.0-5.1-1.1","187","1","2025-07-02 10:25:58","80fe4187154257d5fb01684ea91b68b9","41.13.108.213","Mozilla/5.0 (Windows NT 10.0; Win64; x64) AppleWebKit/537.36 (KHTML, like Gecko) Chrome/138.0.0.0 Safari/537.36 Edg/138.0.0.0","WebKit","Edge","138.0.0.0","Windows","10.0","https://app.prolific.com/","en-US,en;q=0.9,en-ZA;q=0.8","6516ef80edad82a92cb27fb9","683db6dfa200031b80f2a654","68650782ec89b9bf8993aed8","6516ef80edad82a92cb27fb9","","","","","","","","","","","","","","","","","","","","","","","","","","","","","","","","","","","","","","","","","","","","",""
"83971","","","{""green_ball"":[""Ball always moves in the direction I press""]}","survey-multi-select","29","1450194","0.0-8.0-5.2-0.2","187","1","2025-07-02 10:25:58","80fe4187154257d5fb01684ea91b68b9","41.13.108.213","Mozilla/5.0 (Windows NT 10.0; Win64; x64) AppleWebKit/537.36 (KHTML, like Gecko) Chrome/138.0.0.0 Safari/537.36 Edg/138.0.0.0","WebKit","Edge","138.0.0.0","Windows","10.0","https://app.prolific.com/","en-US,en;q=0.9,en-ZA;q=0.8","6516ef80edad82a92cb27fb9","683db6dfa200031b80f2a654","68650782ec89b9bf8993aed8","6516ef80edad82a92cb27fb9","","","[0]","","","","quiz","","","","","","","","","","","","","","","","","","","","","","","","","","","","","","","","","","","","","false",""
"9798","","<p align='center'><b>INCORRECT.</b> Usually the green ball moves in the indicated direction, but sometimes it shakes and moves randomly. </p>","0","html-button-response","30","1459994","0.0-8.0-5.2-1.2","187","1","2025-07-02 10:25:58","80fe4187154257d5fb01684ea91b68b9","41.13.108.213","Mozilla/5.0 (Windows NT 10.0; Win64; x64) AppleWebKit/537.36 (KHTML, like Gecko) Chrome/138.0.0.0 Safari/537.36 Edg/138.0.0.0","WebKit","Edge","138.0.0.0","Windows","10.0","https://app.prolific.com/","en-US,en;q=0.9,en-ZA;q=0.8","6516ef80edad82a92cb27fb9","683db6dfa200031b80f2a654","68650782ec89b9bf8993aed8","6516ef80edad82a92cb27fb9","","","","","","","","","","","","","","","","","","","","","","","","","","","","","","","","","","","","","","","","","","","","",""
"6715","","","{""green_ball"":[""Ball always shakes and moves in a random direction"",""Ball always moves in the direction I press""]}","survey-multi-select","31","1466712","0.0-8.0-5.3-0.3","187","1","2025-07-02 10:25:58","80fe4187154257d5fb01684ea91b68b9","41.13.108.213","Mozilla/5.0 (Windows NT 10.0; Win64; x64) AppleWebKit/537.36 (KHTML, like Gecko) Chrome/138.0.0.0 Safari/537.36 Edg/138.0.0.0","WebKit","Edge","138.0.0.0","Windows","10.0","https://app.prolific.com/","en-US,en;q=0.9,en-ZA;q=0.8","6516ef80edad82a92cb27fb9","683db6dfa200031b80f2a654","68650782ec89b9bf8993aed8","6516ef80edad82a92cb27fb9","","","[0]","","","","quiz","","","","","","","","","","","","","","","","","","","","","","","","","","","","","","","","","","","","","false",""
"2148","","<p align='center'><b>INCORRECT.</b> Usually the green ball moves in the indicated direction, but sometimes it shakes and moves randomly. </p>","0","html-button-response","32","1468861","0.0-8.0-5.3-1.3","187","1","2025-07-02 10:25:58","80fe4187154257d5fb01684ea91b68b9","41.13.108.213","Mozilla/5.0 (Windows NT 10.0; Win64; x64) AppleWebKit/537.36 (KHTML, like Gecko) Chrome/138.0.0.0 Safari/537.36 Edg/138.0.0.0","WebKit","Edge","138.0.0.0","Windows","10.0","https://app.prolific.com/","en-US,en;q=0.9,en-ZA;q=0.8","6516ef80edad82a92cb27fb9","683db6dfa200031b80f2a654","68650782ec89b9bf8993aed8","6516ef80edad82a92cb27fb9","","","","","","","","","","","","","","","","","","","","","","","","","","","","","","","","","","","","","","","","","","","","",""
"6612","","","{""green_ball"":[""Ball sometimes shakes and moves in a random direction""]}","survey-multi-select","33","1475475","0.0-8.0-5.4-0.4","187","1","2025-07-02 10:25:58","80fe4187154257d5fb01684ea91b68b9","41.13.108.213","Mozilla/5.0 (Windows NT 10.0; Win64; x64) AppleWebKit/537.36 (KHTML, like Gecko) Chrome/138.0.0.0 Safari/537.36 Edg/138.0.0.0","WebKit","Edge","138.0.0.0","Windows","10.0","https://app.prolific.com/","en-US,en;q=0.9,en-ZA;q=0.8","6516ef80edad82a92cb27fb9","683db6dfa200031b80f2a654","68650782ec89b9bf8993aed8","6516ef80edad82a92cb27fb9","","","[0]","","","","quiz","","","","","","","","","","","","","","","","","","","","","","","","","","","","","","","","","","","","","true",""
"10109","","<p align='center'><b>CORRECT!</b> Indeed, the green ball may sometimes shake and move in a random direction.</p>","0","html-button-response","34","1485585","0.0-8.0-5.4-1.4","187","1","2025-07-02 10:25:58","80fe4187154257d5fb01684ea91b68b9","41.13.108.213","Mozilla/5.0 (Windows NT 10.0; Win64; x64) AppleWebKit/537.36 (KHTML, like Gecko) Chrome/138.0.0.0 Safari/537.36 Edg/138.0.0.0","WebKit","Edge","138.0.0.0","Windows","10.0","https://app.prolific.com/","en-US,en;q=0.9,en-ZA;q=0.8","6516ef80edad82a92cb27fb9","683db6dfa200031b80f2a654","68650782ec89b9bf8993aed8","6516ef80edad82a92cb27fb9","","","","","","","","","","","","","","","","","","","","","","","","","","","","","","","","","","","","","","","","","","","","",""
"59830","","","{""yellow_ball"":[""Ball doesn‘t move and I get -1 penalty point""]}","survey-multi-select","35","1545418","0.0-8.0-6.0-0.0","187","1","2025-07-02 10:25:58","80fe4187154257d5fb01684ea91b68b9","41.13.108.213","Mozilla/5.0 (Windows NT 10.0; Win64; x64) AppleWebKit/537.36 (KHTML, like Gecko) Chrome/138.0.0.0 Safari/537.36 Edg/138.0.0.0","WebKit","Edge","138.0.0.0","Windows","10.0","https://app.prolific.com/","en-US,en;q=0.9,en-ZA;q=0.8","6516ef80edad82a92cb27fb9","683db6dfa200031b80f2a654","68650782ec89b9bf8993aed8","6516ef80edad82a92cb27fb9","","","[0]","","","","quiz","","","","","","","","","","","","","","","","","","","","","","","","","","","","","","","","","","","","","true",""
"3198","","<p align='center'><b>CORRECT!</b> Indeed, the yellow ball never moves and you receive a penalty.</p>","0","html-button-response","36","1548618","0.0-8.0-6.0-1.0","187","1","2025-07-02 10:25:58","80fe4187154257d5fb01684ea91b68b9","41.13.108.213","Mozilla/5.0 (Windows NT 10.0; Win64; x64) AppleWebKit/537.36 (KHTML, like Gecko) Chrome/138.0.0.0 Safari/537.36 Edg/138.0.0.0","WebKit","Edge","138.0.0.0","Windows","10.0","https://app.prolific.com/","en-US,en;q=0.9,en-ZA;q=0.8","6516ef80edad82a92cb27fb9","683db6dfa200031b80f2a654","68650782ec89b9bf8993aed8","6516ef80edad82a92cb27fb9","","","","","","","","","","","","","","","","","","","","","","","","","","","","","","","","","","","","","","","","","","","","",""
"14087","","","{""blue_ball"":[""Ball always shakes and moves in a random direction""]}","survey-multi-select","37","1562707","0.0-8.0-7.0-0.0","187","1","2025-07-02 10:25:58","80fe4187154257d5fb01684ea91b68b9","41.13.108.213","Mozilla/5.0 (Windows NT 10.0; Win64; x64) AppleWebKit/537.36 (KHTML, like Gecko) Chrome/138.0.0.0 Safari/537.36 Edg/138.0.0.0","WebKit","Edge","138.0.0.0","Windows","10.0","https://app.prolific.com/","en-US,en;q=0.9,en-ZA;q=0.8","6516ef80edad82a92cb27fb9","683db6dfa200031b80f2a654","68650782ec89b9bf8993aed8","6516ef80edad82a92cb27fb9","","","[0]","","","","quiz","","","","","","","","","","","","","","","","","","","","","","","","","","","","","","","","","","","","","true",""
"3003","","<p align='center'><b>CORRECT!</b> Indeed, the blue ball always shakes and moves in a random direction. Also there is a penalty of -1 point.</p>","0","html-button-response","38","1565712","0.0-8.0-7.0-1.0","187","1","2025-07-02 10:25:58","80fe4187154257d5fb01684ea91b68b9","41.13.108.213","Mozilla/5.0 (Windows NT 10.0; Win64; x64) AppleWebKit/537.36 (KHTML, like Gecko) Chrome/138.0.0.0 Safari/537.36 Edg/138.0.0.0","WebKit","Edge","138.0.0.0","Windows","10.0","https://app.prolific.com/","en-US,en;q=0.9,en-ZA;q=0.8","6516ef80edad82a92cb27fb9","683db6dfa200031b80f2a654","68650782ec89b9bf8993aed8","6516ef80edad82a92cb27fb9","","","","","","","","","","","","","","","","","","","","","","","","","","","","","","","","","","","","","","","","","","","","",""
"8037","","","{""bonus"":[""When I reach 50% of points""]}","survey-multi-select","39","1573751","0.0-8.0-8.0-0.0","187","1","2025-07-02 10:25:58","80fe4187154257d5fb01684ea91b68b9","41.13.108.213","Mozilla/5.0 (Windows NT 10.0; Win64; x64) AppleWebKit/537.36 (KHTML, like Gecko) Chrome/138.0.0.0 Safari/537.36 Edg/138.0.0.0","WebKit","Edge","138.0.0.0","Windows","10.0","https://app.prolific.com/","en-US,en;q=0.9,en-ZA;q=0.8","6516ef80edad82a92cb27fb9","683db6dfa200031b80f2a654","68650782ec89b9bf8993aed8","6516ef80edad82a92cb27fb9","","","[0]","","","","quiz","","","","","","","","","","","","","","","","","","","","","","","","","","","","","","","","","","","","","true",""
"3618","","<p align='center'><b>CORRECT!</b> Indeed, you receive 2 pounds extra when you reach 50% of points.</p>","0","html-button-response","40","1577370","0.0-8.0-8.0-1.0","187","1","2025-07-02 10:25:58","80fe4187154257d5fb01684ea91b68b9","41.13.108.213","Mozilla/5.0 (Windows NT 10.0; Win64; x64) AppleWebKit/537.36 (KHTML, like Gecko) Chrome/138.0.0.0 Safari/537.36 Edg/138.0.0.0","WebKit","Edge","138.0.0.0","Windows","10.0","https://app.prolific.com/","en-US,en;q=0.9,en-ZA;q=0.8","6516ef80edad82a92cb27fb9","683db6dfa200031b80f2a654","68650782ec89b9bf8993aed8","6516ef80edad82a92cb27fb9","","","","","","","","","","","","","","","","","","","","","","","","","","","","","","","","","","","","","","","","","","","","",""
"5995","","","","instructions","41","1583366","0.0-8.0-9.0","187","1","2025-07-02 10:25:58","80fe4187154257d5fb01684ea91b68b9","41.13.108.213","Mozilla/5.0 (Windows NT 10.0; Win64; x64) AppleWebKit/537.36 (KHTML, like Gecko) Chrome/138.0.0.0 Safari/537.36 Edg/138.0.0.0","WebKit","Edge","138.0.0.0","Windows","10.0","https://app.prolific.com/","en-US,en;q=0.9,en-ZA;q=0.8","6516ef80edad82a92cb27fb9","683db6dfa200031b80f2a654","68650782ec89b9bf8993aed8","6516ef80edad82a92cb27fb9","","[{""page_index"":0,""viewing_time"":5995}]","","","","","","","","","","","","","","","","","","","","","","","","","","","","","","","","","","","","","","","","","","",""
"94960","","<p>Before you start with this game please answer the following three questions yourself. </p>
  <p>Through this game, we measure several aspects of your cognitive performance, such as reaction times, multi-tasking capabilities </p>
  <p>and the ability to assess the situation you are in.</p>
  <p></p>
  <p><b>How good do you usually are in such tasks?</b></p>","91","html-slider-response","42","1678327","0.0-9.0-0.0","187","1","2025-07-02 10:25:58","80fe4187154257d5fb01684ea91b68b9","41.13.108.213","Mozilla/5.0 (Windows NT 10.0; Win64; x64) AppleWebKit/537.36 (KHTML, like Gecko) Chrome/138.0.0.0 Safari/537.36 Edg/138.0.0.0","WebKit","Edge","138.0.0.0","Windows","10.0","https://app.prolific.com/","en-US,en;q=0.9,en-ZA;q=0.8","6516ef80edad82a92cb27fb9","683db6dfa200031b80f2a654","68650782ec89b9bf8993aed8","6516ef80edad82a92cb27fb9","2025-07-02T10:54:25.409Z","","","","","","PreSkillQ","","","","","","","","","","","","","","","","","","","","","","","","","","","","","","","","","","","","","","50"
"9069","","<div style=""width:500px;"">
  <p>How well do you think you will perform in this task compared to other participants?</p>
  </div>","90","html-slider-response","43","1687398","0.0-9.0-1.0","187","1","2025-07-02 10:25:58","80fe4187154257d5fb01684ea91b68b9","41.13.108.213","Mozilla/5.0 (Windows NT 10.0; Win64; x64) AppleWebKit/537.36 (KHTML, like Gecko) Chrome/138.0.0.0 Safari/537.36 Edg/138.0.0.0","WebKit","Edge","138.0.0.0","Windows","10.0","https://app.prolific.com/","en-US,en;q=0.9,en-ZA;q=0.8","6516ef80edad82a92cb27fb9","683db6dfa200031b80f2a654","68650782ec89b9bf8993aed8","6516ef80edad82a92cb27fb9","2025-07-02T10:54:34.480Z","","","","","","PrePerfQ","","","","","","","","","","","","","","","","","","","","","","","","","","","","","","","","","","","","","","50"
"7876","","<div style=""width:500px;"">
  <p>What best describes how you currently feel?</p>
  </div>","65","html-slider-response","44","1695275","0.0-9.0-2.0","187","1","2025-07-02 10:25:58","80fe4187154257d5fb01684ea91b68b9","41.13.108.213","Mozilla/5.0 (Windows NT 10.0; Win64; x64) AppleWebKit/537.36 (KHTML, like Gecko) Chrome/138.0.0.0 Safari/537.36 Edg/138.0.0.0","WebKit","Edge","138.0.0.0","Windows","10.0","https://app.prolific.com/","en-US,en;q=0.9,en-ZA;q=0.8","6516ef80edad82a92cb27fb9","683db6dfa200031b80f2a654","68650782ec89b9bf8993aed8","6516ef80edad82a92cb27fb9","2025-07-02T10:54:42.357Z","","","","","","PreMotivationQ","","","","","","","","","","","","","","","","","","","","","","","","","","","","","","","","","","","","","","50"
"","","","","ctl-task-cpt","45","1722006","0.0-10.0-0.0","187","1","2025-07-02 10:25:58","80fe4187154257d5fb01684ea91b68b9","41.13.108.213","Mozilla/5.0 (Windows NT 10.0; Win64; x64) AppleWebKit/537.36 (KHTML, like Gecko) Chrome/138.0.0.0 Safari/537.36 Edg/138.0.0.0","WebKit","Edge","138.0.0.0","Windows","10.0","https://app.prolific.com/","en-US,en;q=0.9,en-ZA;q=0.8","6516ef80edad82a92cb27fb9","683db6dfa200031b80f2a654","68650782ec89b9bf8993aed8","6516ef80edad82a92cb27fb9","2025-07-02T10:55:09.088Z","","","","","","","","","","","","","","","","win-only","1","g1:NE,g2:SW","1","1","0","1710092","2099.6","7100.6","23716","1","4","8","6","1","1","1","1","0","0.007575757575757576","5001","3000","1225","[""up"",""right""]","{""num_key_presses"":4,""num_perfect"":4,""num_errors"":0,""num_randdir"":0,""num_randdir_good_moves"":0,""num_whilered"":0,""num_whileblue"":0,""num_blue"":2,""num_good_moves"":4}","[411.5714133126395,420.32142761775424,0.1,411.5714133126395,420.32142761775424,100,411.5714133126395,420.32142761775424,200.6,411.5714133126395,420.32142761775424,306.1,411.5714133126395,420.32142761775424,411,411.5714133126395,420.32142761775424,511.1,411.5714133126395,420.32142761775424,616.9,411.5714133126395,420.32142761775424,720.5,411.5714133126395,420.32142761775424,821.4,411.5714133126395,420.32142761775424,926.1,411.5714133126395,420.32142761775424,1026.3,411.5714133126395,420.32142761775424,1133.5,411.5714133126395,420.32142761775424,1233.9,411.5714133126395,420.32142761775424,1336.2,411.5714133126395,420.32142761775424,1436.5,411.5714133126395,420.32142761775424,1542.1,411.5714133126395,420.32142761775424,1650.1,411.5714133126395,420.32142761775424,1750.1,411.5714133126395,420.32142761775424,1851.3,411.5714133126395,420.32142761775424,1957,411.5714133126395,420.32142761775424,2065.8,411.5714133126395,420.32142761775424,2170.6,411.5714133126395,420.32142761775424,2270.9,411.5714133126395,420.32142761775424,2371,411.5714133126395,420.32142761775424,2471,411.5714133126395,420.32142761775424,2571.3,411.5714133126395,420.32142761775424,2676,411.5714133126395,420.32142761775424,2782.8,411.5714133126395,420.32142761775424,2883.2,411.5714133126395,420.32142761775424,2986.3,411.5714133126395,420.32142761775424,3091.3,411.5714133126395,420.32142761775424,3199.2,411.5714133126395,420.32142761775424,3299.3,411.5714133126395,420.32142761775424,3399.3,411.5714133126395,420.32142761775424,3501.3,411.5714133126395,420.32142761775424,3606.2,411.5714133126395,420.32142761775424,3706.3,411.5714133126395,420.32142761775424,3816.1,411.5714133126395,420.32142761775424,3921.4,411.5714133126395,420.32142761775424,4021.4,411.5714133126395,420.32142761775424,4121.5,411.5714133126395,420.32142761775424,4226.1,411.5714133126395,420.32142761775424,4331.7,411.5714133126395,420.32142761775424,4432.3,411.5714133126395,420.32142761775424,4532.4,411.5714133126395,420.32142761775424,4635.8,411.5714133126395,420.32142761775424,4736.6,411.5714133126395,420.32142761775424,4840.8,411.5714133126395,420.32142761775424,4941.6]","[1479.1,1479.1,1000,0,479.1,""smooth"",""right"",""right"",""good_move"",7283.2,5803.9,2486.9,4415.5,380.8,""smooth"",""right"",""right"",""good_move"",10094,2810.6,2127.9,7283.4,682.7,""smooth"",""up"",""up"",""good_move"",16524.8,6430.5,2744.4,13320.1,460.3,""smooth"",""up"",""up"",""good_move""]","",""
"51038","","<div style=""width:500px;"">
  <p>What determined the result of this run?</p>
  </div>","100","html-slider-response","46","1773045","0.0-10.0-1.0","187","1","2025-07-02 10:25:58","80fe4187154257d5fb01684ea91b68b9","41.13.108.213","Mozilla/5.0 (Windows NT 10.0; Win64; x64) AppleWebKit/537.36 (KHTML, like Gecko) Chrome/138.0.0.0 Safari/537.36 Edg/138.0.0.0","WebKit","Edge","138.0.0.0","Windows","10.0","https://app.prolific.com/","en-US,en;q=0.9,en-ZA;q=0.8","6516ef80edad82a92cb27fb9","683db6dfa200031b80f2a654","68650782ec89b9bf8993aed8","6516ef80edad82a92cb27fb9","2025-07-02T10:56:00.127Z","","","","","","AttribQ","","","","","","","","","","","","","","","","","","","","","","","","","","","","","","","","","","","","","","50"
"4696","","<div style=""width:500px;"">
  <p>How much control did you have over the ball?</p>
  </div>","100","html-slider-response","47","1777742","0.0-10.0-2.0","187","1","2025-07-02 10:25:58","80fe4187154257d5fb01684ea91b68b9","41.13.108.213","Mozilla/5.0 (Windows NT 10.0; Win64; x64) AppleWebKit/537.36 (KHTML, like Gecko) Chrome/138.0.0.0 Safari/537.36 Edg/138.0.0.0","WebKit","Edge","138.0.0.0","Windows","10.0","https://app.prolific.com/","en-US,en;q=0.9,en-ZA;q=0.8","6516ef80edad82a92cb27fb9","683db6dfa200031b80f2a654","68650782ec89b9bf8993aed8","6516ef80edad82a92cb27fb9","2025-07-02T10:56:04.824Z","","","","","","ControlQ","","","","","","","","","","","","","","","","","","","","","","","","","","","","","","","","","","","","","","50"
"7940","","<div style=""width:500px;"">
  <p>How would you describe your current emotional state?</p>
  </div>","0","html-slider-response","48","1785683","0.0-10.0-3.0","187","1","2025-07-02 10:25:58","80fe4187154257d5fb01684ea91b68b9","41.13.108.213","Mozilla/5.0 (Windows NT 10.0; Win64; x64) AppleWebKit/537.36 (KHTML, like Gecko) Chrome/138.0.0.0 Safari/537.36 Edg/138.0.0.0","WebKit","Edge","138.0.0.0","Windows","10.0","https://app.prolific.com/","en-US,en;q=0.9,en-ZA;q=0.8","6516ef80edad82a92cb27fb9","683db6dfa200031b80f2a654","68650782ec89b9bf8993aed8","6516ef80edad82a92cb27fb9","2025-07-02T10:56:12.766Z","","","","","","StressQ","","","","","","","","","","","","","","","","","","","","","","","","","","","","","","","","","","","","","","50"
"6833","","<div style=""width:500px;"">
  <p>What best describes how you currently feel?</p>
  </div>","100","html-slider-response","49","1792518","0.0-10.0-4.0","187","1","2025-07-02 10:25:58","80fe4187154257d5fb01684ea91b68b9","41.13.108.213","Mozilla/5.0 (Windows NT 10.0; Win64; x64) AppleWebKit/537.36 (KHTML, like Gecko) Chrome/138.0.0.0 Safari/537.36 Edg/138.0.0.0","WebKit","Edge","138.0.0.0","Windows","10.0","https://app.prolific.com/","en-US,en;q=0.9,en-ZA;q=0.8","6516ef80edad82a92cb27fb9","683db6dfa200031b80f2a654","68650782ec89b9bf8993aed8","6516ef80edad82a92cb27fb9","2025-07-02T10:56:19.600Z","","","","","","MotivationQ","","","","","","","","","","","","","","","","","","","","","","","","","","","","","","","","","","","","","","50"
"","","","","ctl-task-cpt","50","1813249","0.0-10.0-0.1","187","1","2025-07-02 10:25:58","80fe4187154257d5fb01684ea91b68b9","41.13.108.213","Mozilla/5.0 (Windows NT 10.0; Win64; x64) AppleWebKit/537.36 (KHTML, like Gecko) Chrome/138.0.0.0 Safari/537.36 Edg/138.0.0.0","WebKit","Edge","138.0.0.0","Windows","10.0","https://app.prolific.com/","en-US,en;q=0.9,en-ZA;q=0.8","6516ef80edad82a92cb27fb9","683db6dfa200031b80f2a654","68650782ec89b9bf8993aed8","6516ef80edad82a92cb27fb9","2025-07-02T10:56:40.331Z","","","","","","","","","","","","","","","","win-only","3","g1:SW,g2:NE","0.9","2","0","1807332.8","1881.2","6885.6","17711.8","1","4","4","6","1","1","1","2","1","0.015151515151515152","5004.4","3000","1505","[""down"",""left""]","{""num_key_presses"":4,""num_perfect"":4,""num_errors"":0,""num_randdir"":0,""num_randdir_good_moves"":0,""num_whilered"":0,""num_whileblue"":0,""num_blue"":0,""num_good_moves"":4}","[411.5714133126395,421.57142761775424,0.2,411.5714133126395,421.57142761775424,100.1,411.5714133126395,421.57142761775424,204.3,411.5714133126395,421.57142761775424,310.1,411.5714133126395,421.57142761775424,414.5,411.5714133126395,421.57142761775424,514.5,411.5714133126395,421.57142761775424,619.3,411.5714133126395,421.57142761775424,720.7,411.5714133126395,421.57142761775424,824.8,411.5714133126395,421.57142761775424,929.8,411.5714133126395,421.57142761775424,1030.6,411.5714133126395,421.57142761775424,1135.5,411.5714133126395,421.57142761775424,1240,411.5714133126395,421.57142761775424,1340,411.5714133126395,421.57142761775424,1440.1,411.5714133126395,421.57142761775424,1544.2,411.5714133126395,421.57142761775424,1644.4,411.5714133126395,421.57142761775424,1744.8,411.5714133126395,421.57142761775424,1849.2,411.5714133126395,421.57142761775424,1954.9,411.5714133126395,421.57142761775424,2059.3,411.5714133126395,421.57142761775424,2160.5,411.5714133126395,421.57142761775424,2264,411.5714133126395,421.57142761775424,2364.1,411.5714133126395,421.57142761775424,2464.9,411.5714133126395,421.57142761775424,2565.6,411.5714133126395,421.57142761775424,2669.7,411.5714133126395,421.57142761775424,2769.7,411.5714133126395,421.57142761775424,2874.2,411.5714133126395,421.57142761775424,2974.5,411.5714133126395,421.57142761775424,3080.4,411.5714133126395,421.57142761775424,3184.6,411.5714133126395,421.57142761775424,3289.6,411.5714133126395,421.57142761775424,3394.2,411.5714133126395,421.57142761775424,3494.8,411.5714133126395,421.57142761775424,3599.6,411.5714133126395,421.57142761775424,3699.8,411.5714133126395,421.57142761775424,3799.9,411.5714133126395,421.57142761775424,3900.5,411.5714133126395,421.57142761775424,4004.1,411.5714133126395,421.57142761775424,4104.7,411.5714133126395,421.57142761775424,4204.9,411.5714133126395,421.57142761775424,4309.8,411.5714133126395,421.57142761775424,4410.5,411.5714133126395,421.57142761775424,4514.1,411.5714133126395,421.57142761775424,4614.4,411.5714133126395,421.57142761775424,4720,411.5714133126395,421.57142761775424,4824.2,411.5714133126395,421.57142761775424,4924.7]","[1449.4,1449.4,1000,0,449.4,""smooth"",""left"",""left"",""good_move"",4345.8,2896.2,2523.5,1449.6,372.7,""smooth"",""left"",""left"",""good_move"",7573,3227,2877.4,4346,349.6,""smooth"",""down"",""down"",""good_move"",10739.6,3166.3,2822.2,7573.3,344.1,""smooth"",""down"",""down"",""good_move""]","",""
"7569","","<div style=""width:500px;"">
  <p>What determined the result of this run?</p>
  </div>","100","html-slider-response","51","1820819","0.0-10.0-1.1","187","1","2025-07-02 10:25:58","80fe4187154257d5fb01684ea91b68b9","41.13.108.213","Mozilla/5.0 (Windows NT 10.0; Win64; x64) AppleWebKit/537.36 (KHTML, like Gecko) Chrome/138.0.0.0 Safari/537.36 Edg/138.0.0.0","WebKit","Edge","138.0.0.0","Windows","10.0","https://app.prolific.com/","en-US,en;q=0.9,en-ZA;q=0.8","6516ef80edad82a92cb27fb9","683db6dfa200031b80f2a654","68650782ec89b9bf8993aed8","6516ef80edad82a92cb27fb9","2025-07-02T10:56:47.901Z","","","","","","AttribQ","","","","","","","","","","","","","","","","","","","","","","","","","","","","","","","","","","","","","","50"
"6008","","<div style=""width:500px;"">
  <p>How much control did you have over the ball?</p>
  </div>","100","html-slider-response","52","1826828","0.0-10.0-2.1","187","1","2025-07-02 10:25:58","80fe4187154257d5fb01684ea91b68b9","41.13.108.213","Mozilla/5.0 (Windows NT 10.0; Win64; x64) AppleWebKit/537.36 (KHTML, like Gecko) Chrome/138.0.0.0 Safari/537.36 Edg/138.0.0.0","WebKit","Edge","138.0.0.0","Windows","10.0","https://app.prolific.com/","en-US,en;q=0.9,en-ZA;q=0.8","6516ef80edad82a92cb27fb9","683db6dfa200031b80f2a654","68650782ec89b9bf8993aed8","6516ef80edad82a92cb27fb9","2025-07-02T10:56:53.910Z","","","","","","ControlQ","","","","","","","","","","","","","","","","","","","","","","","","","","","","","","","","","","","","","","50"
"4025","","<div style=""width:500px;"">
  <p>How would you describe your current emotional state?</p>
  </div>","0","html-slider-response","53","1830854","0.0-10.0-3.1","187","1","2025-07-02 10:25:58","80fe4187154257d5fb01684ea91b68b9","41.13.108.213","Mozilla/5.0 (Windows NT 10.0; Win64; x64) AppleWebKit/537.36 (KHTML, like Gecko) Chrome/138.0.0.0 Safari/537.36 Edg/138.0.0.0","WebKit","Edge","138.0.0.0","Windows","10.0","https://app.prolific.com/","en-US,en;q=0.9,en-ZA;q=0.8","6516ef80edad82a92cb27fb9","683db6dfa200031b80f2a654","68650782ec89b9bf8993aed8","6516ef80edad82a92cb27fb9","2025-07-02T10:56:57.936Z","","","","","","StressQ","","","","","","","","","","","","","","","","","","","","","","","","","","","","","","","","","","","","","","50"
"4474","","<div style=""width:500px;"">
  <p>What best describes how you currently feel?</p>
  </div>","100","html-slider-response","54","1835329","0.0-10.0-4.1","187","1","2025-07-02 10:25:58","80fe4187154257d5fb01684ea91b68b9","41.13.108.213","Mozilla/5.0 (Windows NT 10.0; Win64; x64) AppleWebKit/537.36 (KHTML, like Gecko) Chrome/138.0.0.0 Safari/537.36 Edg/138.0.0.0","WebKit","Edge","138.0.0.0","Windows","10.0","https://app.prolific.com/","en-US,en;q=0.9,en-ZA;q=0.8","6516ef80edad82a92cb27fb9","683db6dfa200031b80f2a654","68650782ec89b9bf8993aed8","6516ef80edad82a92cb27fb9","2025-07-02T10:57:02.411Z","","","","","","MotivationQ","","","","","","","","","","","","","","","","","","","","","","","","","","","","","","","","","","","","","","50"
"","","","","ctl-task-cpt","55","1872723","0.0-10.0-0.2","187","1","2025-07-02 10:25:58","80fe4187154257d5fb01684ea91b68b9","41.13.108.213","Mozilla/5.0 (Windows NT 10.0; Win64; x64) AppleWebKit/537.36 (KHTML, like Gecko) Chrome/138.0.0.0 Safari/537.36 Edg/138.0.0.0","WebKit","Edge","138.0.0.0","Windows","10.0","https://app.prolific.com/","en-US,en;q=0.9,en-ZA;q=0.8","6516ef80edad82a92cb27fb9","683db6dfa200031b80f2a654","68650782ec89b9bf8993aed8","6516ef80edad82a92cb27fb9","2025-07-02T10:57:39.805Z","","","","","","","","","","","","","","","","win-only","3","g1:SW,g2:NE","0.8","3","0","1850142.4","2303.8","7305.2","34371.2","1","4","4","6","1","1","1","3","2","0.022727272727272728","5001.4","3000","555","[""down"",""left""]","{""num_key_presses"":6,""num_perfect"":4,""num_errors"":0,""num_randdir"":2,""num_randdir_good_moves"":1,""num_whilered"":0,""num_whileblue"":0,""num_blue"":3,""num_good_moves"":5}","[416.5714133126395,414.07142761775424,0.2,416.5714133126395,414.07142761775424,100.7,416.5714133126395,414.07142761775424,201.4,416.5714133126395,414.07142761775424,301.4,416.5714133126395,414.07142761775424,401.8,416.5714133126395,414.07142761775424,507.3,416.5714133126395,414.07142761775424,616.6,416.5714133126395,414.07142761775424,717.4,416.5714133126395,414.07142761775424,821.8,416.5714133126395,414.07142761775424,927.2,416.5714133126395,414.07142761775424,1034.4,416.5714133126395,414.07142761775424,1134.7,416.5714133126395,414.07142761775424,1235.2,416.5714133126395,414.07142761775424,1336.9,416.5714133126395,414.07142761775424,1436.9,416.5714133126395,414.07142761775424,1542.1,416.5714133126395,414.07142761775424,1651.1,416.5714133126395,414.07142761775424,1751.6,416.5714133126395,414.07142761775424,1851.6,416.5714133126395,414.07142761775424,1957.4,416.5714133126395,414.07142761775424,2066,416.5714133126395,414.07142761775424,2167.2,416.5714133126395,414.07142761775424,2271.4,416.5714133126395,414.07142761775424,2371.7,416.5714133126395,414.07142761775424,2471.9,416.5714133126395,414.07142761775424,2572.5,416.5714133126395,414.07142761775424,2676.6,416.5714133126395,414.07142761775424,2777.1,416.5714133126395,414.07142761775424,2884,416.5714133126395,414.07142761775424,2986.8,416.5714133126395,414.07142761775424,3091.8,416.5714133126395,414.07142761775424,3192.2,416.5714133126395,414.07142761775424,3292.3,416.5714133126395,414.07142761775424,3400.6,416.5714133126395,414.07142761775424,3501.7,416.5714133126395,414.07142761775424,3601.9,416.5714133126395,414.07142761775424,3702,416.5714133126395,414.07142761775424,3807.3,416.5714133126395,414.07142761775424,3915.6,416.5714133126395,414.07142761775424,4016,416.5714133126395,414.07142761775424,4116,416.5714133126395,414.07142761775424,4216.4,416.5714133126395,414.07142761775424,4316.9,416.5714133126395,414.07142761775424,4421.9,416.5714133126395,414.07142761775424,4532.3,416.5714133126395,414.07142761775424,4632.3,416.5714133126395,414.07142761775424,4736.2,416.5714133126395,414.07142761775424,4837.1,416.5714133126395,414.07142761775424,4941.9]","[5094.5,5094.5,2623.6,2014.4,456.5,""smooth"",""down"",""down"",""good_move"",8142.9,3048.2,2638.8,5094.7,409.4,""oops"",""left"",""left"",""good_move"",14775,6631.8,2619.7,11745,410.3,""smooth"",""left"",""left"",""good_move"",17508.9,2733.8,2127.2,14775.1,606.6,""oops"",""down"",""right"",""bad_move"",23692.3,6183.1,2484,20729.8,478.5,""smooth"",""left"",""left"",""good_move"",26956.2,3263.8,2859.7,23692.4,404.1,""smooth"",""down"",""down"",""good_move""]","",""
"3955","","<div style=""width:500px;"">
  <p>What determined the result of this run?</p>
  </div>","100","html-slider-response","56","1876679","0.0-10.0-1.2","187","1","2025-07-02 10:25:58","80fe4187154257d5fb01684ea91b68b9","41.13.108.213","Mozilla/5.0 (Windows NT 10.0; Win64; x64) AppleWebKit/537.36 (KHTML, like Gecko) Chrome/138.0.0.0 Safari/537.36 Edg/138.0.0.0","WebKit","Edge","138.0.0.0","Windows","10.0","https://app.prolific.com/","en-US,en;q=0.9,en-ZA;q=0.8","6516ef80edad82a92cb27fb9","683db6dfa200031b80f2a654","68650782ec89b9bf8993aed8","6516ef80edad82a92cb27fb9","2025-07-02T10:57:43.762Z","","","","","","AttribQ","","","","","","","","","","","","","","","","","","","","","","","","","","","","","","","","","","","","","","50"
"5754","","<div style=""width:500px;"">
  <p>How much control did you have over the ball?</p>
  </div>","87","html-slider-response","57","1882434","0.0-10.0-2.2","187","1","2025-07-02 10:25:58","80fe4187154257d5fb01684ea91b68b9","41.13.108.213","Mozilla/5.0 (Windows NT 10.0; Win64; x64) AppleWebKit/537.36 (KHTML, like Gecko) Chrome/138.0.0.0 Safari/537.36 Edg/138.0.0.0","WebKit","Edge","138.0.0.0","Windows","10.0","https://app.prolific.com/","en-US,en;q=0.9,en-ZA;q=0.8","6516ef80edad82a92cb27fb9","683db6dfa200031b80f2a654","68650782ec89b9bf8993aed8","6516ef80edad82a92cb27fb9","2025-07-02T10:57:49.516Z","","","","","","ControlQ","","","","","","","","","","","","","","","","","","","","","","","","","","","","","","","","","","","","","","50"
"6987","","<div style=""width:500px;"">
  <p>How would you describe your current emotional state?</p>
  </div>","1","html-slider-response","58","1889422","0.0-10.0-3.2","187","1","2025-07-02 10:25:58","80fe4187154257d5fb01684ea91b68b9","41.13.108.213","Mozilla/5.0 (Windows NT 10.0; Win64; x64) AppleWebKit/537.36 (KHTML, like Gecko) Chrome/138.0.0.0 Safari/537.36 Edg/138.0.0.0","WebKit","Edge","138.0.0.0","Windows","10.0","https://app.prolific.com/","en-US,en;q=0.9,en-ZA;q=0.8","6516ef80edad82a92cb27fb9","683db6dfa200031b80f2a654","68650782ec89b9bf8993aed8","6516ef80edad82a92cb27fb9","2025-07-02T10:57:56.504Z","","","","","","StressQ","","","","","","","","","","","","","","","","","","","","","","","","","","","","","","","","","","","","","","50"
"7041","","<div style=""width:500px;"">
  <p>What best describes how you currently feel?</p>
  </div>","100","html-slider-response","59","1896463","0.0-10.0-4.2","187","1","2025-07-02 10:25:58","80fe4187154257d5fb01684ea91b68b9","41.13.108.213","Mozilla/5.0 (Windows NT 10.0; Win64; x64) AppleWebKit/537.36 (KHTML, like Gecko) Chrome/138.0.0.0 Safari/537.36 Edg/138.0.0.0","WebKit","Edge","138.0.0.0","Windows","10.0","https://app.prolific.com/","en-US,en;q=0.9,en-ZA;q=0.8","6516ef80edad82a92cb27fb9","683db6dfa200031b80f2a654","68650782ec89b9bf8993aed8","6516ef80edad82a92cb27fb9","2025-07-02T10:58:03.545Z","","","","","","MotivationQ","","","","","","","","","","","","","","","","","","","","","","","","","","","","","","","","","","","","","","50"
"","","","","ctl-task-cpt","60","1929722","0.0-10.0-0.3","187","1","2025-07-02 10:25:58","80fe4187154257d5fb01684ea91b68b9","41.13.108.213","Mozilla/5.0 (Windows NT 10.0; Win64; x64) AppleWebKit/537.36 (KHTML, like Gecko) Chrome/138.0.0.0 Safari/537.36 Edg/138.0.0.0","WebKit","Edge","138.0.0.0","Windows","10.0","https://app.prolific.com/","en-US,en;q=0.9,en-ZA;q=0.8","6516ef80edad82a92cb27fb9","683db6dfa200031b80f2a654","68650782ec89b9bf8993aed8","6516ef80edad82a92cb27fb9","2025-07-02T10:58:36.804Z","","","","","","","","","","","","","","","","win-only","1","g1:NE,g2:SW","0.7","4","0","1911277.1","2480.4","7481.3","30240.6","1","4","8","6","2","8","8","11","3","0.08333333333333333","5000.8","3000","50","[""down"",""left""]","{""num_key_presses"":8,""num_perfect"":6,""num_errors"":0,""num_randdir"":2,""num_randdir_good_moves"":1,""num_whilered"":0,""num_whileblue"":0,""num_blue"":0,""num_good_moves"":7}","[409.0714133126395,416.57142761775424,0.2,409.0714133126395,416.57142761775424,108.3,409.0714133126395,416.57142761775424,208.5,409.0714133126395,416.57142761775424,308.8,409.0714133126395,416.57142761775424,409.9,409.0714133126395,416.57142761775424,510.3,409.0714133126395,416.57142761775424,611.1,409.0714133126395,416.57142761775424,715.2,409.0714133126395,416.57142761775424,825,409.0714133126395,416.57142761775424,925.8,409.0714133126395,416.57142761775424,1030.5,409.0714133126395,416.57142761775424,1141.4,409.0714133126395,416.57142761775424,1245.3,409.0714133126395,416.57142761775424,1351.2,409.0714133126395,416.57142761775424,1458.7,409.0714133126395,416.57142761775424,1558.7,409.0714133126395,416.57142761775424,1660.6,409.0714133126395,416.57142761775424,1760.8,409.0714133126395,416.57142761775424,1865.6,409.0714133126395,416.57142761775424,1973.9,409.0714133126395,416.57142761775424,2075.5,409.0714133126395,416.57142761775424,2175.5,409.0714133126395,416.57142761775424,2279.7,409.0714133126395,416.57142761775424,2381.1,409.0714133126395,416.57142761775424,2490.4,409.0714133126395,416.57142761775424,2591.3,409.0714133126395,416.57142761775424,2695.5,409.0714133126395,416.57142761775424,2800.1,409.0714133126395,416.57142761775424,2900.3,409.0714133126395,416.57142761775424,3000.5,409.0714133126395,416.57142761775424,3107.2,409.0714133126395,416.57142761775424,3208.3,409.0714133126395,416.57142761775424,3310,409.0714133126395,416.57142761775424,3410.5,409.0714133126395,416.57142761775424,3514.8,409.0714133126395,416.57142761775424,3615.3,409.0714133126395,416.57142761775424,3715.5,409.0714133126395,416.57142761775424,3816.7,409.0714133126395,416.57142761775424,3923.7,409.0714133126395,416.57142761775424,4024.1,409.0714133126395,416.57142761775424,4125.6,409.0714133126395,416.57142761775424,4230.4,409.0714133126395,416.57142761775424,4339.7,409.0714133126395,416.57142761775424,4441.9,409.0714133126395,416.57142761775424,4545.6,409.0714133126395,416.57142761775424,4645.6,409.0714133126395,416.57142761775424,4745.6,409.0714133126395,416.57142761775424,4850.5,409.0714133126395,416.57142761775424,4956.1]","[1421.8,1421.8,1000,0,421.8,""smooth"",""down"",""down"",""good_move"",4189.5,2767.2,2392.5,1422.3,374.8,""smooth"",""down"",""down"",""good_move"",7045.8,2856.1,2486.6,4189.7,369.5,""smooth"",""left"",""left"",""good_move"",10517.2,3471.1,3088.3,7046.1,382.8,""smooth"",""left"",""left"",""good_move"",13765.6,3248.4,2907.1,10517.3,341.3,""smooth"",""left"",""left"",""good_move"",17502.1,3736.2,3396.9,13765.9,339.3,""oops"",""down"",""up"",""bad_move"",20874.4,3371.9,2999.9,17502.5,372,""oops"",""down"",""down"",""good_move"",22674.1,1799.4,1360.2,20874.7,439.2,""smooth"",""down"",""down"",""good_move""]","",""
"4362","","<div style=""width:500px;"">
  <p>What determined the result of this run?</p>
  </div>","100","html-slider-response","61","1934085","0.0-10.0-1.3","187","1","2025-07-02 10:25:58","80fe4187154257d5fb01684ea91b68b9","41.13.108.213","Mozilla/5.0 (Windows NT 10.0; Win64; x64) AppleWebKit/537.36 (KHTML, like Gecko) Chrome/138.0.0.0 Safari/537.36 Edg/138.0.0.0","WebKit","Edge","138.0.0.0","Windows","10.0","https://app.prolific.com/","en-US,en;q=0.9,en-ZA;q=0.8","6516ef80edad82a92cb27fb9","683db6dfa200031b80f2a654","68650782ec89b9bf8993aed8","6516ef80edad82a92cb27fb9","2025-07-02T10:58:41.167Z","","","","","","AttribQ","","","","","","","","","","","","","","","","","","","","","","","","","","","","","","","","","","","","","","50"
"7356","","<div style=""width:500px;"">
  <p>How much control did you have over the ball?</p>
  </div>","92","html-slider-response","62","1941442","0.0-10.0-2.3","187","1","2025-07-02 10:25:58","80fe4187154257d5fb01684ea91b68b9","41.13.108.213","Mozilla/5.0 (Windows NT 10.0; Win64; x64) AppleWebKit/537.36 (KHTML, like Gecko) Chrome/138.0.0.0 Safari/537.36 Edg/138.0.0.0","WebKit","Edge","138.0.0.0","Windows","10.0","https://app.prolific.com/","en-US,en;q=0.9,en-ZA;q=0.8","6516ef80edad82a92cb27fb9","683db6dfa200031b80f2a654","68650782ec89b9bf8993aed8","6516ef80edad82a92cb27fb9","2025-07-02T10:58:48.524Z","","","","","","ControlQ","","","","","","","","","","","","","","","","","","","","","","","","","","","","","","","","","","","","","","50"
"5385","","<div style=""width:500px;"">
  <p>How would you describe your current emotional state?</p>
  </div>","0","html-slider-response","63","1946828","0.0-10.0-3.3","187","1","2025-07-02 10:25:58","80fe4187154257d5fb01684ea91b68b9","41.13.108.213","Mozilla/5.0 (Windows NT 10.0; Win64; x64) AppleWebKit/537.36 (KHTML, like Gecko) Chrome/138.0.0.0 Safari/537.36 Edg/138.0.0.0","WebKit","Edge","138.0.0.0","Windows","10.0","https://app.prolific.com/","en-US,en;q=0.9,en-ZA;q=0.8","6516ef80edad82a92cb27fb9","683db6dfa200031b80f2a654","68650782ec89b9bf8993aed8","6516ef80edad82a92cb27fb9","2025-07-02T10:58:53.910Z","","","","","","StressQ","","","","","","","","","","","","","","","","","","","","","","","","","","","","","","","","","","","","","","50"
"5211","","<div style=""width:500px;"">
  <p>What best describes how you currently feel?</p>
  </div>","100","html-slider-response","64","1952039","0.0-10.0-4.3","187","1","2025-07-02 10:25:58","80fe4187154257d5fb01684ea91b68b9","41.13.108.213","Mozilla/5.0 (Windows NT 10.0; Win64; x64) AppleWebKit/537.36 (KHTML, like Gecko) Chrome/138.0.0.0 Safari/537.36 Edg/138.0.0.0","WebKit","Edge","138.0.0.0","Windows","10.0","https://app.prolific.com/","en-US,en;q=0.9,en-ZA;q=0.8","6516ef80edad82a92cb27fb9","683db6dfa200031b80f2a654","68650782ec89b9bf8993aed8","6516ef80edad82a92cb27fb9","2025-07-02T10:58:59.122Z","","","","","","MotivationQ","","","","","","","","","","","","","","","","","","","","","","","","","","","","","","","","","","","","","","50"
"","","","","ctl-task-cpt","65","1976990","0.0-10.0-0.4","187","1","2025-07-02 10:25:58","80fe4187154257d5fb01684ea91b68b9","41.13.108.213","Mozilla/5.0 (Windows NT 10.0; Win64; x64) AppleWebKit/537.36 (KHTML, like Gecko) Chrome/138.0.0.0 Safari/537.36 Edg/138.0.0.0","WebKit","Edge","138.0.0.0","Windows","10.0","https://app.prolific.com/","en-US,en;q=0.9,en-ZA;q=0.8","6516ef80edad82a92cb27fb9","683db6dfa200031b80f2a654","68650782ec89b9bf8993aed8","6516ef80edad82a92cb27fb9","2025-07-02T10:59:24.072Z","","","","","","","","","","","","","","","","win-only","3","g1:SW,g2:NE","0.6","5","0","1966853.2","2722.2","7725.7","21935.3","1","4","4","6","2","4","4","15","11","0.11363636363636363","5003.5","3000","820","[""up"",""right""]","{""num_key_presses"":6,""num_perfect"":5,""num_errors"":0,""num_randdir"":1,""num_randdir_good_moves"":1,""num_whilered"":0,""num_whileblue"":0,""num_blue"":0,""num_good_moves"":6}","[407.8214133126395,417.82142761775424,0.3,407.8214133126395,417.82142761775424,101.7,407.8214133126395,417.82142761775424,202.6,407.8214133126395,417.82142761775424,303.9,407.8214133126395,417.82142761775424,408.7,407.8214133126395,417.82142761775424,516.8,407.8214133126395,417.82142761775424,617.8,407.8214133126395,417.82142761775424,718.5,407.8214133126395,417.82142761775424,818.6,407.8214133126395,417.82142761775424,923,407.8214133126395,417.82142761775424,1024.3,407.8214133126395,417.82142761775424,1133.1,407.8214133126395,417.82142761775424,1233.7,407.8214133126395,417.82142761775424,1335.5,407.8214133126395,417.82142761775424,1438.6,407.8214133126395,417.82142761775424,1551,407.8214133126395,417.82142761775424,1651.2,407.8214133126395,417.82142761775424,1753.7,407.8214133126395,417.82142761775424,1853.8,407.8214133126395,417.82142761775424,1958.6,407.8214133126395,417.82142761775424,2067.2,407.8214133126395,417.82142761775424,2168.2,407.8214133126395,417.82142761775424,2269.1,407.8214133126395,417.82142761775424,2373.3,407.8214133126395,417.82142761775424,2484.2,407.8214133126395,417.82142761775424,2587.9,407.8214133126395,417.82142761775424,2688,407.8214133126395,417.82142761775424,2789.6,407.8214133126395,417.82142761775424,2892.9,407.8214133126395,417.82142761775424,2993,407.8214133126395,417.82142761775424,3093.3,407.8214133126395,417.82142761775424,3198.2,407.8214133126395,417.82142761775424,3298.6,407.8214133126395,417.82142761775424,3398.9,407.8214133126395,417.82142761775424,3499,407.8214133126395,417.82142761775424,3603.4,407.8214133126395,417.82142761775424,3703.5,407.8214133126395,417.82142761775424,3803.7,407.8214133126395,417.82142761775424,3915.6,407.8214133126395,417.82142761775424,4015.7,407.8214133126395,417.82142761775424,4116.2,407.8214133126395,417.82142761775424,4216.9,407.8214133126395,417.82142761775424,4318,407.8214133126395,417.82142761775424,4418.9,407.8214133126395,417.82142761775424,4523.6,407.8214133126395,417.82142761775424,4623.7,407.8214133126395,417.82142761775424,4728.6,407.8214133126395,417.82142761775424,4834.1,407.8214133126395,417.82142761775424,4938.8]","[1448.9,1448.9,1000,0,448.9,""smooth"",""right"",""right"",""good_move"",4209.3,2760.1,2337.6,1449.2,422.5,""oops"",""right"",""up"",""good_move"",6729.1,2519.5,1987,4209.6,532.5,""smooth"",""right"",""right"",""good_move"",9361.4,2632.2,2137.7,6729.2,494.5,""smooth"",""right"",""right"",""good_move"",11425.4,2063.9,1653.8,9361.5,410.1,""smooth"",""up"",""up"",""good_move"",14096.8,2671.2,2276.6,11425.6,394.6,""smooth"",""up"",""up"",""good_move""]","",""
"5557","","<div style=""width:500px;"">
  <p>What determined the result of this run?</p>
  </div>","100","html-slider-response","66","1982548","0.0-10.0-1.4","187","1","2025-07-02 10:25:58","80fe4187154257d5fb01684ea91b68b9","41.13.108.213","Mozilla/5.0 (Windows NT 10.0; Win64; x64) AppleWebKit/537.36 (KHTML, like Gecko) Chrome/138.0.0.0 Safari/537.36 Edg/138.0.0.0","WebKit","Edge","138.0.0.0","Windows","10.0","https://app.prolific.com/","en-US,en;q=0.9,en-ZA;q=0.8","6516ef80edad82a92cb27fb9","683db6dfa200031b80f2a654","68650782ec89b9bf8993aed8","6516ef80edad82a92cb27fb9","2025-07-02T10:59:29.630Z","","","","","","AttribQ","","","","","","","","","","","","","","","","","","","","","","","","","","","","","","","","","","","","","","50"
"6570","","<div style=""width:500px;"">
  <p>How much control did you have over the ball?</p>
  </div>","98","html-slider-response","67","1989118","0.0-10.0-2.4","187","1","2025-07-02 10:25:58","80fe4187154257d5fb01684ea91b68b9","41.13.108.213","Mozilla/5.0 (Windows NT 10.0; Win64; x64) AppleWebKit/537.36 (KHTML, like Gecko) Chrome/138.0.0.0 Safari/537.36 Edg/138.0.0.0","WebKit","Edge","138.0.0.0","Windows","10.0","https://app.prolific.com/","en-US,en;q=0.9,en-ZA;q=0.8","6516ef80edad82a92cb27fb9","683db6dfa200031b80f2a654","68650782ec89b9bf8993aed8","6516ef80edad82a92cb27fb9","2025-07-02T10:59:36.200Z","","","","","","ControlQ","","","","","","","","","","","","","","","","","","","","","","","","","","","","","","","","","","","","","","50"
"4389","","<div style=""width:500px;"">
  <p>How would you describe your current emotional state?</p>
  </div>","0","html-slider-response","68","1993508","0.0-10.0-3.4","187","1","2025-07-02 10:25:58","80fe4187154257d5fb01684ea91b68b9","41.13.108.213","Mozilla/5.0 (Windows NT 10.0; Win64; x64) AppleWebKit/537.36 (KHTML, like Gecko) Chrome/138.0.0.0 Safari/537.36 Edg/138.0.0.0","WebKit","Edge","138.0.0.0","Windows","10.0","https://app.prolific.com/","en-US,en;q=0.9,en-ZA;q=0.8","6516ef80edad82a92cb27fb9","683db6dfa200031b80f2a654","68650782ec89b9bf8993aed8","6516ef80edad82a92cb27fb9","2025-07-02T10:59:40.591Z","","","","","","StressQ","","","","","","","","","","","","","","","","","","","","","","","","","","","","","","","","","","","","","","50"
"6822","","<div style=""width:500px;"">
  <p>What best describes how you currently feel?</p>
  </div>","100","html-slider-response","69","2000331","0.0-10.0-4.4","187","1","2025-07-02 10:25:58","80fe4187154257d5fb01684ea91b68b9","41.13.108.213","Mozilla/5.0 (Windows NT 10.0; Win64; x64) AppleWebKit/537.36 (KHTML, like Gecko) Chrome/138.0.0.0 Safari/537.36 Edg/138.0.0.0","WebKit","Edge","138.0.0.0","Windows","10.0","https://app.prolific.com/","en-US,en;q=0.9,en-ZA;q=0.8","6516ef80edad82a92cb27fb9","683db6dfa200031b80f2a654","68650782ec89b9bf8993aed8","6516ef80edad82a92cb27fb9","2025-07-02T10:59:47.413Z","","","","","","MotivationQ","","","","","","","","","","","","","","","","","","","","","","","","","","","","","","","","","","","","","","50"
"","","","","ctl-task-cpt","70","2035391","0.0-10.0-0.5","187","1","2025-07-02 10:25:58","80fe4187154257d5fb01684ea91b68b9","41.13.108.213","Mozilla/5.0 (Windows NT 10.0; Win64; x64) AppleWebKit/537.36 (KHTML, like Gecko) Chrome/138.0.0.0 Safari/537.36 Edg/138.0.0.0","WebKit","Edge","138.0.0.0","Windows","10.0","https://app.prolific.com/","en-US,en;q=0.9,en-ZA;q=0.8","6516ef80edad82a92cb27fb9","683db6dfa200031b80f2a654","68650782ec89b9bf8993aed8","6516ef80edad82a92cb27fb9","2025-07-02T11:00:22.473Z","","","","","","","","","","","","","","","","win-only","1","g1:NE,g2:SW","0.5","6","0","2015144.8","2265.7","7270.5","32043.5","1","4","8","6","1","-1","-1","14","15","0.10606060606060606","5004.8","3000","-2515","[""up"",""right""]","{""num_key_presses"":7,""num_perfect"":4,""num_errors"":0,""num_randdir"":3,""num_randdir_good_moves"":1,""num_whilered"":0,""num_whileblue"":0,""num_blue"":1,""num_good_moves"":5}","[416.5714133126395,411.57142761775424,0.1,416.5714133126395,411.57142761775424,100,416.5714133126395,411.57142761775424,200.8,416.5714133126395,411.57142761775424,304.6,416.5714133126395,411.57142761775424,405,416.5714133126395,411.57142761775424,505.7,416.5714133126395,411.57142761775424,609.7,416.5714133126395,411.57142761775424,718.6,416.5714133126395,411.57142761775424,820.3,416.5714133126395,411.57142761775424,920.4,416.5714133126395,411.57142761775424,1020.4,416.5714133126395,411.57142761775424,1125.5,416.5714133126395,411.57142761775424,1234.7,416.5714133126395,411.57142761775424,1334.9,416.5714133126395,411.57142761775424,1435.3,416.5714133126395,411.57142761775424,1535.6,416.5714133126395,411.57142761775424,1640,416.5714133126395,411.57142761775424,1741.4,416.5714133126395,411.57142761775424,1850.8,416.5714133126395,411.57142761775424,1955.1,416.5714133126395,411.57142761775424,2059.8,416.5714133126395,411.57142761775424,2159.9,416.5714133126395,411.57142761775424,2268.9,416.5714133126395,411.57142761775424,2369.3,416.5714133126395,411.57142761775424,2470.2,416.5714133126395,411.57142761775424,2570.2,416.5714133126395,411.57142761775424,2675,416.5714133126395,411.57142761775424,2784.5,416.5714133126395,411.57142761775424,2885.4,416.5714133126395,411.57142761775424,2990.8,416.5714133126395,411.57142761775424,3095.1,416.5714133126395,411.57142761775424,3200.6,416.5714133126395,411.57142761775424,3305,416.5714133126395,411.57142761775424,3405.5,416.5714133126395,411.57142761775424,3505.8,416.5714133126395,411.57142761775424,3615.4,416.5714133126395,411.57142761775424,3716.4,416.5714133126395,411.57142761775424,3820.2,416.5714133126395,411.57142761775424,3920.3,416.5714133126395,411.57142761775424,4020.6,416.5714133126395,411.57142761775424,4133.2,416.5714133126395,411.57142761775424,4235,416.5714133126395,411.57142761775424,4335.4,416.5714133126395,411.57142761775424,4440,416.5714133126395,411.57142761775424,4540,416.5714133126395,411.57142761775424,4649.5,416.5714133126395,411.57142761775424,4750.1,416.5714133126395,411.57142761775424,4854.9,416.5714133126395,411.57142761775424,4964.8]","[1364.7,1364.7,1000,0,364.7,""smooth"",""right"",""right"",""good_move"",4742.5,3377.6,2923,1364.9,454.6,""smooth"",""right"",""right"",""good_move"",7437.3,2694.7,2188.9,4742.6,505.8,""oops"",""up"",""down"",""bad_move"",10524.5,3086.7,2456.4,7437.8,630.3,""oops"",""up"",""down"",""bad_move"",13141,2616.3,2088,10524.7,528.3,""oops"",""up"",""up"",""good_move"",16204.9,3063.7,2702.5,13141.2,361.2,""smooth"",""up"",""up"",""good_move"",21381.3,5176.2,2354.1,18621.1,406.1,""smooth"",""up"",""up"",""good_move""]","",""
"9274","","<div style=""width:500px;"">
  <p>What determined the result of this run?</p>
  </div>","93","html-slider-response","71","2044666","0.0-10.0-1.5","187","1","2025-07-02 10:25:58","80fe4187154257d5fb01684ea91b68b9","41.13.108.213","Mozilla/5.0 (Windows NT 10.0; Win64; x64) AppleWebKit/537.36 (KHTML, like Gecko) Chrome/138.0.0.0 Safari/537.36 Edg/138.0.0.0","WebKit","Edge","138.0.0.0","Windows","10.0","https://app.prolific.com/","en-US,en;q=0.9,en-ZA;q=0.8","6516ef80edad82a92cb27fb9","683db6dfa200031b80f2a654","68650782ec89b9bf8993aed8","6516ef80edad82a92cb27fb9","2025-07-02T11:00:31.748Z","","","","","","AttribQ","","","","","","","","","","","","","","","","","","","","","","","","","","","","","","","","","","","","","","50"
"9157","","<div style=""width:500px;"">
  <p>How much control did you have over the ball?</p>
  </div>","86","html-slider-response","72","2053825","0.0-10.0-2.5","187","1","2025-07-02 10:25:58","80fe4187154257d5fb01684ea91b68b9","41.13.108.213","Mozilla/5.0 (Windows NT 10.0; Win64; x64) AppleWebKit/537.36 (KHTML, like Gecko) Chrome/138.0.0.0 Safari/537.36 Edg/138.0.0.0","WebKit","Edge","138.0.0.0","Windows","10.0","https://app.prolific.com/","en-US,en;q=0.9,en-ZA;q=0.8","6516ef80edad82a92cb27fb9","683db6dfa200031b80f2a654","68650782ec89b9bf8993aed8","6516ef80edad82a92cb27fb9","2025-07-02T11:00:40.907Z","","","","","","ControlQ","","","","","","","","","","","","","","","","","","","","","","","","","","","","","","","","","","","","","","50"
"5896","","<div style=""width:500px;"">
  <p>How would you describe your current emotional state?</p>
  </div>","44","html-slider-response","73","2059724","0.0-10.0-3.5","187","1","2025-07-02 10:25:58","80fe4187154257d5fb01684ea91b68b9","41.13.108.213","Mozilla/5.0 (Windows NT 10.0; Win64; x64) AppleWebKit/537.36 (KHTML, like Gecko) Chrome/138.0.0.0 Safari/537.36 Edg/138.0.0.0","WebKit","Edge","138.0.0.0","Windows","10.0","https://app.prolific.com/","en-US,en;q=0.9,en-ZA;q=0.8","6516ef80edad82a92cb27fb9","683db6dfa200031b80f2a654","68650782ec89b9bf8993aed8","6516ef80edad82a92cb27fb9","2025-07-02T11:00:46.807Z","","","","","","StressQ","","","","","","","","","","","","","","","","","","","","","","","","","","","","","","","","","","","","","","50"
"5013","","<div style=""width:500px;"">
  <p>What best describes how you currently feel?</p>
  </div>","68","html-slider-response","74","2064740","0.0-10.0-4.5","187","1","2025-07-02 10:25:58","80fe4187154257d5fb01684ea91b68b9","41.13.108.213","Mozilla/5.0 (Windows NT 10.0; Win64; x64) AppleWebKit/537.36 (KHTML, like Gecko) Chrome/138.0.0.0 Safari/537.36 Edg/138.0.0.0","WebKit","Edge","138.0.0.0","Windows","10.0","https://app.prolific.com/","en-US,en;q=0.9,en-ZA;q=0.8","6516ef80edad82a92cb27fb9","683db6dfa200031b80f2a654","68650782ec89b9bf8993aed8","6516ef80edad82a92cb27fb9","2025-07-02T11:00:51.822Z","","","","","","MotivationQ","","","","","","","","","","","","","","","","","","","","","","","","","","","","","","","","","","","","","","50"
"","","","","ctl-task-cpt","75","2109359","0.0-10.0-0.6","187","1","2025-07-02 10:25:58","80fe4187154257d5fb01684ea91b68b9","41.13.108.213","Mozilla/5.0 (Windows NT 10.0; Win64; x64) AppleWebKit/537.36 (KHTML, like Gecko) Chrome/138.0.0.0 Safari/537.36 Edg/138.0.0.0","WebKit","Edge","138.0.0.0","Windows","10.0","https://app.prolific.com/","en-US,en;q=0.9,en-ZA;q=0.8","6516ef80edad82a92cb27fb9","683db6dfa200031b80f2a654","68650782ec89b9bf8993aed8","6516ef80edad82a92cb27fb9","2025-07-02T11:01:36.441Z","","","","","","","","","","","","","","","","win-only","2","g1:SE,g2:NW","0.4","7","0","2079554.6","2395.5","7401.8","41600.5","1","4","4","6","2","-4","-5","9","14","0.06818181818181818","1918.6","3000","-2935","[""left"",""up""]","{""num_key_presses"":7,""num_perfect"":2,""num_errors"":1,""num_randdir"":4,""num_randdir_good_moves"":3,""num_whilered"":0,""num_whileblue"":1,""num_blue"":4,""num_good_moves"":6}","[421.5714133126395,416.57142761775424,0.4,421.5714133126395,416.57142761775424,104.1,421.5714133126395,416.57142761775424,205,421.5714133126395,416.57142761775424,306.1,421.5714133126395,416.57142761775424,419.3,421.5714133126395,416.57142761775424,519.6,421.5714133126395,416.57142761775424,620.4,421.5714133126395,416.57142761775424,720.5,352.8214133126395,332.82142761775424,825,202.8214133126395,216.57142761775424,929.8,150.3214133126395,146.57142761775424,1030.2,106.5714133126395,56.57142761775425,1135.9,47.82141331263951,15.321427617754253,1238.7,41.57141331263951,14.071427617754253,1339.7,44.07141331263951,17.821427617754253,1439.8,56.57141331263951,31.571427617754253,1540.9,59.07141331263951,47.82142761775425,1645.2,65.3214133126395,65.32142761775425,1746.2,65.3214133126395,65.32142761775425,1851.5,65.3214133126395,65.32142761775425,1954.4,65.3214133126395,65.32142761775425,2055.2,65.3214133126395,65.32142761775425,2155.9,65.3214133126395,65.32142761775425,2268.5,65.3214133126395,65.32142761775425,2369.6,65.3214133126395,65.32142761775425,2470.1,65.3214133126395,65.32142761775425,2570.7,65.3214133126395,65.32142761775425,2675.1,65.3214133126395,65.32142761775425,2784.8,65.3214133126395,65.32142761775425,2889.7,65.3214133126395,65.32142761775425,2990.6,65.3214133126395,65.32142761775425,3100.7,65.3214133126395,65.32142761775425,3201.5,65.3214133126395,65.32142761775425,3304.6,65.3214133126395,65.32142761775425,3406,65.3214133126395,65.32142761775425,3509.6,65.3214133126395,65.32142761775425,3618.9,65.3214133126395,65.32142761775425,3720.4,65.3214133126395,65.32142761775425,3834.4,65.3214133126395,65.32142761775425,3940.3,65.3214133126395,65.32142761775425,4041,65.3214133126395,65.32142761775425,4146.1,65.3214133126395,65.32142761775425,4250.6,65.3214133126395,65.32142761775425,4351,65.3214133126395,65.32142761775425,4456.1,65.3214133126395,65.32142761775425,4568.8,65.3214133126395,65.32142761775425,4669.9,65.3214133126395,65.32142761775425,4770.2,65.3214133126395,65.32142761775425,4870.2,65.3214133126395,65.32142761775425,4970.6]","[1504,1504,1000,0,504,""oops"",""up"",""up"",""good_move"",8311.6,6807.1,2098.8,5828.6,384.2,""oops"",""up"",""right"",""bad_move"",11743.6,3431.8,2805.6,8311.8,626.2,""oops"",""left"",""left"",""good_move"",14455.2,2711.3,2370,11743.9,341.3,""while_blue"",""left"",""up"",""good_move"",17884.6,3429.2,2826.9,14455.4,602.3,""smooth"",""up"",""up"",""good_move"",27552,9667.2,1920.2,25224.1,407.7,""oops"",""left"",""left"",""good_move"",31567.9,4015.7,3539.2,27552.2,476.5,""smooth"",""left"",""left"",""good_move""]","",""
"13445","","<div style=""width:500px;"">
  <p>What determined the result of this run?</p>
  </div>","89","html-slider-response","76","2122805","0.0-10.0-1.6","187","1","2025-07-02 10:25:58","80fe4187154257d5fb01684ea91b68b9","41.13.108.213","Mozilla/5.0 (Windows NT 10.0; Win64; x64) AppleWebKit/537.36 (KHTML, like Gecko) Chrome/138.0.0.0 Safari/537.36 Edg/138.0.0.0","WebKit","Edge","138.0.0.0","Windows","10.0","https://app.prolific.com/","en-US,en;q=0.9,en-ZA;q=0.8","6516ef80edad82a92cb27fb9","683db6dfa200031b80f2a654","68650782ec89b9bf8993aed8","6516ef80edad82a92cb27fb9","2025-07-02T11:01:49.887Z","","","","","","AttribQ","","","","","","","","","","","","","","","","","","","","","","","","","","","","","","","","","","","","","","50"
"4902","","<div style=""width:500px;"">
  <p>How much control did you have over the ball?</p>
  </div>","66","html-slider-response","77","2127710","0.0-10.0-2.6","187","1","2025-07-02 10:25:58","80fe4187154257d5fb01684ea91b68b9","41.13.108.213","Mozilla/5.0 (Windows NT 10.0; Win64; x64) AppleWebKit/537.36 (KHTML, like Gecko) Chrome/138.0.0.0 Safari/537.36 Edg/138.0.0.0","WebKit","Edge","138.0.0.0","Windows","10.0","https://app.prolific.com/","en-US,en;q=0.9,en-ZA;q=0.8","6516ef80edad82a92cb27fb9","683db6dfa200031b80f2a654","68650782ec89b9bf8993aed8","6516ef80edad82a92cb27fb9","2025-07-02T11:01:54.793Z","","","","","","ControlQ","","","","","","","","","","","","","","","","","","","","","","","","","","","","","","","","","","","","","","50"
"4672","","<div style=""width:500px;"">
  <p>How would you describe your current emotional state?</p>
  </div>","87","html-slider-response","78","2132384","0.0-10.0-3.6","187","1","2025-07-02 10:25:58","80fe4187154257d5fb01684ea91b68b9","41.13.108.213","Mozilla/5.0 (Windows NT 10.0; Win64; x64) AppleWebKit/537.36 (KHTML, like Gecko) Chrome/138.0.0.0 Safari/537.36 Edg/138.0.0.0","WebKit","Edge","138.0.0.0","Windows","10.0","https://app.prolific.com/","en-US,en;q=0.9,en-ZA;q=0.8","6516ef80edad82a92cb27fb9","683db6dfa200031b80f2a654","68650782ec89b9bf8993aed8","6516ef80edad82a92cb27fb9","2025-07-02T11:01:59.467Z","","","","","","StressQ","","","","","","","","","","","","","","","","","","","","","","","","","","","","","","","","","","","","","","50"
"6474","","<div style=""width:500px;"">
  <p>What best describes how you currently feel?</p>
  </div>","99","html-slider-response","79","2138862","0.0-10.0-4.6","187","1","2025-07-02 10:25:58","80fe4187154257d5fb01684ea91b68b9","41.13.108.213","Mozilla/5.0 (Windows NT 10.0; Win64; x64) AppleWebKit/537.36 (KHTML, like Gecko) Chrome/138.0.0.0 Safari/537.36 Edg/138.0.0.0","WebKit","Edge","138.0.0.0","Windows","10.0","https://app.prolific.com/","en-US,en;q=0.9,en-ZA;q=0.8","6516ef80edad82a92cb27fb9","683db6dfa200031b80f2a654","68650782ec89b9bf8993aed8","6516ef80edad82a92cb27fb9","2025-07-02T11:02:05.944Z","","","","","","MotivationQ","","","","","","","","","","","","","","","","","","","","","","","","","","","","","","","","","","","","","","50"
"","","","","ctl-task-cpt","80","2180175","0.0-10.0-0.7","187","1","2025-07-02 10:25:58","80fe4187154257d5fb01684ea91b68b9","41.13.108.213","Mozilla/5.0 (Windows NT 10.0; Win64; x64) AppleWebKit/537.36 (KHTML, like Gecko) Chrome/138.0.0.0 Safari/537.36 Edg/138.0.0.0","WebKit","Edge","138.0.0.0","Windows","10.0","https://app.prolific.com/","en-US,en;q=0.9,en-ZA;q=0.8","6516ef80edad82a92cb27fb9","683db6dfa200031b80f2a654","68650782ec89b9bf8993aed8","6516ef80edad82a92cb27fb9","2025-07-02T11:02:47.257Z","","","","","","","","","","","","","","","","win-only","1","g1:NE,g2:SW","0.3","8","0","2153677.5","3357.3","8361.1","38281.3","1","4","8","6","2","-8","-8","1","9","0.007575757575757576","1446.1","3000","-2210","[""down"",""left""]","{""num_key_presses"":7,""num_perfect"":3,""num_errors"":0,""num_randdir"":4,""num_randdir_good_moves"":2,""num_whilered"":0,""num_whileblue"":0,""num_blue"":2,""num_good_moves"":5}","[411.5714133126395,411.57142761775424,0.2,411.5714133126395,411.57142761775424,103.3,411.5714133126395,411.57142761775424,203.4,411.5714133126395,411.57142761775424,308.9,411.5714133126395,411.57142761775424,413.1,411.5714133126395,411.57142761775424,514,411.5714133126395,411.57142761775424,618.2,411.5714133126395,411.57142761775424,718.6,162.8214133126395,642.8214276177542,833.6,85.3214133126395,714.0714276177542,933.7,76.5714133126395,717.8214276177542,1034.2,75.3214133126395,735.3214276177542,1134.4,75.3214133126395,750.3214276177542,1234.5,75.3214133126395,755.3214276177542,1338.7,75.3214133126395,755.3214276177542,1446.6,75.3214133126395,755.3214276177542,1548.8,75.3214133126395,755.3214276177542,1653,75.3214133126395,755.3214276177542,1753.7,75.3214133126395,755.3214276177542,1853.7,75.3214133126395,755.3214276177542,1954.1,75.3214133126395,755.3214276177542,2068.5,75.3214133126395,755.3214276177542,2173,75.3214133126395,755.3214276177542,2273.1,75.3214133126395,755.3214276177542,2373.2,75.3214133126395,755.3214276177542,2479.1,75.3214133126395,755.3214276177542,2583.5,75.3214133126395,755.3214276177542,2684,75.3214133126395,755.3214276177542,2799.1,75.3214133126395,755.3214276177542,2903.8,75.3214133126395,755.3214276177542,3003.9,75.3214133126395,755.3214276177542,3108.4,75.3214133126395,755.3214276177542,3216.3,75.3214133126395,755.3214276177542,3318.5,75.3214133126395,755.3214276177542,3428.7,75.3214133126395,755.3214276177542,3534.2,75.3214133126395,755.3214276177542,3634.3,75.3214133126395,755.3214276177542,3734.3,75.3214133126395,755.3214276177542,3834.9,75.3214133126395,755.3214276177542,3938.5,75.3214133126395,755.3214276177542,4038.5,75.3214133126395,755.3214276177542,4143.4,75.3214133126395,755.3214276177542,4243.5,75.3214133126395,755.3214276177542,4346.1,75.3214133126395,755.3214276177542,4449,75.3214133126395,755.3214276177542,4549.7,75.3214133126395,755.3214276177542,4653.4,75.3214133126395,755.3214276177542,4754.3,75.3214133126395,755.3214276177542,4854.3,75.3214133126395,755.3214276177542,4961.6]","[1373.2,1373.2,1000,0,373.2,""smooth"",""down"",""down"",""good_move"",4413.7,3040.2,2560.3,1373.5,479.9,""smooth"",""left"",""left"",""good_move"",7933.4,3519.4,3073,4414.1,446.3,""oops"",""left"",""right"",""bad_move"",10965.5,3031.8,2331,7933.8,700.8,""smooth"",""down"",""down"",""good_move"",14309.1,3343.1,3020.6,10966,322.5,""oops"",""left"",""down"",""good_move"",16941.2,2632.1,2215.3,14309.1,416.8,""oops"",""left"",""right"",""bad_move"",19620.5,2679.2,2274.3,16941.3,404.9,""oops"",""left"",""left"",""good_move""]","",""
"12065","","<div style=""width:500px;"">
  <p>What determined the result of this run?</p>
  </div>","100","html-slider-response","81","2192241","0.0-10.0-1.7","187","1","2025-07-02 10:25:58","80fe4187154257d5fb01684ea91b68b9","41.13.108.213","Mozilla/5.0 (Windows NT 10.0; Win64; x64) AppleWebKit/537.36 (KHTML, like Gecko) Chrome/138.0.0.0 Safari/537.36 Edg/138.0.0.0","WebKit","Edge","138.0.0.0","Windows","10.0","https://app.prolific.com/","en-US,en;q=0.9,en-ZA;q=0.8","6516ef80edad82a92cb27fb9","683db6dfa200031b80f2a654","68650782ec89b9bf8993aed8","6516ef80edad82a92cb27fb9","2025-07-02T11:02:59.323Z","","","","","","AttribQ","","","","","","","","","","","","","","","","","","","","","","","","","","","","","","","","","","","","","","50"
"4478","","<div style=""width:500px;"">
  <p>How much control did you have over the ball?</p>
  </div>","83","html-slider-response","82","2196719","0.0-10.0-2.7","187","1","2025-07-02 10:25:58","80fe4187154257d5fb01684ea91b68b9","41.13.108.213","Mozilla/5.0 (Windows NT 10.0; Win64; x64) AppleWebKit/537.36 (KHTML, like Gecko) Chrome/138.0.0.0 Safari/537.36 Edg/138.0.0.0","WebKit","Edge","138.0.0.0","Windows","10.0","https://app.prolific.com/","en-US,en;q=0.9,en-ZA;q=0.8","6516ef80edad82a92cb27fb9","683db6dfa200031b80f2a654","68650782ec89b9bf8993aed8","6516ef80edad82a92cb27fb9","2025-07-02T11:03:03.802Z","","","","","","ControlQ","","","","","","","","","","","","","","","","","","","","","","","","","","","","","","","","","","","","","","50"
"4673","","<div style=""width:500px;"">
  <p>How would you describe your current emotional state?</p>
  </div>","100","html-slider-response","83","2201394","0.0-10.0-3.7","187","1","2025-07-02 10:25:58","80fe4187154257d5fb01684ea91b68b9","41.13.108.213","Mozilla/5.0 (Windows NT 10.0; Win64; x64) AppleWebKit/537.36 (KHTML, like Gecko) Chrome/138.0.0.0 Safari/537.36 Edg/138.0.0.0","WebKit","Edge","138.0.0.0","Windows","10.0","https://app.prolific.com/","en-US,en;q=0.9,en-ZA;q=0.8","6516ef80edad82a92cb27fb9","683db6dfa200031b80f2a654","68650782ec89b9bf8993aed8","6516ef80edad82a92cb27fb9","2025-07-02T11:03:08.476Z","","","","","","StressQ","","","","","","","","","","","","","","","","","","","","","","","","","","","","","","","","","","","","","","50"
"5345","","<div style=""width:500px;"">
  <p>What best describes how you currently feel?</p>
  </div>","100","html-slider-response","84","2206742","0.0-10.0-4.7","187","1","2025-07-02 10:25:58","80fe4187154257d5fb01684ea91b68b9","41.13.108.213","Mozilla/5.0 (Windows NT 10.0; Win64; x64) AppleWebKit/537.36 (KHTML, like Gecko) Chrome/138.0.0.0 Safari/537.36 Edg/138.0.0.0","WebKit","Edge","138.0.0.0","Windows","10.0","https://app.prolific.com/","en-US,en;q=0.9,en-ZA;q=0.8","6516ef80edad82a92cb27fb9","683db6dfa200031b80f2a654","68650782ec89b9bf8993aed8","6516ef80edad82a92cb27fb9","2025-07-02T11:03:13.824Z","","","","","","MotivationQ","","","","","","","","","","","","","","","","","","","","","","","","","","","","","","","","","","","","","","50"
"","","","","ctl-task-cpt","85","2254345","0.0-10.0-0.8","187","1","2025-07-02 10:25:58","80fe4187154257d5fb01684ea91b68b9","41.13.108.213","Mozilla/5.0 (Windows NT 10.0; Win64; x64) AppleWebKit/537.36 (KHTML, like Gecko) Chrome/138.0.0.0 Safari/537.36 Edg/138.0.0.0","WebKit","Edge","138.0.0.0","Windows","10.0","https://app.prolific.com/","en-US,en;q=0.9,en-ZA;q=0.8","6516ef80edad82a92cb27fb9","683db6dfa200031b80f2a654","68650782ec89b9bf8993aed8","6516ef80edad82a92cb27fb9","2025-07-02T11:04:01.428Z","","","","","","","","","","","","","","","","win-only","0","g1:NW,g2:SE","0.4","9","0","2221557.1","6495.9","11501.8","44581.3","1","4","8","6","2","-8","-8","0","1","0","2874.8","3000","-2170","[""down"",""right""]","{""num_key_presses"":9,""num_perfect"":4,""num_errors"":0,""num_randdir"":5,""num_randdir_good_moves"":1,""num_whilered"":0,""num_whileblue"":0,""num_blue"":2,""num_good_moves"":5}","[420.3214133126395,421.57142761775424,0.2,420.3214133126395,421.57142761775424,101.4,420.3214133126395,421.57142761775424,201.8,420.3214133126395,421.57142761775424,305,420.3214133126395,421.57142761775424,410.4,420.3214133126395,421.57142761775424,510.5,420.3214133126395,421.57142761775424,615.1,420.3214133126395,421.57142761775424,715.2,420.3214133126395,421.57142761775424,815.3,420.3214133126395,421.57142761775424,920.1,420.3214133126395,421.57142761775424,1039.3,420.3214133126395,421.57142761775424,1139.7,420.3214133126395,421.57142761775424,1240.1,420.3214133126395,421.57142761775424,1345.2,420.3214133126395,421.57142761775424,1445.2,420.3214133126395,421.57142761775424,1545.7,420.3214133126395,421.57142761775424,1646.3,420.3214133126395,421.57142761775424,1749.3,420.3214133126395,421.57142761775424,1850,425.3214133126395,431.57142761775424,1966.9,562.8214133126395,641.5714276177542,2067.5,622.8214133126395,731.5714276177542,2169.7,662.8214133126395,770.3214276177542,2270.1,719.0714133126395,791.5714276177542,2371,725.3214133126395,791.5714276177542,2475.5,734.0714133126395,786.5714276177542,2575.6,744.0714133126395,779.0714276177542,2680.1,747.8214133126395,776.5714276177542,2785.9,747.8214133126395,776.5714276177542,2902.1,747.8214133126395,776.5714276177542,3005.9,747.8214133126395,776.5714276177542,3110.8,747.8214133126395,776.5714276177542,3215.8,747.8214133126395,776.5714276177542,3319.3,747.8214133126395,776.5714276177542,3419.6,747.8214133126395,776.5714276177542,3520.4,747.8214133126395,776.5714276177542,3633.1,747.8214133126395,776.5714276177542,3734.6,747.8214133126395,776.5714276177542,3839.3,747.8214133126395,776.5714276177542,3939.3,747.8214133126395,776.5714276177542,4039.5,747.8214133126395,776.5714276177542,4145.3,747.8214133126395,776.5714276177542,4245.7,747.8214133126395,776.5714276177542,4350.4,747.8214133126395,776.5714276177542,4466.1,747.8214133126395,776.5714276177542,4569.7,747.8214133126395,776.5714276177542,4674.9,747.8214133126395,776.5714276177542,4775.3,747.8214133126395,776.5714276177542,4881.1,747.8214133126395,776.5714276177542,4985.3]","[1493.1,1493.1,1000,0,493.1,""smooth"",""right"",""right"",""good_move"",3809.1,2315.8,1910.3,1493.3,405.5,""smooth"",""down"",""down"",""good_move"",7521.2,3711.7,3342.4,3809.5,369.3,""oops"",""down"",""left"",""bad_move"",10233.4,2712,2126.3,7521.4,585.7,""oops"",""right"",""up"",""bad_move"",12233.8,2000.1,1536.8,10233.8,463.2,""smooth"",""down"",""down"",""good_move"",15203.6,2969.4,2594.7,12234.3,374.6,""oops"",""right"",""down"",""good_move"",17378,2174.2,1753.8,15203.8,420.4,""oops"",""right"",""up"",""bad_move"",20503.4,3125.1,2547.1,17378.3,578,""smooth"",""down"",""down"",""good_move"",26683.7,6180.1,2563.7,23561.7,558.3,""oops"",""right"",""left"",""bad_move""]","",""
"8715","","<div style=""width:500px;"">
  <p>What determined the result of this run?</p>
  </div>","100","html-slider-response","86","2263063","0.0-10.0-1.8","187","1","2025-07-02 10:25:58","80fe4187154257d5fb01684ea91b68b9","41.13.108.213","Mozilla/5.0 (Windows NT 10.0; Win64; x64) AppleWebKit/537.36 (KHTML, like Gecko) Chrome/138.0.0.0 Safari/537.36 Edg/138.0.0.0","WebKit","Edge","138.0.0.0","Windows","10.0","https://app.prolific.com/","en-US,en;q=0.9,en-ZA;q=0.8","6516ef80edad82a92cb27fb9","683db6dfa200031b80f2a654","68650782ec89b9bf8993aed8","6516ef80edad82a92cb27fb9","2025-07-02T11:04:10.145Z","","","","","","AttribQ","","","","","","","","","","","","","","","","","","","","","","","","","","","","","","","","","","","","","","50"
"7312","","<div style=""width:500px;"">
  <p>How much control did you have over the ball?</p>
