"rt","response_timestamp","stimulus","response","trial_type","trial_index","time_elapsed","internal_node_id","run_id","condition","recorded_at","source_code_version","ip","user_agent","device","browser","browser_version","platform","platform_version","referer","accept_language","PROLIFIC_PID","STUDY_ID","SESSION_ID","prolific_id","realtime","view_history","question_order","consent","success","question_id","eventType","responses","item_order","radio_event_ids","radio_event_times","key_event_times","mouse_event_times","straightlining","zigzagging","honeypot","which_type","canvas_config","goals_layout","control_level","trial_number","tutorial_trial_number","trial_start_time","phase1_start_time","phase2_start_time","phase3_start_time","goal_1_value","goal_1_distance","goal_2_value","goal_2_distance","goal_selected","outcome","outcome_total","participant_final_score","participant_initial_score","participant_final_score_prop","goal_choice_rt","allocated_time","allocated_time_remaining","goal_direction","counts","mouse_movements","key_presses","correct","slider_start"
"12353","1751451549685","<p style='font-size:40px;line-height:1.25'><strong>Welcome to the experiment!</strong></p><p style='font-size:1.1em;line-height:1.25'>Thank you for your interest in our experiment! Before you begin, it is important that we obtain your informed consent to participate in the study.</p><p style='font-size:1.1em;line-height:1.25'>On the next screen will be an <strong>information sheet</strong> for you to read. To participate in the study we need you to read this information sheet and the following consent form carefully. If you agree with all the statements, please click the <strong>I agree</strong> button.</p><p style='font-size:1.1em;line-height:1.25'>Press <strong>Next</strong> to read the information sheet.</p>","0","custom-html-button-response","0","12354","0.0-0.0","59","1","2025-07-02 10:18:56","80fe4187154257d5fb01684ea91b68b9","83.240.176.93","Mozilla/5.0 (Windows NT 10.0; Win64; x64) AppleWebKit/537.36 (KHTML, like Gecko) Chrome/138.0.0.0 Safari/537.36 Edg/138.0.0.0","WebKit","Edge","138.0.0.0","Windows","10.0","https://app.prolific.com/","pt-PT,pt;q=0.9,pt-BR;q=0.8,en;q=0.7,en-US;q=0.6,en-GB;q=0.5,es;q=0.4","6523351ec0163b9e739d13ab","683db6dfa200031b80f2a654","686507537d989fcf0e7b6d20","6523351ec0163b9e739d13ab","2025-07-02T10:19:09.686Z","","","","","","","","","","","","","","","","","","","","","","","","","","","","","","","","","","","","","","","","","","","",""
"12039","","","","instructions","1","24394","0.0-1.0","59","1","2025-07-02 10:18:56","80fe4187154257d5fb01684ea91b68b9","83.240.176.93","Mozilla/5.0 (Windows NT 10.0; Win64; x64) AppleWebKit/537.36 (KHTML, like Gecko) Chrome/138.0.0.0 Safari/537.36 Edg/138.0.0.0","WebKit","Edge","138.0.0.0","Windows","10.0","https://app.prolific.com/","pt-PT,pt;q=0.9,pt-BR;q=0.8,en;q=0.7,en-US;q=0.6,en-GB;q=0.5,es;q=0.4","6523351ec0163b9e739d13ab","683db6dfa200031b80f2a654","686507537d989fcf0e7b6d20","6523351ec0163b9e739d13ab","","[{""page_index"":0,""viewing_time"":8799},{""page_index"":1,""viewing_time"":3240}]","","","","","","","","","","","","","","","","","","","","","","","","","","","","","","","","","","","","","","","","","","",""
"3767","","","{""Q0"":"""",""Q1"":"""",""Q2"":"""",""Q3"":"""",""Q4"":"""",""Q5"":"""",""Q6"":""I agree""}","survey-multi-choice","2","28162","0.0-2.0","59","1","2025-07-02 10:18:56","80fe4187154257d5fb01684ea91b68b9","83.240.176.93","Mozilla/5.0 (Windows NT 10.0; Win64; x64) AppleWebKit/537.36 (KHTML, like Gecko) Chrome/138.0.0.0 Safari/537.36 Edg/138.0.0.0","WebKit","Edge","138.0.0.0","Windows","10.0","https://app.prolific.com/","pt-PT,pt;q=0.9,pt-BR;q=0.8,en;q=0.7,en-US;q=0.6,en-GB;q=0.5,es;q=0.4","6523351ec0163b9e739d13ab","683db6dfa200031b80f2a654","686507537d989fcf0e7b6d20","6523351ec0163b9e739d13ab","","","[0,1,2,3,4,5,6]","true","","","","","","","","","","","","","","","","","","","","","","","","","","","","","","","","","","","","","","","","",""
"17319","","","","fullscreen","3","46489","0.0-4.0","59","1","2025-07-02 10:18:56","80fe4187154257d5fb01684ea91b68b9","83.240.176.93","Mozilla/5.0 (Windows NT 10.0; Win64; x64) AppleWebKit/537.36 (KHTML, like Gecko) Chrome/138.0.0.0 Safari/537.36 Edg/138.0.0.0","WebKit","Edge","138.0.0.0","Windows","10.0","https://app.prolific.com/","pt-PT,pt;q=0.9,pt-BR;q=0.8,en;q=0.7,en-US;q=0.6,en-GB;q=0.5,es;q=0.4","6523351ec0163b9e739d13ab","683db6dfa200031b80f2a654","686507537d989fcf0e7b6d20","6523351ec0163b9e739d13ab","","","","","true","","","","","","","","","","","","","","","","","","","","","","","","","","","","","","","","","","","","","","","",""
"5984","1751451589805"," <p style='font-size:1.1em;line-height:1.25'>Thank you for completing the consent form and closing all other tabs.</p><p style='font-size:1.1em;line-height:1.25'>We will now invite you to fill in some demographic information and questionnaires, before starting the game.<br>This will take about 5 minutes.<br></p><p style='font-size:1.1em;line-height:1.25'>Press the <strong>Next</strong> button to continue.</p>","0","custom-html-button-response","4","52474","0.0-5.0","59","1","2025-07-02 10:18:56","80fe4187154257d5fb01684ea91b68b9","83.240.176.93","Mozilla/5.0 (Windows NT 10.0; Win64; x64) AppleWebKit/537.36 (KHTML, like Gecko) Chrome/138.0.0.0 Safari/537.36 Edg/138.0.0.0","WebKit","Edge","138.0.0.0","Windows","10.0","https://app.prolific.com/","pt-PT,pt;q=0.9,pt-BR;q=0.8,en;q=0.7,en-US;q=0.6,en-GB;q=0.5,es;q=0.4","6523351ec0163b9e739d13ab","683db6dfa200031b80f2a654","686507537d989fcf0e7b6d20","6523351ec0163b9e739d13ab","2025-07-02T10:19:49.805Z","","","","","","","","","","","","","","","","","","","","","","","","","","","","","","","","","","","","","","","","","","","",""
"3094","","","{""age"":""30""}","survey-text","5","55570","0.0-6.0-0.0","59","1","2025-07-02 10:18:56","80fe4187154257d5fb01684ea91b68b9","83.240.176.93","Mozilla/5.0 (Windows NT 10.0; Win64; x64) AppleWebKit/537.36 (KHTML, like Gecko) Chrome/138.0.0.0 Safari/537.36 Edg/138.0.0.0","WebKit","Edge","138.0.0.0","Windows","10.0","https://app.prolific.com/","pt-PT,pt;q=0.9,pt-BR;q=0.8,en;q=0.7,en-US;q=0.6,en-GB;q=0.5,es;q=0.4","6523351ec0163b9e739d13ab","683db6dfa200031b80f2a654","686507537d989fcf0e7b6d20","6523351ec0163b9e739d13ab","","","","","","0","demographics","","","","","","","","","","","","","","","","","","","","","","","","","","","","","","","","","","","","","",""
"6200","","","{""gender_identity"":""male/man""}","survey-multi-choice","6","61767","0.0-6.0-1.0","59","1","2025-07-02 10:18:56","80fe4187154257d5fb01684ea91b68b9","83.240.176.93","Mozilla/5.0 (Windows NT 10.0; Win64; x64) AppleWebKit/537.36 (KHTML, like Gecko) Chrome/138.0.0.0 Safari/537.36 Edg/138.0.0.0","WebKit","Edge","138.0.0.0","Windows","10.0","https://app.prolific.com/","pt-PT,pt;q=0.9,pt-BR;q=0.8,en;q=0.7,en-US;q=0.6,en-GB;q=0.5,es;q=0.4","6523351ec0163b9e739d13ab","683db6dfa200031b80f2a654","686507537d989fcf0e7b6d20","6523351ec0163b9e739d13ab","","","[0]","","","1","demographics","","","","","","","","","","","","","","","","","","","","","","","","","","","","","","","","","","","","","",""
"2847","","","{""assigned_sex"":""male""}","survey-multi-choice","7","64615","0.0-6.0-2.0","59","1","2025-07-02 10:18:56","80fe4187154257d5fb01684ea91b68b9","83.240.176.93","Mozilla/5.0 (Windows NT 10.0; Win64; x64) AppleWebKit/537.36 (KHTML, like Gecko) Chrome/138.0.0.0 Safari/537.36 Edg/138.0.0.0","WebKit","Edge","138.0.0.0","Windows","10.0","https://app.prolific.com/","pt-PT,pt;q=0.9,pt-BR;q=0.8,en;q=0.7,en-US;q=0.6,en-GB;q=0.5,es;q=0.4","6523351ec0163b9e739d13ab","683db6dfa200031b80f2a654","686507537d989fcf0e7b6d20","6523351ec0163b9e739d13ab","","","[0]","","","2","demographics","","","","","","","","","","","","","","","","","","","","","","","","","","","","","","","","","","","","","",""
"3328","","","{""menstrual_cycle"":""No""}","survey-multi-choice","8","67944","0.0-6.0-3.0","59","1","2025-07-02 10:18:56","80fe4187154257d5fb01684ea91b68b9","83.240.176.93","Mozilla/5.0 (Windows NT 10.0; Win64; x64) AppleWebKit/537.36 (KHTML, like Gecko) Chrome/138.0.0.0 Safari/537.36 Edg/138.0.0.0","WebKit","Edge","138.0.0.0","Windows","10.0","https://app.prolific.com/","pt-PT,pt;q=0.9,pt-BR;q=0.8,en;q=0.7,en-US;q=0.6,en-GB;q=0.5,es;q=0.4","6523351ec0163b9e739d13ab","683db6dfa200031b80f2a654","686507537d989fcf0e7b6d20","6523351ec0163b9e739d13ab","","","[0]","","","4","demographics","","","","","","","","","","","","","","","","","","","","","","","","","","","","","","","","","","","","","",""
"5439","","","{""education"":""Bachelor's Degree (e.g., BA)""}","survey-multi-choice","9","73384","0.0-6.0-4.0","59","1","2025-07-02 10:18:56","80fe4187154257d5fb01684ea91b68b9","83.240.176.93","Mozilla/5.0 (Windows NT 10.0; Win64; x64) AppleWebKit/537.36 (KHTML, like Gecko) Chrome/138.0.0.0 Safari/537.36 Edg/138.0.0.0","WebKit","Edge","138.0.0.0","Windows","10.0","https://app.prolific.com/","pt-PT,pt;q=0.9,pt-BR;q=0.8,en;q=0.7,en-US;q=0.6,en-GB;q=0.5,es;q=0.4","6523351ec0163b9e739d13ab","683db6dfa200031b80f2a654","686507537d989fcf0e7b6d20","6523351ec0163b9e739d13ab","","","[0]","","","5","demographics","","","","","","","","","","","","","","","","","","","","","","","","","","","","","","","","","","","","","",""
"11959","","","{""education"":""A-level/National Diploma/Highers""}","survey-multi-choice","10","85344","0.0-6.0-5.0","59","1","2025-07-02 10:18:56","80fe4187154257d5fb01684ea91b68b9","83.240.176.93","Mozilla/5.0 (Windows NT 10.0; Win64; x64) AppleWebKit/537.36 (KHTML, like Gecko) Chrome/138.0.0.0 Safari/537.36 Edg/138.0.0.0","WebKit","Edge","138.0.0.0","Windows","10.0","https://app.prolific.com/","pt-PT,pt;q=0.9,pt-BR;q=0.8,en;q=0.7,en-US;q=0.6,en-GB;q=0.5,es;q=0.4","6523351ec0163b9e739d13ab","683db6dfa200031b80f2a654","686507537d989fcf0e7b6d20","6523351ec0163b9e739d13ab","2025-07-02T10:20:22.675Z","","[0]","","","6","demographics","","","","","","","","","","","","","","","","","","","","","","","","","","","","","","","","","","","","","",""
"18126","","","{""mental_health_condition"":"""",""mental_health_treatment"":"""",""psychiatric_medication"":""""}","survey-text","11","103471","0.0-7.0-0.0","59","1","2025-07-02 10:18:56","80fe4187154257d5fb01684ea91b68b9","83.240.176.93","Mozilla/5.0 (Windows NT 10.0; Win64; x64) AppleWebKit/537.36 (KHTML, like Gecko) Chrome/138.0.0.0 Safari/537.36 Edg/138.0.0.0","WebKit","Edge","138.0.0.0","Windows","10.0","https://app.prolific.com/","pt-PT,pt;q=0.9,pt-BR;q=0.8,en;q=0.7,en-US;q=0.6,en-GB;q=0.5,es;q=0.4","6523351ec0163b9e739d13ab","683db6dfa200031b80f2a654","686507537d989fcf0e7b6d20","6523351ec0163b9e739d13ab","2025-07-02T10:20:40.802Z","","","","","1","mental_health","","","","","","","","","","","","","","","","","","","","","","","","","","","","","","","","","","","","","",""
"16095","","","{""depression_history"":[""Yes""]}","survey-multi-select","12","119567","0.0-7.0-1.0","59","1","2025-07-02 10:18:56","80fe4187154257d5fb01684ea91b68b9","83.240.176.93","Mozilla/5.0 (Windows NT 10.0; Win64; x64) AppleWebKit/537.36 (KHTML, like Gecko) Chrome/138.0.0.0 Safari/537.36 Edg/138.0.0.0","WebKit","Edge","138.0.0.0","Windows","10.0","https://app.prolific.com/","pt-PT,pt;q=0.9,pt-BR;q=0.8,en;q=0.7,en-US;q=0.6,en-GB;q=0.5,es;q=0.4","6523351ec0163b9e739d13ab","683db6dfa200031b80f2a654","686507537d989fcf0e7b6d20","6523351ec0163b9e739d13ab","","","[0]","","","","mental_health","","","","","","","","","","","","","","","","","","","","","","","","","","","","","","","","","","","","","",""
"8263","","","{""depression_episodes"":""1-2"",""depression_recent"":""More than 1 year ago""}","survey-multi-choice","13","127829","0.0-7.0-2.0-0.0","59","1","2025-07-02 10:18:56","80fe4187154257d5fb01684ea91b68b9","83.240.176.93","Mozilla/5.0 (Windows NT 10.0; Win64; x64) AppleWebKit/537.36 (KHTML, like Gecko) Chrome/138.0.0.0 Safari/537.36 Edg/138.0.0.0","WebKit","Edge","138.0.0.0","Windows","10.0","https://app.prolific.com/","pt-PT,pt;q=0.9,pt-BR;q=0.8,en;q=0.7,en-US;q=0.6,en-GB;q=0.5,es;q=0.4","6523351ec0163b9e739d13ab","683db6dfa200031b80f2a654","686507537d989fcf0e7b6d20","6523351ec0163b9e739d13ab","2025-07-02T10:21:05.160Z","","[0,1]","","","3","mental_health","","","","","","","","","","","","","","","","","","","","","","","","","","","","","","","","","","","","","",""
"65839.29999998212","","","","survey-template","14","193668","0.0-7.0-3.0","59","1","2025-07-02 10:18:56","80fe4187154257d5fb01684ea91b68b9","83.240.176.93","Mozilla/5.0 (Windows NT 10.0; Win64; x64) AppleWebKit/537.36 (KHTML, like Gecko) Chrome/138.0.0.0 Safari/537.36 Edg/138.0.0.0","WebKit","Edge","138.0.0.0","Windows","10.0","https://app.prolific.com/","pt-PT,pt;q=0.9,pt-BR;q=0.8,en;q=0.7,en-US;q=0.6,en-GB;q=0.5,es;q=0.4","6523351ec0163b9e739d13ab","683db6dfa200031b80f2a654","686507537d989fcf0e7b6d20","6523351ec0163b9e739d13ab","2025-07-02T10:22:10.999Z","","","","","","ius","{""Q01"":""1"",""Q02"":""3"",""Q03"":""4"",""Q04"":""3"",""Q05"":""3"",""Q06"":""2"",""Q07"":""2"",""Q08"":""0"",""Q09"":""3"",""Q10"":""3"",""Q11"":""2"",""Q12"":""3"",""Q13"":""3""}","[0,1,2,3,4,5,6,7,8,9,10,11,12]","[""Q01"",""Q02"",""Q03"",""Q03"",""Q03"",""Q04"",""Q05"",""Q06"",""Q07"",""Q08"",""Q09"",""Q10"",""Q10"",""Q11"",""Q12"",""Q13""]","[8662,11270,15046.09999999404,17677.899999976158,17853.899999976158,23166,26350,35382.09999999404,39333.89999997616,41558,51982,56357.89999997616,56621.89999997616,58693.89999997616,62014,65414]","[]","[7542.0999999940395,7830,8310.09999999404,8662,11062.09999999404,11270,14510.5,14702.09999999404,15046.09999999404,17150.19999998808,17677.899999976158,17853.899999976158,22830.09999999404,23166,26030.19999998808,26350,28078.09999999404,30910,34997.89999997616,35382.09999999404,39078.09999999404,39333.89999997616,41558,51982,55974.09999999404,56357.89999997616,56621.89999997616,58310,58693.89999997616,61645.89999997616,61797.89999997616,62014,63126.09999999404,65414,65838.09999999404]","0.5384615384615384","0.4166666666666667","0","","","","","","","","","","","","","","","","","","","","","","","","","","","","",""
"2741","1751451733741","<p style='font-size:1.1em;line-height:1.25'>In the following, we will ask you a few questions relating to your experiences over the past month.<br></p><p style='font-size:1.1em;line-height:1.25'>Press the <strong>Next</strong> button to continue.</p>","0","custom-html-button-response","15","196410","0.0-7.0-4.0","59","1","2025-07-02 10:18:56","80fe4187154257d5fb01684ea91b68b9","83.240.176.93","Mozilla/5.0 (Windows NT 10.0; Win64; x64) AppleWebKit/537.36 (KHTML, like Gecko) Chrome/138.0.0.0 Safari/537.36 Edg/138.0.0.0","WebKit","Edge","138.0.0.0","Windows","10.0","https://app.prolific.com/","pt-PT,pt;q=0.9,pt-BR;q=0.8,en;q=0.7,en-US;q=0.6,en-GB;q=0.5,es;q=0.4","6523351ec0163b9e739d13ab","683db6dfa200031b80f2a654","686507537d989fcf0e7b6d20","6523351ec0163b9e739d13ab","2025-07-02T10:22:13.741Z","","","","","","","","","","","","","","","","","","","","","","","","","","","","","","","","","","","","","","","","","","","",""
"57871.89999997616","","","","survey-template","16","254282","0.0-7.0-5.0","59","1","2025-07-02 10:18:56","80fe4187154257d5fb01684ea91b68b9","83.240.176.93","Mozilla/5.0 (Windows NT 10.0; Win64; x64) AppleWebKit/537.36 (KHTML, like Gecko) Chrome/138.0.0.0 Safari/537.36 Edg/138.0.0.0","WebKit","Edge","138.0.0.0","Windows","10.0","https://app.prolific.com/","pt-PT,pt;q=0.9,pt-BR;q=0.8,en;q=0.7,en-US;q=0.6,en-GB;q=0.5,es;q=0.4","6523351ec0163b9e739d13ab","683db6dfa200031b80f2a654","686507537d989fcf0e7b6d20","6523351ec0163b9e739d13ab","2025-07-02T10:23:11.613Z","","","","","","pss","{""Q01"":""2"",""Q02"":""3"",""Q03"":""3"",""Q04"":""2"",""Q05"":""2"",""Q06"":""2"",""Q07"":""1"",""Q08"":""2"",""Q09"":""2"",""Q10"":""2""}","[0,1,2,3,4,5,6,7,8,9]","[""Q01"",""Q01"",""Q02"",""Q03"",""Q04"",""Q05"",""Q05"",""Q06"",""Q07"",""Q08"",""Q09"",""Q09"",""Q10""]","[5415,10863,16063.09999999404,23599,27742.899999976158,33166.79999998212,33470.89999997616,38950.89999997616,43759.39999997616,46695,52102.89999997616,52551,56774.89999997616]","[]","[0,5054.899999976158,5415,9983,10310.899999976158,10863,16063.09999999404,23599,27742.899999976158,31966.899999976158,32430.899999976158,33166.79999998212,33470.89999997616,38950.89999997616,43759.39999997616,46695,47406.89999997616,51422.79999998212,52102.89999997616,52551,56774.89999997616,57870.89999997616]","0.7","0.4444444444444444","0","","","","","","","","","","","","","","","","","","","","","","","","","","","","",""
"3142","1751451794756","<p style='font-size:1.1em;line-height:1.25'>Thank you for your answers! Now we will ask you a few more questions relating to your feelings in the last 24 hours.<br></p><p style='font-size:1.1em;line-height:1.25'>Press the <strong>Next</strong> button to continue.</p>","0","custom-html-button-response","17","257425","0.0-7.0-6.0","59","1","2025-07-02 10:18:56","80fe4187154257d5fb01684ea91b68b9","83.240.176.93","Mozilla/5.0 (Windows NT 10.0; Win64; x64) AppleWebKit/537.36 (KHTML, like Gecko) Chrome/138.0.0.0 Safari/537.36 Edg/138.0.0.0","WebKit","Edge","138.0.0.0","Windows","10.0","https://app.prolific.com/","pt-PT,pt;q=0.9,pt-BR;q=0.8,en;q=0.7,en-US;q=0.6,en-GB;q=0.5,es;q=0.4","6523351ec0163b9e739d13ab","683db6dfa200031b80f2a654","686507537d989fcf0e7b6d20","6523351ec0163b9e739d13ab","2025-07-02T10:23:14.756Z","","","","","","","","","","","","","","","","","","","","","","","","","","","","","","","","","","","","","","","","","","","",""
"87688.5","","","","survey-template","18","345114","0.0-7.0-7.0","59","1","2025-07-02 10:18:56","80fe4187154257d5fb01684ea91b68b9","83.240.176.93","Mozilla/5.0 (Windows NT 10.0; Win64; x64) AppleWebKit/537.36 (KHTML, like Gecko) Chrome/138.0.0.0 Safari/537.36 Edg/138.0.0.0","WebKit","Edge","138.0.0.0","Windows","10.0","https://app.prolific.com/","pt-PT,pt;q=0.9,pt-BR;q=0.8,en;q=0.7,en-US;q=0.6,en-GB;q=0.5,es;q=0.4","6523351ec0163b9e739d13ab","683db6dfa200031b80f2a654","686507537d989fcf0e7b6d20","6523351ec0163b9e739d13ab","2025-07-02T10:24:42.445Z","","","","","","drsp","{""Q01"":""1"",""Q02"":""0"",""Q03"":""0"",""Q04"":""2"",""Q05"":""0"",""Q06"":""1"",""Q07"":""2"",""Q08"":""1"",""Q09"":""1"",""Q10"":""2"",""Q11"":""3"",""Q12"":""1"",""Q13"":""0"",""Q14"":""0"",""Q15"":""2"",""Q16"":""1"",""Q17"":""1"",""Q18"":""0"",""Q19"":""3"",""Q20"":""2"",""Q21"":""2""}","[0,1,2,3,4,5,6,7,8,9,10,11,12,13,14,15,16,17,18,19,20]","[""Q01"",""Q02"",""Q03"",""Q04"",""Q04"",""Q02"",""Q03"",""Q05"",""Q05"",""Q06"",""Q07"",""Q07"",""Q08"",""Q08"",""Q08"",""Q09"",""Q10"",""Q11"",""Q11"",""Q12"",""Q13"",""Q14"",""Q15"",""Q15"",""Q16"",""Q17"",""Q18"",""Q19"",""Q19"",""Q19"",""Q20"",""Q21""]","[2950.7000000178814,4142.4000000059605,9310.40000000596,10414.5,10710.40000000596,15462.5,19358.5,26054.600000023842,26358.30000001192,27870.5,39030.5,41006.5,45334.90000000596,45542.30000001192,45710.30000001192,46318.30000001192,49958.5,51766.5,52622.5,55446.40000000596,57582.5,59798.30000001192,63182.30000001192,63830.30000001192,65518.30000001192,66750.20000001788,70334.30000001192,75614.40000000596,79262.20000001788,79406.30000001192,83886.30000001192,86806.40000000596]","[]","[0,2950.7000000178814,4142.4000000059605,8327.100000023842,9310.40000000596,9910.40000000596,10414.5,10710.40000000596,11838.300000011921,12086.600000023842,15462.5,19358.5,19966.5,24934.600000023842,25815.100000023842,26054.600000023842,26358.30000001192,27870.5,31542.5,32654.40000000596,35638.40000000596,36214.30000001192,38406.30000001192,39030.5,41006.5,43678.40000000596,44534.40000000596,44958.40000000596,45334.90000000596,45542.30000001192,45710.30000001192,46318.30000001192,49958.5,51206.40000000596,51766.5,52622.5,55446.40000000596,57582.5,59798.30000001192,63182.30000001192,63830.30000001192,65518.30000001192,66750.20000001788,69750.30000001192,70102.30000001192,70334.30000001192,75614.40000000596,77758.30000001192,79262.20000001788,79406.30000001192,83518.30000001192,83886.30000001192,86806.40000000596,87686.40000000596]","0.3333333333333333","0.5","0","","","","","","","","","","","","","","","","","","","","","","","","","","","","",""
"13189","","","","survey-template","19","358304","0.0-7.0-8.0","59","1","2025-07-02 10:18:56","80fe4187154257d5fb01684ea91b68b9","83.240.176.93","Mozilla/5.0 (Windows NT 10.0; Win64; x64) AppleWebKit/537.36 (KHTML, like Gecko) Chrome/138.0.0.0 Safari/537.36 Edg/138.0.0.0","WebKit","Edge","138.0.0.0","Windows","10.0","https://app.prolific.com/","pt-PT,pt;q=0.9,pt-BR;q=0.8,en;q=0.7,en-US;q=0.6,en-GB;q=0.5,es;q=0.4","6523351ec0163b9e739d13ab","683db6dfa200031b80f2a654","686507537d989fcf0e7b6d20","6523351ec0163b9e739d13ab","2025-07-02T10:24:55.635Z","","","","","","stress","{""Q01"":""2"",""Q02"":""4"",""Q03"":""2""}","[0,1,2]","[""Q01"",""Q01"",""Q01"",""Q01"",""Q01"",""Q02"",""Q03"",""Q03""]","[3332.2000000178814,4276.5,5860.300000011921,6044.4000000059605,6428.4000000059605,8460.40000000596,10660.40000000596,12348.40000000596]","[]","[3332.2000000178814,4276.5,4900.300000011921,5204.4000000059605,5644.4000000059605,5860.300000011921,6044.4000000059605,6428.4000000059605,8460.40000000596,10236.40000000596,10660.40000000596,11636.40000000596,12348.40000000596,13188.5]","0.6666666666666666","1","0","","","","","","","","","","","","","","","","","","","","","","","","","","","","",""
"66655","","","","instructions","20","424957","0.0-8.0-0.0","59","1","2025-07-02 10:18:56","80fe4187154257d5fb01684ea91b68b9","83.240.176.93","Mozilla/5.0 (Windows NT 10.0; Win64; x64) AppleWebKit/537.36 (KHTML, like Gecko) Chrome/138.0.0.0 Safari/537.36 Edg/138.0.0.0","WebKit","Edge","138.0.0.0","Windows","10.0","https://app.prolific.com/","pt-PT,pt;q=0.9,pt-BR;q=0.8,en;q=0.7,en-US;q=0.6,en-GB;q=0.5,es;q=0.4","6523351ec0163b9e739d13ab","683db6dfa200031b80f2a654","686507537d989fcf0e7b6d20","6523351ec0163b9e739d13ab","","[{""page_index"":0,""viewing_time"":38711},{""page_index"":1,""viewing_time"":7088},{""page_index"":2,""viewing_time"":10032},{""page_index"":3,""viewing_time"":10824}]","","","","","","","","","","","","","","","","","","","","","","","","","","","","","","","","","","","","","","","","","","",""
"","","","","ctl-task-cpt","21","440191","0.0-8.0-1.0","59","1","2025-07-02 10:18:56","80fe4187154257d5fb01684ea91b68b9","83.240.176.93","Mozilla/5.0 (Windows NT 10.0; Win64; x64) AppleWebKit/537.36 (KHTML, like Gecko) Chrome/138.0.0.0 Safari/537.36 Edg/138.0.0.0","WebKit","Edge","138.0.0.0","Windows","10.0","https://app.prolific.com/","pt-PT,pt;q=0.9,pt-BR;q=0.8,en;q=0.7,en-US;q=0.6,en-GB;q=0.5,es;q=0.4","6523351ec0163b9e739d13ab","683db6dfa200031b80f2a654","686507537d989fcf0e7b6d20","6523351ec0163b9e739d13ab","","","","","","","","","","","","","","","","","win-only","0","g1:NW,g2:SE","1","0","1","426246.2","3159.9","7160.4","12227.6","2","4","4","6","2","-4","-4","0","0","0","4000.5","4000","-3005","[""down"",""right""]","{""num_key_presses"":0,""num_perfect"":0,""num_errors"":0,""num_randdir"":0,""num_randdir_good_moves"":0,""num_whilered"":0,""num_whileblue"":0,""num_blue"":0,""num_good_moves"":0}","[360.93660714285716,356.84285714285716,0.2,360.93660714285716,356.84285714285716,100.9,360.93660714285716,356.84285714285716,200.8,360.93660714285716,356.84285714285716,301.3,360.93660714285716,356.84285714285716,406.3,360.93660714285716,356.84285714285716,510.8,358.93660714285716,356.84285714285716,611.8,354.93660714285716,356.84285714285716,715.5,354.93660714285716,356.84285714285716,820.5,354.93660714285716,356.84285714285716,921.4,354.93660714285716,356.84285714285716,1025.9,354.93660714285716,356.84285714285716,1125.9,354.93660714285716,356.84285714285716,1225.9,354.93660714285716,358.84285714285716,1326,354.93660714285716,358.84285714285716,1431.2,354.93660714285716,358.84285714285716,1531.7,354.93660714285716,358.84285714285716,1635.4,354.93660714285716,358.84285714285716,1736.2,354.93660714285716,358.84285714285716,1841.1,354.93660714285716,358.84285714285716,1945.6,354.93660714285716,358.84285714285716,2045.9,354.93660714285716,358.84285714285716,2146.3,354.93660714285716,358.84285714285716,2246.3,354.93660714285716,358.84285714285716,2351.1,338.93660714285716,362.84285714285716,2455.6,336.93660714285716,353.84285714285716,2555.9,325.93660714285716,315.84285714285716,2661.3,320.93660714285716,304.84285714285716,2766.1,316.93660714285716,237.84285714285716,2867.1,316.93660714285716,223.84285714285716,2970.5,316.93660714285716,221.84285714285716,3070.5,316.93660714285716,221.84285714285716,3170.6,316.93660714285716,221.84285714285716,3271.4,316.93660714285716,221.84285714285716,3375.9,316.93660714285716,221.84285714285716,3476,316.93660714285716,227.84285714285716,3576.1,318.93660714285716,236.84285714285716,3680.8,318.93660714285716,239.84285714285716,3781.4,318.93660714285716,243.84285714285716,3882.3,318.93660714285716,243.84285714285716,3986.2]","[]","",""
"5166","","","","instructions","22","445357","0.0-8.0-2.0","59","1","2025-07-02 10:18:56","80fe4187154257d5fb01684ea91b68b9","83.240.176.93","Mozilla/5.0 (Windows NT 10.0; Win64; x64) AppleWebKit/537.36 (KHTML, like Gecko) Chrome/138.0.0.0 Safari/537.36 Edg/138.0.0.0","WebKit","Edge","138.0.0.0","Windows","10.0","https://app.prolific.com/","pt-PT,pt;q=0.9,pt-BR;q=0.8,en;q=0.7,en-US;q=0.6,en-GB;q=0.5,es;q=0.4","6523351ec0163b9e739d13ab","683db6dfa200031b80f2a654","686507537d989fcf0e7b6d20","6523351ec0163b9e739d13ab","","[{""page_index"":0,""viewing_time"":5166}]","","","","","","","","","","","","","","","","","","","","","","","","","","","","","","","","","","","","","","","","","","",""
"","","","","ctl-task-cpt","23","465614","0.0-8.0-3.0","59","1","2025-07-02 10:18:56","80fe4187154257d5fb01684ea91b68b9","83.240.176.93","Mozilla/5.0 (Windows NT 10.0; Win64; x64) AppleWebKit/537.36 (KHTML, like Gecko) Chrome/138.0.0.0 Safari/537.36 Edg/138.0.0.0","WebKit","Edge","138.0.0.0","Windows","10.0","https://app.prolific.com/","pt-PT,pt;q=0.9,pt-BR;q=0.8,en;q=0.7,en-US;q=0.6,en-GB;q=0.5,es;q=0.4","6523351ec0163b9e739d13ab","683db6dfa200031b80f2a654","686507537d989fcf0e7b6d20","6523351ec0163b9e739d13ab","","","","","","","","","","","","","","","","","win-only","0","g1:NW,g2:SE","0.35","0","3","446645.3","1257.3","5261.1","17251","2","4","8","6","2","-8","-10","0","0","0","4003.8","4000","-3000","[""down"",""right""]","{""num_key_presses"":3,""num_perfect"":0,""num_errors"":2,""num_randdir"":1,""num_randdir_good_moves"":0,""num_whilered"":0,""num_whileblue"":0,""num_blue"":0,""num_good_moves"":0}","[362.93660714285716,359.84285714285716,0.1,362.93660714285716,359.84285714285716,102.9,362.93660714285716,359.84285714285716,202.9,362.93660714285716,359.84285714285716,304.3,357.93660714285716,366.84285714285716,408.9,326.93660714285716,349.84285714285716,509,326.93660714285716,349.84285714285716,613.2,326.93660714285716,349.84285714285716,713.2,324.93660714285716,344.84285714285716,813.4,322.93660714285716,342.84285714285716,918.6,318.93660714285716,326.84285714285716,1018.7,318.93660714285716,326.84285714285716,1123.7,318.93660714285716,326.84285714285716,1224.6,318.93660714285716,326.84285714285716,1328.5,318.93660714285716,326.84285714285716,1428.6,317.93660714285716,323.84285714285716,1533.8,317.93660714285716,321.84285714285716,1637.8,317.93660714285716,321.84285714285716,1738.9,317.93660714285716,321.84285714285716,1843,317.93660714285716,321.84285714285716,1944.6,318.93660714285716,322.84285714285716,2049,318.93660714285716,322.84285714285716,2153.9,318.93660714285716,322.84285714285716,2254.1,318.93660714285716,322.84285714285716,2359,318.93660714285716,309.84285714285716,2463.4,318.93660714285716,283.84285714285716,2563.4,318.93660714285716,283.84285714285716,2668,318.93660714285716,283.84285714285716,2768.2,318.93660714285716,283.84285714285716,2868.5,318.93660714285716,283.84285714285716,2968.8,318.93660714285716,283.84285714285716,3072.9,318.93660714285716,283.84285714285716,3173,318.93660714285716,283.84285714285716,3273.6,316.93660714285716,283.84285714285716,3378,316.93660714285716,283.84285714285716,3478.8,316.93660714285716,283.84285714285716,3579,315.93660714285716,288.84285714285716,3683.7,315.93660714285716,288.84285714285716,3788.2,315.93660714285716,288.84285714285716,3888.5,315.93660714285716,288.84285714285716,3988.5]","[4378.4,4378.4,1000,0,3378.4,""oops"",""right"",""left"",""bad_move"",4610.2,231.5,2932.4,4378.7,-2700.9,""error"",""-"",""-"",""no_move"",6642.5,2032.1,2055.5,5614.6,-1027.6,""error"",""-"",""-"",""no_move""]","",""
"25143","","","","instructions","24","490756","0.0-8.0-4.0","59","1","2025-07-02 10:18:56","80fe4187154257d5fb01684ea91b68b9","83.240.176.93","Mozilla/5.0 (Windows NT 10.0; Win64; x64) AppleWebKit/537.36 (KHTML, like Gecko) Chrome/138.0.0.0 Safari/537.36 Edg/138.0.0.0","WebKit","Edge","138.0.0.0","Windows","10.0","https://app.prolific.com/","pt-PT,pt;q=0.9,pt-BR;q=0.8,en;q=0.7,en-US;q=0.6,en-GB;q=0.5,es;q=0.4","6523351ec0163b9e739d13ab","683db6dfa200031b80f2a654","686507537d989fcf0e7b6d20","6523351ec0163b9e739d13ab","","[{""page_index"":0,""viewing_time"":4838},{""page_index"":1,""viewing_time"":20304}]","","","","","","","","","","","","","","","","","","","","","","","","","","","","","","","","","","","","","","","","","","",""
"15165","","","{""green_ball"":[""Ball sometimes shakes and moves in a random direction""]}","survey-multi-select","25","505924","0.0-8.0-5.0-0.0","59","1","2025-07-02 10:18:56","80fe4187154257d5fb01684ea91b68b9","83.240.176.93","Mozilla/5.0 (Windows NT 10.0; Win64; x64) AppleWebKit/537.36 (KHTML, like Gecko) Chrome/138.0.0.0 Safari/537.36 Edg/138.0.0.0","WebKit","Edge","138.0.0.0","Windows","10.0","https://app.prolific.com/","pt-PT,pt;q=0.9,pt-BR;q=0.8,en;q=0.7,en-US;q=0.6,en-GB;q=0.5,es;q=0.4","6523351ec0163b9e739d13ab","683db6dfa200031b80f2a654","686507537d989fcf0e7b6d20","6523351ec0163b9e739d13ab","","","[0]","","","","quiz","","","","","","","","","","","","","","","","","","","","","","","","","","","","","","","","","","","","","true",""
"3015","","<p align='center'><b>CORRECT!</b> Indeed, the green ball may sometimes shake and move in a random direction.</p>","0","html-button-response","26","508940","0.0-8.0-5.0-1.0","59","1","2025-07-02 10:18:56","80fe4187154257d5fb01684ea91b68b9","83.240.176.93","Mozilla/5.0 (Windows NT 10.0; Win64; x64) AppleWebKit/537.36 (KHTML, like Gecko) Chrome/138.0.0.0 Safari/537.36 Edg/138.0.0.0","WebKit","Edge","138.0.0.0","Windows","10.0","https://app.prolific.com/","pt-PT,pt;q=0.9,pt-BR;q=0.8,en;q=0.7,en-US;q=0.6,en-GB;q=0.5,es;q=0.4","6523351ec0163b9e739d13ab","683db6dfa200031b80f2a654","686507537d989fcf0e7b6d20","6523351ec0163b9e739d13ab","","","","","","","","","","","","","","","","","","","","","","","","","","","","","","","","","","","","","","","","","","","","",""
"5615","","","{""yellow_ball"":[""Ball doesn‘t move and I get -1 penalty point""]}","survey-multi-select","27","514556","0.0-8.0-6.0-0.0","59","1","2025-07-02 10:18:56","80fe4187154257d5fb01684ea91b68b9","83.240.176.93","Mozilla/5.0 (Windows NT 10.0; Win64; x64) AppleWebKit/537.36 (KHTML, like Gecko) Chrome/138.0.0.0 Safari/537.36 Edg/138.0.0.0","WebKit","Edge","138.0.0.0","Windows","10.0","https://app.prolific.com/","pt-PT,pt;q=0.9,pt-BR;q=0.8,en;q=0.7,en-US;q=0.6,en-GB;q=0.5,es;q=0.4","6523351ec0163b9e739d13ab","683db6dfa200031b80f2a654","686507537d989fcf0e7b6d20","6523351ec0163b9e739d13ab","","","[0]","","","","quiz","","","","","","","","","","","","","","","","","","","","","","","","","","","","","","","","","","","","","true",""
"927","","<p align='center'><b>CORRECT!</b> Indeed, the yellow ball never moves and you receive a penalty.</p>","0","html-button-response","28","515484","0.0-8.0-6.0-1.0","59","1","2025-07-02 10:18:56","80fe4187154257d5fb01684ea91b68b9","83.240.176.93","Mozilla/5.0 (Windows NT 10.0; Win64; x64) AppleWebKit/537.36 (KHTML, like Gecko) Chrome/138.0.0.0 Safari/537.36 Edg/138.0.0.0","WebKit","Edge","138.0.0.0","Windows","10.0","https://app.prolific.com/","pt-PT,pt;q=0.9,pt-BR;q=0.8,en;q=0.7,en-US;q=0.6,en-GB;q=0.5,es;q=0.4","6523351ec0163b9e739d13ab","683db6dfa200031b80f2a654","686507537d989fcf0e7b6d20","6523351ec0163b9e739d13ab","","","","","","","","","","","","","","","","","","","","","","","","","","","","","","","","","","","","","","","","","","","","",""
"2400","","","{""blue_ball"":[""Ball doesn‘t move and I get -1 penalty point""]}","survey-multi-select","29","517885","0.0-8.0-7.0-0.0","59","1","2025-07-02 10:18:56","80fe4187154257d5fb01684ea91b68b9","83.240.176.93","Mozilla/5.0 (Windows NT 10.0; Win64; x64) AppleWebKit/537.36 (KHTML, like Gecko) Chrome/138.0.0.0 Safari/537.36 Edg/138.0.0.0","WebKit","Edge","138.0.0.0","Windows","10.0","https://app.prolific.com/","pt-PT,pt;q=0.9,pt-BR;q=0.8,en;q=0.7,en-US;q=0.6,en-GB;q=0.5,es;q=0.4","6523351ec0163b9e739d13ab","683db6dfa200031b80f2a654","686507537d989fcf0e7b6d20","6523351ec0163b9e739d13ab","","","[0]","","","","quiz","","","","","","","","","","","","","","","","","","","","","","","","","","","","","","","","","","","","","false",""
"3142","","<p align='center'><b>INCORRECT.</b> The blue ball always shakes and moves randomly.</p>","0","html-button-response","30","521028","0.0-8.0-7.0-1.0","59","1","2025-07-02 10:18:56","80fe4187154257d5fb01684ea91b68b9","83.240.176.93","Mozilla/5.0 (Windows NT 10.0; Win64; x64) AppleWebKit/537.36 (KHTML, like Gecko) Chrome/138.0.0.0 Safari/537.36 Edg/138.0.0.0","WebKit","Edge","138.0.0.0","Windows","10.0","https://app.prolific.com/","pt-PT,pt;q=0.9,pt-BR;q=0.8,en;q=0.7,en-US;q=0.6,en-GB;q=0.5,es;q=0.4","6523351ec0163b9e739d13ab","683db6dfa200031b80f2a654","686507537d989fcf0e7b6d20","6523351ec0163b9e739d13ab","","","","","","","","","","","","","","","","","","","","","","","","","","","","","","","","","","","","","","","","","","","","",""
"4879","","","{""blue_ball"":[""Ball always shakes and moves in a random direction""]}","survey-multi-select","31","525908","0.0-8.0-7.1-0.1","59","1","2025-07-02 10:18:56","80fe4187154257d5fb01684ea91b68b9","83.240.176.93","Mozilla/5.0 (Windows NT 10.0; Win64; x64) AppleWebKit/537.36 (KHTML, like Gecko) Chrome/138.0.0.0 Safari/537.36 Edg/138.0.0.0","WebKit","Edge","138.0.0.0","Windows","10.0","https://app.prolific.com/","pt-PT,pt;q=0.9,pt-BR;q=0.8,en;q=0.7,en-US;q=0.6,en-GB;q=0.5,es;q=0.4","6523351ec0163b9e739d13ab","683db6dfa200031b80f2a654","686507537d989fcf0e7b6d20","6523351ec0163b9e739d13ab","","","[0]","","","","quiz","","","","","","","","","","","","","","","","","","","","","","","","","","","","","","","","","","","","","true",""
"2615","","<p align='center'><b>CORRECT!</b> Indeed, the blue ball always shakes and moves in a random direction. Also there is a penalty of -1 point.</p>","0","html-button-response","32","528524","0.0-8.0-7.1-1.1","59","1","2025-07-02 10:18:56","80fe4187154257d5fb01684ea91b68b9","83.240.176.93","Mozilla/5.0 (Windows NT 10.0; Win64; x64) AppleWebKit/537.36 (KHTML, like Gecko) Chrome/138.0.0.0 Safari/537.36 Edg/138.0.0.0","WebKit","Edge","138.0.0.0","Windows","10.0","https://app.prolific.com/","pt-PT,pt;q=0.9,pt-BR;q=0.8,en;q=0.7,en-US;q=0.6,en-GB;q=0.5,es;q=0.4","6523351ec0163b9e739d13ab","683db6dfa200031b80f2a654","686507537d989fcf0e7b6d20","6523351ec0163b9e739d13ab","","","","","","","","","","","","","","","","","","","","","","","","","","","","","","","","","","","","","","","","","","","","",""
"12015","","","{""bonus"":[""When I reach all possible points"",""When I don‘t get penalty points""]}","survey-multi-select","33","540540","0.0-8.0-8.0-0.0","59","1","2025-07-02 10:18:56","80fe4187154257d5fb01684ea91b68b9","83.240.176.93","Mozilla/5.0 (Windows NT 10.0; Win64; x64) AppleWebKit/537.36 (KHTML, like Gecko) Chrome/138.0.0.0 Safari/537.36 Edg/138.0.0.0","WebKit","Edge","138.0.0.0","Windows","10.0","https://app.prolific.com/","pt-PT,pt;q=0.9,pt-BR;q=0.8,en;q=0.7,en-US;q=0.6,en-GB;q=0.5,es;q=0.4","6523351ec0163b9e739d13ab","683db6dfa200031b80f2a654","686507537d989fcf0e7b6d20","6523351ec0163b9e739d13ab","","","[0]","","","","quiz","","","","","","","","","","","","","","","","","","","","","","","","","","","","","","","","","","","","","false",""
"2879","","<p align='center'><b>INCORRECT.</b> You receive 2 pounds extra when you reach 50% of points </p>","0","html-button-response","34","543420","0.0-8.0-8.0-1.0","59","1","2025-07-02 10:18:56","80fe4187154257d5fb01684ea91b68b9","83.240.176.93","Mozilla/5.0 (Windows NT 10.0; Win64; x64) AppleWebKit/537.36 (KHTML, like Gecko) Chrome/138.0.0.0 Safari/537.36 Edg/138.0.0.0","WebKit","Edge","138.0.0.0","Windows","10.0","https://app.prolific.com/","pt-PT,pt;q=0.9,pt-BR;q=0.8,en;q=0.7,en-US;q=0.6,en-GB;q=0.5,es;q=0.4","6523351ec0163b9e739d13ab","683db6dfa200031b80f2a654","686507537d989fcf0e7b6d20","6523351ec0163b9e739d13ab","","","","","","","","","","","","","","","","","","","","","","","","","","","","","","","","","","","","","","","","","","","","",""
"1255","","","{""bonus"":[""When I reach 50% of points""]}","survey-multi-select","35","544676","0.0-8.0-8.1-0.1","59","1","2025-07-02 10:18:56","80fe4187154257d5fb01684ea91b68b9","83.240.176.93","Mozilla/5.0 (Windows NT 10.0; Win64; x64) AppleWebKit/537.36 (KHTML, like Gecko) Chrome/138.0.0.0 Safari/537.36 Edg/138.0.0.0","WebKit","Edge","138.0.0.0","Windows","10.0","https://app.prolific.com/","pt-PT,pt;q=0.9,pt-BR;q=0.8,en;q=0.7,en-US;q=0.6,en-GB;q=0.5,es;q=0.4","6523351ec0163b9e739d13ab","683db6dfa200031b80f2a654","686507537d989fcf0e7b6d20","6523351ec0163b9e739d13ab","","","[0]","","","","quiz","","","","","","","","","","","","","","","","","","","","","","","","","","","","","","","","","","","","","true",""
"1192","","<p align='center'><b>CORRECT!</b> Indeed, you receive 2 pounds extra when you reach 50% of points.</p>","0","html-button-response","36","545868","0.0-8.0-8.1-1.1","59","1","2025-07-02 10:18:56","80fe4187154257d5fb01684ea91b68b9","83.240.176.93","Mozilla/5.0 (Windows NT 10.0; Win64; x64) AppleWebKit/537.36 (KHTML, like Gecko) Chrome/138.0.0.0 Safari/537.36 Edg/138.0.0.0","WebKit","Edge","138.0.0.0","Windows","10.0","https://app.prolific.com/","pt-PT,pt;q=0.9,pt-BR;q=0.8,en;q=0.7,en-US;q=0.6,en-GB;q=0.5,es;q=0.4","6523351ec0163b9e739d13ab","683db6dfa200031b80f2a654","686507537d989fcf0e7b6d20","6523351ec0163b9e739d13ab","","","","","","","","","","","","","","","","","","","","","","","","","","","","","","","","","","","","","","","","","","","","",""
"1991","","","","instructions","37","547859","0.0-8.0-9.0","59","1","2025-07-02 10:18:56","80fe4187154257d5fb01684ea91b68b9","83.240.176.93","Mozilla/5.0 (Windows NT 10.0; Win64; x64) AppleWebKit/537.36 (KHTML, like Gecko) Chrome/138.0.0.0 Safari/537.36 Edg/138.0.0.0","WebKit","Edge","138.0.0.0","Windows","10.0","https://app.prolific.com/","pt-PT,pt;q=0.9,pt-BR;q=0.8,en;q=0.7,en-US;q=0.6,en-GB;q=0.5,es;q=0.4","6523351ec0163b9e739d13ab","683db6dfa200031b80f2a654","686507537d989fcf0e7b6d20","6523351ec0163b9e739d13ab","","[{""page_index"":0,""viewing_time"":1991}]","","","","","","","","","","","","","","","","","","","","","","","","","","","","","","","","","","","","","","","","","","",""
"15703","","<p>Before you start with this game please answer the following three questions yourself. </p>
  <p>Through this game, we measure several aspects of your cognitive performance, such as reaction times, multi-tasking capabilities </p>
  <p>and the ability to assess the situation you are in.</p>
  <p></p>
  <p><b>How good do you usually are in such tasks?</b></p>","74","html-slider-response","38","563564","0.0-9.0-0.0","59","1","2025-07-02 10:18:56","80fe4187154257d5fb01684ea91b68b9","83.240.176.93","Mozilla/5.0 (Windows NT 10.0; Win64; x64) AppleWebKit/537.36 (KHTML, like Gecko) Chrome/138.0.0.0 Safari/537.36 Edg/138.0.0.0","WebKit","Edge","138.0.0.0","Windows","10.0","https://app.prolific.com/","pt-PT,pt;q=0.9,pt-BR;q=0.8,en;q=0.7,en-US;q=0.6,en-GB;q=0.5,es;q=0.4","6523351ec0163b9e739d13ab","683db6dfa200031b80f2a654","686507537d989fcf0e7b6d20","6523351ec0163b9e739d13ab","2025-07-02T10:28:20.895Z","","","","","","PreSkillQ","","","","","","","","","","","","","","","","","","","","","","","","","","","","","","","","","","","","","","50"
"3791","","<div style=""width:500px;"">
  <p>How well do you think you will perform in this task compared to other participants?</p>
  </div>","71","html-slider-response","39","567355","0.0-9.0-1.0","59","1","2025-07-02 10:18:56","80fe4187154257d5fb01684ea91b68b9","83.240.176.93","Mozilla/5.0 (Windows NT 10.0; Win64; x64) AppleWebKit/537.36 (KHTML, like Gecko) Chrome/138.0.0.0 Safari/537.36 Edg/138.0.0.0","WebKit","Edge","138.0.0.0","Windows","10.0","https://app.prolific.com/","pt-PT,pt;q=0.9,pt-BR;q=0.8,en;q=0.7,en-US;q=0.6,en-GB;q=0.5,es;q=0.4","6523351ec0163b9e739d13ab","683db6dfa200031b80f2a654","686507537d989fcf0e7b6d20","6523351ec0163b9e739d13ab","2025-07-02T10:28:24.687Z","","","","","","PrePerfQ","","","","","","","","","","","","","","","","","","","","","","","","","","","","","","","","","","","","","","50"
"4783","","<div style=""width:500px;"">
  <p>What best describes how you currently feel?</p>
  </div>","73","html-slider-response","40","572139","0.0-9.0-2.0","59","1","2025-07-02 10:18:56","80fe4187154257d5fb01684ea91b68b9","83.240.176.93","Mozilla/5.0 (Windows NT 10.0; Win64; x64) AppleWebKit/537.36 (KHTML, like Gecko) Chrome/138.0.0.0 Safari/537.36 Edg/138.0.0.0","WebKit","Edge","138.0.0.0","Windows","10.0","https://app.prolific.com/","pt-PT,pt;q=0.9,pt-BR;q=0.8,en;q=0.7,en-US;q=0.6,en-GB;q=0.5,es;q=0.4","6523351ec0163b9e739d13ab","683db6dfa200031b80f2a654","686507537d989fcf0e7b6d20","6523351ec0163b9e739d13ab","2025-07-02T10:28:29.470Z","","","","","","PreMotivationQ","","","","","","","","","","","","","","","","","","","","","","","","","","","","","","","","","","","","","","50"
"","","","","ctl-task-cpt","41","605123","0.0-10.0-0.0","59","1","2025-07-02 10:18:56","80fe4187154257d5fb01684ea91b68b9","83.240.176.93","Mozilla/5.0 (Windows NT 10.0; Win64; x64) AppleWebKit/537.36 (KHTML, like Gecko) Chrome/138.0.0.0 Safari/537.36 Edg/138.0.0.0","WebKit","Edge","138.0.0.0","Windows","10.0","https://app.prolific.com/","pt-PT,pt;q=0.9,pt-BR;q=0.8,en;q=0.7,en-US;q=0.6,en-GB;q=0.5,es;q=0.4","6523351ec0163b9e739d13ab","683db6dfa200031b80f2a654","686507537d989fcf0e7b6d20","6523351ec0163b9e739d13ab","2025-07-02T10:29:02.455Z","","","","","","","","","","","","","","","","win-only","2","g1:SE,g2:NW","1","1","0","573430","1352.3","6355.7","29975.7","1","4","8","6","2","8","6","6","0","0.045454545454545456","5003.4","3000","325","[""left"",""up""]","{""num_key_presses"":8,""num_perfect"":5,""num_errors"":2,""num_randdir"":0,""num_randdir_good_moves"":0,""num_whilered"":1,""num_whileblue"":1,""num_blue"":2,""num_good_moves"":6}","[356.93660714285716,359.84285714285716,0.1,356.93660714285716,359.84285714285716,103.2,356.93660714285716,359.84285714285716,203.3,357.93660714285716,359.84285714285716,308.4,358.93660714285716,369.84285714285716,413,387.93660714285716,403.84285714285716,513.4,415.93660714285716,425.84285714285716,614,415.93660714285716,425.84285714285716,719.2,415.93660714285716,425.84285714285716,823.2,415.93660714285716,425.84285714285716,928.7,415.93660714285716,425.84285714285716,1033.5,415.93660714285716,425.84285714285716,1133.5,415.93660714285716,425.84285714285716,1233.5,415.93660714285716,425.84285714285716,1333.7,415.93660714285716,425.84285714285716,1438.5,415.93660714285716,425.84285714285716,1543.1,415.93660714285716,425.84285714285716,1648.1,415.93660714285716,425.84285714285716,1748.5,415.93660714285716,425.84285714285716,1848.9,415.93660714285716,425.84285714285716,1953.3,415.93660714285716,425.84285714285716,2053.7,415.93660714285716,425.84285714285716,2157.9,415.93660714285716,425.84285714285716,2257.9,415.93660714285716,425.84285714285716,2358.9,415.93660714285716,425.84285714285716,2463.5,415.93660714285716,425.84285714285716,2563.6,415.93660714285716,425.84285714285716,2664.7,415.93660714285716,425.84285714285716,2769,415.93660714285716,425.84285714285716,2869.2,415.93660714285716,425.84285714285716,2969.2,415.93660714285716,425.84285714285716,3073.9,415.93660714285716,425.84285714285716,3174.6,415.93660714285716,425.84285714285716,3278.3,415.93660714285716,425.84285714285716,3378.7,415.93660714285716,425.84285714285716,3483.1,415.93660714285716,425.84285714285716,3583.1,415.93660714285716,425.84285714285716,3684.6,415.93660714285716,425.84285714285716,3787.8,415.93660714285716,425.84285714285716,3889.7,415.93660714285716,425.84285714285716,3993.7,415.93660714285716,425.84285714285716,4098.6,415.93660714285716,425.84285714285716,4203.7,415.93660714285716,425.84285714285716,4303.8,415.93660714285716,425.84285714285716,4403.9,415.93660714285716,425.84285714285716,4508.2,415.93660714285716,425.84285714285716,4608.8,415.93660714285716,425.84285714285716,4709,415.93660714285716,425.84285714285716,4813.4,415.93660714285716,425.84285714285716,4913.5]","[1379.2,1379.2,1000,0,379.2,""smooth"",""left"",""left"",""good_move"",1722.6,343.2,2749.3,1379.5,-2406.1,""error"",""-"",""-"",""no_move"",1850.7,127.9,2749.3,1379.5,-2278.1,""while_red"",""-"",""-"",""no_move"",5370.8,3648,2049.1,2725.5,596.2,""smooth"",""left"",""left"",""good_move"",12475.1,7104.1,2851.2,9274.7,349.2,""while_blue"",""up"",""up"",""good_move"",16226.6,3751.3,2843,12475.3,908.3,""smooth"",""up"",""up"",""good_move"",19930.7,3704,3234,16226.7,470,""smooth"",""up"",""up"",""good_move"",23530.8,3600,3254.5,19930.8,345.5,""smooth"",""left"",""left"",""good_move""]","",""
"5382","","<div style=""width:500px;"">
  <p>What determined the result of this run?</p>
  </div>","100","html-slider-response","42","610507","0.0-10.0-1.0","59","1","2025-07-02 10:18:56","80fe4187154257d5fb01684ea91b68b9","83.240.176.93","Mozilla/5.0 (Windows NT 10.0; Win64; x64) AppleWebKit/537.36 (KHTML, like Gecko) Chrome/138.0.0.0 Safari/537.36 Edg/138.0.0.0","WebKit","Edge","138.0.0.0","Windows","10.0","https://app.prolific.com/","pt-PT,pt;q=0.9,pt-BR;q=0.8,en;q=0.7,en-US;q=0.6,en-GB;q=0.5,es;q=0.4","6523351ec0163b9e739d13ab","683db6dfa200031b80f2a654","686507537d989fcf0e7b6d20","6523351ec0163b9e739d13ab","2025-07-02T10:29:07.838Z","","","","","","AttribQ","","","","","","","","","","","","","","","","","","","","","","","","","","","","","","","","","","","","","","50"
"3631","","<div style=""width:500px;"">
  <p>How much control did you have over the ball?</p>
  </div>","100","html-slider-response","43","614139","0.0-10.0-2.0","59","1","2025-07-02 10:18:56","80fe4187154257d5fb01684ea91b68b9","83.240.176.93","Mozilla/5.0 (Windows NT 10.0; Win64; x64) AppleWebKit/537.36 (KHTML, like Gecko) Chrome/138.0.0.0 Safari/537.36 Edg/138.0.0.0","WebKit","Edge","138.0.0.0","Windows","10.0","https://app.prolific.com/","pt-PT,pt;q=0.9,pt-BR;q=0.8,en;q=0.7,en-US;q=0.6,en-GB;q=0.5,es;q=0.4","6523351ec0163b9e739d13ab","683db6dfa200031b80f2a654","686507537d989fcf0e7b6d20","6523351ec0163b9e739d13ab","2025-07-02T10:29:11.470Z","","","","","","ControlQ","","","","","","","","","","","","","","","","","","","","","","","","","","","","","","","","","","","","","","50"
"7015","","<div style=""width:500px;"">
  <p>How would you describe your current emotional state?</p>
  </div>","57","html-slider-response","44","621155","0.0-10.0-3.0","59","1","2025-07-02 10:18:56","80fe4187154257d5fb01684ea91b68b9","83.240.176.93","Mozilla/5.0 (Windows NT 10.0; Win64; x64) AppleWebKit/537.36 (KHTML, like Gecko) Chrome/138.0.0.0 Safari/537.36 Edg/138.0.0.0","WebKit","Edge","138.0.0.0","Windows","10.0","https://app.prolific.com/","pt-PT,pt;q=0.9,pt-BR;q=0.8,en;q=0.7,en-US;q=0.6,en-GB;q=0.5,es;q=0.4","6523351ec0163b9e739d13ab","683db6dfa200031b80f2a654","686507537d989fcf0e7b6d20","6523351ec0163b9e739d13ab","2025-07-02T10:29:18.486Z","","","","","","StressQ","","","","","","","","","","","","","","","","","","","","","","","","","","","","","","","","","","","","","","50"
"7351","","<div style=""width:500px;"">
  <p>What best describes how you currently feel?</p>
  </div>","75","html-slider-response","45","628507","0.0-10.0-4.0","59","1","2025-07-02 10:18:56","80fe4187154257d5fb01684ea91b68b9","83.240.176.93","Mozilla/5.0 (Windows NT 10.0; Win64; x64) AppleWebKit/537.36 (KHTML, like Gecko) Chrome/138.0.0.0 Safari/537.36 Edg/138.0.0.0","WebKit","Edge","138.0.0.0","Windows","10.0","https://app.prolific.com/","pt-PT,pt;q=0.9,pt-BR;q=0.8,en;q=0.7,en-US;q=0.6,en-GB;q=0.5,es;q=0.4","6523351ec0163b9e739d13ab","683db6dfa200031b80f2a654","686507537d989fcf0e7b6d20","6523351ec0163b9e739d13ab","2025-07-02T10:29:25.838Z","","","","","","MotivationQ","","","","","","","","","","","","","","","","","","","","","","","","","","","","","","","","","","","","","","50"
"","","","","ctl-task-cpt","46","662652","0.0-10.0-0.1","59","1","2025-07-02 10:18:56","80fe4187154257d5fb01684ea91b68b9","83.240.176.93","Mozilla/5.0 (Windows NT 10.0; Win64; x64) AppleWebKit/537.36 (KHTML, like Gecko) Chrome/138.0.0.0 Safari/537.36 Edg/138.0.0.0","WebKit","Edge","138.0.0.0","Windows","10.0","https://app.prolific.com/","pt-PT,pt;q=0.9,pt-BR;q=0.8,en;q=0.7,en-US;q=0.6,en-GB;q=0.5,es;q=0.4","6523351ec0163b9e739d13ab","683db6dfa200031b80f2a654","686507537d989fcf0e7b6d20","6523351ec0163b9e739d13ab","2025-07-02T10:29:59.983Z","","","","","","","","","","","","","","","","win-only","1","g1:NE,g2:SW","0.9","2","0","629798","1111.7","6115.8","31127.6","1","4","4","6","2","4","3","9","6","0.06818181818181818","5004","3000","45","[""down"",""left""]","{""num_key_presses"":8,""num_perfect"":7,""num_errors"":1,""num_randdir"":0,""num_randdir_good_moves"":0,""num_whilered"":0,""num_whileblue"":1,""num_blue"":2,""num_good_moves"":7}","[361.93660714285716,365.84285714285716,0.2,361.93660714285716,365.84285714285716,100.4,361.93660714285716,365.84285714285716,204.2,361.93660714285716,365.84285714285716,304.6,360.93660714285716,380.84285714285716,408.6,397.93660714285716,359.84285714285716,509.9,421.93660714285716,307.84285714285716,614.2,421.93660714285716,305.84285714285716,714.2,421.93660714285716,305.84285714285716,818.8,421.93660714285716,305.84285714285716,919.2,421.93660714285716,305.84285714285716,1024.5,421.93660714285716,305.84285714285716,1128.5,421.93660714285716,305.84285714285716,1234.1,421.93660714285716,305.84285714285716,1334.1,421.93660714285716,305.84285714285716,1434.2,421.93660714285716,305.84285714285716,1539.8,421.93660714285716,305.84285714285716,1644.3,421.93660714285716,305.84285714285716,1749,421.93660714285716,305.84285714285716,1854.1,421.93660714285716,305.84285714285716,1954.2,421.93660714285716,305.84285714285716,2054.2,421.93660714285716,305.84285714285716,2155.2,421.93660714285716,305.84285714285716,2258.9,421.93660714285716,305.84285714285716,2363.6,421.93660714285716,305.84285714285716,2469.2,421.93660714285716,305.84285714285716,2569.7,421.93660714285716,305.84285714285716,2674.1,421.93660714285716,305.84285714285716,2774.3,421.93660714285716,305.84285714285716,2874.3,421.93660714285716,305.84285714285716,2978.5,421.93660714285716,305.84285714285716,3078.5,421.93660714285716,305.84285714285716,3178.6,421.93660714285716,305.84285714285716,3284.1,421.93660714285716,305.84285714285716,3384.8,421.93660714285716,305.84285714285716,3489.3,421.93660714285716,305.84285714285716,3593.9,421.93660714285716,305.84285714285716,3694.3,421.93660714285716,305.84285714285716,3799.6,421.93660714285716,305.84285714285716,3904.5,421.93660714285716,305.84285714285716,4004.5,421.93660714285716,305.84285714285716,4109.3,421.93660714285716,305.84285714285716,4209.4,421.93660714285716,305.84285714285716,4314.3,421.93660714285716,305.84285714285716,4419.1,421.93660714285716,305.84285714285716,4520.2,421.93660714285716,305.84285714285716,4620.1,421.93660714285716,305.84285714285716,4724,421.93660714285716,305.84285714285716,4824.4,421.93660714285716,305.84285714285716,4928.6]","[1507,1507,1000,0,507,""smooth"",""down"",""down"",""good_move"",4378.5,2871.2,2538.9,1507.3,332.3,""while_blue"",""left"",""right"",""bad_move"",11050.4,6671.7,2943.3,7685.2,421.9,""smooth"",""down"",""down"",""good_move"",13682.7,2632.2,2121.1,11050.5,511.1,""smooth"",""down"",""down"",""good_move"",16579.1,2896.3,2533.6,13682.8,362.7,""smooth"",""left"",""left"",""good_move"",19490.4,2911.1,2530.8,16579.3,380.3,""smooth"",""left"",""left"",""good_move"",21594.6,2104.2,1740.5,19490.4,363.7,""smooth"",""left"",""left"",""good_move"",24922.6,3327.9,2874.3,21594.7,453.6,""smooth"",""left"",""left"",""good_move""]","",""
"2580","","<div style=""width:500px;"">
  <p>What determined the result of this run?</p>
  </div>","100","html-slider-response","47","665235","0.0-10.0-1.1","59","1","2025-07-02 10:18:56","80fe4187154257d5fb01684ea91b68b9","83.240.176.93","Mozilla/5.0 (Windows NT 10.0; Win64; x64) AppleWebKit/537.36 (KHTML, like Gecko) Chrome/138.0.0.0 Safari/537.36 Edg/138.0.0.0","WebKit","Edge","138.0.0.0","Windows","10.0","https://app.prolific.com/","pt-PT,pt;q=0.9,pt-BR;q=0.8,en;q=0.7,en-US;q=0.6,en-GB;q=0.5,es;q=0.4","6523351ec0163b9e739d13ab","683db6dfa200031b80f2a654","686507537d989fcf0e7b6d20","6523351ec0163b9e739d13ab","2025-07-02T10:30:02.566Z","","","","","","AttribQ","","","","","","","","","","","","","","","","","","","","","","","","","","","","","","","","","","","","","","50"
"2151","","<div style=""width:500px;"">
  <p>How much control did you have over the ball?</p>
  </div>","100","html-slider-response","48","667386","0.0-10.0-2.1","59","1","2025-07-02 10:18:56","80fe4187154257d5fb01684ea91b68b9","83.240.176.93","Mozilla/5.0 (Windows NT 10.0; Win64; x64) AppleWebKit/537.36 (KHTML, like Gecko) Chrome/138.0.0.0 Safari/537.36 Edg/138.0.0.0","WebKit","Edge","138.0.0.0","Windows","10.0","https://app.prolific.com/","pt-PT,pt;q=0.9,pt-BR;q=0.8,en;q=0.7,en-US;q=0.6,en-GB;q=0.5,es;q=0.4","6523351ec0163b9e739d13ab","683db6dfa200031b80f2a654","686507537d989fcf0e7b6d20","6523351ec0163b9e739d13ab","2025-07-02T10:30:04.717Z","","","","","","ControlQ","","","","","","","","","","","","","","","","","","","","","","","","","","","","","","","","","","","","","","50"
"1752","","<div style=""width:500px;"">
  <p>How would you describe your current emotional state?</p>
  </div>","78","html-slider-response","49","669138","0.0-10.0-3.1","59","1","2025-07-02 10:18:56","80fe4187154257d5fb01684ea91b68b9","83.240.176.93","Mozilla/5.0 (Windows NT 10.0; Win64; x64) AppleWebKit/537.36 (KHTML, like Gecko) Chrome/138.0.0.0 Safari/537.36 Edg/138.0.0.0","WebKit","Edge","138.0.0.0","Windows","10.0","https://app.prolific.com/","pt-PT,pt;q=0.9,pt-BR;q=0.8,en;q=0.7,en-US;q=0.6,en-GB;q=0.5,es;q=0.4","6523351ec0163b9e739d13ab","683db6dfa200031b80f2a654","686507537d989fcf0e7b6d20","6523351ec0163b9e739d13ab","2025-07-02T10:30:06.469Z","","","","","","StressQ","","","","","","","","","","","","","","","","","","","","","","","","","","","","","","","","","","","","","","50"
"1839","","<div style=""width:500px;"">
  <p>What best describes how you currently feel?</p>
  </div>","100","html-slider-response","50","670978","0.0-10.0-4.1","59","1","2025-07-02 10:18:56","80fe4187154257d5fb01684ea91b68b9","83.240.176.93","Mozilla/5.0 (Windows NT 10.0; Win64; x64) AppleWebKit/537.36 (KHTML, like Gecko) Chrome/138.0.0.0 Safari/537.36 Edg/138.0.0.0","WebKit","Edge","138.0.0.0","Windows","10.0","https://app.prolific.com/","pt-PT,pt;q=0.9,pt-BR;q=0.8,en;q=0.7,en-US;q=0.6,en-GB;q=0.5,es;q=0.4","6523351ec0163b9e739d13ab","683db6dfa200031b80f2a654","686507537d989fcf0e7b6d20","6523351ec0163b9e739d13ab","2025-07-02T10:30:08.309Z","","","","","","MotivationQ","","","","","","","","","","","","","","","","","","","","","","","","","","","","","","","","","","","","","","50"
"","","","","ctl-task-cpt","51","707942","0.0-10.0-0.2","59","1","2025-07-02 10:18:56","80fe4187154257d5fb01684ea91b68b9","83.240.176.93","Mozilla/5.0 (Windows NT 10.0; Win64; x64) AppleWebKit/537.36 (KHTML, like Gecko) Chrome/138.0.0.0 Safari/537.36 Edg/138.0.0.0","WebKit","Edge","138.0.0.0","Windows","10.0","https://app.prolific.com/","pt-PT,pt;q=0.9,pt-BR;q=0.8,en;q=0.7,en-US;q=0.6,en-GB;q=0.5,es;q=0.4","6523351ec0163b9e739d13ab","683db6dfa200031b80f2a654","686507537d989fcf0e7b6d20","6523351ec0163b9e739d13ab","2025-07-02T10:30:45.273Z","","","","","","","","","","","","","","","","win-only","0","g1:NW,g2:SE","0.8","3","0","672269.8","1240","6240.9","33946.1","1","4","8","6","2","8","8","17","9","0.12878787878787878","5000.9","3000","65","[""down"",""right""]","{""num_key_presses"":8,""num_perfect"":7,""num_errors"":0,""num_randdir"":1,""num_randdir_good_moves"":0,""num_whilered"":0,""num_whileblue"":0,""num_blue"":2,""num_good_moves"":7}","[358.93660714285716,366.84285714285716,0.2,358.93660714285716,366.84285714285716,101,358.93660714285716,366.84285714285716,205.3,358.93660714285716,366.84285714285716,310.2,358.93660714285716,366.84285714285716,411,358.93660714285716,366.84285714285716,515.9,358.93660714285716,359.84285714285716,621,318.93660714285716,324.84285714285716,721.7,318.93660714285716,324.84285714285716,826.7,318.93660714285716,324.84285714285716,926.9,318.93660714285716,324.84285714285716,1032.3,318.93660714285716,324.84285714285716,1136.6,318.93660714285716,324.84285714285716,1236.7,318.93660714285716,324.84285714285716,1341.3,318.93660714285716,324.84285714285716,1445.4,318.93660714285716,324.84285714285716,1545.7,318.93660714285716,324.84285714285716,1645.7,318.93660714285716,324.84285714285716,1751.1,318.93660714285716,324.84285714285716,1851.1,318.93660714285716,324.84285714285716,1951.4,318.93660714285716,324.84285714285716,2057.1,318.93660714285716,324.84285714285716,2160.2,318.93660714285716,324.84285714285716,2261.8,318.93660714285716,324.84285714285716,2365.4,318.93660714285716,324.84285714285716,2466,318.93660714285716,324.84285714285716,2567.1,318.93660714285716,324.84285714285716,2670.5,318.93660714285716,324.84285714285716,2770.4,318.93660714285716,324.84285714285716,2870.7,318.93660714285716,324.84285714285716,2976.4,318.93660714285716,324.84285714285716,3081.6,318.93660714285716,324.84285714285716,3186.4,318.93660714285716,324.84285714285716,3290.4,318.93660714285716,324.84285714285716,3390.7,318.93660714285716,324.84285714285716,3491.6,318.93660714285716,324.84285714285716,3591.7,318.93660714285716,324.84285714285716,3695.7,318.93660714285716,324.84285714285716,3801.1,318.93660714285716,324.84285714285716,3906.3,318.93660714285716,324.84285714285716,4011,318.93660714285716,324.84285714285716,4111.3,318.93660714285716,324.84285714285716,4211.3,318.93660714285716,324.84285714285716,4315.9,318.93660714285716,324.84285714285716,4420.8,318.93660714285716,324.84285714285716,4521,318.93660714285716,324.84285714285716,4621,318.93660714285716,324.84285714285716,4721,318.93660714285716,324.84285714285716,4826,318.93660714285716,324.84285714285716,4926.1]","[1429.8,1429.8,1000,0,429.8,""smooth"",""down"",""down"",""good_move"",4574.6,3144.6,2785.4,1430,359.2,""smooth"",""down"",""down"",""good_move"",7261.6,2686.9,2298.6,4574.7,388.3,""smooth"",""right"",""right"",""good_move"",14189.4,6927.7,2591,11215.3,383.1,""oops"",""right"",""left"",""bad_move"",16998,2808.4,2479.8,14189.6,328.6,""smooth"",""right"",""right"",""good_move"",19189.6,2191.5,1839,16998.1,352.5,""smooth"",""down"",""down"",""good_move"",21901.7,2712,2397.8,19189.7,314.2,""smooth"",""right"",""right"",""good_move"",27613.6,5711.9,2070.2,25110.5,432.9,""smooth"",""right"",""right"",""good_move""]","",""
"3026","","<div style=""width:500px;"">
  <p>What determined the result of this run?</p>
  </div>","91","html-slider-response","52","710970","0.0-10.0-1.2","59","1","2025-07-02 10:18:56","80fe4187154257d5fb01684ea91b68b9","83.240.176.93","Mozilla/5.0 (Windows NT 10.0; Win64; x64) AppleWebKit/537.36 (KHTML, like Gecko) Chrome/138.0.0.0 Safari/537.36 Edg/138.0.0.0","WebKit","Edge","138.0.0.0","Windows","10.0","https://app.prolific.com/","pt-PT,pt;q=0.9,pt-BR;q=0.8,en;q=0.7,en-US;q=0.6,en-GB;q=0.5,es;q=0.4","6523351ec0163b9e739d13ab","683db6dfa200031b80f2a654","686507537d989fcf0e7b6d20","6523351ec0163b9e739d13ab","2025-07-02T10:30:48.301Z","","","","","","AttribQ","","","","","","","","","","","","","","","","","","","","","","","","","","","","","","","","","","","","","","50"
"4239","","<div style=""width:500px;"">
  <p>How much control did you have over the ball?</p>
  </div>","80","html-slider-response","53","715210","0.0-10.0-2.2","59","1","2025-07-02 10:18:56","80fe4187154257d5fb01684ea91b68b9","83.240.176.93","Mozilla/5.0 (Windows NT 10.0; Win64; x64) AppleWebKit/537.36 (KHTML, like Gecko) Chrome/138.0.0.0 Safari/537.36 Edg/138.0.0.0","WebKit","Edge","138.0.0.0","Windows","10.0","https://app.prolific.com/","pt-PT,pt;q=0.9,pt-BR;q=0.8,en;q=0.7,en-US;q=0.6,en-GB;q=0.5,es;q=0.4","6523351ec0163b9e739d13ab","683db6dfa200031b80f2a654","686507537d989fcf0e7b6d20","6523351ec0163b9e739d13ab","2025-07-02T10:30:52.541Z","","","","","","ControlQ","","","","","","","","","","","","","","","","","","","","","","","","","","","","","","","","","","","","","","50"
"2959","","<div style=""width:500px;"">
  <p>How would you describe your current emotional state?</p>
  </div>","59","html-slider-response","54","718170","0.0-10.0-3.2","59","1","2025-07-02 10:18:56","80fe4187154257d5fb01684ea91b68b9","83.240.176.93","Mozilla/5.0 (Windows NT 10.0; Win64; x64) AppleWebKit/537.36 (KHTML, like Gecko) Chrome/138.0.0.0 Safari/537.36 Edg/138.0.0.0","WebKit","Edge","138.0.0.0","Windows","10.0","https://app.prolific.com/","pt-PT,pt;q=0.9,pt-BR;q=0.8,en;q=0.7,en-US;q=0.6,en-GB;q=0.5,es;q=0.4","6523351ec0163b9e739d13ab","683db6dfa200031b80f2a654","686507537d989fcf0e7b6d20","6523351ec0163b9e739d13ab","2025-07-02T10:30:55.501Z","","","","","","StressQ","","","","","","","","","","","","","","","","","","","","","","","","","","","","","","","","","","","","","","50"
"1607","","<div style=""width:500px;"">
  <p>What best describes how you currently feel?</p>
  </div>","78","html-slider-response","55","719778","0.0-10.0-4.2","59","1","2025-07-02 10:18:56","80fe4187154257d5fb01684ea91b68b9","83.240.176.93","Mozilla/5.0 (Windows NT 10.0; Win64; x64) AppleWebKit/537.36 (KHTML, like Gecko) Chrome/138.0.0.0 Safari/537.36 Edg/138.0.0.0","WebKit","Edge","138.0.0.0","Windows","10.0","https://app.prolific.com/","pt-PT,pt;q=0.9,pt-BR;q=0.8,en;q=0.7,en-US;q=0.6,en-GB;q=0.5,es;q=0.4","6523351ec0163b9e739d13ab","683db6dfa200031b80f2a654","686507537d989fcf0e7b6d20","6523351ec0163b9e739d13ab","2025-07-02T10:30:57.109Z","","","","","","MotivationQ","","","","","","","","","","","","","","","","","","","","","","","","","","","","","","","","","","","","","","50"
"","","","","ctl-task-cpt","56","759137","0.0-10.0-0.3","59","1","2025-07-02 10:18:56","80fe4187154257d5fb01684ea91b68b9","83.240.176.93","Mozilla/5.0 (Windows NT 10.0; Win64; x64) AppleWebKit/537.36 (KHTML, like Gecko) Chrome/138.0.0.0 Safari/537.36 Edg/138.0.0.0","WebKit","Edge","138.0.0.0","Windows","10.0","https://app.prolific.com/","pt-PT,pt;q=0.9,pt-BR;q=0.8,en;q=0.7,en-US;q=0.6,en-GB;q=0.5,es;q=0.4","6523351ec0163b9e739d13ab","683db6dfa200031b80f2a654","686507537d989fcf0e7b6d20","6523351ec0163b9e739d13ab","2025-07-02T10:31:36.468Z","","","","","","","","","","","","","","","","win-only","3","g1:SW,g2:NE","0.7","4","0","721069.6","983.9","5985.4","36341.5","1","4","4","6","1","-1","-2","15","17","0.11363636363636363","5001.5","3000","-2990","[""down"",""left""]","{""num_key_presses"":7,""num_perfect"":5,""num_errors"":1,""num_randdir"":1,""num_randdir_good_moves"":0,""num_whilered"":0,""num_whileblue"":1,""num_blue"":3,""num_good_moves"":5}","[350.93660714285716,359.84285714285716,0.2,350.93660714285716,359.84285714285716,101.9,350.93660714285716,359.84285714285716,202.7,350.93660714285716,359.84285714285716,309.2,350.93660714285716,359.84285714285716,411.7,350.93660714285716,359.84285714285716,511.8,350.93660714285716,359.84285714285716,612.2,350.93660714285716,359.84285714285716,717.8,350.93660714285716,359.84285714285716,821.8,350.93660714285716,359.84285714285716,926.7,350.93660714285716,359.84285714285716,1031.3,350.93660714285716,359.84285714285716,1131.5,350.93660714285716,359.84285714285716,1231.7,350.93660714285716,359.84285714285716,1331.7,350.93660714285716,359.84285714285716,1432.6,350.93660714285716,359.84285714285716,1532.6,350.93660714285716,359.84285714285716,1632.8,350.93660714285716,359.84285714285716,1736.6,350.93660714285716,359.84285714285716,1836.7,350.93660714285716,359.84285714285716,1936.7,350.93660714285716,359.84285714285716,2036.7,350.93660714285716,359.84285714285716,2141.7,350.93660714285716,359.84285714285716,2241.9,350.93660714285716,359.84285714285716,2342.2,350.93660714285716,359.84285714285716,2442.5,350.93660714285716,359.84285714285716,2547.7,350.93660714285716,359.84285714285716,2647.9,350.93660714285716,359.84285714285716,2751.9,350.93660714285716,359.84285714285716,2852.6,350.93660714285716,359.84285714285716,2957.8,350.93660714285716,359.84285714285716,3061.8,350.93660714285716,359.84285714285716,3166.5,350.93660714285716,359.84285714285716,3267.7,350.93660714285716,359.84285714285716,3373,350.93660714285716,359.84285714285716,3476.6,350.93660714285716,360.84285714285716,3577.2,350.93660714285716,360.84285714285716,3678,350.93660714285716,360.84285714285716,3782.6,350.93660714285716,360.84285714285716,3886.7,350.93660714285716,360.84285714285716,3986.6,350.93660714285716,360.84285714285716,4086.7,350.93660714285716,360.84285714285716,4191.7,350.93660714285716,360.84285714285716,4293,350.93660714285716,360.84285714285716,4397.7,350.93660714285716,360.84285714285716,4497.8,350.93660714285716,360.84285714285716,4602.4,350.93660714285716,360.84285714285716,4706.4,350.93660714285716,360.84285714285716,4809.6,350.93660714285716,360.84285714285716,4911.6]","[1902.9,1902.9,1000,0,902.9,""smooth"",""down"",""down"",""good_move"",4909.3,3006.2,2567.1,1903.2,439,""smooth"",""down"",""down"",""good_move"",7349.2,2439.8,2086.8,4909.4,353,""while_blue"",""left"",""right"",""bad_move"",10789.3,3439.8,2880.6,7349.5,559.2,""smooth"",""left"",""left"",""good_move"",17967.2,7177.8,3071.9,14435.6,459.7,""oops"",""left"",""right"",""bad_move"",24637.1,6669.7,2869.7,21485.7,281.7,""smooth"",""left"",""left"",""good_move"",28117.5,3480.2,3148.3,24637.3,331.9,""smooth"",""left"",""left"",""good_move""]","",""
"25990","","<div style=""width:500px;"">
  <p>What determined the result of this run?</p>
  </div>","27","html-slider-response","57","785130","0.0-10.0-1.3","59","1","2025-07-02 10:18:56","80fe4187154257d5fb01684ea91b68b9","83.240.176.93","Mozilla/5.0 (Windows NT 10.0; Win64; x64) AppleWebKit/537.36 (KHTML, like Gecko) Chrome/138.0.0.0 Safari/537.36 Edg/138.0.0.0","WebKit","Edge","138.0.0.0","Windows","10.0","https://app.prolific.com/","pt-PT,pt;q=0.9,pt-BR;q=0.8,en;q=0.7,en-US;q=0.6,en-GB;q=0.5,es;q=0.4","6523351ec0163b9e739d13ab","683db6dfa200031b80f2a654","686507537d989fcf0e7b6d20","6523351ec0163b9e739d13ab","2025-07-02T10:32:02.461Z","","","","","","AttribQ","","","","","","","","","","","","","","","","","","","","","","","","","","","","","","","","","","","","","","50"
"3037","","<div style=""width:500px;"">
  <p>How much control did you have over the ball?</p>
  </div>","29","html-slider-response","58","788169","0.0-10.0-2.3","59","1","2025-07-02 10:18:56","80fe4187154257d5fb01684ea91b68b9","83.240.176.93","Mozilla/5.0 (Windows NT 10.0; Win64; x64) AppleWebKit/537.36 (KHTML, like Gecko) Chrome/138.0.0.0 Safari/537.36 Edg/138.0.0.0","WebKit","Edge","138.0.0.0","Windows","10.0","https://app.prolific.com/","pt-PT,pt;q=0.9,pt-BR;q=0.8,en;q=0.7,en-US;q=0.6,en-GB;q=0.5,es;q=0.4","6523351ec0163b9e739d13ab","683db6dfa200031b80f2a654","686507537d989fcf0e7b6d20","6523351ec0163b9e739d13ab","2025-07-02T10:32:05.500Z","","","","","","ControlQ","","","","","","","","","","","","","","","","","","","","","","","","","","","","","","","","","","","","","","50"
"1847","","<div style=""width:500px;"">
  <p>How would you describe your current emotional state?</p>
  </div>","68","html-slider-response","59","790017","0.0-10.0-3.3","59","1","2025-07-02 10:18:56","80fe4187154257d5fb01684ea91b68b9","83.240.176.93","Mozilla/5.0 (Windows NT 10.0; Win64; x64) AppleWebKit/537.36 (KHTML, like Gecko) Chrome/138.0.0.0 Safari/537.36 Edg/138.0.0.0","WebKit","Edge","138.0.0.0","Windows","10.0","https://app.prolific.com/","pt-PT,pt;q=0.9,pt-BR;q=0.8,en;q=0.7,en-US;q=0.6,en-GB;q=0.5,es;q=0.4","6523351ec0163b9e739d13ab","683db6dfa200031b80f2a654","686507537d989fcf0e7b6d20","6523351ec0163b9e739d13ab","2025-07-02T10:32:07.348Z","","","","","","StressQ","","","","","","","","","","","","","","","","","","","","","","","","","","","","","","","","","","","","","","50"
"1679","","<div style=""width:500px;"">
  <p>What best describes how you currently feel?</p>
  </div>","67","html-slider-response","60","791697","0.0-10.0-4.3","59","1","2025-07-02 10:18:56","80fe4187154257d5fb01684ea91b68b9","83.240.176.93","Mozilla/5.0 (Windows NT 10.0; Win64; x64) AppleWebKit/537.36 (KHTML, like Gecko) Chrome/138.0.0.0 Safari/537.36 Edg/138.0.0.0","WebKit","Edge","138.0.0.0","Windows","10.0","https://app.prolific.com/","pt-PT,pt;q=0.9,pt-BR;q=0.8,en;q=0.7,en-US;q=0.6,en-GB;q=0.5,es;q=0.4","6523351ec0163b9e739d13ab","683db6dfa200031b80f2a654","686507537d989fcf0e7b6d20","6523351ec0163b9e739d13ab","2025-07-02T10:32:09.028Z","","","","","","MotivationQ","","","","","","","","","","","","","","","","","","","","","","","","","","","","","","","","","","","","","","50"
"","","","","ctl-task-cpt","61","899666","0.0-10.0-0.4","59","1","2025-07-02 10:18:56","80fe4187154257d5fb01684ea91b68b9","83.240.176.93","Mozilla/5.0 (Windows NT 10.0; Win64; x64) AppleWebKit/537.36 (KHTML, like Gecko) Chrome/138.0.0.0 Safari/537.36 Edg/138.0.0.0","WebKit","Edge","138.0.0.0","Windows","10.0","https://app.prolific.com/","pt-PT,pt;q=0.9,pt-BR;q=0.8,en;q=0.7,en-US;q=0.6,en-GB;q=0.5,es;q=0.4","6523351ec0163b9e739d13ab","683db6dfa200031b80f2a654","686507537d989fcf0e7b6d20","6523351ec0163b9e739d13ab","2025-07-02T10:33:56.997Z","","","","","","","","","","","","","","","","win-only","3","g1:SW,g2:NE","0.6","5","0","792989.8","54871.5","59875.8","104951.6","1","4","8","6","2","-8","-9","6","15","0.045454545454545456","5004.3","3000","-3010","[""up"",""right""]","{""num_key_presses"":9,""num_perfect"":6,""num_errors"":1,""num_randdir"":2,""num_randdir_good_moves"":0,""num_whilered"":0,""num_whileblue"":0,""num_blue"":4,""num_good_moves"":6}","[353.93660714285716,358.84285714285716,0.2,353.93660714285716,358.84285714285716,109.6,353.93660714285716,358.84285714285716,209.9,354.93660714285716,359.84285714285716,313.7,356.93660714285716,363.84285714285716,414.8,375.93660714285716,346.84285714285716,518.7,362.93660714285716,332.84285714285716,618.7,362.93660714285716,332.84285714285716,721.9,362.93660714285716,332.84285714285716,824.2,362.93660714285716,332.84285714285716,924.9,361.93660714285716,332.84285714285716,1028.7,361.93660714285716,332.84285714285716,1128.9,361.93660714285716,332.84285714285716,1228.9,361.93660714285716,332.84285714285716,1329.6,361.93660714285716,332.84285714285716,1434.7,361.93660714285716,332.84285714285716,1540.1,361.93660714285716,332.84285714285716,1644.4,361.93660714285716,332.84285714285716,1745.1,361.93660714285716,332.84285714285716,1849.3,361.93660714285716,332.84285714285716,1953.9,361.93660714285716,332.84285714285716,2054.8,361.93660714285716,332.84285714285716,2158.8,361.93660714285716,332.84285714285716,2260.3,361.93660714285716,332.84285714285716,2363.8,361.93660714285716,332.84285714285716,2465.2,361.93660714285716,332.84285714285716,2569.9,361.93660714285716,332.84285714285716,2670.1,361.93660714285716,332.84285714285716,2773.8,361.93660714285716,332.84285714285716,2875,361.93660714285716,332.84285714285716,2975.2,361.93660714285716,332.84285714285716,3079.4,361.93660714285716,332.84285714285716,3179.9,361.93660714285716,332.84285714285716,3283.8,361.93660714285716,332.84285714285716,3384.6,361.93660714285716,332.84285714285716,3484.6,361.93660714285716,332.84285714285716,3589.2,361.93660714285716,332.84285714285716,3690.3,361.93660714285716,332.84285714285716,3790.3,361.93660714285716,332.84285714285716,3893.8,361.93660714285716,332.84285714285716,3994.1,361.93660714285716,332.84285714285716,4099.3,361.93660714285716,332.84285714285716,4205.1,361.93660714285716,332.84285714285716,4309.7,361.93660714285716,332.84285714285716,4414.1,361.93660714285716,332.84285714285716,4514.5,361.93660714285716,332.84285714285716,4618.7,361.93660714285716,332.84285714285716,4720.1,361.93660714285716,332.84285714285716,4820.5,361.93660714285716,332.84285714285716,4923.8]","[5107.4,5107.4,2790.8,2010.5,306.1,""smooth"",""right"",""right"",""good_move"",8427.8,3320.2,2979.7,5107.6,340.5,""smooth"",""up"",""up"",""good_move"",11626.6,3198.5,2871.5,8428.1,327,""smooth"",""right"",""right"",""good_move"",15026.9,3400.1,3092.4,11626.8,307.7,""smooth"",""up"",""up"",""good_move"",30139,15112,2487.6,27252.1,399.3,""smooth"",""right"",""right"",""good_move"",33066.3,2927.1,2531.4,30139.2,395.7,""oops"",""up"",""down"",""bad_move"",36482.3,3415.9,3049.5,33066.4,366.4,""smooth"",""up"",""up"",""good_move"",39866.5,3384,2821.3,36482.5,562.7,""oops"",""up"",""down"",""bad_move"",42322.6,2456,2512.8,39866.6,-56.8,""error"",""-"",""-"",""no_move""]","",""
"2028","","<div style=""width:500px;"">
  <p>What determined the result of this run?</p>
  </div>","0","html-slider-response","62","901697","0.0-10.0-1.4","59","1","2025-07-02 10:18:56","80fe4187154257d5fb01684ea91b68b9","83.240.176.93","Mozilla/5.0 (Windows NT 10.0; Win64; x64) AppleWebKit/537.36 (KHTML, like Gecko) Chrome/138.0.0.0 Safari/537.36 Edg/138.0.0.0","WebKit","Edge","138.0.0.0","Windows","10.0","https://app.prolific.com/","pt-PT,pt;q=0.9,pt-BR;q=0.8,en;q=0.7,en-US;q=0.6,en-GB;q=0.5,es;q=0.4","6523351ec0163b9e739d13ab","683db6dfa200031b80f2a654","686507537d989fcf0e7b6d20","6523351ec0163b9e739d13ab","2025-07-02T10:33:59.028Z","","","","","","AttribQ","","","","","","","","","","","","","","","","","","","","","","","","","","","","","","","","","","","","","","50"
"2063","","<div style=""width:500px;"">
  <p>How much control did you have over the ball?</p>
  </div>","0","html-slider-response","63","903760","0.0-10.0-2.4","59","1","2025-07-02 10:18:56","80fe4187154257d5fb01684ea91b68b9","83.240.176.93","Mozilla/5.0 (Windows NT 10.0; Win64; x64) AppleWebKit/537.36 (KHTML, like Gecko) Chrome/138.0.0.0 Safari/537.36 Edg/138.0.0.0","WebKit","Edge","138.0.0.0","Windows","10.0","https://app.prolific.com/","pt-PT,pt;q=0.9,pt-BR;q=0.8,en;q=0.7,en-US;q=0.6,en-GB;q=0.5,es;q=0.4","6523351ec0163b9e739d13ab","683db6dfa200031b80f2a654","686507537d989fcf0e7b6d20","6523351ec0163b9e739d13ab","2025-07-02T10:34:01.091Z","","","","","","ControlQ","","","","","","","","","","","","","","","","","","","","","","","","","","","","","","","","","","","","","","50"
"2712","","<div style=""width:500px;"">
  <p>How would you describe your current emotional state?</p>
  </div>","92","html-slider-response","64","906472","0.0-10.0-3.4","59","1","2025-07-02 10:18:56","80fe4187154257d5fb01684ea91b68b9","83.240.176.93","Mozilla/5.0 (Windows NT 10.0; Win64; x64) AppleWebKit/537.36 (KHTML, like Gecko) Chrome/138.0.0.0 Safari/537.36 Edg/138.0.0.0","WebKit","Edge","138.0.0.0","Windows","10.0","https://app.prolific.com/","pt-PT,pt;q=0.9,pt-BR;q=0.8,en;q=0.7,en-US;q=0.6,en-GB;q=0.5,es;q=0.4","6523351ec0163b9e739d13ab","683db6dfa200031b80f2a654","686507537d989fcf0e7b6d20","6523351ec0163b9e739d13ab","2025-07-02T10:34:03.803Z","","","","","","StressQ","","","","","","","","","","","","","","","","","","","","","","","","","","","","","","","","","","","","","","50"
"2863","","<div style=""width:500px;"">
  <p>What best describes how you currently feel?</p>
  </div>","37","html-slider-response","65","909336","0.0-10.0-4.4","59","1","2025-07-02 10:18:56","80fe4187154257d5fb01684ea91b68b9","83.240.176.93","Mozilla/5.0 (Windows NT 10.0; Win64; x64) AppleWebKit/537.36 (KHTML, like Gecko) Chrome/138.0.0.0 Safari/537.36 Edg/138.0.0.0","WebKit","Edge","138.0.0.0","Windows","10.0","https://app.prolific.com/","pt-PT,pt;q=0.9,pt-BR;q=0.8,en;q=0.7,en-US;q=0.6,en-GB;q=0.5,es;q=0.4","6523351ec0163b9e739d13ab","683db6dfa200031b80f2a654","686507537d989fcf0e7b6d20","6523351ec0163b9e739d13ab","2025-07-02T10:34:06.667Z","","","","","","MotivationQ","","","","","","","","","","","","","","","","","","","","","","","","","","","","","","","","","","","","","","50"
"","","","","ctl-task-cpt","66","938240","0.0-10.0-0.5","59","1","2025-07-02 10:18:56","80fe4187154257d5fb01684ea91b68b9","83.240.176.93","Mozilla/5.0 (Windows NT 10.0; Win64; x64) AppleWebKit/537.36 (KHTML, like Gecko) Chrome/138.0.0.0 Safari/537.36 Edg/138.0.0.0","WebKit","Edge","138.0.0.0","Windows","10.0","https://app.prolific.com/","pt-PT,pt;q=0.9,pt-BR;q=0.8,en;q=0.7,en-US;q=0.6,en-GB;q=0.5,es;q=0.4","6523351ec0163b9e739d13ab","683db6dfa200031b80f2a654","686507537d989fcf0e7b6d20","6523351ec0163b9e739d13ab","2025-07-02T10:34:35.572Z","","","","","","","","","","","","","","","","win-only","0","g1:NW,g2:SE","0.5","6","0","910629.5","1072","6076.7","25886","1","4","4","6","2","-4","-4","2","6","0.015151515151515152","5004.6","3000","-2945","[""down"",""right""]","{""num_key_presses"":6,""num_perfect"":2,""num_errors"":0,""num_randdir"":4,""num_randdir_good_moves"":2,""num_whilered"":0,""num_whileblue"":0,""num_blue"":0,""num_good_moves"":4}","[360.93660714285716,360.84285714285716,0.2,360.93660714285716,360.84285714285716,104.5,360.93660714285716,360.84285714285716,208.6,360.93660714285716,360.84285714285716,309.5,360.93660714285716,360.84285714285716,413.3,360.93660714285716,360.84285714285716,516.4,360.93660714285716,360.84285714285716,619.1,360.93660714285716,360.84285714285716,723.2,360.93660714285716,360.84285714285716,824.1,360.93660714285716,360.84285714285716,929.3,360.93660714285716,360.84285714285716,1033.4,360.93660714285716,360.84285714285716,1134.7,360.93660714285716,360.84285714285716,1238.2,360.93660714285716,360.84285714285716,1339.6,360.93660714285716,360.84285714285716,1443.3,360.93660714285716,360.84285714285716,1549.8,360.93660714285716,360.84285714285716,1653.8,360.93660714285716,360.84285714285716,1753.9,360.93660714285716,360.84285714285716,1854.4,360.93660714285716,360.84285714285716,1958.2,360.93660714285716,360.84285714285716,2058.6,360.93660714285716,360.84285714285716,2159.4,360.93660714285716,360.84285714285716,2259.6,360.93660714285716,360.84285714285716,2363.5,360.93660714285716,360.84285714285716,2464,360.93660714285716,360.84285714285716,2567,360.93660714285716,360.84285714285716,2668.8,360.93660714285716,360.84285714285716,2773.7,360.93660714285716,360.84285714285716,2874.8,360.93660714285716,360.84285714285716,2978.6,360.93660714285716,360.84285714285716,3079,360.93660714285716,360.84285714285716,3179.2,360.93660714285716,360.84285714285716,3284.9,360.93660714285716,360.84285714285716,3388.5,360.93660714285716,360.84285714285716,3488.6,360.93660714285716,360.84285714285716,3589.6,360.93660714285716,360.84285714285716,3693.5,360.93660714285716,360.84285714285716,3794,360.93660714285716,360.84285714285716,3894.1,360.93660714285716,360.84285714285716,3999.7,360.93660714285716,360.84285714285716,4103.9,360.93660714285716,360.84285714285716,4204.5,360.93660714285716,360.84285714285716,4308.4,360.93660714285716,360.84285714285716,4414,360.93660714285716,360.84285714285716,4514.2,360.93660714285716,360.84285714285716,4619.6,360.93660714285716,360.84285714285716,4719.7,360.93660714285716,360.84285714285716,4824.2,360.93660714285716,360.84285714285716,4929.3]","[1561.9,1561.9,1000,0,561.9,""oops"",""right"",""down"",""good_move"",5657.7,4095.5,3370.1,1562.2,725.4,""oops"",""right"",""down"",""good_move"",8177.8,2520,2111.6,5657.8,408.4,""smooth"",""right"",""right"",""good_move"",10825.5,2647.5,2265.9,8178,381.6,""oops"",""right"",""left"",""bad_move"",13705.9,2880.2,2475.8,10825.7,404.4,""smooth"",""down"",""down"",""good_move"",16514.3,2807.9,2414.2,13706.4,393.7,""oops"",""left"",""left"",""bad_move""]","",""
"2421","","<div style=""width:500px;"">
  <p>What determined the result of this run?</p>
  </div>","0","html-slider-response","67","940664","0.0-10.0-1.5","59","1","2025-07-02 10:18:56","80fe4187154257d5fb01684ea91b68b9","83.240.176.93","Mozilla/5.0 (Windows NT 10.0; Win64; x64) AppleWebKit/537.36 (KHTML, like Gecko) Chrome/138.0.0.0 Safari/537.36 Edg/138.0.0.0","WebKit","Edge","138.0.0.0","Windows","10.0","https://app.prolific.com/","pt-PT,pt;q=0.9,pt-BR;q=0.8,en;q=0.7,en-US;q=0.6,en-GB;q=0.5,es;q=0.4","6523351ec0163b9e739d13ab","683db6dfa200031b80f2a654","686507537d989fcf0e7b6d20","6523351ec0163b9e739d13ab","2025-07-02T10:34:37.995Z","","","","","","AttribQ","","","","","","","","","","","","","","","","","","","","","","","","","","","","","","","","","","","","","","50"
"1872","","<div style=""width:500px;"">
  <p>How much control did you have over the ball?</p>
  </div>","0","html-slider-response","68","942537","0.0-10.0-2.5","59","1","2025-07-02 10:18:56","80fe4187154257d5fb01684ea91b68b9","83.240.176.93","Mozilla/5.0 (Windows NT 10.0; Win64; x64) AppleWebKit/537.36 (KHTML, like Gecko) Chrome/138.0.0.0 Safari/537.36 Edg/138.0.0.0","WebKit","Edge","138.0.0.0","Windows","10.0","https://app.prolific.com/","pt-PT,pt;q=0.9,pt-BR;q=0.8,en;q=0.7,en-US;q=0.6,en-GB;q=0.5,es;q=0.4","6523351ec0163b9e739d13ab","683db6dfa200031b80f2a654","686507537d989fcf0e7b6d20","6523351ec0163b9e739d13ab","2025-07-02T10:34:39.868Z","","","","","","ControlQ","","","","","","","","","","","","","","","","","","","","","","","","","","","","","","","","","","","","","","50"
"3327","","<div style=""width:500px;"">
  <p>How would you describe your current emotional state?</p>
  </div>","100","html-slider-response","69","945864","0.0-10.0-3.5","59","1","2025-07-02 10:18:56","80fe4187154257d5fb01684ea91b68b9","83.240.176.93","Mozilla/5.0 (Windows NT 10.0; Win64; x64) AppleWebKit/537.36 (KHTML, like Gecko) Chrome/138.0.0.0 Safari/537.36 Edg/138.0.0.0","WebKit","Edge","138.0.0.0","Windows","10.0","https://app.prolific.com/","pt-PT,pt;q=0.9,pt-BR;q=0.8,en;q=0.7,en-US;q=0.6,en-GB;q=0.5,es;q=0.4","6523351ec0163b9e739d13ab","683db6dfa200031b80f2a654","686507537d989fcf0e7b6d20","6523351ec0163b9e739d13ab","2025-07-02T10:34:43.195Z","","","","","","StressQ","","","","","","","","","","","","","","","","","","","","","","","","","","","","","","","","","","","","","","50"
"1663","","<div style=""width:500px;"">
  <p>What best describes how you currently feel?</p>
  </div>","0","html-slider-response","70","947528","0.0-10.0-4.5","59","1","2025-07-02 10:18:56","80fe4187154257d5fb01684ea91b68b9","83.240.176.93","Mozilla/5.0 (Windows NT 10.0; Win64; x64) AppleWebKit/537.36 (KHTML, like Gecko) Chrome/138.0.0.0 Safari/537.36 Edg/138.0.0.0","WebKit","Edge","138.0.0.0","Windows","10.0","https://app.prolific.com/","pt-PT,pt;q=0.9,pt-BR;q=0.8,en;q=0.7,en-US;q=0.6,en-GB;q=0.5,es;q=0.4","6523351ec0163b9e739d13ab","683db6dfa200031b80f2a654","686507537d989fcf0e7b6d20","6523351ec0163b9e739d13ab","2025-07-02T10:34:44.859Z","","","","","","MotivationQ","","","","","","","","","","","","","","","","","","","","","","","","","","","","","","","","","","","","","","50"
"","","","","ctl-task-cpt","71","985834","0.0-10.0-0.6","59","1","2025-07-02 10:18:56","80fe4187154257d5fb01684ea91b68b9","83.240.176.93","Mozilla/5.0 (Windows NT 10.0; Win64; x64) AppleWebKit/537.36 (KHTML, like Gecko) Chrome/138.0.0.0 Safari/537.36 Edg/138.0.0.0","WebKit","Edge","138.0.0.0","Windows","10.0","https://app.prolific.com/","pt-PT,pt;q=0.9,pt-BR;q=0.8,en;q=0.7,en-US;q=0.6,en-GB;q=0.5,es;q=0.4","6523351ec0163b9e739d13ab","683db6dfa200031b80f2a654","686507537d989fcf0e7b6d20","6523351ec0163b9e739d13ab","2025-07-02T10:35:23.165Z","","","","","","","","","","","","","","","","win-only","3","g1:SW,g2:NE","0.4","7","0","948821.4","976.1","5980.8","35285.1","1","4","4","6","1","-1","-1","1","2","0.007575757575757576","5004.7","3000","-2805","[""down"",""left""]","{""num_key_presses"":8,""num_perfect"":4,""num_errors"":0,""num_randdir"":4,""num_randdir_good_moves"":1,""num_whilered"":0,""num_whileblue"":0,""num_blue"":1,""num_good_moves"":5}","[352.93660714285716,364.84285714285716,0.1,352.93660714285716,364.84285714285716,104.4,352.93660714285716,364.84285714285716,205,352.93660714285716,364.84285714285716,310.6,352.93660714285716,364.84285714285716,414.4,352.93660714285716,369.84285714285716,514.6,352.93660714285716,373.84285714285716,620.5,352.93660714285716,373.84285714285716,724.1,352.93660714285716,373.84285714285716,824.1,351.93660714285716,379.84285714285716,924.5,347.93660714285716,388.84285714285716,1028.6,347.93660714285716,388.84285714285716,1129.3,347.93660714285716,388.84285714285716,1230.7,347.93660714285716,389.84285714285716,1334.9,347.93660714285716,389.84285714285716,1435.3,347.93660714285716,389.84285714285716,1542.5,347.93660714285716,389.84285714285716,1644.8,347.93660714285716,389.84285714285716,1760.2,347.93660714285716,389.84285714285716,1865.7,347.93660714285716,389.84285714285716,1972.7,347.93660714285716,389.84285714285716,2074.6,347.93660714285716,389.84285714285716,2175.2,347.93660714285716,389.84285714285716,2275.7,347.93660714285716,389.84285714285716,2379.4,347.93660714285716,389.84285714285716,2484.2,347.93660714285716,389.84285714285716,2584.6,347.93660714285716,389.84285714285716,2694.9,347.93660714285716,389.84285714285716,2802.5,347.93660714285716,389.84285714285716,2904.6,347.93660714285716,389.84285714285716,3009.5,347.93660714285716,389.84285714285716,3110.2,347.93660714285716,389.84285714285716,3214.6,347.93660714285716,389.84285714285716,3318.9,347.93660714285716,389.84285714285716,3419.2,347.93660714285716,389.84285714285716,3520.2,347.93660714285716,389.84285714285716,3623.3,347.93660714285716,389.84285714285716,3724.8,347.93660714285716,389.84285714285716,3829.3,347.93660714285716,389.84285714285716,3929.8,347.93660714285716,389.84285714285716,4030,347.93660714285716,389.84285714285716,4135.5,347.93660714285716,389.84285714285716,4239.9,347.93660714285716,389.84285714285716,4340,347.93660714285716,389.84285714285716,4444.9,347.93660714285716,389.84285714285716,4549.3,347.93660714285716,389.84285714285716,4662.4,347.93660714285716,389.84285714285716,4765.1,347.93660714285716,389.84285714285716,4870,347.93660714285716,389.84285714285716,4974.4]","[1386,1386,1000,0,386,""smooth"",""down"",""down"",""good_move"",4298.2,2912,2480.3,1386.3,431.6,""smooth"",""left"",""left"",""good_move"",7362,3063.5,2569.8,4298.5,493.7,""oops"",""left"",""right"",""bad_move"",10446.8,3084.6,2712.2,7362.2,372.4,""smooth"",""left"",""left"",""good_move"",18082.3,7635.4,2955.7,14739.7,386.9,""oops"",""down"",""left"",""good_move"",20169.7,2087.2,1694.7,18082.5,392.5,""oops"",""down"",""up"",""bad_move"",23385.4,3215.6,2863.9,20169.8,351.7,""smooth"",""down"",""down"",""good_move"",26102.4,2716.8,2398.6,23385.6,318.2,""oops"",""up"",""up"",""bad_move""]","",""
"1954","","<div style=""width:500px;"">
  <p>What determined the result of this run?</p>
  </div>","0","html-slider-response","72","987790","0.0-10.0-1.6","59","1","2025-07-02 10:18:56","80fe4187154257d5fb01684ea91b68b9","83.240.176.93","Mozilla/5.0 (Windows NT 10.0; Win64; x64) AppleWebKit/537.36 (KHTML, like Gecko) Chrome/138.0.0.0 Safari/537.36 Edg/138.0.0.0","WebKit","Edge","138.0.0.0","Windows","10.0","https://app.prolific.com/","pt-PT,pt;q=0.9,pt-BR;q=0.8,en;q=0.7,en-US;q=0.6,en-GB;q=0.5,es;q=0.4","6523351ec0163b9e739d13ab","683db6dfa200031b80f2a654","686507537d989fcf0e7b6d20","6523351ec0163b9e739d13ab","2025-07-02T10:35:25.121Z","","","","","","AttribQ","","","","","","","","","","","","","","","","","","","","","","","","","","","","","","","","","","","","","","50"
"1695","","<div style=""width:500px;"">
  <p>How much control did you have over the ball?</p>
  </div>","0","html-slider-response","73","989486","0.0-10.0-2.6","59","1","2025-07-02 10:18:56","80fe4187154257d5fb01684ea91b68b9","83.240.176.93","Mozilla/5.0 (Windows NT 10.0; Win64; x64) AppleWebKit/537.36 (KHTML, like Gecko) Chrome/138.0.0.0 Safari/537.36 Edg/138.0.0.0","WebKit","Edge","138.0.0.0","Windows","10.0","https://app.prolific.com/","pt-PT,pt;q=0.9,pt-BR;q=0.8,en;q=0.7,en-US;q=0.6,en-GB;q=0.5,es;q=0.4","6523351ec0163b9e739d13ab","683db6dfa200031b80f2a654","686507537d989fcf0e7b6d20","6523351ec0163b9e739d13ab","2025-07-02T10:35:26.818Z","","","","","","ControlQ","","","","","","","","","","","","","","","","","","","","","","","","","","","","","","","","","","","","","","50"
"2111","","<div style=""width:500px;"">
  <p>How would you describe your current emotional state?</p>
  </div>","50","html-slider-response","74","991598","0.0-10.0-3.6","59","1","2025-07-02 10:18:56","80fe4187154257d5fb01684ea91b68b9","83.240.176.93","Mozilla/5.0 (Windows NT 10.0; Win64; x64) AppleWebKit/537.36 (KHTML, like Gecko) Chrome/138.0.0.0 Safari/537.36 Edg/138.0.0.0","WebKit","Edge","138.0.0.0","Windows","10.0","https://app.prolific.com/","pt-PT,pt;q=0.9,pt-BR;q=0.8,en;q=0.7,en-US;q=0.6,en-GB;q=0.5,es;q=0.4","6523351ec0163b9e739d13ab","683db6dfa200031b80f2a654","686507537d989fcf0e7b6d20","6523351ec0163b9e739d13ab","2025-07-02T10:35:28.929Z","","","","","","StressQ","","","","","","","","","","","","","","","","","","","","","","","","","","","","","","","","","","","","","","50"
"2504","","<div style=""width:500px;"">
  <p>What best describes how you currently feel?</p>
  </div>","50","html-slider-response","75","994102","0.0-10.0-4.6","59","1","2025-07-02 10:18:56","80fe4187154257d5fb01684ea91b68b9","83.240.176.93","Mozilla/5.0 (Windows NT 10.0; Win64; x64) AppleWebKit/537.36 (KHTML, like Gecko) Chrome/138.0.0.0 Safari/537.36 Edg/138.0.0.0","WebKit","Edge","138.0.0.0","Windows","10.0","https://app.prolific.com/","pt-PT,pt;q=0.9,pt-BR;q=0.8,en;q=0.7,en-US;q=0.6,en-GB;q=0.5,es;q=0.4","6523351ec0163b9e739d13ab","683db6dfa200031b80f2a654","686507537d989fcf0e7b6d20","6523351ec0163b9e739d13ab","2025-07-02T10:35:31.434Z","","","","","","MotivationQ","","","","","","","","","","","","","","","","","","","","","","","","","","","","","","","","","","","","","","50"
"","","","","ctl-task-cpt","76","1022823","0.0-10.0-0.7","59","1","2025-07-02 10:18:56","80fe4187154257d5fb01684ea91b68b9","83.240.176.93","Mozilla/5.0 (Windows NT 10.0; Win64; x64) AppleWebKit/537.36 (KHTML, like Gecko) Chrome/138.0.0.0 Safari/537.36 Edg/138.0.0.0","WebKit","Edge","138.0.0.0","Windows","10.0","https://app.prolific.com/","pt-PT,pt;q=0.9,pt-BR;q=0.8,en;q=0.7,en-US;q=0.6,en-GB;q=0.5,es;q=0.4","6523351ec0163b9e739d13ab","683db6dfa200031b80f2a654","686507537d989fcf0e7b6d20","6523351ec0163b9e739d13ab","2025-07-02T10:36:00.154Z","","","","","","","","","","","","","","","","win-only","1","g1:NE,g2:SW","0.3","8","0","995397.5","752","5755.5","25701","1","4","8","6","2","-8","-8","0","1","0","5003.5","3000","-2815","[""down"",""left""]","{""num_key_presses"":7,""num_perfect"":3,""num_errors"":0,""num_randdir"":4,""num_randdir_good_moves"":2,""num_whilered"":0,""num_whileblue"":0,""num_blue"":0,""num_good_moves"":5}","[357.93660714285716,356.84285714285716,0.1,357.93660714285716,356.84285714285716,101.4,357.93660714285716,356.84285714285716,203.3,355.93660714285716,362.84285714285716,303.6,355.93660714285716,362.84285714285716,408.5,355.93660714285716,362.84285714285716,510,355.93660714285716,362.84285714285716,613.8,355.93660714285716,362.84285714285716,713.9,355.93660714285716,362.84285714285716,815.1,355.93660714285716,362.84285714285716,919.7,355.93660714285716,362.84285714285716,1024.7,355.93660714285716,362.84285714285716,1124.7,355.93660714285716,362.84285714285716,1224.9,355.93660714285716,362.84285714285716,1328.2,355.93660714285716,362.84285714285716,1429.1,355.93660714285716,362.84285714285716,1543,355.93660714285716,362.84285714285716,1643.8,355.93660714285716,362.84285714285716,1749,355.93660714285716,362.84285714285716,1854.9,355.93660714285716,362.84285714285716,1959,355.93660714285716,362.84285714285716,2064.8,355.93660714285716,362.84285714285716,2169.1,355.93660714285716,362.84285714285716,2270.1,355.93660714285716,362.84285714285716,2370.2,355.93660714285716,362.84285714285716,2473.3,355.93660714285716,362.84285714285716,2579.9,355.93660714285716,362.84285714285716,2695.1,355.93660714285716,362.84285714285716,2798.3,355.93660714285716,362.84285714285716,2898.4,355.93660714285716,362.84285714285716,2998.4,355.93660714285716,362.84285714285716,3104.7,355.93660714285716,362.84285714285716,3208.5,355.93660714285716,362.84285714285716,3314.1,355.93660714285716,362.84285714285716,3419,355.93660714285716,362.84285714285716,3519.7,355.93660714285716,362.84285714285716,3620.4,355.93660714285716,362.84285714285716,3723.3,355.93660714285716,362.84285714285716,3824.6,355.93660714285716,362.84285714285716,3925.1,355.93660714285716,362.84285714285716,4029.8,355.93660714285716,362.84285714285716,4134.1,355.93660714285716,362.84285714285716,4235,355.93660714285716,362.84285714285716,4339.1,355.93660714285716,362.84285714285716,4444.8,355.93660714285716,362.84285714285716,4548.5,355.93660714285716,362.84285714285716,4648.7,355.93660714285716,362.84285714285716,4753.3,355.93660714285716,362.84285714285716,4853.4,355.93660714285716,362.84285714285716,4954.2]","[1460.8,1460.8,1000,0,460.8,""smooth"",""down"",""down"",""good_move"",3939,2477.9,2026.8,1461.1,451.1,""smooth"",""down"",""down"",""good_move"",6738.1,2798.9,2416,3939.2,382.9,""oops"",""down"",""left"",""good_move"",9402.6,2664.3,2249,6738.3,415.3,""oops"",""left"",""down"",""good_move"",12098.8,2696.1,2352.7,9402.7,343.4,""oops"",""left"",""right"",""bad_move"",15139.3,3040.4,2587.9,12098.9,452.5,""smooth"",""left"",""left"",""good_move"",17434.5,2295,1961.7,15139.5,333.3,""oops"",""left"",""right"",""bad_move""]","",""
"1701","","<div style=""width:500px;"">
  <p>What determined the result of this run?</p>
  </div>","0","html-slider-response","77","1024526","0.0-10.0-1.7","59","1","2025-07-02 10:18:56","80fe4187154257d5fb01684ea91b68b9","83.240.176.93","Mozilla/5.0 (Windows NT 10.0; Win64; x64) AppleWebKit/537.36 (KHTML, like Gecko) Chrome/138.0.0.0 Safari/537.36 Edg/138.0.0.0","WebKit","Edge","138.0.0.0","Windows","10.0","https://app.prolific.com/","pt-PT,pt;q=0.9,pt-BR;q=0.8,en;q=0.7,en-US;q=0.6,en-GB;q=0.5,es;q=0.4","6523351ec0163b9e739d13ab","683db6dfa200031b80f2a654","686507537d989fcf0e7b6d20","6523351ec0163b9e739d13ab","2025-07-02T10:36:01.857Z","","","","","","AttribQ","","","","","","","","","","","","","","","","","","","","","","","","","","","","","","","","","","","","","","50"
"1879","","<div style=""width:500px;"">
  <p>How much control did you have over the ball?</p>
  </div>","0","html-slider-response","78","1026404","0.0-10.0-2.7","59","1","2025-07-02 10:18:56","80fe4187154257d5fb01684ea91b68b9","83.240.176.93","Mozilla/5.0 (Windows NT 10.0; Win64; x64) AppleWebKit/537.36 (KHTML, like Gecko) Chrome/138.0.0.0 Safari/537.36 Edg/138.0.0.0","WebKit","Edge","138.0.0.0","Windows","10.0","https://app.prolific.com/","pt-PT,pt;q=0.9,pt-BR;q=0.8,en;q=0.7,en-US;q=0.6,en-GB;q=0.5,es;q=0.4","6523351ec0163b9e739d13ab","683db6dfa200031b80f2a654","686507537d989fcf0e7b6d20","6523351ec0163b9e739d13ab","2025-07-02T10:36:03.735Z","","","","","","ControlQ","","","","","","","","","","","","","","","","","","","","","","","","","","","","","","","","","","","","","","50"
"2935","","<div style=""width:500px;"">
  <p>How would you describe your current emotional state?</p>
  </div>","50","html-slider-response","79","1029340","0.0-10.0-3.7","59","1","2025-07-02 10:18:56","80fe4187154257d5fb01684ea91b68b9","83.240.176.93","Mozilla/5.0 (Windows NT 10.0; Win64; x64) AppleWebKit/537.36 (KHTML, like Gecko) Chrome/138.0.0.0 Safari/537.36 Edg/138.0.0.0","WebKit","Edge","138.0.0.0","Windows","10.0","https://app.prolific.com/","pt-PT,pt;q=0.9,pt-BR;q=0.8,en;q=0.7,en-US;q=0.6,en-GB;q=0.5,es;q=0.4","6523351ec0163b9e739d13ab","683db6dfa200031b80f2a654","686507537d989fcf0e7b6d20","6523351ec0163b9e739d13ab","2025-07-02T10:36:06.671Z","","","","","","StressQ","","","","","","","","","","","","","","","","","","","","","","","","","","","","","","","","","","","","","","50"
"1423","","<div style=""width:500px;"">
  <p>What best describes how you currently feel?</p>
  </div>","50","html-slider-response","80","1030764","0.0-10.0-4.7","59","1","2025-07-02 10:18:56","80fe4187154257d5fb01684ea91b68b9","83.240.176.93","Mozilla/5.0 (Windows NT 10.0; Win64; x64) AppleWebKit/537.36 (KHTML, like Gecko) Chrome/138.0.0.0 Safari/537.36 Edg/138.0.0.0","WebKit","Edge","138.0.0.0","Windows","10.0","https://app.prolific.com/","pt-PT,pt;q=0.9,pt-BR;q=0.8,en;q=0.7,en-US;q=0.6,en-GB;q=0.5,es;q=0.4","6523351ec0163b9e739d13ab","683db6dfa200031b80f2a654","686507537d989fcf0e7b6d20","6523351ec0163b9e739d13ab","2025-07-02T10:36:08.095Z","","","","","","MotivationQ","","","","","","","","","","","","","","","","","","","","","","","","","","","","","","","","","","","","","","50"
