"rt","response_timestamp","stimulus","response","trial_type","trial_index","time_elapsed","internal_node_id","run_id","condition","recorded_at","source_code_version","ip","user_agent","device","browser","browser_version","platform","platform_version","referer","accept_language","PROLIFIC_PID","STUDY_ID","SESSION_ID","prolific_id","realtime","view_history","question_order","consent","success","question_id","eventType","responses","item_order","radio_event_ids","radio_event_times","key_event_times","mouse_event_times","straightlining","zigzagging","honeypot","which_type","canvas_config","goals_layout","control_level","trial_number","tutorial_trial_number","trial_start_time","phase1_start_time","phase2_start_time","phase3_start_time","goal_1_value","goal_1_distance","goal_2_value","goal_2_distance","goal_selected","outcome","outcome_total","participant_final_score","participant_initial_score","participant_final_score_prop","goal_choice_rt","allocated_time","allocated_time_remaining","goal_direction","counts","mouse_movements","key_presses","correct","slider_start"
"6642","1751451557413","<p style='font-size:40px;line-height:1.25'><strong>Welcome to the experiment!</strong></p><p style='font-size:1.1em;line-height:1.25'>Thank you for your interest in our experiment! Before you begin, it is important that we obtain your informed consent to participate in the study.</p><p style='font-size:1.1em;line-height:1.25'>On the next screen will be an <strong>information sheet</strong> for you to read. To participate in the study we need you to read this information sheet and the following consent form carefully. If you agree with all the statements, please click the <strong>I agree</strong> button.</p><p style='font-size:1.1em;line-height:1.25'>Press <strong>Next</strong> to read the information sheet.</p>","0","custom-html-button-response","0","6645","0.0-0.0","85","1","2025-07-02 10:19:09","80fe4187154257d5fb01684ea91b68b9","94.194.242.83","Mozilla/5.0 (Macintosh; Intel Mac OS X 10_15_7) AppleWebKit/537.36 (KHTML, like Gecko) Chrome/128.0.0.0 Safari/537.36","Macintosh","Chrome","128.0.0.0","OS X","10_15_7","https://app.prolific.com/","en-GB,en-US;q=0.9,en;q=0.8","65c8d7f023278532f6f49139","683db6dfa200031b80f2a654","686507718aa5dd9bc054b4ad","65c8d7f023278532f6f49139","2025-07-02T10:19:17.415Z","","","","","","","","","","","","","","","","","","","","","","","","","","","","","","","","","","","","","","","","","","","",""
"5956","","","","instructions","1","12604","0.0-1.0","85","1","2025-07-02 10:19:09","80fe4187154257d5fb01684ea91b68b9","94.194.242.83","Mozilla/5.0 (Macintosh; Intel Mac OS X 10_15_7) AppleWebKit/537.36 (KHTML, like Gecko) Chrome/128.0.0.0 Safari/537.36","Macintosh","Chrome","128.0.0.0","OS X","10_15_7","https://app.prolific.com/","en-GB,en-US;q=0.9,en;q=0.8","65c8d7f023278532f6f49139","683db6dfa200031b80f2a654","686507718aa5dd9bc054b4ad","65c8d7f023278532f6f49139","","[{""page_index"":0,""viewing_time"":3922},{""page_index"":1,""viewing_time"":2034}]","","","","","","","","","","","","","","","","","","","","","","","","","","","","","","","","","","","","","","","","","","",""
"2762","","","{""Q0"":"""",""Q1"":"""",""Q2"":"""",""Q3"":"""",""Q4"":"""",""Q5"":"""",""Q6"":""I agree""}","survey-multi-choice","2","15369","0.0-2.0","85","1","2025-07-02 10:19:09","80fe4187154257d5fb01684ea91b68b9","94.194.242.83","Mozilla/5.0 (Macintosh; Intel Mac OS X 10_15_7) AppleWebKit/537.36 (KHTML, like Gecko) Chrome/128.0.0.0 Safari/537.36","Macintosh","Chrome","128.0.0.0","OS X","10_15_7","https://app.prolific.com/","en-GB,en-US;q=0.9,en;q=0.8","65c8d7f023278532f6f49139","683db6dfa200031b80f2a654","686507718aa5dd9bc054b4ad","65c8d7f023278532f6f49139","","","[0,1,2,3,4,5,6]","true","","","","","","","","","","","","","","","","","","","","","","","","","","","","","","","","","","","","","","","","",""
"1544","","","","fullscreen","3","17917","0.0-4.0","85","1","2025-07-02 10:19:09","80fe4187154257d5fb01684ea91b68b9","94.194.242.83","Mozilla/5.0 (Macintosh; Intel Mac OS X 10_15_7) AppleWebKit/537.36 (KHTML, like Gecko) Chrome/128.0.0.0 Safari/537.36","Macintosh","Chrome","128.0.0.0","OS X","10_15_7","https://app.prolific.com/","en-GB,en-US;q=0.9,en;q=0.8","65c8d7f023278532f6f49139","683db6dfa200031b80f2a654","686507718aa5dd9bc054b4ad","65c8d7f023278532f6f49139","","","","","true","","","","","","","","","","","","","","","","","","","","","","","","","","","","","","","","","","","","","","","",""
"2076","1751451570762"," <p style='font-size:1.1em;line-height:1.25'>Thank you for completing the consent form and closing all other tabs.</p><p style='font-size:1.1em;line-height:1.25'>We will now invite you to fill in some demographic information and questionnaires, before starting the game.<br>This will take about 5 minutes.<br></p><p style='font-size:1.1em;line-height:1.25'>Press the <strong>Next</strong> button to continue.</p>","0","custom-html-button-response","4","19993","0.0-5.0","85","1","2025-07-02 10:19:09","80fe4187154257d5fb01684ea91b68b9","94.194.242.83","Mozilla/5.0 (Macintosh; Intel Mac OS X 10_15_7) AppleWebKit/537.36 (KHTML, like Gecko) Chrome/128.0.0.0 Safari/537.36","Macintosh","Chrome","128.0.0.0","OS X","10_15_7","https://app.prolific.com/","en-GB,en-US;q=0.9,en;q=0.8","65c8d7f023278532f6f49139","683db6dfa200031b80f2a654","686507718aa5dd9bc054b4ad","65c8d7f023278532f6f49139","2025-07-02T10:19:30.762Z","","","","","","","","","","","","","","","","","","","","","","","","","","","","","","","","","","","","","","","","","","","",""
"2601","","","{""age"":""28""}","survey-text","5","22597","0.0-6.0-0.0","85","1","2025-07-02 10:19:09","80fe4187154257d5fb01684ea91b68b9","94.194.242.83","Mozilla/5.0 (Macintosh; Intel Mac OS X 10_15_7) AppleWebKit/537.36 (KHTML, like Gecko) Chrome/128.0.0.0 Safari/537.36","Macintosh","Chrome","128.0.0.0","OS X","10_15_7","https://app.prolific.com/","en-GB,en-US;q=0.9,en;q=0.8","65c8d7f023278532f6f49139","683db6dfa200031b80f2a654","686507718aa5dd9bc054b4ad","65c8d7f023278532f6f49139","","","","","","0","demographics","","","","","","","","","","","","","","","","","","","","","","","","","","","","","","","","","","","","","",""
"2435","","","{""gender_identity"":""male/man""}","survey-multi-choice","6","25034","0.0-6.0-1.0","85","1","2025-07-02 10:19:09","80fe4187154257d5fb01684ea91b68b9","94.194.242.83","Mozilla/5.0 (Macintosh; Intel Mac OS X 10_15_7) AppleWebKit/537.36 (KHTML, like Gecko) Chrome/128.0.0.0 Safari/537.36","Macintosh","Chrome","128.0.0.0","OS X","10_15_7","https://app.prolific.com/","en-GB,en-US;q=0.9,en;q=0.8","65c8d7f023278532f6f49139","683db6dfa200031b80f2a654","686507718aa5dd9bc054b4ad","65c8d7f023278532f6f49139","","","[0]","","","1","demographics","","","","","","","","","","","","","","","","","","","","","","","","","","","","","","","","","","","","","",""
"2509","","","{""assigned_sex"":""male""}","survey-multi-choice","7","27546","0.0-6.0-2.0","85","1","2025-07-02 10:19:09","80fe4187154257d5fb01684ea91b68b9","94.194.242.83","Mozilla/5.0 (Macintosh; Intel Mac OS X 10_15_7) AppleWebKit/537.36 (KHTML, like Gecko) Chrome/128.0.0.0 Safari/537.36","Macintosh","Chrome","128.0.0.0","OS X","10_15_7","https://app.prolific.com/","en-GB,en-US;q=0.9,en;q=0.8","65c8d7f023278532f6f49139","683db6dfa200031b80f2a654","686507718aa5dd9bc054b4ad","65c8d7f023278532f6f49139","","","[0]","","","2","demographics","","","","","","","","","","","","","","","","","","","","","","","","","","","","","","","","","","","","","",""
"2370","","","{""menstrual_cycle"":""No""}","survey-multi-choice","8","29921","0.0-6.0-3.0","85","1","2025-07-02 10:19:09","80fe4187154257d5fb01684ea91b68b9","94.194.242.83","Mozilla/5.0 (Macintosh; Intel Mac OS X 10_15_7) AppleWebKit/537.36 (KHTML, like Gecko) Chrome/128.0.0.0 Safari/537.36","Macintosh","Chrome","128.0.0.0","OS X","10_15_7","https://app.prolific.com/","en-GB,en-US;q=0.9,en;q=0.8","65c8d7f023278532f6f49139","683db6dfa200031b80f2a654","686507718aa5dd9bc054b4ad","65c8d7f023278532f6f49139","","","[0]","","","4","demographics","","","","","","","","","","","","","","","","","","","","","","","","","","","","","","","","","","","","","",""
"4327","","","{""education"":""Bachelor's Degree (e.g., BA)""}","survey-multi-choice","9","34250","0.0-6.0-4.0","85","1","2025-07-02 10:19:09","80fe4187154257d5fb01684ea91b68b9","94.194.242.83","Mozilla/5.0 (Macintosh; Intel Mac OS X 10_15_7) AppleWebKit/537.36 (KHTML, like Gecko) Chrome/128.0.0.0 Safari/537.36","Macintosh","Chrome","128.0.0.0","OS X","10_15_7","https://app.prolific.com/","en-GB,en-US;q=0.9,en;q=0.8","65c8d7f023278532f6f49139","683db6dfa200031b80f2a654","686507718aa5dd9bc054b4ad","65c8d7f023278532f6f49139","","","[0]","","","5","demographics","","","","","","","","","","","","","","","","","","","","","","","","","","","","","","","","","","","","","",""
"7056","","","{""education"":""GCSE/Standard Grades""}","survey-multi-choice","10","41309","0.0-6.0-5.0","85","1","2025-07-02 10:19:09","80fe4187154257d5fb01684ea91b68b9","94.194.242.83","Mozilla/5.0 (Macintosh; Intel Mac OS X 10_15_7) AppleWebKit/537.36 (KHTML, like Gecko) Chrome/128.0.0.0 Safari/537.36","Macintosh","Chrome","128.0.0.0","OS X","10_15_7","https://app.prolific.com/","en-GB,en-US;q=0.9,en;q=0.8","65c8d7f023278532f6f49139","683db6dfa200031b80f2a654","686507718aa5dd9bc054b4ad","65c8d7f023278532f6f49139","2025-07-02T10:19:52.078Z","","[0]","","","6","demographics","","","","","","","","","","","","","","","","","","","","","","","","","","","","","","","","","","","","","",""
"14899","","","{""mental_health_condition"":""No"",""mental_health_treatment"":""No"",""psychiatric_medication"":""No""}","survey-text","11","56214","0.0-7.0-0.0","85","1","2025-07-02 10:19:09","80fe4187154257d5fb01684ea91b68b9","94.194.242.83","Mozilla/5.0 (Macintosh; Intel Mac OS X 10_15_7) AppleWebKit/537.36 (KHTML, like Gecko) Chrome/128.0.0.0 Safari/537.36","Macintosh","Chrome","128.0.0.0","OS X","10_15_7","https://app.prolific.com/","en-GB,en-US;q=0.9,en;q=0.8","65c8d7f023278532f6f49139","683db6dfa200031b80f2a654","686507718aa5dd9bc054b4ad","65c8d7f023278532f6f49139","2025-07-02T10:20:06.984Z","","","","","1","mental_health","","","","","","","","","","","","","","","","","","","","","","","","","","","","","","","","","","","","","",""
"8279","","","{""depression_history"":[""No""]}","survey-multi-select","12","64498","0.0-7.0-1.0","85","1","2025-07-02 10:19:09","80fe4187154257d5fb01684ea91b68b9","94.194.242.83","Mozilla/5.0 (Macintosh; Intel Mac OS X 10_15_7) AppleWebKit/537.36 (KHTML, like Gecko) Chrome/128.0.0.0 Safari/537.36","Macintosh","Chrome","128.0.0.0","OS X","10_15_7","https://app.prolific.com/","en-GB,en-US;q=0.9,en;q=0.8","65c8d7f023278532f6f49139","683db6dfa200031b80f2a654","686507718aa5dd9bc054b4ad","65c8d7f023278532f6f49139","","","[0]","","","","mental_health","","","","","","","","","","","","","","","","","","","","","","","","","","","","","","","","","","","","","",""
"41513.90000000596","","","","survey-template","13","106019","0.0-7.0-3.0","85","1","2025-07-02 10:19:09","80fe4187154257d5fb01684ea91b68b9","94.194.242.83","Mozilla/5.0 (Macintosh; Intel Mac OS X 10_15_7) AppleWebKit/537.36 (KHTML, like Gecko) Chrome/128.0.0.0 Safari/537.36","Macintosh","Chrome","128.0.0.0","OS X","10_15_7","https://app.prolific.com/","en-GB,en-US;q=0.9,en;q=0.8","65c8d7f023278532f6f49139","683db6dfa200031b80f2a654","686507718aa5dd9bc054b4ad","65c8d7f023278532f6f49139","2025-07-02T10:20:56.788Z","","","","","","ius","{""Q01"":""1"",""Q02"":""2"",""Q03"":""1"",""Q04"":""3"",""Q05"":""1"",""Q06"":""0"",""Q07"":""0"",""Q08"":""0"",""Q09"":""1"",""Q10"":""1"",""Q11"":""0"",""Q12"":""3"",""Q13"":""1""}","[0,1,2,3,4,5,6,7,8,9,10,11,12]","[""Q02"",""Q03"",""Q04"",""Q05"",""Q06"",""Q07"",""Q08"",""Q09"",""Q10"",""Q11"",""Q12"",""Q13"",""Q01"",""Q01""]","[4684.100000008941,6356.70000000298,8558.40000000596,12103.40000000596,14940,16766.90000000596,17659.70000000298,19765.60000000894,24162.60000000894,25956.70000000298,27974,29483.90000000596,36085.40000000596,38764.5]","[]","[2686.9000000059605,4684.100000008941,6356.70000000298,8558.40000000596,12103.40000000596,13678.79999999702,14940,16766.90000000596,17659.70000000298,19765.60000000894,23542,24162.60000000894,25956.70000000298,27974,29483.90000000596,32174.40000000596,36085.40000000596,37375,38764.5,41512.40000000596]","0.46153846153846156","0.4166666666666667","0","","","","","","","","","","","","","","","","","","","","","","","","","","","","",""
"2224","1751451659015","<p style='font-size:1.1em;line-height:1.25'>In the following, we will ask you a few questions relating to your experiences over the past month.<br></p><p style='font-size:1.1em;line-height:1.25'>Press the <strong>Next</strong> button to continue.</p>","0","custom-html-button-response","14","108246","0.0-7.0-4.0","85","1","2025-07-02 10:19:09","80fe4187154257d5fb01684ea91b68b9","94.194.242.83","Mozilla/5.0 (Macintosh; Intel Mac OS X 10_15_7) AppleWebKit/537.36 (KHTML, like Gecko) Chrome/128.0.0.0 Safari/537.36","Macintosh","Chrome","128.0.0.0","OS X","10_15_7","https://app.prolific.com/","en-GB,en-US;q=0.9,en;q=0.8","65c8d7f023278532f6f49139","683db6dfa200031b80f2a654","686507718aa5dd9bc054b4ad","65c8d7f023278532f6f49139","2025-07-02T10:20:59.016Z","","","","","","","","","","","","","","","","","","","","","","","","","","","","","","","","","","","","","","","","","","","",""
"36587.89999999106","","","","survey-template","15","144838","0.0-7.0-5.0","85","1","2025-07-02 10:19:09","80fe4187154257d5fb01684ea91b68b9","94.194.242.83","Mozilla/5.0 (Macintosh; Intel Mac OS X 10_15_7) AppleWebKit/537.36 (KHTML, like Gecko) Chrome/128.0.0.0 Safari/537.36","Macintosh","Chrome","128.0.0.0","OS X","10_15_7","https://app.prolific.com/","en-GB,en-US;q=0.9,en;q=0.8","65c8d7f023278532f6f49139","683db6dfa200031b80f2a654","686507718aa5dd9bc054b4ad","65c8d7f023278532f6f49139","2025-07-02T10:21:35.607Z","","","","","","pss","{""Q01"":""1"",""Q02"":""0"",""Q03"":""1"",""Q04"":""1"",""Q05"":""1"",""Q06"":""0"",""Q07"":""1"",""Q08"":""0"",""Q09"":""1"",""Q10"":""0""}","[0,1,2,3,4,5,6,7,8,9]","[""Q01"",""Q02"",""Q03"",""Q04"",""Q05"",""Q06"",""Q07"",""Q08"",""Q09"",""Q09"",""Q10""]","[4630.0999999940395,7084,8846.29999999702,15739.79999999702,19382.19999998808,21987.89999999106,25452,28750.09999999404,31706.5,32875.79999999702,34622]","[]","[0,4630.0999999940395,7084,8846.29999999702,11899.89999999106,13038.09999999404,15739.79999999702,19382.19999998808,21987.89999999106,25452,28750.09999999404,31388,31706.5,32875.79999999702,34622,36586.69999998808]","0.3","0.4444444444444444","0","","","","","","","","","","","","","","","","","","","","","","","","","","","","",""
"2183","1751451697792","<p style='font-size:1.1em;line-height:1.25'>Thank you for your answers! Now we will ask you a few more questions relating to your feelings in the last 24 hours.<br></p><p style='font-size:1.1em;line-height:1.25'>Press the <strong>Next</strong> button to continue.</p>","0","custom-html-button-response","16","147024","0.0-7.0-6.0","85","1","2025-07-02 10:19:09","80fe4187154257d5fb01684ea91b68b9","94.194.242.83","Mozilla/5.0 (Macintosh; Intel Mac OS X 10_15_7) AppleWebKit/537.36 (KHTML, like Gecko) Chrome/128.0.0.0 Safari/537.36","Macintosh","Chrome","128.0.0.0","OS X","10_15_7","https://app.prolific.com/","en-GB,en-US;q=0.9,en;q=0.8","65c8d7f023278532f6f49139","683db6dfa200031b80f2a654","686507718aa5dd9bc054b4ad","65c8d7f023278532f6f49139","2025-07-02T10:21:37.793Z","","","","","","","","","","","","","","","","","","","","","","","","","","","","","","","","","","","","","","","","","","","",""
"53476","","","","survey-template","17","200506","0.0-7.0-7.0","85","1","2025-07-02 10:19:09","80fe4187154257d5fb01684ea91b68b9","94.194.242.83","Mozilla/5.0 (Macintosh; Intel Mac OS X 10_15_7) AppleWebKit/537.36 (KHTML, like Gecko) Chrome/128.0.0.0 Safari/537.36","Macintosh","Chrome","128.0.0.0","OS X","10_15_7","https://app.prolific.com/","en-GB,en-US;q=0.9,en;q=0.8","65c8d7f023278532f6f49139","683db6dfa200031b80f2a654","686507718aa5dd9bc054b4ad","65c8d7f023278532f6f49139","2025-07-02T10:22:31.276Z","","","","","","drsp","{""Q01"":""0"",""Q02"":""0"",""Q03"":""0"",""Q04"":""1"",""Q05"":""1"",""Q06"":""0"",""Q07"":""0"",""Q08"":""0"",""Q09"":""0"",""Q10"":""1"",""Q11"":""2"",""Q12"":""0"",""Q13"":""1"",""Q14"":""1"",""Q15"":""0"",""Q16"":""0"",""Q17"":""0"",""Q18"":""0"",""Q19"":""1"",""Q20"":""0"",""Q21"":""0""}","[0,1,2,3,4,5,6,7,8,9,10,11,12,13,14,15,16,17,18,19,20]","[""Q01"",""Q04"",""Q05"",""Q06"",""Q08"",""Q09"",""Q10"",""Q11"",""Q12"",""Q13"",""Q14"",""Q15"",""Q16"",""Q17"",""Q18"",""Q19"",""Q20"",""Q21"",""Q02"",""Q03"",""Q07""]","[1953.800000011921,4673.5,5660.100000008941,7625.9000000059605,9292.10000000894,10404.20000000298,13737.70000000298,16608.20000000298,18105.60000000894,19000.30000001192,20691.80000001192,22737.80000001192,25321.30000001192,25899.90000000596,28737.70000000298,34331.80000001192,37888.20000000298,39723.80000001192,43786.60000000894,44488.40000000596,50675.30000001192]","[]","[0,1953.800000011921,2800.800000011921,3914.4000000059605,4673.5,5660.100000008941,7625.9000000059605,8528.10000000894,9292.10000000894,10404.20000000298,13737.70000000298,15876.300000011921,16608.20000000298,18105.60000000894,19000.30000001192,20691.80000001192,22737.80000001192,24324.90000000596,25321.30000001192,25899.90000000596,28737.70000000298,34331.80000001192,37065.70000000298,37888.20000000298,39723.80000001192,40601.60000000894,43786.60000000894,44488.40000000596,47529.80000001192,50675.30000001192,53473.80000001192]","0.6666666666666666","0.4","0","","","","","","","","","","","","","","","","","","","","","","","","","","","","",""
"9696.5","","","","survey-template","18","210206","0.0-7.0-8.0","85","1","2025-07-02 10:19:09","80fe4187154257d5fb01684ea91b68b9","94.194.242.83","Mozilla/5.0 (Macintosh; Intel Mac OS X 10_15_7) AppleWebKit/537.36 (KHTML, like Gecko) Chrome/128.0.0.0 Safari/537.36","Macintosh","Chrome","128.0.0.0","OS X","10_15_7","https://app.prolific.com/","en-GB,en-US;q=0.9,en;q=0.8","65c8d7f023278532f6f49139","683db6dfa200031b80f2a654","686507718aa5dd9bc054b4ad","65c8d7f023278532f6f49139","2025-07-02T10:22:40.976Z","","","","","","stress","{""Q01"":""0"",""Q02"":""1"",""Q03"":""0""}","[0,1,2]","[""Q01"",""Q02"",""Q03""]","[3009.3999999910593,5017.399999991059,8969.29999999702]","[]","[3009.3999999910593,5017.399999991059,8969.29999999702,9695.89999999106]","0.6666666666666666","0","0","","","","","","","","","","","","","","","","","","","","","","","","","","","","",""
"85735","","","","instructions","19","295947","0.0-8.0-0.0","85","1","2025-07-02 10:19:09","80fe4187154257d5fb01684ea91b68b9","94.194.242.83","Mozilla/5.0 (Macintosh; Intel Mac OS X 10_15_7) AppleWebKit/537.36 (KHTML, like Gecko) Chrome/128.0.0.0 Safari/537.36","Macintosh","Chrome","128.0.0.0","OS X","10_15_7","https://app.prolific.com/","en-GB,en-US;q=0.9,en;q=0.8","65c8d7f023278532f6f49139","683db6dfa200031b80f2a654","686507718aa5dd9bc054b4ad","65c8d7f023278532f6f49139","","[{""page_index"":0,""viewing_time"":15358},{""page_index"":1,""viewing_time"":36346},{""page_index"":2,""viewing_time"":8310},{""page_index"":3,""viewing_time"":25720}]","","","","","","","","","","","","","","","","","","","","","","","","","","","","","","","","","","","","","","","","","","",""
"","","","","ctl-task-cpt","20","328593","0.0-8.0-1.0","85","1","2025-07-02 10:19:09","80fe4187154257d5fb01684ea91b68b9","94.194.242.83","Mozilla/5.0 (Macintosh; Intel Mac OS X 10_15_7) AppleWebKit/537.36 (KHTML, like Gecko) Chrome/128.0.0.0 Safari/537.36","Macintosh","Chrome","128.0.0.0","OS X","10_15_7","https://app.prolific.com/","en-GB,en-US;q=0.9,en;q=0.8","65c8d7f023278532f6f49139","683db6dfa200031b80f2a654","686507718aa5dd9bc054b4ad","65c8d7f023278532f6f49139","","","","","","","","","","","","","","","","","win-only","0","g1:NW,g2:SE","1","0","1","297627","2237.7","6241.4","29637.8","2","4","4","6","2","4","3","3","0","0.022727272727272728","2037.3","4000","1790","[""down"",""right""]","{""num_key_presses"":7,""num_perfect"":6,""num_errors"":1,""num_randdir"":0,""num_randdir_good_moves"":0,""num_whilered"":0,""num_whileblue"":0,""num_blue"":2,""num_good_moves"":6}","[344.14285714285717,351.04910714285717,0.2,344.14285714285717,351.04910714285717,112.4,344.14285714285717,351.04910714285717,213.5,344.14285714285717,351.04910714285717,318.2,344.14285714285717,351.04910714285717,423.6,338.14285714285717,344.04910714285717,524.3,318.14285714285717,326.04910714285717,628.5,318.14285714285717,326.04910714285717,729,294.14285714285717,311.04910714285717,832.8,294.14285714285717,311.04910714285717,933,294.14285714285717,311.04910714285717,1033.5,294.14285714285717,311.04910714285717,1133.7,293.14285714285717,314.04910714285717,1238.7,296.14285714285717,323.04910714285717,1339.3,296.14285714285717,323.04910714285717,1443.9,268.14285714285717,309.04910714285717,1547.8,320.14285714285717,358.04910714285717,1648.2,584.1428571428571,586.0491071428571,1748.7,613.1428571428571,608.0491071428571,1853.5,623.1428571428571,613.0491071428571,1953.6,625.1428571428571,614.0491071428571,2053.6,625.1428571428571,614.0491071428571,2153.6,629.1428571428571,613.0491071428571,2258.8,630.1428571428571,613.0491071428571,2363.2,630.1428571428571,613.0491071428571,2463.7,630.1428571428571,613.0491071428571,2563.9,630.1428571428571,613.0491071428571,2668.4,630.1428571428571,613.0491071428571,2768.9,630.1428571428571,613.0491071428571,2873.2,630.1428571428571,613.0491071428571,2973.6,630.1428571428571,613.0491071428571,3073.6,630.1428571428571,613.0491071428571,3178.2,630.1428571428571,613.0491071428571,3279,630.1428571428571,613.0491071428571,3383.9,630.1428571428571,613.0491071428571,3489,630.1428571428571,613.0491071428571,3593.5,630.1428571428571,613.0491071428571,3698.1,630.1428571428571,613.0491071428571,3798.4,630.1428571428571,613.0491071428571,3903.1]","[1497.1,1497,1000,0.1,497,""smooth"",""down"",""down"",""good_move"",1812.8,315.3,2254.4,1497.5,-1939.1,""error"",""-"",""-"",""no_move"",4994.6,3181.5,1822.2,2815.1,357.3,""smooth"",""down"",""down"",""good_move"",7252.6,2257.8,1923.9,4994.8,334,""smooth"",""down"",""down"",""good_move"",10222.9,2969.8,2612.4,7253.1,357.4,""smooth"",""right"",""right"",""good_move"",16685.4,6461.7,2533.4,13804.7,347.3,""smooth"",""right"",""right"",""good_move"",23309.1,6623.5,2466.3,20485.8,357.1,""smooth"",""right"",""right"",""good_move""]","",""
"14227","","","","instructions","21","342821","0.0-8.0-2.0","85","1","2025-07-02 10:19:09","80fe4187154257d5fb01684ea91b68b9","94.194.242.83","Mozilla/5.0 (Macintosh; Intel Mac OS X 10_15_7) AppleWebKit/537.36 (KHTML, like Gecko) Chrome/128.0.0.0 Safari/537.36","Macintosh","Chrome","128.0.0.0","OS X","10_15_7","https://app.prolific.com/","en-GB,en-US;q=0.9,en;q=0.8","65c8d7f023278532f6f49139","683db6dfa200031b80f2a654","686507718aa5dd9bc054b4ad","65c8d7f023278532f6f49139","","[{""page_index"":0,""viewing_time"":14227}]","","","","","","","","","","","","","","","","","","","","","","","","","","","","","","","","","","","","","","","","","","",""
"","","","","ctl-task-cpt","22","386197","0.0-8.0-3.0","85","1","2025-07-02 10:19:09","80fe4187154257d5fb01684ea91b68b9","94.194.242.83","Mozilla/5.0 (Macintosh; Intel Mac OS X 10_15_7) AppleWebKit/537.36 (KHTML, like Gecko) Chrome/128.0.0.0 Safari/537.36","Macintosh","Chrome","128.0.0.0","OS X","10_15_7","https://app.prolific.com/","en-GB,en-US;q=0.9,en;q=0.8","65c8d7f023278532f6f49139","683db6dfa200031b80f2a654","686507718aa5dd9bc054b4ad","65c8d7f023278532f6f49139","","","","","","","","","","","","","","","","","win-only","0","g1:NW,g2:SE","0.35","0","3","344499.8","1186.8","5191.9","40361.5","2","4","8","6","2","-8","-9","0","0","0","2050.6","4000","-2995","[""down"",""right""]","{""num_key_presses"":9,""num_perfect"":3,""num_errors"":1,""num_randdir"":5,""num_randdir_good_moves"":2,""num_whilered"":0,""num_whileblue"":1,""num_blue"":3,""num_good_moves"":5}","[345.14285714285717,343.04910714285717,0.3,345.14285714285717,343.04910714285717,100.6,345.14285714285717,345.04910714285717,204.6,345.14285714285717,347.04910714285717,306.1,347.14285714285717,347.04910714285717,409.6,347.14285714285717,347.04910714285717,514.1,347.14285714285717,347.04910714285717,614.3,347.14285714285717,347.04910714285717,714.5,347.14285714285717,347.04910714285717,814.7,347.14285714285717,347.04910714285717,919.1,347.14285714285717,347.04910714285717,1024.5,347.14285714285717,347.04910714285717,1129.5,357.14285714285717,345.04910714285717,1234.1,439.14285714285717,514.0491071428571,1334.1,540.1428571428571,609.0491071428571,1438.7,613.1428571428571,621.0491071428571,1539.5,684.1428571428571,652.0491071428571,1639.9,726.1428571428571,662.0491071428571,1744.5,725.1428571428571,662.0491071428571,1844.7,703.1428571428571,655.0491071428571,1950.4,653.1428571428571,644.0491071428571,2055.5,653.1428571428571,644.0491071428571,2159.9,653.1428571428571,644.0491071428571,2264.8,653.1428571428571,644.0491071428571,2369.2,653.1428571428571,644.0491071428571,2474.5,653.1428571428571,644.0491071428571,2579.4,653.1428571428571,644.0491071428571,2679.5,653.1428571428571,644.0491071428571,2789.5,653.1428571428571,644.0491071428571,2889.7,653.1428571428571,644.0491071428571,2994.6,653.1428571428571,644.0491071428571,3098.9,653.1428571428571,644.0491071428571,3199.3,653.1428571428571,644.0491071428571,3299.3,653.1428571428571,644.0491071428571,3404.9,653.1428571428571,644.0491071428571,3509.4,653.1428571428571,644.0491071428571,3614,653.1428571428571,644.0491071428571,3714.6,653.1428571428571,644.0491071428571,3819.7,653.1428571428571,644.0491071428571,3923.8]","[1539.5,1539.4,1000,0.1,539.4,""smooth"",""down"",""down"",""good_move"",4204.5,2664.4,2306.9,1540.1,357.5,""oops"",""down"",""right"",""good_move"",7380.6,3175.8,2676,4204.8,499.8,""oops"",""down"",""up"",""bad_move"",10439.9,3058.7,2500.6,7381.2,558.1,""oops"",""down"",""up"",""bad_move"",13678.2,3237.8,2413.3,10440.4,824.5,""oops"",""right"",""left"",""bad_move"",19655.9,5976.8,2739.7,16534,382.2,""while_blue"",""up"",""right"",""good_move"",23253.4,3597,3095.1,19656.4,501.9,""oops"",""up"",""down"",""good_move"",25948,2694.5,2314.6,23253.5,379.9,""smooth"",""up"",""up"",""bad_move"",29358.6,3410.2,3038.9,25948.4,371.3,""smooth"",""right"",""right"",""good_move""]","",""
"23410","","","","instructions","23","409609","0.0-8.0-4.0","85","1","2025-07-02 10:19:09","80fe4187154257d5fb01684ea91b68b9","94.194.242.83","Mozilla/5.0 (Macintosh; Intel Mac OS X 10_15_7) AppleWebKit/537.36 (KHTML, like Gecko) Chrome/128.0.0.0 Safari/537.36","Macintosh","Chrome","128.0.0.0","OS X","10_15_7","https://app.prolific.com/","en-GB,en-US;q=0.9,en;q=0.8","65c8d7f023278532f6f49139","683db6dfa200031b80f2a654","686507718aa5dd9bc054b4ad","65c8d7f023278532f6f49139","","[{""page_index"":0,""viewing_time"":6160},{""page_index"":1,""viewing_time"":17247}]","","","","","","","","","","","","","","","","","","","","","","","","","","","","","","","","","","","","","","","","","","",""
"11129","","","{""green_ball"":[""Ball sometimes shakes and moves in a random direction""]}","survey-multi-select","24","420742","0.0-8.0-5.0-0.0","85","1","2025-07-02 10:19:09","80fe4187154257d5fb01684ea91b68b9","94.194.242.83","Mozilla/5.0 (Macintosh; Intel Mac OS X 10_15_7) AppleWebKit/537.36 (KHTML, like Gecko) Chrome/128.0.0.0 Safari/537.36","Macintosh","Chrome","128.0.0.0","OS X","10_15_7","https://app.prolific.com/","en-GB,en-US;q=0.9,en;q=0.8","65c8d7f023278532f6f49139","683db6dfa200031b80f2a654","686507718aa5dd9bc054b4ad","65c8d7f023278532f6f49139","","","[0]","","","","quiz","","","","","","","","","","","","","","","","","","","","","","","","","","","","","","","","","","","","","true",""
"1555","","<p align='center'><b>CORRECT!</b> Indeed, the green ball may sometimes shake and move in a random direction.</p>","0","html-button-response","25","422304","0.0-8.0-5.0-1.0","85","1","2025-07-02 10:19:09","80fe4187154257d5fb01684ea91b68b9","94.194.242.83","Mozilla/5.0 (Macintosh; Intel Mac OS X 10_15_7) AppleWebKit/537.36 (KHTML, like Gecko) Chrome/128.0.0.0 Safari/537.36","Macintosh","Chrome","128.0.0.0","OS X","10_15_7","https://app.prolific.com/","en-GB,en-US;q=0.9,en;q=0.8","65c8d7f023278532f6f49139","683db6dfa200031b80f2a654","686507718aa5dd9bc054b4ad","65c8d7f023278532f6f49139","","","","","","","","","","","","","","","","","","","","","","","","","","","","","","","","","","","","","","","","","","","","",""
"7012","","","{""yellow_ball"":[""Ball doesn‘t move and I get -1 penalty point""]}","survey-multi-select","26","429318","0.0-8.0-6.0-0.0","85","1","2025-07-02 10:19:09","80fe4187154257d5fb01684ea91b68b9","94.194.242.83","Mozilla/5.0 (Macintosh; Intel Mac OS X 10_15_7) AppleWebKit/537.36 (KHTML, like Gecko) Chrome/128.0.0.0 Safari/537.36","Macintosh","Chrome","128.0.0.0","OS X","10_15_7","https://app.prolific.com/","en-GB,en-US;q=0.9,en;q=0.8","65c8d7f023278532f6f49139","683db6dfa200031b80f2a654","686507718aa5dd9bc054b4ad","65c8d7f023278532f6f49139","","","[0]","","","","quiz","","","","","","","","","","","","","","","","","","","","","","","","","","","","","","","","","","","","","true",""
"1126","","<p align='center'><b>CORRECT!</b> Indeed, the yellow ball never moves and you receive a penalty.</p>","0","html-button-response","27","430447","0.0-8.0-6.0-1.0","85","1","2025-07-02 10:19:09","80fe4187154257d5fb01684ea91b68b9","94.194.242.83","Mozilla/5.0 (Macintosh; Intel Mac OS X 10_15_7) AppleWebKit/537.36 (KHTML, like Gecko) Chrome/128.0.0.0 Safari/537.36","Macintosh","Chrome","128.0.0.0","OS X","10_15_7","https://app.prolific.com/","en-GB,en-US;q=0.9,en;q=0.8","65c8d7f023278532f6f49139","683db6dfa200031b80f2a654","686507718aa5dd9bc054b4ad","65c8d7f023278532f6f49139","","","","","","","","","","","","","","","","","","","","","","","","","","","","","","","","","","","","","","","","","","","","",""
"17879","","","{""blue_ball"":[""Ball always shakes and moves in a random direction""]}","survey-multi-select","28","448328","0.0-8.0-7.0-0.0","85","1","2025-07-02 10:19:09","80fe4187154257d5fb01684ea91b68b9","94.194.242.83","Mozilla/5.0 (Macintosh; Intel Mac OS X 10_15_7) AppleWebKit/537.36 (KHTML, like Gecko) Chrome/128.0.0.0 Safari/537.36","Macintosh","Chrome","128.0.0.0","OS X","10_15_7","https://app.prolific.com/","en-GB,en-US;q=0.9,en;q=0.8","65c8d7f023278532f6f49139","683db6dfa200031b80f2a654","686507718aa5dd9bc054b4ad","65c8d7f023278532f6f49139","","","[0]","","","","quiz","","","","","","","","","","","","","","","","","","","","","","","","","","","","","","","","","","","","","true",""
"3879","","<p align='center'><b>CORRECT!</b> Indeed, the blue ball always shakes and moves in a random direction. Also there is a penalty of -1 point.</p>","0","html-button-response","29","452211","0.0-8.0-7.0-1.0","85","1","2025-07-02 10:19:09","80fe4187154257d5fb01684ea91b68b9","94.194.242.83","Mozilla/5.0 (Macintosh; Intel Mac OS X 10_15_7) AppleWebKit/537.36 (KHTML, like Gecko) Chrome/128.0.0.0 Safari/537.36","Macintosh","Chrome","128.0.0.0","OS X","10_15_7","https://app.prolific.com/","en-GB,en-US;q=0.9,en;q=0.8","65c8d7f023278532f6f49139","683db6dfa200031b80f2a654","686507718aa5dd9bc054b4ad","65c8d7f023278532f6f49139","","","","","","","","","","","","","","","","","","","","","","","","","","","","","","","","","","","","","","","","","","","","",""
"6795","","","{""bonus"":[""When I reach 50% of points""]}","survey-multi-select","30","459008","0.0-8.0-8.0-0.0","85","1","2025-07-02 10:19:09","80fe4187154257d5fb01684ea91b68b9","94.194.242.83","Mozilla/5.0 (Macintosh; Intel Mac OS X 10_15_7) AppleWebKit/537.36 (KHTML, like Gecko) Chrome/128.0.0.0 Safari/537.36","Macintosh","Chrome","128.0.0.0","OS X","10_15_7","https://app.prolific.com/","en-GB,en-US;q=0.9,en;q=0.8","65c8d7f023278532f6f49139","683db6dfa200031b80f2a654","686507718aa5dd9bc054b4ad","65c8d7f023278532f6f49139","","","[0]","","","","quiz","","","","","","","","","","","","","","","","","","","","","","","","","","","","","","","","","","","","","true",""
"1668","","<p align='center'><b>CORRECT!</b> Indeed, you receive 2 pounds extra when you reach 50% of points.</p>","0","html-button-response","31","460679","0.0-8.0-8.0-1.0","85","1","2025-07-02 10:19:09","80fe4187154257d5fb01684ea91b68b9","94.194.242.83","Mozilla/5.0 (Macintosh; Intel Mac OS X 10_15_7) AppleWebKit/537.36 (KHTML, like Gecko) Chrome/128.0.0.0 Safari/537.36","Macintosh","Chrome","128.0.0.0","OS X","10_15_7","https://app.prolific.com/","en-GB,en-US;q=0.9,en;q=0.8","65c8d7f023278532f6f49139","683db6dfa200031b80f2a654","686507718aa5dd9bc054b4ad","65c8d7f023278532f6f49139","","","","","","","","","","","","","","","","","","","","","","","","","","","","","","","","","","","","","","","","","","","","",""
"2918","","","","instructions","32","463599","0.0-8.0-9.0","85","1","2025-07-02 10:19:09","80fe4187154257d5fb01684ea91b68b9","94.194.242.83","Mozilla/5.0 (Macintosh; Intel Mac OS X 10_15_7) AppleWebKit/537.36 (KHTML, like Gecko) Chrome/128.0.0.0 Safari/537.36","Macintosh","Chrome","128.0.0.0","OS X","10_15_7","https://app.prolific.com/","en-GB,en-US;q=0.9,en;q=0.8","65c8d7f023278532f6f49139","683db6dfa200031b80f2a654","686507718aa5dd9bc054b4ad","65c8d7f023278532f6f49139","","[{""page_index"":0,""viewing_time"":2918}]","","","","","","","","","","","","","","","","","","","","","","","","","","","","","","","","","","","","","","","","","","",""
"11014","","<p>Before you start with this game please answer the following three questions yourself. </p>
  <p>Through this game, we measure several aspects of your cognitive performance, such as reaction times, multi-tasking capabilities </p>
  <p>and the ability to assess the situation you are in.</p>
  <p></p>
  <p><b>How good do you usually are in such tasks?</b></p>","79","html-slider-response","33","474615","0.0-9.0-0.0","85","1","2025-07-02 10:19:09","80fe4187154257d5fb01684ea91b68b9","94.194.242.83","Mozilla/5.0 (Macintosh; Intel Mac OS X 10_15_7) AppleWebKit/537.36 (KHTML, like Gecko) Chrome/128.0.0.0 Safari/537.36","Macintosh","Chrome","128.0.0.0","OS X","10_15_7","https://app.prolific.com/","en-GB,en-US;q=0.9,en;q=0.8","65c8d7f023278532f6f49139","683db6dfa200031b80f2a654","686507718aa5dd9bc054b4ad","65c8d7f023278532f6f49139","2025-07-02T10:27:05.384Z","","","","","","PreSkillQ","","","","","","","","","","","","","","","","","","","","","","","","","","","","","","","","","","","","","","50"
"13217","","<div style=""width:500px;"">
  <p>How well do you think you will perform in this task compared to other participants?</p>
  </div>","61","html-slider-response","34","487833","0.0-9.0-1.0","85","1","2025-07-02 10:19:09","80fe4187154257d5fb01684ea91b68b9","94.194.242.83","Mozilla/5.0 (Macintosh; Intel Mac OS X 10_15_7) AppleWebKit/537.36 (KHTML, like Gecko) Chrome/128.0.0.0 Safari/537.36","Macintosh","Chrome","128.0.0.0","OS X","10_15_7","https://app.prolific.com/","en-GB,en-US;q=0.9,en;q=0.8","65c8d7f023278532f6f49139","683db6dfa200031b80f2a654","686507718aa5dd9bc054b4ad","65c8d7f023278532f6f49139","2025-07-02T10:27:18.603Z","","","","","","PrePerfQ","","","","","","","","","","","","","","","","","","","","","","","","","","","","","","","","","","","","","","50"
"2644","","<div style=""width:500px;"">
  <p>What best describes how you currently feel?</p>
  </div>","76","html-slider-response","35","490479","0.0-9.0-2.0","85","1","2025-07-02 10:19:09","80fe4187154257d5fb01684ea91b68b9","94.194.242.83","Mozilla/5.0 (Macintosh; Intel Mac OS X 10_15_7) AppleWebKit/537.36 (KHTML, like Gecko) Chrome/128.0.0.0 Safari/537.36","Macintosh","Chrome","128.0.0.0","OS X","10_15_7","https://app.prolific.com/","en-GB,en-US;q=0.9,en;q=0.8","65c8d7f023278532f6f49139","683db6dfa200031b80f2a654","686507718aa5dd9bc054b4ad","65c8d7f023278532f6f49139","2025-07-02T10:27:21.248Z","","","","","","PreMotivationQ","","","","","","","","","","","","","","","","","","","","","","","","","","","","","","","","","","","","","","50"
"","","","","ctl-task-cpt","36","518410","0.0-10.0-0.0","85","1","2025-07-02 10:19:09","80fe4187154257d5fb01684ea91b68b9","94.194.242.83","Mozilla/5.0 (Macintosh; Intel Mac OS X 10_15_7) AppleWebKit/537.36 (KHTML, like Gecko) Chrome/128.0.0.0 Safari/537.36","Macintosh","Chrome","128.0.0.0","OS X","10_15_7","https://app.prolific.com/","en-GB,en-US;q=0.9,en;q=0.8","65c8d7f023278532f6f49139","683db6dfa200031b80f2a654","686507718aa5dd9bc054b4ad","65c8d7f023278532f6f49139","2025-07-02T10:27:49.180Z","","","","","","","","","","","","","","","","win-only","1","g1:NE,g2:SW","1","1","0","492155.2","3404.2","8407.4","24892.2","1","4","4","6","2","4","4","4","0","0.030303030303030304","945.6","3000","855","[""down"",""left""]","{""num_key_presses"":6,""num_perfect"":6,""num_errors"":0,""num_randdir"":0,""num_randdir_good_moves"":0,""num_whilered"":0,""num_whileblue"":0,""num_blue"":0,""num_good_moves"":6}","[350.14285714285717,346.04910714285717,0.3,350.14285714285717,346.04910714285717,102.1,350.14285714285717,346.04910714285717,202.2,350.14285714285717,348.04910714285717,308.1,348.14285714285717,353.04910714285717,410.3,253.14285714285714,452.04910714285717,512.4,109.14285714285714,582.0491071428571,615.3,82.14285714285714,606.0491071428571,718.5,82.14285714285714,606.0491071428571,822.9,82.14285714285714,607.0491071428571,923.8,82.14285714285714,607.0491071428571,1024.9,83.14285714285714,607.0491071428571,1127.1,84.14285714285714,606.0491071428571,1227.7,84.14285714285714,606.0491071428571,1332.8,84.14285714285714,606.0491071428571,1437.1,84.14285714285714,606.0491071428571,1542.9,84.14285714285714,606.0491071428571,1643.1,84.14285714285714,606.0491071428571,1747.1,84.14285714285714,606.0491071428571,1853.2,84.14285714285714,606.0491071428571,1957.6,84.14285714285714,606.0491071428571,2062.6,84.14285714285714,606.0491071428571,2166.9,84.14285714285714,606.0491071428571,2267.6,84.14285714285714,606.0491071428571,2368,84.14285714285714,606.0491071428571,2472.1,84.14285714285714,606.0491071428571,2572.2,84.14285714285714,606.0491071428571,2672.4,84.14285714285714,606.0491071428571,2778.2,84.14285714285714,606.0491071428571,2882.3,84.14285714285714,606.0491071428571,2986.5,84.14285714285714,606.0491071428571,3086.9,84.14285714285714,606.0491071428571,3193,84.14285714285714,606.0491071428571,3293.2,84.14285714285714,606.0491071428571,3396.9,84.14285714285714,606.0491071428571,3497.3,84.14285714285714,606.0491071428571,3603,84.14285714285714,606.0491071428571,3707.4,84.14285714285714,606.0491071428571,3807.8,84.14285714285714,606.0491071428571,3912.3,84.14285714285714,606.0491071428571,4012.8,84.14285714285714,606.0491071428571,4117.7,84.14285714285714,606.0491071428571,4222.2,84.14285714285714,606.0491071428571,4327.8,84.14285714285714,606.0491071428571,4436.5,84.14285714285714,606.0491071428571,4537.6,84.14285714285714,606.0491071428571,4643.2,84.14285714285714,606.0491071428571,4743.4,84.14285714285714,606.0491071428571,4845.3,84.14285714285714,606.0491071428571,4946.9]","[1333.2,1333.2,1000,0,333.2,""smooth"",""left"",""left"",""good_move"",4096.2,2762.5,2410.2,1333.7,352.3,""smooth"",""left"",""left"",""good_move"",6563.8,2467.1,2068,4096.7,399.1,""smooth"",""left"",""left"",""good_move"",9640.8,3076.5,2631,6564.3,445.6,""smooth"",""down"",""down"",""good_move"",12882.1,3239.9,2853.8,9642.3,386.1,""smooth"",""down"",""down"",""good_move"",16396.5,3513.7,3080.9,12882.9,432.7,""smooth"",""down"",""down"",""good_move""]","",""
"8156","","<div style=""width:500px;"">
  <p>What determined the result of this run?</p>
  </div>","86","html-slider-response","37","526569","0.0-10.0-1.0","85","1","2025-07-02 10:19:09","80fe4187154257d5fb01684ea91b68b9","94.194.242.83","Mozilla/5.0 (Macintosh; Intel Mac OS X 10_15_7) AppleWebKit/537.36 (KHTML, like Gecko) Chrome/128.0.0.0 Safari/537.36","Macintosh","Chrome","128.0.0.0","OS X","10_15_7","https://app.prolific.com/","en-GB,en-US;q=0.9,en;q=0.8","65c8d7f023278532f6f49139","683db6dfa200031b80f2a654","686507718aa5dd9bc054b4ad","65c8d7f023278532f6f49139","2025-07-02T10:27:57.338Z","","","","","","AttribQ","","","","","","","","","","","","","","","","","","","","","","","","","","","","","","","","","","","","","","50"
"3175","","<div style=""width:500px;"">
  <p>How much control did you have over the ball?</p>
  </div>","100","html-slider-response","38","529745","0.0-10.0-2.0","85","1","2025-07-02 10:19:09","80fe4187154257d5fb01684ea91b68b9","94.194.242.83","Mozilla/5.0 (Macintosh; Intel Mac OS X 10_15_7) AppleWebKit/537.36 (KHTML, like Gecko) Chrome/128.0.0.0 Safari/537.36","Macintosh","Chrome","128.0.0.0","OS X","10_15_7","https://app.prolific.com/","en-GB,en-US;q=0.9,en;q=0.8","65c8d7f023278532f6f49139","683db6dfa200031b80f2a654","686507718aa5dd9bc054b4ad","65c8d7f023278532f6f49139","2025-07-02T10:28:00.514Z","","","","","","ControlQ","","","","","","","","","","","","","","","","","","","","","","","","","","","","","","","","","","","","","","50"
"3629","","<div style=""width:500px;"">
  <p>How would you describe your current emotional state?</p>
  </div>","16","html-slider-response","39","533376","0.0-10.0-3.0","85","1","2025-07-02 10:19:09","80fe4187154257d5fb01684ea91b68b9","94.194.242.83","Mozilla/5.0 (Macintosh; Intel Mac OS X 10_15_7) AppleWebKit/537.36 (KHTML, like Gecko) Chrome/128.0.0.0 Safari/537.36","Macintosh","Chrome","128.0.0.0","OS X","10_15_7","https://app.prolific.com/","en-GB,en-US;q=0.9,en;q=0.8","65c8d7f023278532f6f49139","683db6dfa200031b80f2a654","686507718aa5dd9bc054b4ad","65c8d7f023278532f6f49139","2025-07-02T10:28:04.145Z","","","","","","StressQ","","","","","","","","","","","","","","","","","","","","","","","","","","","","","","","","","","","","","","50"
"3208","","<div style=""width:500px;"">
  <p>What best describes how you currently feel?</p>
  </div>","78","html-slider-response","40","536586","0.0-10.0-4.0","85","1","2025-07-02 10:19:09","80fe4187154257d5fb01684ea91b68b9","94.194.242.83","Mozilla/5.0 (Macintosh; Intel Mac OS X 10_15_7) AppleWebKit/537.36 (KHTML, like Gecko) Chrome/128.0.0.0 Safari/537.36","Macintosh","Chrome","128.0.0.0","OS X","10_15_7","https://app.prolific.com/","en-GB,en-US;q=0.9,en;q=0.8","65c8d7f023278532f6f49139","683db6dfa200031b80f2a654","686507718aa5dd9bc054b4ad","65c8d7f023278532f6f49139","2025-07-02T10:28:07.355Z","","","","","","MotivationQ","","","","","","","","","","","","","","","","","","","","","","","","","","","","","","","","","","","","","","50"
"","","","","ctl-task-cpt","41","562607","0.0-10.0-0.1","85","1","2025-07-02 10:19:09","80fe4187154257d5fb01684ea91b68b9","94.194.242.83","Mozilla/5.0 (Macintosh; Intel Mac OS X 10_15_7) AppleWebKit/537.36 (KHTML, like Gecko) Chrome/128.0.0.0 Safari/537.36","Macintosh","Chrome","128.0.0.0","OS X","10_15_7","https://app.prolific.com/","en-GB,en-US;q=0.9,en;q=0.8","65c8d7f023278532f6f49139","683db6dfa200031b80f2a654","686507718aa5dd9bc054b4ad","65c8d7f023278532f6f49139","2025-07-02T10:28:33.377Z","","","","","","","","","","","","","","","","win-only","3","g1:SW,g2:NE","0.9","2","0","538259.8","1139.7","6141.2","23008","1","4","8","6","2","8","8","12","4","0.09090909090909091","1127.9","3000","995","[""up"",""right""]","{""num_key_presses"":6,""num_perfect"":5,""num_errors"":0,""num_randdir"":1,""num_randdir_good_moves"":1,""num_whilered"":0,""num_whileblue"":0,""num_blue"":0,""num_good_moves"":6}","[347.14285714285717,358.04910714285717,0.2,347.14285714285717,358.04910714285717,101.7,347.14285714285717,358.04910714285717,203.5,347.14285714285717,358.04910714285717,303.7,344.14285714285717,361.04910714285717,422.8,431.14285714285717,324.04910714285717,530,596.1428571428571,201.04910714285714,630.8,607.1428571428571,166.04910714285714,734,623.1428571428571,112.04910714285714,838,627.1428571428571,94.04910714285714,938,632.1428571428571,87.04910714285714,1043.8,632.1428571428571,87.04910714285714,1145.2,633.1428571428571,87.04910714285714,1249.5,637.1428571428571,102.04910714285714,1350.5,780.1428571428571,364.04910714285717,1456.6,1005.1428571428571,774.0491071428571,1557,1010.1428571428571,781.0491071428571,1657.6,1010.1428571428571,781.0491071428571,1760.9,1010.1428571428571,781.0491071428571,1865.4,1010.1428571428571,781.0491071428571,1969.2,1010.1428571428571,781.0491071428571,2073.2,1010.1428571428571,781.0491071428571,2176.7,1010.1428571428571,781.0491071428571,2282.5,1010.1428571428571,781.0491071428571,2384.2,1010.1428571428571,781.0491071428571,2493.2,1010.1428571428571,781.0491071428571,2597.7,1010.1428571428571,781.0491071428571,2701.1,1010.1428571428571,781.0491071428571,2802.9,1010.1428571428571,781.0491071428571,2903.1,1010.1428571428571,781.0491071428571,3008.4,1010.1428571428571,781.0491071428571,3110.8,1010.1428571428571,781.0491071428571,3214.3,1010.1428571428571,781.0491071428571,3319.1,1010.1428571428571,781.0491071428571,3422.3,1010.1428571428571,781.0491071428571,3526.2,1010.1428571428571,781.0491071428571,3626.4,1010.1428571428571,781.0491071428571,3726.5,1010.1428571428571,781.0491071428571,3831.7,1010.1428571428571,781.0491071428571,3936.5,1010.1428571428571,781.0491071428571,4040,1010.1428571428571,781.0491071428571,4141.1,1010.1428571428571,781.0491071428571,4242.5,1010.1428571428571,781.0491071428571,4346.2,1010.1428571428571,781.0491071428571,4447.9,1010.1428571428571,781.0491071428571,4552.2,1010.1428571428571,781.0491071428571,4653.4,1010.1428571428571,781.0491071428571,4758.3,1010.1428571428571,781.0491071428571,4868.3,1010.1428571428571,781.0491071428571,4972.7]","[1384.4,1384.5,1000,0,384.5,""smooth"",""right"",""right"",""good_move"",4639.7,3254.4,2885.4,1385.4,368.9,""smooth"",""right"",""right"",""good_move"",7545.4,2905.5,2532.5,4639.9,373,""oops"",""right"",""right"",""good_move"",10932.6,3386.7,3021.5,7545.9,365.2,""smooth"",""up"",""up"",""good_move"",13730.5,2797,2424.3,10933.5,372.7,""smooth"",""up"",""up"",""good_move"",16771.2,3040.4,2669.5,13730.8,370.9,""smooth"",""up"",""up"",""good_move""]","",""
"3264","","<div style=""width:500px;"">
  <p>What determined the result of this run?</p>
  </div>","87","html-slider-response","42","565873","0.0-10.0-1.1","85","1","2025-07-02 10:19:09","80fe4187154257d5fb01684ea91b68b9","94.194.242.83","Mozilla/5.0 (Macintosh; Intel Mac OS X 10_15_7) AppleWebKit/537.36 (KHTML, like Gecko) Chrome/128.0.0.0 Safari/537.36","Macintosh","Chrome","128.0.0.0","OS X","10_15_7","https://app.prolific.com/","en-GB,en-US;q=0.9,en;q=0.8","65c8d7f023278532f6f49139","683db6dfa200031b80f2a654","686507718aa5dd9bc054b4ad","65c8d7f023278532f6f49139","2025-07-02T10:28:36.643Z","","","","","","AttribQ","","","","","","","","","","","","","","","","","","","","","","","","","","","","","","","","","","","","","","50"
"2833","","<div style=""width:500px;"">
  <p>How much control did you have over the ball?</p>
  </div>","91","html-slider-response","43","568707","0.0-10.0-2.1","85","1","2025-07-02 10:19:09","80fe4187154257d5fb01684ea91b68b9","94.194.242.83","Mozilla/5.0 (Macintosh; Intel Mac OS X 10_15_7) AppleWebKit/537.36 (KHTML, like Gecko) Chrome/128.0.0.0 Safari/537.36","Macintosh","Chrome","128.0.0.0","OS X","10_15_7","https://app.prolific.com/","en-GB,en-US;q=0.9,en;q=0.8","65c8d7f023278532f6f49139","683db6dfa200031b80f2a654","686507718aa5dd9bc054b4ad","65c8d7f023278532f6f49139","2025-07-02T10:28:39.476Z","","","","","","ControlQ","","","","","","","","","","","","","","","","","","","","","","","","","","","","","","","","","","","","","","50"
"2749","","<div style=""width:500px;"">
  <p>How would you describe your current emotional state?</p>
  </div>","16","html-slider-response","44","571458","0.0-10.0-3.1","85","1","2025-07-02 10:19:09","80fe4187154257d5fb01684ea91b68b9","94.194.242.83","Mozilla/5.0 (Macintosh; Intel Mac OS X 10_15_7) AppleWebKit/537.36 (KHTML, like Gecko) Chrome/128.0.0.0 Safari/537.36","Macintosh","Chrome","128.0.0.0","OS X","10_15_7","https://app.prolific.com/","en-GB,en-US;q=0.9,en;q=0.8","65c8d7f023278532f6f49139","683db6dfa200031b80f2a654","686507718aa5dd9bc054b4ad","65c8d7f023278532f6f49139","2025-07-02T10:28:42.228Z","","","","","","StressQ","","","","","","","","","","","","","","","","","","","","","","","","","","","","","","","","","","","","","","50"
"3063","","<div style=""width:500px;"">
  <p>What best describes how you currently feel?</p>
  </div>","76","html-slider-response","45","574523","0.0-10.0-4.1","85","1","2025-07-02 10:19:09","80fe4187154257d5fb01684ea91b68b9","94.194.242.83","Mozilla/5.0 (Macintosh; Intel Mac OS X 10_15_7) AppleWebKit/537.36 (KHTML, like Gecko) Chrome/128.0.0.0 Safari/537.36","Macintosh","Chrome","128.0.0.0","OS X","10_15_7","https://app.prolific.com/","en-GB,en-US;q=0.9,en;q=0.8","65c8d7f023278532f6f49139","683db6dfa200031b80f2a654","686507718aa5dd9bc054b4ad","65c8d7f023278532f6f49139","2025-07-02T10:28:45.292Z","","","","","","MotivationQ","","","","","","","","","","","","","","","","","","","","","","","","","","","","","","","","","","","","","","50"
"","","","","ctl-task-cpt","46","615326","0.0-10.0-0.2","85","1","2025-07-02 10:19:09","80fe4187154257d5fb01684ea91b68b9","94.194.242.83","Mozilla/5.0 (Macintosh; Intel Mac OS X 10_15_7) AppleWebKit/537.36 (KHTML, like Gecko) Chrome/128.0.0.0 Safari/537.36","Macintosh","Chrome","128.0.0.0","OS X","10_15_7","https://app.prolific.com/","en-GB,en-US;q=0.9,en;q=0.8","65c8d7f023278532f6f49139","683db6dfa200031b80f2a654","686507718aa5dd9bc054b4ad","65c8d7f023278532f6f49139","2025-07-02T10:29:26.096Z","","","","","","","","","","","","","","","","win-only","1","g1:NE,g2:SW","0.8","3","0","576195.7","1659.6","6660.2","37782.2","1","4","4","6","2","4","4","16","12","0.12121212121212122","1087.9","3000","1040","[""down"",""left""]","{""num_key_presses"":8,""num_perfect"":6,""num_errors"":0,""num_randdir"":2,""num_randdir_good_moves"":1,""num_whilered"":0,""num_whileblue"":0,""num_blue"":3,""num_good_moves"":7}","[346.14285714285717,349.04910714285717,1.5,346.14285714285717,349.04910714285717,103.5,346.14285714285717,349.04910714285717,203.7,346.14285714285717,349.04910714285717,303.7,348.14285714285717,360.04910714285717,406.4,350.14285714285717,365.04910714285717,507.8,309.14285714285717,406.04910714285717,608.9,126.14285714285714,618.0491071428571,716.2,119.14285714285714,627.0491071428571,824.1,123.14285714285714,615.0491071428571,926.5,92.14285714285714,613.0491071428571,1027.1,85.14285714285714,616.0491071428571,1130.8,85.14285714285714,616.0491071428571,1231.2,93.14285714285714,616.0491071428571,1331.3,202.14285714285714,637.0491071428571,1432.1,399.14285714285717,660.0491071428571,1532.5,404.14285714285717,660.0491071428571,1640.6,404.14285714285717,660.0491071428571,1742.8,404.14285714285717,660.0491071428571,1847.9,404.14285714285717,660.0491071428571,1962.1,404.14285714285717,660.0491071428571,2062.6,404.14285714285717,660.0491071428571,2169.5,404.14285714285717,660.0491071428571,2274.2,404.14285714285717,660.0491071428571,2388,404.14285714285717,660.0491071428571,2495.6,404.14285714285717,660.0491071428571,2597.7,404.14285714285717,660.0491071428571,2697.7,404.14285714285717,660.0491071428571,2802.4,404.14285714285717,660.0491071428571,2906.1,404.14285714285717,660.0491071428571,3009,404.14285714285717,660.0491071428571,3110.4,404.14285714285717,660.0491071428571,3215.2,404.14285714285717,660.0491071428571,3316.6,404.14285714285717,660.0491071428571,3422.6,404.14285714285717,660.0491071428571,3524.1,404.14285714285717,660.0491071428571,3625,404.14285714285717,660.0491071428571,3725.3,404.14285714285717,660.0491071428571,3826.2,404.14285714285717,660.0491071428571,3932.6,404.14285714285717,660.0491071428571,4039.7,404.14285714285717,660.0491071428571,4140.4,404.14285714285717,660.0491071428571,4240.4,404.14285714285717,660.0491071428571,4344.2,404.14285714285717,660.0491071428571,4450.6,404.14285714285717,660.0491071428571,4551.8,404.14285714285717,660.0491071428571,4656.2,404.14285714285717,660.0491071428571,4758.9,404.14285714285717,660.0491071428571,4863.4,404.14285714285717,660.0491071428571,4964.3]","[1344,1344,1000,0,344,""smooth"",""down"",""down"",""good_move"",3710.4,2365.9,2070.7,1344.5,295.2,""oops"",""down"",""right"",""bad_move"",6310.3,2599.4,2201.4,3711,398,""oops"",""down"",""down"",""good_move"",8800.8,2490.2,2110.2,6310.6,380.1,""smooth"",""down"",""down"",""good_move"",15725.6,6923.7,2675.3,12735.8,314.5,""smooth"",""left"",""left"",""good_move"",18963.6,3237.3,2843.6,15726.3,393.7,""smooth"",""left"",""left"",""good_move"",21597.5,2633.4,2235.7,18964.1,397.7,""smooth"",""left"",""left"",""good_move"",30988.3,9390.2,2534.2,28094,360.1,""smooth"",""left"",""left"",""good_move""]","",""
"2442","","<div style=""width:500px;"">
  <p>What determined the result of this run?</p>
  </div>","79","html-slider-response","47","617772","0.0-10.0-1.2","85","1","2025-07-02 10:19:09","80fe4187154257d5fb01684ea91b68b9","94.194.242.83","Mozilla/5.0 (Macintosh; Intel Mac OS X 10_15_7) AppleWebKit/537.36 (KHTML, like Gecko) Chrome/128.0.0.0 Safari/537.36","Macintosh","Chrome","128.0.0.0","OS X","10_15_7","https://app.prolific.com/","en-GB,en-US;q=0.9,en;q=0.8","65c8d7f023278532f6f49139","683db6dfa200031b80f2a654","686507718aa5dd9bc054b4ad","65c8d7f023278532f6f49139","2025-07-02T10:29:28.541Z","","","","","","AttribQ","","","","","","","","","","","","","","","","","","","","","","","","","","","","","","","","","","","","","","50"
"3117","","<div style=""width:500px;"">
  <p>How much control did you have over the ball?</p>
  </div>","76","html-slider-response","48","620891","0.0-10.0-2.2","85","1","2025-07-02 10:19:09","80fe4187154257d5fb01684ea91b68b9","94.194.242.83","Mozilla/5.0 (Macintosh; Intel Mac OS X 10_15_7) AppleWebKit/537.36 (KHTML, like Gecko) Chrome/128.0.0.0 Safari/537.36","Macintosh","Chrome","128.0.0.0","OS X","10_15_7","https://app.prolific.com/","en-GB,en-US;q=0.9,en;q=0.8","65c8d7f023278532f6f49139","683db6dfa200031b80f2a654","686507718aa5dd9bc054b4ad","65c8d7f023278532f6f49139","2025-07-02T10:29:31.660Z","","","","","","ControlQ","","","","","","","","","","","","","","","","","","","","","","","","","","","","","","","","","","","","","","50"
"2848","","<div style=""width:500px;"">
  <p>How would you describe your current emotional state?</p>
  </div>","25","html-slider-response","49","623741","0.0-10.0-3.2","85","1","2025-07-02 10:19:09","80fe4187154257d5fb01684ea91b68b9","94.194.242.83","Mozilla/5.0 (Macintosh; Intel Mac OS X 10_15_7) AppleWebKit/537.36 (KHTML, like Gecko) Chrome/128.0.0.0 Safari/537.36","Macintosh","Chrome","128.0.0.0","OS X","10_15_7","https://app.prolific.com/","en-GB,en-US;q=0.9,en;q=0.8","65c8d7f023278532f6f49139","683db6dfa200031b80f2a654","686507718aa5dd9bc054b4ad","65c8d7f023278532f6f49139","2025-07-02T10:29:34.510Z","","","","","","StressQ","","","","","","","","","","","","","","","","","","","","","","","","","","","","","","","","","","","","","","50"
"1820","","<div style=""width:500px;"">
  <p>What best describes how you currently feel?</p>
  </div>","71","html-slider-response","50","625563","0.0-10.0-4.2","85","1","2025-07-02 10:19:09","80fe4187154257d5fb01684ea91b68b9","94.194.242.83","Mozilla/5.0 (Macintosh; Intel Mac OS X 10_15_7) AppleWebKit/537.36 (KHTML, like Gecko) Chrome/128.0.0.0 Safari/537.36","Macintosh","Chrome","128.0.0.0","OS X","10_15_7","https://app.prolific.com/","en-GB,en-US;q=0.9,en;q=0.8","65c8d7f023278532f6f49139","683db6dfa200031b80f2a654","686507718aa5dd9bc054b4ad","65c8d7f023278532f6f49139","2025-07-02T10:29:36.332Z","","","","","","MotivationQ","","","","","","","","","","","","","","","","","","","","","","","","","","","","","","","","","","","","","","50"
"","","","","ctl-task-cpt","51","650590","0.0-10.0-0.3","85","1","2025-07-02 10:19:09","80fe4187154257d5fb01684ea91b68b9","94.194.242.83","Mozilla/5.0 (Macintosh; Intel Mac OS X 10_15_7) AppleWebKit/537.36 (KHTML, like Gecko) Chrome/128.0.0.0 Safari/537.36","Macintosh","Chrome","128.0.0.0","OS X","10_15_7","https://app.prolific.com/","en-GB,en-US;q=0.9,en;q=0.8","65c8d7f023278532f6f49139","683db6dfa200031b80f2a654","686507718aa5dd9bc054b4ad","65c8d7f023278532f6f49139","2025-07-02T10:30:01.360Z","","","","","","","","","","","","","","","","win-only","1","g1:NE,g2:SW","0.7","4","0","627234.5","1173.9","6180.5","21997.1","1","4","8","6","2","8","8","24","16","0.18181818181818182","1006.4","3000","1295","[""down"",""left""]","{""num_key_presses"":6,""num_perfect"":4,""num_errors"":0,""num_randdir"":2,""num_randdir_good_moves"":2,""num_whilered"":0,""num_whileblue"":0,""num_blue"":0,""num_good_moves"":6}","[348.14285714285717,341.04910714285717,0.8,348.14285714285717,341.04910714285717,104.1,348.14285714285717,341.04910714285717,207.5,349.14285714285717,346.04910714285717,311.1,331.14285714285717,383.04910714285717,416,223.14285714285714,482.04910714285717,518.1,133.14285714285714,551.0491071428571,620.6,124.14285714285714,572.0491071428571,726.7,106.14285714285714,596.0491071428571,833.4,93.14285714285714,606.0491071428571,934.1,91.14285714285714,606.0491071428571,1043.9,91.14285714285714,606.0491071428571,1151.1,93.14285714285714,606.0491071428571,1257.2,182.14285714285714,609.0491071428571,1360.7,349.14285714285717,628.0491071428571,1475.5,349.14285714285717,628.0491071428571,1581.3,349.14285714285717,628.0491071428571,1693.7,349.14285714285717,628.0491071428571,1796.3,349.14285714285717,628.0491071428571,1904.2,349.14285714285717,628.0491071428571,2007.9,349.14285714285717,628.0491071428571,2110.5,349.14285714285717,628.0491071428571,2220.1,349.14285714285717,628.0491071428571,2324.6,349.14285714285717,628.0491071428571,2425.8,349.14285714285717,628.0491071428571,2528.5,349.14285714285717,628.0491071428571,2630.8,349.14285714285717,628.0491071428571,2734.6,349.14285714285717,628.0491071428571,2836,349.14285714285717,628.0491071428571,2940.3,349.14285714285717,628.0491071428571,3044.5,349.14285714285717,628.0491071428571,3146.1,349.14285714285717,628.0491071428571,3251.5,349.14285714285717,628.0491071428571,3355,349.14285714285717,628.0491071428571,3455.7,349.14285714285717,628.0491071428571,3561.9,349.14285714285717,628.0491071428571,3669.6,349.14285714285717,628.0491071428571,3773.6,349.14285714285717,628.0491071428571,3875.3,349.14285714285717,628.0491071428571,3976.5,349.14285714285717,628.0491071428571,4082.3,349.14285714285717,628.0491071428571,4186.7,349.14285714285717,628.0491071428571,4289.7,349.14285714285717,628.0491071428571,4394.7,349.14285714285717,628.0491071428571,4494.7,349.14285714285717,628.0491071428571,4602.4,349.14285714285717,628.0491071428571,4702.8,349.14285714285717,628.0491071428571,4807.1,349.14285714285717,628.0491071428571,4912.5]","[1415.4,1415.4,1000,0,415.4,""smooth"",""down"",""down"",""good_move"",4419.5,2991.3,2610.5,1428.2,380.8,""smooth"",""down"",""down"",""good_move"",7043,2623,2195.2,4420,427.8,""smooth"",""down"",""down"",""good_move"",10311.2,3267.8,2865.2,7043.6,402.6,""oops"",""left"",""left"",""good_move"",12812.3,2499,2066.6,10313.4,432.3,""oops"",""left"",""left"",""good_move"",15674.8,2861.1,2427.1,12813.7,434,""smooth"",""left"",""left"",""good_move""]","",""
"4087","","<div style=""width:500px;"">
  <p>What determined the result of this run?</p>
  </div>","60","html-slider-response","52","654681","0.0-10.0-1.3","85","1","2025-07-02 10:19:09","80fe4187154257d5fb01684ea91b68b9","94.194.242.83","Mozilla/5.0 (Macintosh; Intel Mac OS X 10_15_7) AppleWebKit/537.36 (KHTML, like Gecko) Chrome/128.0.0.0 Safari/537.36","Macintosh","Chrome","128.0.0.0","OS X","10_15_7","https://app.prolific.com/","en-GB,en-US;q=0.9,en;q=0.8","65c8d7f023278532f6f49139","683db6dfa200031b80f2a654","686507718aa5dd9bc054b4ad","65c8d7f023278532f6f49139","2025-07-02T10:30:05.450Z","","","","","","AttribQ","","","","","","","","","","","","","","","","","","","","","","","","","","","","","","","","","","","","","","50"
"2870","","<div style=""width:500px;"">
  <p>How much control did you have over the ball?</p>
  </div>","61","html-slider-response","53","657553","0.0-10.0-2.3","85","1","2025-07-02 10:19:09","80fe4187154257d5fb01684ea91b68b9","94.194.242.83","Mozilla/5.0 (Macintosh; Intel Mac OS X 10_15_7) AppleWebKit/537.36 (KHTML, like Gecko) Chrome/128.0.0.0 Safari/537.36","Macintosh","Chrome","128.0.0.0","OS X","10_15_7","https://app.prolific.com/","en-GB,en-US;q=0.9,en;q=0.8","65c8d7f023278532f6f49139","683db6dfa200031b80f2a654","686507718aa5dd9bc054b4ad","65c8d7f023278532f6f49139","2025-07-02T10:30:08.322Z","","","","","","ControlQ","","","","","","","","","","","","","","","","","","","","","","","","","","","","","","","","","","","","","","50"
"2557","","<div style=""width:500px;"">
  <p>How would you describe your current emotional state?</p>
  </div>","32","html-slider-response","54","660112","0.0-10.0-3.3","85","1","2025-07-02 10:19:09","80fe4187154257d5fb01684ea91b68b9","94.194.242.83","Mozilla/5.0 (Macintosh; Intel Mac OS X 10_15_7) AppleWebKit/537.36 (KHTML, like Gecko) Chrome/128.0.0.0 Safari/537.36","Macintosh","Chrome","128.0.0.0","OS X","10_15_7","https://app.prolific.com/","en-GB,en-US;q=0.9,en;q=0.8","65c8d7f023278532f6f49139","683db6dfa200031b80f2a654","686507718aa5dd9bc054b4ad","65c8d7f023278532f6f49139","2025-07-02T10:30:10.881Z","","","","","","StressQ","","","","","","","","","","","","","","","","","","","","","","","","","","","","","","","","","","","","","","50"
"2006","","<div style=""width:500px;"">
  <p>What best describes how you currently feel?</p>
  </div>","71","html-slider-response","55","662120","0.0-10.0-4.3","85","1","2025-07-02 10:19:09","80fe4187154257d5fb01684ea91b68b9","94.194.242.83","Mozilla/5.0 (Macintosh; Intel Mac OS X 10_15_7) AppleWebKit/537.36 (KHTML, like Gecko) Chrome/128.0.0.0 Safari/537.36","Macintosh","Chrome","128.0.0.0","OS X","10_15_7","https://app.prolific.com/","en-GB,en-US;q=0.9,en;q=0.8","65c8d7f023278532f6f49139","683db6dfa200031b80f2a654","686507718aa5dd9bc054b4ad","65c8d7f023278532f6f49139","2025-07-02T10:30:12.889Z","","","","","","MotivationQ","","","","","","","","","","","","","","","","","","","","","","","","","","","","","","","","","","","","","","50"
"","","","","ctl-task-cpt","56","694586","0.0-10.0-0.4","85","1","2025-07-02 10:19:09","80fe4187154257d5fb01684ea91b68b9","94.194.242.83","Mozilla/5.0 (Macintosh; Intel Mac OS X 10_15_7) AppleWebKit/537.36 (KHTML, like Gecko) Chrome/128.0.0.0 Safari/537.36","Macintosh","Chrome","128.0.0.0","OS X","10_15_7","https://app.prolific.com/","en-GB,en-US;q=0.9,en;q=0.8","65c8d7f023278532f6f49139","683db6dfa200031b80f2a654","686507718aa5dd9bc054b4ad","65c8d7f023278532f6f49139","2025-07-02T10:30:45.356Z","","","","","","","","","","","","","","","","win-only","0","g1:NW,g2:SE","0.6","5","0","663778.5","1037.7","6063","29440","1","4","8","6","2","8","8","32","24","0.24242424242424243","1175.7","3000","1185","[""down"",""right""]","{""num_key_presses"":8,""num_perfect"":5,""num_errors"":0,""num_randdir"":3,""num_randdir_good_moves"":2,""num_whilered"":0,""num_whileblue"":0,""num_blue"":1,""num_good_moves"":7}","[344.14285714285717,352.04910714285717,8.4,344.14285714285717,351.04910714285717,157.6,344.14285714285717,351.04910714285717,265.9,344.14285714285717,351.04910714285717,380.8,335.14285714285717,339.04910714285717,487.2,310.14285714285717,324.04910714285717,590.3,334.14285714285717,373.04910714285717,690.6,577.1428571428571,540.0491071428571,797.6,581.1428571428571,541.0491071428571,900.6,582.1428571428571,561.0491071428571,1006.3,610.1428571428571,643.0491071428571,1115,610.1428571428571,643.0491071428571,1221.3,610.1428571428571,643.0491071428571,1324.3,658.1428571428571,649.0491071428571,1435,747.1428571428571,642.0491071428571,1535.5,747.1428571428571,642.0491071428571,1636,747.1428571428571,642.0491071428571,1744.6,747.1428571428571,642.0491071428571,1848,747.1428571428571,642.0491071428571,1952.6,747.1428571428571,642.0491071428571,2054.5,747.1428571428571,642.0491071428571,2164.5,747.1428571428571,642.0491071428571,2268.3,747.1428571428571,642.0491071428571,2374.5,747.1428571428571,642.0491071428571,2478.1,747.1428571428571,642.0491071428571,2579.2,747.1428571428571,642.0491071428571,2681.4,747.1428571428571,642.0491071428571,2782.1,747.1428571428571,642.0491071428571,2883.7,747.1428571428571,642.0491071428571,2991.2,747.1428571428571,642.0491071428571,3096.7,747.1428571428571,642.0491071428571,3200.2,747.1428571428571,642.0491071428571,3301.8,747.1428571428571,642.0491071428571,3403,747.1428571428571,642.0491071428571,3503,747.1428571428571,642.0491071428571,3610.6,747.1428571428571,642.0491071428571,3712.4,747.1428571428571,642.0491071428571,3815.6,747.1428571428571,642.0491071428571,3918,747.1428571428571,642.0491071428571,4021.6,747.1428571428571,642.0491071428571,4123.7,747.1428571428571,642.0491071428571,4224.7,747.1428571428571,642.0491071428571,4326.5,747.1428571428571,642.0491071428571,4428.8,747.1428571428571,642.0491071428571,4532.5,747.1428571428571,642.0491071428571,4640,747.1428571428571,642.0491071428571,4747.5,747.1428571428571,642.0491071428571,4848.6,747.1428571428571,642.0491071428571,4952.2]","[1366.1,1366.1,1000,0,366.1,""smooth"",""down"",""down"",""good_move"",4279.2,2911.7,2544.8,1367.5,366.9,""smooth"",""down"",""down"",""good_move"",7281.7,3002,2614.6,4279.7,387.4,""oops"",""down"",""right"",""good_move"",9667.4,2384.8,1768,7282.6,616.8,""oops"",""down"",""up"",""bad_move"",15108.1,5440.1,2322.9,12341.1,444.1,""oops"",""down"",""down"",""good_move"",17232.9,2124.2,1663.2,15108.7,461,""smooth"",""right"",""right"",""good_move"",20247.6,3014.4,2603.9,17233.2,410.5,""smooth"",""down"",""down"",""good_move"",23214.6,2966.5,2603,20248.1,363.5,""smooth"",""right"",""right"",""good_move""]","",""
"2320","","<div style=""width:500px;"">
  <p>What determined the result of this run?</p>
  </div>","68","html-slider-response","57","696908","0.0-10.0-1.4","85","1","2025-07-02 10:19:09","80fe4187154257d5fb01684ea91b68b9","94.194.242.83","Mozilla/5.0 (Macintosh; Intel Mac OS X 10_15_7) AppleWebKit/537.36 (KHTML, like Gecko) Chrome/128.0.0.0 Safari/537.36","Macintosh","Chrome","128.0.0.0","OS X","10_15_7","https://app.prolific.com/","en-GB,en-US;q=0.9,en;q=0.8","65c8d7f023278532f6f49139","683db6dfa200031b80f2a654","686507718aa5dd9bc054b4ad","65c8d7f023278532f6f49139","2025-07-02T10:30:47.677Z","","","","","","AttribQ","","","","","","","","","","","","","","","","","","","","","","","","","","","","","","","","","","","","","","50"
"3896","","<div style=""width:500px;"">
  <p>How much control did you have over the ball?</p>
  </div>","66","html-slider-response","58","700805","0.0-10.0-2.4","85","1","2025-07-02 10:19:09","80fe4187154257d5fb01684ea91b68b9","94.194.242.83","Mozilla/5.0 (Macintosh; Intel Mac OS X 10_15_7) AppleWebKit/537.36 (KHTML, like Gecko) Chrome/128.0.0.0 Safari/537.36","Macintosh","Chrome","128.0.0.0","OS X","10_15_7","https://app.prolific.com/","en-GB,en-US;q=0.9,en;q=0.8","65c8d7f023278532f6f49139","683db6dfa200031b80f2a654","686507718aa5dd9bc054b4ad","65c8d7f023278532f6f49139","2025-07-02T10:30:51.575Z","","","","","","ControlQ","","","","","","","","","","","","","","","","","","","","","","","","","","","","","","","","","","","","","","50"
"2590","","<div style=""width:500px;"">
  <p>How would you describe your current emotional state?</p>
  </div>","24","html-slider-response","59","703397","0.0-10.0-3.4","85","1","2025-07-02 10:19:09","80fe4187154257d5fb01684ea91b68b9","94.194.242.83","Mozilla/5.0 (Macintosh; Intel Mac OS X 10_15_7) AppleWebKit/537.36 (KHTML, like Gecko) Chrome/128.0.0.0 Safari/537.36","Macintosh","Chrome","128.0.0.0","OS X","10_15_7","https://app.prolific.com/","en-GB,en-US;q=0.9,en;q=0.8","65c8d7f023278532f6f49139","683db6dfa200031b80f2a654","686507718aa5dd9bc054b4ad","65c8d7f023278532f6f49139","2025-07-02T10:30:54.166Z","","","","","","StressQ","","","","","","","","","","","","","","","","","","","","","","","","","","","","","","","","","","","","","","50"
"2859","","<div style=""width:500px;"">
  <p>What best describes how you currently feel?</p>
  </div>","69","html-slider-response","60","706258","0.0-10.0-4.4","85","1","2025-07-02 10:19:09","80fe4187154257d5fb01684ea91b68b9","94.194.242.83","Mozilla/5.0 (Macintosh; Intel Mac OS X 10_15_7) AppleWebKit/537.36 (KHTML, like Gecko) Chrome/128.0.0.0 Safari/537.36","Macintosh","Chrome","128.0.0.0","OS X","10_15_7","https://app.prolific.com/","en-GB,en-US;q=0.9,en;q=0.8","65c8d7f023278532f6f49139","683db6dfa200031b80f2a654","686507718aa5dd9bc054b4ad","65c8d7f023278532f6f49139","2025-07-02T10:30:57.027Z","","","","","","MotivationQ","","","","","","","","","","","","","","","","","","","","","","","","","","","","","","","","","","","","","","50"
"","","","","ctl-task-cpt","61","748606","0.0-10.0-0.5","85","1","2025-07-02 10:19:09","80fe4187154257d5fb01684ea91b68b9","94.194.242.83","Mozilla/5.0 (Macintosh; Intel Mac OS X 10_15_7) AppleWebKit/537.36 (KHTML, like Gecko) Chrome/128.0.0.0 Safari/537.36","Macintosh","Chrome","128.0.0.0","OS X","10_15_7","https://app.prolific.com/","en-GB,en-US;q=0.9,en;q=0.8","65c8d7f023278532f6f49139","683db6dfa200031b80f2a654","686507718aa5dd9bc054b4ad","65c8d7f023278532f6f49139","2025-07-02T10:31:39.375Z","","","","","","","","","","","","","","","","win-only","2","g1:SE,g2:NW","0.5","6","0","707912.2","959.4","5962.3","39322.2","1","4","4","6","2","4","4","36","32","0.2727272727272727","1248.5","3000","1370","[""left"",""up""]","{""num_key_presses"":10,""num_perfect"":5,""num_errors"":0,""num_randdir"":5,""num_randdir_good_moves"":3,""num_whilered"":0,""num_whileblue"":0,""num_blue"":2,""num_good_moves"":8}","[348.14285714285717,353.04910714285717,0.6,348.14285714285717,353.04910714285717,108.4,348.14285714285717,353.04910714285717,216.4,348.14285714285717,353.04910714285717,316.4,352.14285714285717,377.04910714285717,434.7,374.14285714285717,417.04910714285717,535.9,374.14285714285717,417.04910714285717,640.5,341.14285714285717,335.04910714285717,744.8,210.14285714285714,202.04910714285714,846.3,153.14285714285714,156.04910714285714,960.8,94.14285714285714,105.04910714285714,1106.3,92.14285714285714,102.04910714285714,1207,91.14285714285714,100.04910714285714,1333.4,91.14285714285714,101.04910714285714,1440.1,154.14285714285714,164.04910714285714,1549.3,305.14285714285717,282.04910714285717,1652,359.14285714285717,305.04910714285717,1757.5,359.14285714285717,305.04910714285717,1869,359.14285714285717,305.04910714285717,1976,359.14285714285717,305.04910714285717,2080.6,359.14285714285717,305.04910714285717,2185.7,359.14285714285717,305.04910714285717,2286,359.14285714285717,305.04910714285717,2391.2,359.14285714285717,305.04910714285717,2498.1,359.14285714285717,305.04910714285717,2605.2,359.14285714285717,305.04910714285717,2705.6,359.14285714285717,305.04910714285717,2815.4,359.14285714285717,305.04910714285717,2925.9,359.14285714285717,305.04910714285717,3032.8,359.14285714285717,305.04910714285717,3134.8,359.14285714285717,305.04910714285717,3244,359.14285714285717,305.04910714285717,3348.7,359.14285714285717,305.04910714285717,3454.6,359.14285714285717,305.04910714285717,3558,359.14285714285717,305.04910714285717,3662.8,359.14285714285717,305.04910714285717,3770.2,359.14285714285717,305.04910714285717,3881.7,359.14285714285717,305.04910714285717,3983.8,359.14285714285717,305.04910714285717,4089.2,359.14285714285717,305.04910714285717,4195.5,359.14285714285717,305.04910714285717,4297.2,359.14285714285717,305.04910714285717,4398.7,359.14285714285717,305.04910714285717,4503.4,359.14285714285717,305.04910714285717,4611.3,359.14285714285717,305.04910714285717,4716.7,359.14285714285717,305.04910714285717,4824.9,359.14285714285717,305.04910714285717,4932.8]","[1395.8,1395.8,1000,0,395.8,""oops"",""left"",""right"",""bad_move"",4499,3101.9,2735.7,1397.1,366.2,""smooth"",""up"",""up"",""good_move"",7185.3,2685.5,2279.6,4499.8,405.9,""oops"",""up"",""down"",""bad_move"",10328.3,3142.2,2785.3,7186.1,356.9,""smooth"",""up"",""up"",""good_move"",13374.6,3045.9,2703.1,10328.7,342.8,""smooth"",""up"",""up"",""good_move"",16126.4,2751.7,2246.6,13374.8,505.1,""oops"",""left"",""left"",""good_move"",18889.7,2761.3,2396,16128.4,365.3,""smooth"",""left"",""left"",""good_move"",27924.6,9034.5,2236.6,25346,342,""smooth"",""left"",""left"",""good_move"",30701.6,2776.7,2358.2,27925,418.5,""oops"",""left"",""left"",""good_move"",33182.6,2480.5,2104.7,30702.1,375.8,""oops"",""up"",""up"",""good_move""]","",""
"3301","","<div style=""width:500px;"">
  <p>What determined the result of this run?</p>
  </div>","62","html-slider-response","62","751908","0.0-10.0-1.5","85","1","2025-07-02 10:19:09","80fe4187154257d5fb01684ea91b68b9","94.194.242.83","Mozilla/5.0 (Macintosh; Intel Mac OS X 10_15_7) AppleWebKit/537.36 (KHTML, like Gecko) Chrome/128.0.0.0 Safari/537.36","Macintosh","Chrome","128.0.0.0","OS X","10_15_7","https://app.prolific.com/","en-GB,en-US;q=0.9,en;q=0.8","65c8d7f023278532f6f49139","683db6dfa200031b80f2a654","686507718aa5dd9bc054b4ad","65c8d7f023278532f6f49139","2025-07-02T10:31:42.678Z","","","","","","AttribQ","","","","","","","","","","","","","","","","","","","","","","","","","","","","","","","","","","","","","","50"
"2423","","<div style=""width:500px;"">
  <p>How much control did you have over the ball?</p>
  </div>","58","html-slider-response","63","754333","0.0-10.0-2.5","85","1","2025-07-02 10:19:09","80fe4187154257d5fb01684ea91b68b9","94.194.242.83","Mozilla/5.0 (Macintosh; Intel Mac OS X 10_15_7) AppleWebKit/537.36 (KHTML, like Gecko) Chrome/128.0.0.0 Safari/537.36","Macintosh","Chrome","128.0.0.0","OS X","10_15_7","https://app.prolific.com/","en-GB,en-US;q=0.9,en;q=0.8","65c8d7f023278532f6f49139","683db6dfa200031b80f2a654","686507718aa5dd9bc054b4ad","65c8d7f023278532f6f49139","2025-07-02T10:31:45.102Z","","","","","","ControlQ","","","","","","","","","","","","","","","","","","","","","","","","","","","","","","","","","","","","","","50"
"1934","","<div style=""width:500px;"">
  <p>How would you describe your current emotional state?</p>
  </div>","30","html-slider-response","64","756269","0.0-10.0-3.5","85","1","2025-07-02 10:19:09","80fe4187154257d5fb01684ea91b68b9","94.194.242.83","Mozilla/5.0 (Macintosh; Intel Mac OS X 10_15_7) AppleWebKit/537.36 (KHTML, like Gecko) Chrome/128.0.0.0 Safari/537.36","Macintosh","Chrome","128.0.0.0","OS X","10_15_7","https://app.prolific.com/","en-GB,en-US;q=0.9,en;q=0.8","65c8d7f023278532f6f49139","683db6dfa200031b80f2a654","686507718aa5dd9bc054b4ad","65c8d7f023278532f6f49139","2025-07-02T10:31:47.038Z","","","","","","StressQ","","","","","","","","","","","","","","","","","","","","","","","","","","","","","","","","","","","","","","50"
"2299","","<div style=""width:500px;"">
  <p>What best describes how you currently feel?</p>
  </div>","81","html-slider-response","65","758570","0.0-10.0-4.5","85","1","2025-07-02 10:19:09","80fe4187154257d5fb01684ea91b68b9","94.194.242.83","Mozilla/5.0 (Macintosh; Intel Mac OS X 10_15_7) AppleWebKit/537.36 (KHTML, like Gecko) Chrome/128.0.0.0 Safari/537.36","Macintosh","Chrome","128.0.0.0","OS X","10_15_7","https://app.prolific.com/","en-GB,en-US;q=0.9,en;q=0.8","65c8d7f023278532f6f49139","683db6dfa200031b80f2a654","686507718aa5dd9bc054b4ad","65c8d7f023278532f6f49139","2025-07-02T10:31:49.339Z","","","","","","MotivationQ","","","","","","","","","","","","","","","","","","","","","","","","","","","","","","","","","","","","","","50"
"","","","","ctl-task-cpt","66","800838","0.0-10.0-0.6","85","1","2025-07-02 10:19:09","80fe4187154257d5fb01684ea91b68b9","94.194.242.83","Mozilla/5.0 (Macintosh; Intel Mac OS X 10_15_7) AppleWebKit/537.36 (KHTML, like Gecko) Chrome/128.0.0.0 Safari/537.36","Macintosh","Chrome","128.0.0.0","OS X","10_15_7","https://app.prolific.com/","en-GB,en-US;q=0.9,en;q=0.8","65c8d7f023278532f6f49139","683db6dfa200031b80f2a654","686507718aa5dd9bc054b4ad","65c8d7f023278532f6f49139","2025-07-02T10:32:31.607Z","","","","","","","","","","","","","","","","win-only","0","g1:NW,g2:SE","0.4","7","0","760224.5","1079.9","6087.4","39242.7","1","4","4","6","2","4","4","40","36","0.30303030303030304","1127.6","3000","1530","[""down"",""right""]","{""num_key_presses"":10,""num_perfect"":4,""num_errors"":0,""num_randdir"":6,""num_randdir_good_moves"":4,""num_whilered"":0,""num_whileblue"":0,""num_blue"":2,""num_good_moves"":8}","[350.14285714285717,347.04910714285717,0.7,350.14285714285717,347.04910714285717,107.4,349.14285714285717,347.04910714285717,208.5,348.14285714285717,349.04910714285717,310.4,348.14285714285717,351.04910714285717,417.6,376.14285714285717,393.04910714285717,526.5,489.14285714285717,517.0491071428571,639.8,517.1428571428571,547.0491071428571,742.1,556.1428571428571,573.0491071428571,851.5,580.1428571428571,595.0491071428571,952.4,596.1428571428571,610.0491071428571,1060.7,601.1428571428571,613.0491071428571,1161.6,601.1428571428571,613.0491071428571,1263.9,602.1428571428571,613.0491071428571,1375.7,645.1428571428571,609.0491071428571,1478,681.1428571428571,600.0491071428571,1586.3,681.1428571428571,600.0491071428571,1692.9,681.1428571428571,600.0491071428571,1799.9,681.1428571428571,600.0491071428571,1903.3,681.1428571428571,600.0491071428571,2016.1,681.1428571428571,600.0491071428571,2120,681.1428571428571,600.0491071428571,2226.8,681.1428571428571,600.0491071428571,2333.2,681.1428571428571,600.0491071428571,2437.7,681.1428571428571,600.0491071428571,2540.2,681.1428571428571,600.0491071428571,2649.5,681.1428571428571,600.0491071428571,2750.8,681.1428571428571,600.0491071428571,2856.2,681.1428571428571,600.0491071428571,2963.8,681.1428571428571,600.0491071428571,3063.9,681.1428571428571,600.0491071428571,3184.2,681.1428571428571,600.0491071428571,3290.4,681.1428571428571,600.0491071428571,3401.5,681.1428571428571,600.0491071428571,3516.4,681.1428571428571,600.0491071428571,3632.9,681.1428571428571,600.0491071428571,3734.7,681.1428571428571,600.0491071428571,3849.1,681.1428571428571,600.0491071428571,3954.9,681.1428571428571,600.0491071428571,4069.9,681.1428571428571,600.0491071428571,4183.6,681.1428571428571,600.0491071428571,4293.6,681.1428571428571,600.0491071428571,4406.4,681.1428571428571,600.0491071428571,4514.3,681.1428571428571,600.0491071428571,4616.9,681.1428571428571,600.0491071428571,4728.3,681.1428571428571,600.0491071428571,4836,681.1428571428571,600.0491071428571,4941.4]","[4387.6,4387.6,2010.2,2013.4,364,""oops"",""down"",""left"",""bad_move"",7639.2,3250.8,2864.3,4388.4,386.5,""smooth"",""down"",""down"",""good_move"",13780.3,6140.3,2388.4,11015.5,376.4,""oops"",""down"",""left"",""bad_move"",16570.7,2770.1,1817.8,13800.6,952.3,""oops"",""down"",""down"",""good_move"",19331.1,2759.9,2293.5,16571.2,466.4,""oops"",""down"",""down"",""good_move"",21639.3,2307.7,1882,19331.6,425.7,""smooth"",""right"",""right"",""good_move"",24698.8,3058.6,2635.5,21640.2,423.1,""oops"",""right"",""right"",""good_move"",27386.8,2686.1,2298.6,24700.7,387.5,""smooth"",""right"",""right"",""good_move"",30550.1,3162.9,2768.5,27387.2,394.4,""oops"",""right"",""right"",""good_move"",32885,2334.7,1892.6,30550.3,442.1,""smooth"",""right"",""right"",""good_move""]","",""
"1791","","<div style=""width:500px;"">
  <p>What determined the result of this run?</p>
  </div>","66","html-slider-response","67","802631","0.0-10.0-1.6","85","1","2025-07-02 10:19:09","80fe4187154257d5fb01684ea91b68b9","94.194.242.83","Mozilla/5.0 (Macintosh; Intel Mac OS X 10_15_7) AppleWebKit/537.36 (KHTML, like Gecko) Chrome/128.0.0.0 Safari/537.36","Macintosh","Chrome","128.0.0.0","OS X","10_15_7","https://app.prolific.com/","en-GB,en-US;q=0.9,en;q=0.8","65c8d7f023278532f6f49139","683db6dfa200031b80f2a654","686507718aa5dd9bc054b4ad","65c8d7f023278532f6f49139","2025-07-02T10:32:33.400Z","","","","","","AttribQ","","","","","","","","","","","","","","","","","","","","","","","","","","","","","","","","","","","","","","50"
"1936","","<div style=""width:500px;"">
  <p>How much control did you have over the ball?</p>
  </div>","59","html-slider-response","68","804568","0.0-10.0-2.6","85","1","2025-07-02 10:19:09","80fe4187154257d5fb01684ea91b68b9","94.194.242.83","Mozilla/5.0 (Macintosh; Intel Mac OS X 10_15_7) AppleWebKit/537.36 (KHTML, like Gecko) Chrome/128.0.0.0 Safari/537.36","Macintosh","Chrome","128.0.0.0","OS X","10_15_7","https://app.prolific.com/","en-GB,en-US;q=0.9,en;q=0.8","65c8d7f023278532f6f49139","683db6dfa200031b80f2a654","686507718aa5dd9bc054b4ad","65c8d7f023278532f6f49139","2025-07-02T10:32:35.337Z","","","","","","ControlQ","","","","","","","","","","","","","","","","","","","","","","","","","","","","","","","","","","","","","","50"
"2262","","<div style=""width:500px;"">
  <p>How would you describe your current emotional state?</p>
  </div>","14","html-slider-response","69","806832","0.0-10.0-3.6","85","1","2025-07-02 10:19:09","80fe4187154257d5fb01684ea91b68b9","94.194.242.83","Mozilla/5.0 (Macintosh; Intel Mac OS X 10_15_7) AppleWebKit/537.36 (KHTML, like Gecko) Chrome/128.0.0.0 Safari/537.36","Macintosh","Chrome","128.0.0.0","OS X","10_15_7","https://app.prolific.com/","en-GB,en-US;q=0.9,en;q=0.8","65c8d7f023278532f6f49139","683db6dfa200031b80f2a654","686507718aa5dd9bc054b4ad","65c8d7f023278532f6f49139","2025-07-02T10:32:37.601Z","","","","","","StressQ","","","","","","","","","","","","","","","","","","","","","","","","","","","","","","","","","","","","","","50"
"2029","","<div style=""width:500px;"">
  <p>What best describes how you currently feel?</p>
  </div>","80","html-slider-response","70","808863","0.0-10.0-4.6","85","1","2025-07-02 10:19:09","80fe4187154257d5fb01684ea91b68b9","94.194.242.83","Mozilla/5.0 (Macintosh; Intel Mac OS X 10_15_7) AppleWebKit/537.36 (KHTML, like Gecko) Chrome/128.0.0.0 Safari/537.36","Macintosh","Chrome","128.0.0.0","OS X","10_15_7","https://app.prolific.com/","en-GB,en-US;q=0.9,en;q=0.8","65c8d7f023278532f6f49139","683db6dfa200031b80f2a654","686507718aa5dd9bc054b4ad","65c8d7f023278532f6f49139","2025-07-02T10:32:39.632Z","","","","","","MotivationQ","","","","","","","","","","","","","","","","","","","","","","","","","","","","","","","","","","","","","","50"
"","","","","ctl-task-cpt","71","906839","0.0-10.0-0.7","85","1","2025-07-02 10:19:09","80fe4187154257d5fb01684ea91b68b9","94.194.242.83","Mozilla/5.0 (Macintosh; Intel Mac OS X 10_15_7) AppleWebKit/537.36 (KHTML, like Gecko) Chrome/128.0.0.0 Safari/537.36","Macintosh","Chrome","128.0.0.0","OS X","10_15_7","https://app.prolific.com/","en-GB,en-US;q=0.9,en;q=0.8","65c8d7f023278532f6f49139","683db6dfa200031b80f2a654","686507718aa5dd9bc054b4ad","65c8d7f023278532f6f49139","2025-07-02T10:34:17.609Z","","","","","","","","","","","","","","","","win-only","2","g1:SE,g2:NW","0.3","8","0","810514.9","1004.5","6011.6","94954.2","1","4","8","6","2","-8","-10","30","40","0.22727272727272727","1232.3","3000","-1145","[""left"",""up""]","{""num_key_presses"":23,""num_perfect"":6,""num_errors"":2,""num_randdir"":15,""num_randdir_good_moves"":6,""num_whilered"":0,""num_whileblue"":2,""num_blue"":7,""num_good_moves"":13}","[350.14285714285717,350.04910714285717,1.1,350.14285714285717,350.04910714285717,101.4,350.14285714285717,350.04910714285717,209.6,357.14285714285717,366.04910714285717,311.1,367.14285714285717,383.04910714285717,422.3,367.14285714285717,385.04910714285717,527.6,275.14285714285717,306.04910714285717,628,173.14285714285714,219.04910714285714,740.1,108.14285714285714,172.04910714285714,846.7,69.14285714285714,143.04910714285714,949.7,55.142857142857146,113.04910714285714,1051.1,61.142857142857146,98.04910714285714,1156.6,62.142857142857146,94.04910714285714,1259.4,62.142857142857146,94.04910714285714,1367.8,87.14285714285714,109.04910714285714,1474.9,303.14285714285717,291.04910714285717,1576.9,469.14285714285717,447.04910714285717,1689.9,477.14285714285717,455.04910714285717,1796.3,477.14285714285717,455.04910714285717,1906.2,477.14285714285717,455.04910714285717,2013.5,477.14285714285717,455.04910714285717,2122.6,477.14285714285717,455.04910714285717,2233.3,477.14285714285717,455.04910714285717,2335.5,477.14285714285717,455.04910714285717,2442.1,477.14285714285717,455.04910714285717,2543.7,477.14285714285717,455.04910714285717,2649.1,477.14285714285717,455.04910714285717,2757,477.14285714285717,455.04910714285717,2864.1,477.14285714285717,455.04910714285717,2970.8,477.14285714285717,455.04910714285717,3079.5,477.14285714285717,455.04910714285717,3181.9,477.14285714285717,455.04910714285717,3302.6,477.14285714285717,455.04910714285717,3431.2,477.14285714285717,455.04910714285717,3534.7,477.14285714285717,455.04910714285717,3639.3,477.14285714285717,455.04910714285717,3748.2,477.14285714285717,455.04910714285717,3862.5,477.14285714285717,455.04910714285717,3975.1,477.14285714285717,455.04910714285717,4079.3,477.14285714285717,455.04910714285717,4190.9,477.14285714285717,455.04910714285717,4297.6,477.14285714285717,455.04910714285717,4406.9,477.14285714285717,455.04910714285717,4514.7,477.14285714285717,455.04910714285717,4625.9,477.14285714285717,455.04910714285717,4734.3,477.14285714285717,455.04910714285717,4845.3,477.14285714285717,455.04910714285717,4951.2]","[1562.8,1562.8,1000,0,562.8,""oops"",""left"",""right"",""bad_move"",3952.2,2387.8,1968.3,1564.4,419.5,""smooth"",""up"",""up"",""good_move"",7166.3,3212.1,2860.5,3954.2,351.6,""oops"",""up"",""left"",""good_move"",10625,3458.1,3024.1,7166.9,434,""oops"",""up"",""right"",""bad_move"",13865.4,3239.5,2787.7,10625.9,451.8,""smooth"",""up"",""up"",""good_move"",16704.5,2838.5,2298.9,13866,539.6,""smooth"",""up"",""up"",""good_move"",19632.7,2927.8,2589.8,16704.9,338,""oops"",""left"",""left"",""good_move"",22009.8,2376.7,2012.6,19633.1,364.1,""oops"",""left"",""left"",""good_move"",24914.4,2903.8,2551.7,22010.6,352.1,""oops"",""left"",""right"",""bad_move"",30516.7,5601.4,2186,27994.5,336.2,""oops"",""left"",""right"",""bad_move"",36451.6,5934.6,2189.3,33901.3,361,""oops"",""left"",""down"",""bad_move"",43030.5,6578,2311,40403.5,316,""while_blue"",""left"",""down"",""bad_move"",46846.7,3815.7,3480.9,43031,334.8,""oops"",""left"",""up"",""good_move"",49759.7,2909.3,2552.2,46850.4,357.1,""while_blue"",""left"",""left"",""good_move"",56460.5,6700.2,2259.1,53831,370.4,""smooth"",""left"",""left"",""good_move"",59328.3,2867.3,1925.2,56461,942.1,""oops"",""left"",""up"",""good_move"",62610.5,3280.4,2870.6,59330.1,409.8,""smooth"",""left"",""left"",""good_move"",66558.2,3946.6,3485,62611.6,461.6,""oops"",""left"",""right"",""bad_move"",69091.4,2532.2,2122.6,66559.2,409.6,""oops"",""left"",""right"",""bad_move"",76491.3,7399.5,3083.6,73008.5,399.2,""smooth"",""left"",""left"",""good_move"",80207.8,3716.1,3304.3,76491.7,411.8,""oops"",""left"",""right"",""bad_move"",83996,3787.6,3251.5,80208.4,536.1,""oops"",""left"",""left"",""good_move"",86942.8,2946.1,2580.5,83996.7,365.6,""oops"",""left"",""right"",""bad_move""]","",""
"3739","","<div style=""width:500px;"">
  <p>What determined the result of this run?</p>
  </div>","16","html-slider-response","72","910580","0.0-10.0-1.7","85","1","2025-07-02 10:19:09","80fe4187154257d5fb01684ea91b68b9","94.194.242.83","Mozilla/5.0 (Macintosh; Intel Mac OS X 10_15_7) AppleWebKit/537.36 (KHTML, like Gecko) Chrome/128.0.0.0 Safari/537.36","Macintosh","Chrome","128.0.0.0","OS X","10_15_7","https://app.prolific.com/","en-GB,en-US;q=0.9,en;q=0.8","65c8d7f023278532f6f49139","683db6dfa200031b80f2a654","686507718aa5dd9bc054b4ad","65c8d7f023278532f6f49139","2025-07-02T10:34:21.349Z","","","","","","AttribQ","","","","","","","","","","","","","","","","","","","","","","","","","","","","","","","","","","","","","","50"
"2541","","<div style=""width:500px;"">
  <p>How much control did you have over the ball?</p>
  </div>","22","html-slider-response","73","913123","0.0-10.0-2.7","85","1","2025-07-02 10:19:09","80fe4187154257d5fb01684ea91b68b9","94.194.242.83","Mozilla/5.0 (Macintosh; Intel Mac OS X 10_15_7) AppleWebKit/537.36 (KHTML, like Gecko) Chrome/128.0.0.0 Safari/537.36","Macintosh","Chrome","128.0.0.0","OS X","10_15_7","https://app.prolific.com/","en-GB,en-US;q=0.9,en;q=0.8","65c8d7f023278532f6f49139","683db6dfa200031b80f2a654","686507718aa5dd9bc054b4ad","65c8d7f023278532f6f49139","2025-07-02T10:34:23.892Z","","","","","","ControlQ","","","","","","","","","","","","","","","","","","","","","","","","","","","","","","","","","","","","","","50"
"2245","","<div style=""width:500px;"">
  <p>How would you describe your current emotional state?</p>
  </div>","68","html-slider-response","74","915369","0.0-10.0-3.7","85","1","2025-07-02 10:19:09","80fe4187154257d5fb01684ea91b68b9","94.194.242.83","Mozilla/5.0 (Macintosh; Intel Mac OS X 10_15_7) AppleWebKit/537.36 (KHTML, like Gecko) Chrome/128.0.0.0 Safari/537.36","Macintosh","Chrome","128.0.0.0","OS X","10_15_7","https://app.prolific.com/","en-GB,en-US;q=0.9,en;q=0.8","65c8d7f023278532f6f49139","683db6dfa200031b80f2a654","686507718aa5dd9bc054b4ad","65c8d7f023278532f6f49139","2025-07-02T10:34:26.138Z","","","","","","StressQ","","","","","","","","","","","","","","","","","","","","","","","","","","","","","","","","","","","","","","50"
"2535","","<div style=""width:500px;"">
  <p>What best describes how you currently feel?</p>
  </div>","84","html-slider-response","75","917906","0.0-10.0-4.7","85","1","2025-07-02 10:19:09","80fe4187154257d5fb01684ea91b68b9","94.194.242.83","Mozilla/5.0 (Macintosh; Intel Mac OS X 10_15_7) AppleWebKit/537.36 (KHTML, like Gecko) Chrome/128.0.0.0 Safari/537.36","Macintosh","Chrome","128.0.0.0","OS X","10_15_7","https://app.prolific.com/","en-GB,en-US;q=0.9,en;q=0.8","65c8d7f023278532f6f49139","683db6dfa200031b80f2a654","686507718aa5dd9bc054b4ad","65c8d7f023278532f6f49139","2025-07-02T10:34:28.676Z","","","","","","MotivationQ","","","","","","","","","","","","","","","","","","","","","","","","","","","","","","","","","","","","","","50"
"","","","","ctl-task-cpt","76","972703","0.0-10.0-0.8","85","1","2025-07-02 10:19:09","80fe4187154257d5fb01684ea91b68b9","94.194.242.83","Mozilla/5.0 (Macintosh; Intel Mac OS X 10_15_7) AppleWebKit/537.36 (KHTML, like Gecko) Chrome/128.0.0.0 Safari/537.36","Macintosh","Chrome","128.0.0.0","OS X","10_15_7","https://app.prolific.com/","en-GB,en-US;q=0.9,en;q=0.8","65c8d7f023278532f6f49139","683db6dfa200031b80f2a654","686507718aa5dd9bc054b4ad","65c8d7f023278532f6f49139","2025-07-02T10:35:23.472Z","","","","","","","","","","","","","","","","win-only","1","g1:NE,g2:SW","0.4","9","0","919555.1","974.5","5981.4","51767","1","4","8","6","2","8","7","37","30","0.2803030303030303","1005.3","3000","1710","[""down"",""left""]","{""num_key_presses"":10,""num_perfect"":4,""num_errors"":1,""num_randdir"":5,""num_randdir_good_moves"":3,""num_whilered"":0,""num_whileblue"":1,""num_blue"":6,""num_good_moves"":8}","[348.14285714285717,350.04910714285717,0.4,349.14285714285717,350.04910714285717,111.6,349.14285714285717,350.04910714285717,219.2,349.14285714285717,350.04910714285717,321.4,354.14285714285717,346.04910714285717,436.2,275.14285714285717,406.04910714285717,536.9,128.14285714285714,543.0491071428571,645.7,114.14285714285714,558.0491071428571,747.3,86.14285714285714,587.0491071428571,857.6,66.14285714285714,612.0491071428571,962.4,65.14285714285714,613.0491071428571,1069.2,66.14285714285714,614.0491071428571,1176.6,135.14285714285714,635.0491071428571,1278.8,321.14285714285717,672.0491071428571,1380.5,444.14285714285717,651.0491071428571,1499.8,444.14285714285717,651.0491071428571,1608.8,444.14285714285717,651.0491071428571,1713.4,444.14285714285717,651.0491071428571,1816.5,444.14285714285717,651.0491071428571,1924.6,444.14285714285717,651.0491071428571,2030.4,444.14285714285717,651.0491071428571,2137.2,444.14285714285717,651.0491071428571,2241.4,444.14285714285717,651.0491071428571,2345,444.14285714285717,651.0491071428571,2459.2,444.14285714285717,651.0491071428571,2559.9,444.14285714285717,651.0491071428571,2661.7,444.14285714285717,651.0491071428571,2762.4,444.14285714285717,651.0491071428571,2871.5,444.14285714285717,651.0491071428571,2977.4,444.14285714285717,651.0491071428571,3079.2,444.14285714285717,651.0491071428571,3185.7,444.14285714285717,651.0491071428571,3293.2,444.14285714285717,651.0491071428571,3397.1,444.14285714285717,651.0491071428571,3512.5,444.14285714285717,651.0491071428571,3613,444.14285714285717,651.0491071428571,3716.2,444.14285714285717,651.0491071428571,3819.2,444.14285714285717,651.0491071428571,3922.1,444.14285714285717,651.0491071428571,4025,444.14285714285717,651.0491071428571,4129,444.14285714285717,651.0491071428571,4239.1,444.14285714285717,651.0491071428571,4353.9,444.14285714285717,651.0491071428571,4461.8,444.14285714285717,651.0491071428571,4576.4,444.14285714285717,651.0491071428571,4701.9,444.14285714285717,651.0491071428571,4818,444.14285714285717,651.0491071428571,4921.7]","[5216.6,5216.6,2856.1,2020.2,340.3,""while_blue"",""down"",""left"",""good_move"",8069.4,2851.9,2392.6,5217.5,459.4,""oops"",""down"",""up"",""bad_move"",18271.8,10201.6,2485.5,15445.7,340.6,""oops"",""down"",""down"",""good_move"",21481.5,3208.9,2786.6,18272.6,422.3,""oops"",""down"",""left"",""good_move"",24372.3,2890.3,2383.7,21482,506.6,""smooth"",""down"",""down"",""good_move"",27134.3,2761.3,2353.3,24373,408,""smooth"",""down"",""down"",""good_move"",30369.8,3235,2838.9,27134.8,396.1,""oops"",""left"",""down"",""good_move"",32671.1,2300.9,1919.1,30370.2,381.8,""oops"",""left"",""right"",""bad_move"",42326.2,9654.4,2136.4,39737.1,452.7,""smooth"",""left"",""left"",""good_move"",45526.3,3199.5,2804.9,42326.8,394.6,""smooth"",""left"",""left"",""good_move""]","",""
"2523","","<div style=""width:500px;"">
  <p>What determined the result of this run?</p>
  </div>","75","html-slider-response","77","975228","0.0-10.0-1.8","85","1","2025-07-02 10:19:09","80fe4187154257d5fb01684ea91b68b9","94.194.242.83","Mozilla/5.0 (Macintosh; Intel Mac OS X 10_15_7) AppleWebKit/537.36 (KHTML, like Gecko) Chrome/128.0.0.0 Safari/537.36","Macintosh","Chrome","128.0.0.0","OS X","10_15_7","https://app.prolific.com/","en-GB,en-US;q=0.9,en;q=0.8","65c8d7f023278532f6f49139","683db6dfa200031b80f2a654","686507718aa5dd9bc054b4ad","65c8d7f023278532f6f49139","2025-07-02T10:35:25.997Z","","","","","","AttribQ","","","","","","","","","","","","","","","","","","","","","","","","","","","","","","","","","","","","","","50"
"1950","","<div style=""width:500px;"">
  <p>How much control did you have over the ball?</p>
  </div>","80","html-slider-response","78","977180","0.0-10.0-2.8","85","1","2025-07-02 10:19:09","80fe4187154257d5fb01684ea91b68b9","94.194.242.83","Mozilla/5.0 (Macintosh; Intel Mac OS X 10_15_7) AppleWebKit/537.36 (KHTML, like Gecko) Chrome/128.0.0.0 Safari/537.36","Macintosh","Chrome","128.0.0.0","OS X","10_15_7","https://app.prolific.com/","en-GB,en-US;q=0.9,en;q=0.8","65c8d7f023278532f6f49139","683db6dfa200031b80f2a654","686507718aa5dd9bc054b4ad","65c8d7f023278532f6f49139","2025-07-02T10:35:27.950Z","","","","","","ControlQ","","","","","","","","","","","","","","","","","","","","","","","","","","","","","","","","","","","","","","50"
"2062","","<div style=""width:500px;"">
  <p>How would you describe your current emotional state?</p>
  </div>","28","html-slider-response","79","979244","0.0-10.0-3.8","85","1","2025-07-02 10:19:09","80fe4187154257d5fb01684ea91b68b9","94.194.242.83","Mozilla/5.0 (Macintosh; Intel Mac OS X 10_15_7) AppleWebKit/537.36 (KHTML, like Gecko) Chrome/128.0.0.0 Safari/537.36","Macintosh","Chrome","128.0.0.0","OS X","10_15_7","https://app.prolific.com/","en-GB,en-US;q=0.9,en;q=0.8","65c8d7f023278532f6f49139","683db6dfa200031b80f2a654","686507718aa5dd9bc054b4ad","65c8d7f023278532f6f49139","2025-07-02T10:35:30.013Z","","","","","","StressQ","","","","","","","","","","","","","","","","","","","","","","","","","","","","","","","","","","","","","","50"
"2319","","<div style=""width:500px;"">
  <p>What best describes how you currently feel?</p>
  </div>","74","html-slider-response","80","981564","0.0-10.0-4.8","85","1","2025-07-02 10:19:09","80fe4187154257d5fb01684ea91b68b9","94.194.242.83","Mozilla/5.0 (Macintosh; Intel Mac OS X 10_15_7) AppleWebKit/537.36 (KHTML, like Gecko) Chrome/128.0.0.0 Safari/537.36","Macintosh","Chrome","128.0.0.0","OS X","10_15_7","https://app.prolific.com/","en-GB,en-US;q=0.9,en;q=0.8","65c8d7f023278532f6f49139","683db6dfa200031b80f2a654","686507718aa5dd9bc054b4ad","65c8d7f023278532f6f49139","2025-07-02T10:35:32.334Z","","","","","","MotivationQ","","","","","","","","","","","","","","","","","","","","","","","","","","","","","","","","","","","","","","50"
