"rt","response_timestamp","stimulus","response","trial_type","trial_index","time_elapsed","internal_node_id","run_id","condition","recorded_at","source_code_version","ip","user_agent","device","browser","browser_version","platform","platform_version","referer","accept_language","PROLIFIC_PID","STUDY_ID","SESSION_ID","prolific_id","realtime","view_history","question_order","consent","success","question_id","eventType","responses","item_order","radio_event_ids","radio_event_times","key_event_times","mouse_event_times","straightlining","zigzagging","honeypot","which_type","canvas_config","goals_layout","control_level","trial_number","tutorial_trial_number","trial_start_time","phase1_start_time","phase2_start_time","phase3_start_time","goal_1_value","goal_1_distance","goal_2_value","goal_2_distance","goal_selected","outcome","outcome_total","participant_final_score","participant_initial_score","participant_final_score_prop","goal_choice_rt","allocated_time","allocated_time_remaining","goal_direction","counts","mouse_movements","key_presses","correct","slider_start"
"2401","1751451538639","<p style='font-size:40px;line-height:1.25'><strong>Welcome to the experiment!</strong></p><p style='font-size:1.1em;line-height:1.25'>Thank you for your interest in our experiment! Before you begin, it is important that we obtain your informed consent to participate in the study.</p><p style='font-size:1.1em;line-height:1.25'>On the next screen will be an <strong>information sheet</strong> for you to read. To participate in the study we need you to read this information sheet and the following consent form carefully. If you agree with all the statements, please click the <strong>I agree</strong> button.</p><p style='font-size:1.1em;line-height:1.25'>Press <strong>Next</strong> to read the information sheet.</p>","0","custom-html-button-response","0","2404","0.0-0.0","57","1","2025-07-02 10:18:53","80fe4187154257d5fb01684ea91b68b9","51.36.170.163","Mozilla/5.0 (Windows NT 10.0; Win64; x64) AppleWebKit/537.36 (KHTML, like Gecko) Chrome/137.0.0.0 Safari/537.36","WebKit","Chrome","137.0.0.0","Windows","10.0","https://app.prolific.com/","en-US,en;q=0.9","65f19a1fe38352676f83d5f0","683db6dfa200031b80f2a654","68650761e11d3d9743e8ed5b","65f19a1fe38352676f83d5f0","2025-07-02T10:18:58.642Z","","","","","","","","","","","","","","","","","","","","","","","","","","","","","","","","","","","","","","","","","","","",""
"34019","","","","instructions","1","36426","0.0-1.0","57","1","2025-07-02 10:18:53","80fe4187154257d5fb01684ea91b68b9","51.36.170.163","Mozilla/5.0 (Windows NT 10.0; Win64; x64) AppleWebKit/537.36 (KHTML, like Gecko) Chrome/137.0.0.0 Safari/537.36","WebKit","Chrome","137.0.0.0","Windows","10.0","https://app.prolific.com/","en-US,en;q=0.9","65f19a1fe38352676f83d5f0","683db6dfa200031b80f2a654","68650761e11d3d9743e8ed5b","65f19a1fe38352676f83d5f0","","[{""page_index"":0,""viewing_time"":30461},{""page_index"":1,""viewing_time"":3558}]","","","","","","","","","","","","","","","","","","","","","","","","","","","","","","","","","","","","","","","","","","",""
"19084","","","{""Q0"":"""",""Q1"":"""",""Q2"":"""",""Q3"":"""",""Q4"":"""",""Q5"":"""",""Q6"":""I agree""}","survey-multi-choice","2","55511","0.0-2.0","57","1","2025-07-02 10:18:53","80fe4187154257d5fb01684ea91b68b9","51.36.170.163","Mozilla/5.0 (Windows NT 10.0; Win64; x64) AppleWebKit/537.36 (KHTML, like Gecko) Chrome/137.0.0.0 Safari/537.36","WebKit","Chrome","137.0.0.0","Windows","10.0","https://app.prolific.com/","en-US,en;q=0.9","65f19a1fe38352676f83d5f0","683db6dfa200031b80f2a654","68650761e11d3d9743e8ed5b","65f19a1fe38352676f83d5f0","","","[0,1,2,3,4,5,6]","true","","","","","","","","","","","","","","","","","","","","","","","","","","","","","","","","","","","","","","","","",""
"21123","","","","fullscreen","3","77647","0.0-4.0","57","1","2025-07-02 10:18:53","80fe4187154257d5fb01684ea91b68b9","51.36.170.163","Mozilla/5.0 (Windows NT 10.0; Win64; x64) AppleWebKit/537.36 (KHTML, like Gecko) Chrome/137.0.0.0 Safari/537.36","WebKit","Chrome","137.0.0.0","Windows","10.0","https://app.prolific.com/","en-US,en;q=0.9","65f19a1fe38352676f83d5f0","683db6dfa200031b80f2a654","68650761e11d3d9743e8ed5b","65f19a1fe38352676f83d5f0","","","","","true","","","","","","","","","","","","","","","","","","","","","","","","","","","","","","","","","","","","","","","",""
"4380","1751451618265"," <p style='font-size:1.1em;line-height:1.25'>Thank you for completing the consent form and closing all other tabs.</p><p style='font-size:1.1em;line-height:1.25'>We will now invite you to fill in some demographic information and questionnaires, before starting the game.<br>This will take about 5 minutes.<br></p><p style='font-size:1.1em;line-height:1.25'>Press the <strong>Next</strong> button to continue.</p>","0","custom-html-button-response","4","82029","0.0-5.0","57","1","2025-07-02 10:18:53","80fe4187154257d5fb01684ea91b68b9","51.36.170.163","Mozilla/5.0 (Windows NT 10.0; Win64; x64) AppleWebKit/537.36 (KHTML, like Gecko) Chrome/137.0.0.0 Safari/537.36","WebKit","Chrome","137.0.0.0","Windows","10.0","https://app.prolific.com/","en-US,en;q=0.9","65f19a1fe38352676f83d5f0","683db6dfa200031b80f2a654","68650761e11d3d9743e8ed5b","65f19a1fe38352676f83d5f0","2025-07-02T10:20:18.266Z","","","","","","","","","","","","","","","","","","","","","","","","","","","","","","","","","","","","","","","","","","","",""
"2994","","","{""age"":""25""}","survey-text","5","85027","0.0-6.0-0.0","57","1","2025-07-02 10:18:53","80fe4187154257d5fb01684ea91b68b9","51.36.170.163","Mozilla/5.0 (Windows NT 10.0; Win64; x64) AppleWebKit/537.36 (KHTML, like Gecko) Chrome/137.0.0.0 Safari/537.36","WebKit","Chrome","137.0.0.0","Windows","10.0","https://app.prolific.com/","en-US,en;q=0.9","65f19a1fe38352676f83d5f0","683db6dfa200031b80f2a654","68650761e11d3d9743e8ed5b","65f19a1fe38352676f83d5f0","","","","","","0","demographics","","","","","","","","","","","","","","","","","","","","","","","","","","","","","","","","","","","","","",""
"3632","","","{""gender_identity"":""female/woman""}","survey-multi-choice","6","88660","0.0-6.0-1.0","57","1","2025-07-02 10:18:53","80fe4187154257d5fb01684ea91b68b9","51.36.170.163","Mozilla/5.0 (Windows NT 10.0; Win64; x64) AppleWebKit/537.36 (KHTML, like Gecko) Chrome/137.0.0.0 Safari/537.36","WebKit","Chrome","137.0.0.0","Windows","10.0","https://app.prolific.com/","en-US,en;q=0.9","65f19a1fe38352676f83d5f0","683db6dfa200031b80f2a654","68650761e11d3d9743e8ed5b","65f19a1fe38352676f83d5f0","","","[0]","","","1","demographics","","","","","","","","","","","","","","","","","","","","","","","","","","","","","","","","","","","","","",""
"3399","","","{""assigned_sex"":""female""}","survey-multi-choice","7","92062","0.0-6.0-2.0","57","1","2025-07-02 10:18:53","80fe4187154257d5fb01684ea91b68b9","51.36.170.163","Mozilla/5.0 (Windows NT 10.0; Win64; x64) AppleWebKit/537.36 (KHTML, like Gecko) Chrome/137.0.0.0 Safari/537.36","WebKit","Chrome","137.0.0.0","Windows","10.0","https://app.prolific.com/","en-US,en;q=0.9","65f19a1fe38352676f83d5f0","683db6dfa200031b80f2a654","68650761e11d3d9743e8ed5b","65f19a1fe38352676f83d5f0","","","[0]","","","2","demographics","","","","","","","","","","","","","","","","","","","","","","","","","","","","","","","","","","","","","",""
"3538","","","{""menstrual_cycle"":""Yes""}","survey-multi-choice","8","95602","0.0-6.0-3.0","57","1","2025-07-02 10:18:53","80fe4187154257d5fb01684ea91b68b9","51.36.170.163","Mozilla/5.0 (Windows NT 10.0; Win64; x64) AppleWebKit/537.36 (KHTML, like Gecko) Chrome/137.0.0.0 Safari/537.36","WebKit","Chrome","137.0.0.0","Windows","10.0","https://app.prolific.com/","en-US,en;q=0.9","65f19a1fe38352676f83d5f0","683db6dfa200031b80f2a654","68650761e11d3d9743e8ed5b","65f19a1fe38352676f83d5f0","","","[0]","","","4","demographics","","","","","","","","","","","","","","","","","","","","","","","","","","","","","","","","","","","","","",""
"3424","","","{""education"":""Bachelor's Degree (e.g., BA)""}","survey-multi-choice","9","99030","0.0-6.0-4.0","57","1","2025-07-02 10:18:53","80fe4187154257d5fb01684ea91b68b9","51.36.170.163","Mozilla/5.0 (Windows NT 10.0; Win64; x64) AppleWebKit/537.36 (KHTML, like Gecko) Chrome/137.0.0.0 Safari/537.36","WebKit","Chrome","137.0.0.0","Windows","10.0","https://app.prolific.com/","en-US,en;q=0.9","65f19a1fe38352676f83d5f0","683db6dfa200031b80f2a654","68650761e11d3d9743e8ed5b","65f19a1fe38352676f83d5f0","","","[0]","","","5","demographics","","","","","","","","","","","","","","","","","","","","","","","","","","","","","","","","","","","","","",""
"11197","","","{""education"":""Higher National Diploma""}","survey-multi-choice","10","110229","0.0-6.0-5.0","57","1","2025-07-02 10:18:53","80fe4187154257d5fb01684ea91b68b9","51.36.170.163","Mozilla/5.0 (Windows NT 10.0; Win64; x64) AppleWebKit/537.36 (KHTML, like Gecko) Chrome/137.0.0.0 Safari/537.36","WebKit","Chrome","137.0.0.0","Windows","10.0","https://app.prolific.com/","en-US,en;q=0.9","65f19a1fe38352676f83d5f0","683db6dfa200031b80f2a654","68650761e11d3d9743e8ed5b","65f19a1fe38352676f83d5f0","2025-07-02T10:20:46.466Z","","[0]","","","6","demographics","","","","","","","","","","","","","","","","","","","","","","","","","","","","","","","","","","","","","",""
"50809","","","{""mental_health_condition"":""Generalized anxiety disorder "",""mental_health_treatment"":""No"",""psychiatric_medication"":""Not taking any.""}","survey-text","11","161045","0.0-7.0-0.0","57","1","2025-07-02 10:18:53","80fe4187154257d5fb01684ea91b68b9","51.36.170.163","Mozilla/5.0 (Windows NT 10.0; Win64; x64) AppleWebKit/537.36 (KHTML, like Gecko) Chrome/137.0.0.0 Safari/537.36","WebKit","Chrome","137.0.0.0","Windows","10.0","https://app.prolific.com/","en-US,en;q=0.9","65f19a1fe38352676f83d5f0","683db6dfa200031b80f2a654","68650761e11d3d9743e8ed5b","65f19a1fe38352676f83d5f0","2025-07-02T10:21:37.282Z","","","","","1","mental_health","","","","","","","","","","","","","","","","","","","","","","","","","","","","","","","","","","","","","",""
"8311","","","{""depression_history"":[""Yes""]}","survey-multi-select","12","169358","0.0-7.0-1.0","57","1","2025-07-02 10:18:53","80fe4187154257d5fb01684ea91b68b9","51.36.170.163","Mozilla/5.0 (Windows NT 10.0; Win64; x64) AppleWebKit/537.36 (KHTML, like Gecko) Chrome/137.0.0.0 Safari/537.36","WebKit","Chrome","137.0.0.0","Windows","10.0","https://app.prolific.com/","en-US,en;q=0.9","65f19a1fe38352676f83d5f0","683db6dfa200031b80f2a654","68650761e11d3d9743e8ed5b","65f19a1fe38352676f83d5f0","","","[0]","","","","mental_health","","","","","","","","","","","","","","","","","","","","","","","","","","","","","","","","","","","","","",""
"14617","","","{""depression_episodes"":""more than 5"",""depression_recent"":""Currently experiencing an episode""}","survey-multi-choice","13","183978","0.0-7.0-2.0-0.0","57","1","2025-07-02 10:18:53","80fe4187154257d5fb01684ea91b68b9","51.36.170.163","Mozilla/5.0 (Windows NT 10.0; Win64; x64) AppleWebKit/537.36 (KHTML, like Gecko) Chrome/137.0.0.0 Safari/537.36","WebKit","Chrome","137.0.0.0","Windows","10.0","https://app.prolific.com/","en-US,en;q=0.9","65f19a1fe38352676f83d5f0","683db6dfa200031b80f2a654","68650761e11d3d9743e8ed5b","65f19a1fe38352676f83d5f0","2025-07-02T10:22:00.215Z","","[0,1]","","","3","mental_health","","","","","","","","","","","","","","","","","","","","","","","","","","","","","","","","","","","","","",""
"198333.80000000075","","","","survey-template","14","382319","0.0-7.0-3.0","57","1","2025-07-02 10:18:53","80fe4187154257d5fb01684ea91b68b9","51.36.170.163","Mozilla/5.0 (Windows NT 10.0; Win64; x64) AppleWebKit/537.36 (KHTML, like Gecko) Chrome/137.0.0.0 Safari/537.36","WebKit","Chrome","137.0.0.0","Windows","10.0","https://app.prolific.com/","en-US,en;q=0.9","65f19a1fe38352676f83d5f0","683db6dfa200031b80f2a654","68650761e11d3d9743e8ed5b","65f19a1fe38352676f83d5f0","2025-07-02T10:25:18.556Z","","","","","","ius","{""Q01"":""3"",""Q02"":""4"",""Q03"":""2"",""Q04"":""3"",""Q05"":""1"",""Q06"":""2"",""Q07"":""2"",""Q08"":""0"",""Q09"":""3"",""Q10"":""2"",""Q11"":""2"",""Q12"":""2"",""Q13"":""2""}","[0,1,2,3,4,5,6,7,8,9,10,11,12]","[""Q01"",""Q02"",""Q03"",""Q04"",""Q05"",""Q06"",""Q07"",""Q08"",""Q07"",""Q09"",""Q10"",""Q11"",""Q12"",""Q13""]","[5951.5999999996275,9067,15876.799999999814,20417.900000000373,25016.900000000373,30000.599999999627,35950.5,40209.799999999814,43121.59999999963,46634,51205.200000000186,54837,59125.40000000037,65925.90000000037]","[]","[5951.5999999996275,9067,15876.799999999814,18810.900000000373,20417.900000000373,25016.900000000373,30000.599999999627,35950.5,39819.799999999814,40209.799999999814,43121.59999999963,46634,51205.200000000186,54837,59125.40000000037,60194.799999999814,64904.299999999814,65925.90000000037,198326.80000000075]","0.5384615384615384","0.3333333333333333","0","","","","","","","","","","","","","","","","","","","","","","","","","","","","",""
"4537","1751451923093","<p style='font-size:1.1em;line-height:1.25'>In the following, we will ask you a few questions relating to your experiences over the past month.<br></p><p style='font-size:1.1em;line-height:1.25'>Press the <strong>Next</strong> button to continue.</p>","0","custom-html-button-response","15","386857","0.0-7.0-4.0","57","1","2025-07-02 10:18:53","80fe4187154257d5fb01684ea91b68b9","51.36.170.163","Mozilla/5.0 (Windows NT 10.0; Win64; x64) AppleWebKit/537.36 (KHTML, like Gecko) Chrome/137.0.0.0 Safari/537.36","WebKit","Chrome","137.0.0.0","Windows","10.0","https://app.prolific.com/","en-US,en;q=0.9","65f19a1fe38352676f83d5f0","683db6dfa200031b80f2a654","68650761e11d3d9743e8ed5b","65f19a1fe38352676f83d5f0","2025-07-02T10:25:23.094Z","","","","","","","","","","","","","","","","","","","","","","","","","","","","","","","","","","","","","","","","","","","",""
"227360.29999999888","","","","survey-template","16","614223","0.0-7.0-5.0","57","1","2025-07-02 10:18:53","80fe4187154257d5fb01684ea91b68b9","51.36.170.163","Mozilla/5.0 (Windows NT 10.0; Win64; x64) AppleWebKit/537.36 (KHTML, like Gecko) Chrome/137.0.0.0 Safari/537.36","WebKit","Chrome","137.0.0.0","Windows","10.0","https://app.prolific.com/","en-US,en;q=0.9","65f19a1fe38352676f83d5f0","683db6dfa200031b80f2a654","68650761e11d3d9743e8ed5b","65f19a1fe38352676f83d5f0","2025-07-02T10:29:10.460Z","","","","","","pss","{""Q01"":""3"",""Q02"":""4"",""Q03"":""4"",""Q04"":""3"",""Q05"":""3"",""Q06"":""3"",""Q07"":""2"",""Q08"":""3"",""Q09"":""4"",""Q10"":""3""}","[0,1,2,3,4,5,6,7,8,9]","[""Q01"",""Q01"",""Q02"",""Q03"",""Q04"",""Q05"",""Q05"",""Q06"",""Q07"",""Q07"",""Q08"",""Q09"",""Q10"",""Q10""]","[4978.699999999255,6389.299999998882,8024,10745,15995.699999999255,19599.099999999627,23439.299999998882,24845.199999999255,31162.299999998882,35794.5,38264.29999999888,46897.29999999888,48384.29999999888,50241.79999999888]","[]","[0,4978.699999999255,6389.299999998882,8024,10745,13961.39999999851,15995.699999999255,19599.099999999627,23439.299999998882,24845.199999999255,31162.299999998882,34995.29999999888,35794.5,38264.29999999888,45516.79999999888,46897.29999999888,48384.29999999888,49296.09999999963,50241.79999999888,227354]","0.3","0.4444444444444444","0","","","","","","","","","","","","","","","","","","","","","","","","","","","","",""
"3069","1751452153531","<p style='font-size:1.1em;line-height:1.25'>Thank you for your answers! Now we will ask you a few more questions relating to your feelings in the last 24 hours.<br></p><p style='font-size:1.1em;line-height:1.25'>Press the <strong>Next</strong> button to continue.</p>","0","custom-html-button-response","17","617294","0.0-7.0-6.0","57","1","2025-07-02 10:18:53","80fe4187154257d5fb01684ea91b68b9","51.36.170.163","Mozilla/5.0 (Windows NT 10.0; Win64; x64) AppleWebKit/537.36 (KHTML, like Gecko) Chrome/137.0.0.0 Safari/537.36","WebKit","Chrome","137.0.0.0","Windows","10.0","https://app.prolific.com/","en-US,en;q=0.9","65f19a1fe38352676f83d5f0","683db6dfa200031b80f2a654","68650761e11d3d9743e8ed5b","65f19a1fe38352676f83d5f0","2025-07-02T10:29:13.532Z","","","","","","","","","","","","","","","","","","","","","","","","","","","","","","","","","","","","","","","","","","","",""
"65023.199999999255","","","","survey-template","18","682322","0.0-7.0-7.0","57","1","2025-07-02 10:18:53","80fe4187154257d5fb01684ea91b68b9","51.36.170.163","Mozilla/5.0 (Windows NT 10.0; Win64; x64) AppleWebKit/537.36 (KHTML, like Gecko) Chrome/137.0.0.0 Safari/537.36","WebKit","Chrome","137.0.0.0","Windows","10.0","https://app.prolific.com/","en-US,en;q=0.9","65f19a1fe38352676f83d5f0","683db6dfa200031b80f2a654","68650761e11d3d9743e8ed5b","65f19a1fe38352676f83d5f0","2025-07-02T10:30:18.559Z","","","","","","drsp","{""Q01"":""4"",""Q02"":""4"",""Q03"":""5"",""Q04"":""5"",""Q05"":""3"",""Q06"":""3"",""Q07"":""3"",""Q08"":""3"",""Q09"":""4"",""Q10"":""5"",""Q11"":""4"",""Q12"":""4"",""Q13"":""4"",""Q14"":""5"",""Q15"":""2"",""Q16"":""3"",""Q17"":""4"",""Q18"":""3"",""Q19"":""4"",""Q20"":""4"",""Q21"":""4""}","[0,1,2,3,4,5,6,7,8,9,10,11,12,13,14,15,16,17,18,19,20]","[""Q01"",""Q02"",""Q03"",""Q04"",""Q05"",""Q06"",""Q07"",""Q08"",""Q09"",""Q10"",""Q11"",""Q10"",""Q12"",""Q13"",""Q14"",""Q15"",""Q16"",""Q17"",""Q18"",""Q19"",""Q19"",""Q20"",""Q20"",""Q21""]","[3452.4000000003725,6572.4000000003725,8615,9605,12023.099999999627,17083,18246.199999999255,19887,21894.199999999255,22955.099999999627,27155.599999999627,28298.300000000745,30210.599999999627,31578.800000000745,36277.09999999963,40360.40000000037,43586.800000000745,44880.59999999963,48645.699999999255,56160,57597.90000000037,60237.699999999255,61220.09999999963,63073.699999999255]","[]","[0,3452.4000000003725,5362,6572.4000000003725,7520.800000000745,8615,9605,12023.099999999627,17083,18246.199999999255,19887,21894.199999999255,22955.099999999627,26157.900000000373,27155.599999999627,28298.300000000745,30210.599999999627,31578.800000000745,36277.09999999963,39392.59999999963,40360.40000000037,42636.09999999963,43586.800000000745,44880.59999999963,48645.699999999255,54768.59999999963,56160,57597.90000000037,59352,60237.699999999255,61220.09999999963,63073.699999999255,65016.699999999255]","0.47619047619047616","0.45","0","","","","","","","","","","","","","","","","","","","","","","","","","","","","",""
"12495.900000000373","","","","survey-template","19","694820","0.0-7.0-8.0","57","1","2025-07-02 10:18:53","80fe4187154257d5fb01684ea91b68b9","51.36.170.163","Mozilla/5.0 (Windows NT 10.0; Win64; x64) AppleWebKit/537.36 (KHTML, like Gecko) Chrome/137.0.0.0 Safari/537.36","WebKit","Chrome","137.0.0.0","Windows","10.0","https://app.prolific.com/","en-US,en;q=0.9","65f19a1fe38352676f83d5f0","683db6dfa200031b80f2a654","68650761e11d3d9743e8ed5b","65f19a1fe38352676f83d5f0","2025-07-02T10:30:31.057Z","","","","","","stress","{""Q01"":""5"",""Q02"":""4"",""Q03"":""4""}","[0,1,2]","[""Q01"",""Q02"",""Q03""]","[3979.5999999996275,6287.800000000745,11618.800000000745]","[]","[3979.5999999996275,6287.800000000745,9244.5,10337.099999999627,11618.800000000745,12492.900000000373]","0.3333333333333333","0","0","","","","","","","","","","","","","","","","","","","","","","","","","","","","",""
"112030","","","","instructions","20","806853","0.0-8.0-0.0","57","1","2025-07-02 10:18:53","80fe4187154257d5fb01684ea91b68b9","51.36.170.163","Mozilla/5.0 (Windows NT 10.0; Win64; x64) AppleWebKit/537.36 (KHTML, like Gecko) Chrome/137.0.0.0 Safari/537.36","WebKit","Chrome","137.0.0.0","Windows","10.0","https://app.prolific.com/","en-US,en;q=0.9","65f19a1fe38352676f83d5f0","683db6dfa200031b80f2a654","68650761e11d3d9743e8ed5b","65f19a1fe38352676f83d5f0","","[{""page_index"":0,""viewing_time"":20146},{""page_index"":1,""viewing_time"":43665},{""page_index"":2,""viewing_time"":10758},{""page_index"":3,""viewing_time"":37460}]","","","","","","","","","","","","","","","","","","","","","","","","","","","","","","","","","","","","","","","","","","",""
"","","","","ctl-task-cpt","21","831436","0.0-8.0-1.0","57","1","2025-07-02 10:18:53","80fe4187154257d5fb01684ea91b68b9","51.36.170.163","Mozilla/5.0 (Windows NT 10.0; Win64; x64) AppleWebKit/537.36 (KHTML, like Gecko) Chrome/137.0.0.0 Safari/537.36","WebKit","Chrome","137.0.0.0","Windows","10.0","https://app.prolific.com/","en-US,en;q=0.9","65f19a1fe38352676f83d5f0","683db6dfa200031b80f2a654","68650761e11d3d9743e8ed5b","65f19a1fe38352676f83d5f0","","","","","","","","","","","","","","","","","win-only","2","g1:SE,g2:NW","1","0","1","811926","2640.3","6640.9","21574.4","2","4","4","6","1","2","1","1","0","0.007575757575757576","2220.3","4000","2430","[""down"",""right""]","{""num_key_presses"":5,""num_perfect"":4,""num_errors"":1,""num_randdir"":0,""num_randdir_good_moves"":0,""num_whilered"":0,""num_whileblue"":0,""num_blue"":1,""num_good_moves"":4}","[414.0714133126395,411.57142761775424,0.1,414.0714133126395,411.57142761775424,101.2,414.0714133126395,411.57142761775424,201.2,414.0714133126395,411.57142761775424,305.4,414.0714133126395,411.57142761775424,405.5,414.0714133126395,411.57142761775424,505.7,414.0714133126395,411.57142761775424,611.1,414.0714133126395,411.57142761775424,715.7,414.0714133126395,411.57142761775424,816.4,414.0714133126395,411.57142761775424,921.3,414.0714133126395,411.57142761775424,1022.3,414.0714133126395,411.57142761775424,1125.2,414.0714133126395,411.57142761775424,1225.8,414.0714133126395,411.57142761775424,1331.5,426.5714133126395,430.32142761775424,1435.6,546.5714133126395,577.8214276177542,1540.2,619.0714133126395,659.0714276177542,1640.2,659.0714133126395,685.3214276177542,1740.4,687.8214133126395,701.5714276177542,1840.6,711.5714133126395,721.5714276177542,1941.7,716.5714133126395,725.3214276177542,2046.1,716.5714133126395,725.3214276177542,2150.5,716.5714133126395,725.3214276177542,2250.6,716.5714133126395,725.3214276177542,2351.4,716.5714133126395,725.3214276177542,2454.3,716.5714133126395,725.3214276177542,2555.6,716.5714133126395,725.3214276177542,2661.3,716.5714133126395,725.3214276177542,2761.3,716.5714133126395,725.3214276177542,2866.4,716.5714133126395,725.3214276177542,2970.8,716.5714133126395,725.3214276177542,3075.3,716.5714133126395,725.3214276177542,3176.3,716.5714133126395,725.3214276177542,3280.3,716.5714133126395,725.3214276177542,3380.6,716.5714133126395,725.3214276177542,3486.1,716.5714133126395,725.3214276177542,3586.2,716.5714133126395,725.3214276177542,3686.2,716.5714133126395,725.3214276177542,3791.1,716.5714133126395,725.3214276177542,3891.2,716.5714133126395,725.3214276177542,3991.9]","[5246,5246,2880.7,2011.2,354.2,""smooth"",""down"",""down"",""good_move"",5671,424.7,2854.6,5246.3,-2429.9,""error"",""-"",""-"",""no_move"",9118.4,3447.3,2098.8,6675,344.6,""smooth"",""down"",""down"",""good_move"",11545.4,2426.9,1921.8,9118.5,505.1,""smooth"",""right"",""right"",""good_move"",14836.8,3291.2,2886.5,11545.6,404.7,""smooth"",""right"",""right"",""good_move""]","",""
"6532","","","","instructions","22","837969","0.0-8.0-2.0","57","1","2025-07-02 10:18:53","80fe4187154257d5fb01684ea91b68b9","51.36.170.163","Mozilla/5.0 (Windows NT 10.0; Win64; x64) AppleWebKit/537.36 (KHTML, like Gecko) Chrome/137.0.0.0 Safari/537.36","WebKit","Chrome","137.0.0.0","Windows","10.0","https://app.prolific.com/","en-US,en;q=0.9","65f19a1fe38352676f83d5f0","683db6dfa200031b80f2a654","68650761e11d3d9743e8ed5b","65f19a1fe38352676f83d5f0","","[{""page_index"":0,""viewing_time"":6532}]","","","","","","","","","","","","","","","","","","","","","","","","","","","","","","","","","","","","","","","","","","",""
"","","","","ctl-task-cpt","23","876367","0.0-8.0-3.0","57","1","2025-07-02 10:18:53","80fe4187154257d5fb01684ea91b68b9","51.36.170.163","Mozilla/5.0 (Windows NT 10.0; Win64; x64) AppleWebKit/537.36 (KHTML, like Gecko) Chrome/137.0.0.0 Safari/537.36","WebKit","Chrome","137.0.0.0","Windows","10.0","https://app.prolific.com/","en-US,en;q=0.9","65f19a1fe38352676f83d5f0","683db6dfa200031b80f2a654","68650761e11d3d9743e8ed5b","65f19a1fe38352676f83d5f0","","","","","","","","","","","","","","","","","win-only","2","g1:SE,g2:NW","0.35","0","3","843036.5","4956.9","8960.5","35392.8","2","4","8","6","1","-2","-5","0","0","0","2856.3","4000","-2985","[""down"",""right""]","{""num_key_presses"":11,""num_perfect"":3,""num_errors"":3,""num_randdir"":4,""num_randdir_good_moves"":1,""num_whilered"":1,""num_whileblue"":0,""num_blue"":0,""num_good_moves"":4}","[421.5714133126395,417.82142761775424,0.2,421.5714133126395,417.82142761775424,104,421.5714133126395,417.82142761775424,208.7,421.5714133126395,417.82142761775424,308.9,421.5714133126395,417.82142761775424,409,421.5714133126395,417.82142761775424,509.3,421.5714133126395,417.82142761775424,615.2,421.5714133126395,417.82142761775424,715.3,421.5714133126395,417.82142761775424,819.3,421.5714133126395,417.82142761775424,924.3,421.5714133126395,417.82142761775424,1028.8,421.5714133126395,417.82142761775424,1129.1,131.5714133126395,366.57142761775424,1230.1,-35.92858668736049,419.07142761775424,1333.6,-35.92858668736049,419.07142761775424,1434.1,-35.92858668736049,419.07142761775424,1534.3,-35.92858668736049,419.07142761775424,1634.5,-35.92858668736049,419.07142761775424,1739.2,-35.92858668736049,419.07142761775424,1844.2,-35.92858668736049,419.07142761775424,1949.9,-35.92858668736049,419.07142761775424,2054,367.8214133126395,592.8214276177542,2153.9,552.8214133126395,677.8214276177542,2254,605.3214133126395,696.5714276177542,2359.1,605.3214133126395,696.5714276177542,2459.3,605.3214133126395,696.5714276177542,2564.8,751.5714133126395,770.3214276177542,2668.6,752.8214133126395,771.5714276177542,2768.9,752.8214133126395,771.5714276177542,2874.9,752.8214133126395,771.5714276177542,2980.6,752.8214133126395,771.5714276177542,3083.3,752.8214133126395,771.5714276177542,3184,752.8214133126395,771.5714276177542,3284.1,752.8214133126395,771.5714276177542,3388.6,752.8214133126395,771.5714276177542,3489.5,752.8214133126395,771.5714276177542,3594.9,752.8214133126395,771.5714276177542,3699.4,752.8214133126395,771.5714276177542,3804.2,752.8214133126395,771.5714276177542,3904.5]","[1579.8,1579.8,1000,0,579.8,""oops"",""down"",""left"",""bad_move"",5028.2,3448,2875.2,1580.3,572.7,""oops"",""down"",""up"",""bad_move"",8914.1,3885.5,3293.4,5028.6,592.1,""smooth"",""right"",""right"",""good_move"",12223.2,3308.9,2881.6,8914.4,427.3,""oops"",""down"",""right"",""good_move"",12869.9,646.4,2611.7,12223.5,-1965.3,""error"",""-"",""-"",""no_move"",14002.9,1132.7,2179.7,13872,-2048.8,""error"",""-"",""-"",""no_move"",14802.9,799.9,2179.7,13872,-1248.8,""while_red"",""-"",""-"",""no_move"",15160.7,1157.7,2734,15005.3,-2578.6,""error"",""-"",""-"",""no_move"",18239.4,3078.5,1511.5,16165.1,562.8,""smooth"",""down"",""down"",""good_move"",20991.9,2752.2,2299.7,18239.7,452.5,""smooth"",""down"",""down"",""good_move"",24481.2,3488.9,3012.7,20992.3,476.2,""oops"",""down"",""left"",""bad_move""]","",""
"12489","","","","instructions","24","888857","0.0-8.0-4.0","57","1","2025-07-02 10:18:53","80fe4187154257d5fb01684ea91b68b9","51.36.170.163","Mozilla/5.0 (Windows NT 10.0; Win64; x64) AppleWebKit/537.36 (KHTML, like Gecko) Chrome/137.0.0.0 Safari/537.36","WebKit","Chrome","137.0.0.0","Windows","10.0","https://app.prolific.com/","en-US,en;q=0.9","65f19a1fe38352676f83d5f0","683db6dfa200031b80f2a654","68650761e11d3d9743e8ed5b","65f19a1fe38352676f83d5f0","","[{""page_index"":0,""viewing_time"":9190},{""page_index"":1,""viewing_time"":3298}]","","","","","","","","","","","","","","","","","","","","","","","","","","","","","","","","","","","","","","","","","","",""
"17683","","","{""green_ball"":[""Ball sometimes shakes and moves in a random direction""]}","survey-multi-select","25","906549","0.0-8.0-5.0-0.0","57","1","2025-07-02 10:18:53","80fe4187154257d5fb01684ea91b68b9","51.36.170.163","Mozilla/5.0 (Windows NT 10.0; Win64; x64) AppleWebKit/537.36 (KHTML, like Gecko) Chrome/137.0.0.0 Safari/537.36","WebKit","Chrome","137.0.0.0","Windows","10.0","https://app.prolific.com/","en-US,en;q=0.9","65f19a1fe38352676f83d5f0","683db6dfa200031b80f2a654","68650761e11d3d9743e8ed5b","65f19a1fe38352676f83d5f0","","","[0]","","","","quiz","","","","","","","","","","","","","","","","","","","","","","","","","","","","","","","","","","","","","true",""
"4207","","<p align='center'><b>CORRECT!</b> Indeed, the green ball may sometimes shake and move in a random direction.</p>","0","html-button-response","26","910757","0.0-8.0-5.0-1.0","57","1","2025-07-02 10:18:53","80fe4187154257d5fb01684ea91b68b9","51.36.170.163","Mozilla/5.0 (Windows NT 10.0; Win64; x64) AppleWebKit/537.36 (KHTML, like Gecko) Chrome/137.0.0.0 Safari/537.36","WebKit","Chrome","137.0.0.0","Windows","10.0","https://app.prolific.com/","en-US,en;q=0.9","65f19a1fe38352676f83d5f0","683db6dfa200031b80f2a654","68650761e11d3d9743e8ed5b","65f19a1fe38352676f83d5f0","","","","","","","","","","","","","","","","","","","","","","","","","","","","","","","","","","","","","","","","","","","","",""
"6511","","","{""yellow_ball"":[""Ball doesn‘t move and I get -1 penalty point""]}","survey-multi-select","27","917270","0.0-8.0-6.0-0.0","57","1","2025-07-02 10:18:53","80fe4187154257d5fb01684ea91b68b9","51.36.170.163","Mozilla/5.0 (Windows NT 10.0; Win64; x64) AppleWebKit/537.36 (KHTML, like Gecko) Chrome/137.0.0.0 Safari/537.36","WebKit","Chrome","137.0.0.0","Windows","10.0","https://app.prolific.com/","en-US,en;q=0.9","65f19a1fe38352676f83d5f0","683db6dfa200031b80f2a654","68650761e11d3d9743e8ed5b","65f19a1fe38352676f83d5f0","","","[0]","","","","quiz","","","","","","","","","","","","","","","","","","","","","","","","","","","","","","","","","","","","","true",""
"1350","","<p align='center'><b>CORRECT!</b> Indeed, the yellow ball never moves and you receive a penalty.</p>","0","html-button-response","28","918623","0.0-8.0-6.0-1.0","57","1","2025-07-02 10:18:53","80fe4187154257d5fb01684ea91b68b9","51.36.170.163","Mozilla/5.0 (Windows NT 10.0; Win64; x64) AppleWebKit/537.36 (KHTML, like Gecko) Chrome/137.0.0.0 Safari/537.36","WebKit","Chrome","137.0.0.0","Windows","10.0","https://app.prolific.com/","en-US,en;q=0.9","65f19a1fe38352676f83d5f0","683db6dfa200031b80f2a654","68650761e11d3d9743e8ed5b","65f19a1fe38352676f83d5f0","","","","","","","","","","","","","","","","","","","","","","","","","","","","","","","","","","","","","","","","","","","","",""
"2498","","","{""blue_ball"":[""Ball doesn‘t move and I get -1 penalty point""]}","survey-multi-select","29","921124","0.0-8.0-7.0-0.0","57","1","2025-07-02 10:18:53","80fe4187154257d5fb01684ea91b68b9","51.36.170.163","Mozilla/5.0 (Windows NT 10.0; Win64; x64) AppleWebKit/537.36 (KHTML, like Gecko) Chrome/137.0.0.0 Safari/537.36","WebKit","Chrome","137.0.0.0","Windows","10.0","https://app.prolific.com/","en-US,en;q=0.9","65f19a1fe38352676f83d5f0","683db6dfa200031b80f2a654","68650761e11d3d9743e8ed5b","65f19a1fe38352676f83d5f0","","","[0]","","","","quiz","","","","","","","","","","","","","","","","","","","","","","","","","","","","","","","","","","","","","false",""
"2880","","<p align='center'><b>INCORRECT.</b> The blue ball always shakes and moves randomly.</p>","0","html-button-response","30","924005","0.0-8.0-7.0-1.0","57","1","2025-07-02 10:18:53","80fe4187154257d5fb01684ea91b68b9","51.36.170.163","Mozilla/5.0 (Windows NT 10.0; Win64; x64) AppleWebKit/537.36 (KHTML, like Gecko) Chrome/137.0.0.0 Safari/537.36","WebKit","Chrome","137.0.0.0","Windows","10.0","https://app.prolific.com/","en-US,en;q=0.9","65f19a1fe38352676f83d5f0","683db6dfa200031b80f2a654","68650761e11d3d9743e8ed5b","65f19a1fe38352676f83d5f0","","","","","","","","","","","","","","","","","","","","","","","","","","","","","","","","","","","","","","","","","","","","",""
"3715","","","{""blue_ball"":[""Ball always shakes and moves in a random direction""]}","survey-multi-select","31","927723","0.0-8.0-7.1-0.1","57","1","2025-07-02 10:18:53","80fe4187154257d5fb01684ea91b68b9","51.36.170.163","Mozilla/5.0 (Windows NT 10.0; Win64; x64) AppleWebKit/537.36 (KHTML, like Gecko) Chrome/137.0.0.0 Safari/537.36","WebKit","Chrome","137.0.0.0","Windows","10.0","https://app.prolific.com/","en-US,en;q=0.9","65f19a1fe38352676f83d5f0","683db6dfa200031b80f2a654","68650761e11d3d9743e8ed5b","65f19a1fe38352676f83d5f0","","","[0]","","","","quiz","","","","","","","","","","","","","","","","","","","","","","","","","","","","","","","","","","","","","true",""
"2098","","<p align='center'><b>CORRECT!</b> Indeed, the blue ball always shakes and moves in a random direction. Also there is a penalty of -1 point.</p>","0","html-button-response","32","929823","0.0-8.0-7.1-1.1","57","1","2025-07-02 10:18:53","80fe4187154257d5fb01684ea91b68b9","51.36.170.163","Mozilla/5.0 (Windows NT 10.0; Win64; x64) AppleWebKit/537.36 (KHTML, like Gecko) Chrome/137.0.0.0 Safari/537.36","WebKit","Chrome","137.0.0.0","Windows","10.0","https://app.prolific.com/","en-US,en;q=0.9","65f19a1fe38352676f83d5f0","683db6dfa200031b80f2a654","68650761e11d3d9743e8ed5b","65f19a1fe38352676f83d5f0","","","","","","","","","","","","","","","","","","","","","","","","","","","","","","","","","","","","","","","","","","","","",""
"15154","","","{""bonus"":[""When I reach 80% of points""]}","survey-multi-select","33","944980","0.0-8.0-8.0-0.0","57","1","2025-07-02 10:18:53","80fe4187154257d5fb01684ea91b68b9","51.36.170.163","Mozilla/5.0 (Windows NT 10.0; Win64; x64) AppleWebKit/537.36 (KHTML, like Gecko) Chrome/137.0.0.0 Safari/537.36","WebKit","Chrome","137.0.0.0","Windows","10.0","https://app.prolific.com/","en-US,en;q=0.9","65f19a1fe38352676f83d5f0","683db6dfa200031b80f2a654","68650761e11d3d9743e8ed5b","65f19a1fe38352676f83d5f0","","","[0]","","","","quiz","","","","","","","","","","","","","","","","","","","","","","","","","","","","","","","","","","","","","false",""
"1872","","<p align='center'><b>INCORRECT.</b> You receive 2 pounds extra when you reach 50% of points </p>","0","html-button-response","34","946853","0.0-8.0-8.0-1.0","57","1","2025-07-02 10:18:53","80fe4187154257d5fb01684ea91b68b9","51.36.170.163","Mozilla/5.0 (Windows NT 10.0; Win64; x64) AppleWebKit/537.36 (KHTML, like Gecko) Chrome/137.0.0.0 Safari/537.36","WebKit","Chrome","137.0.0.0","Windows","10.0","https://app.prolific.com/","en-US,en;q=0.9","65f19a1fe38352676f83d5f0","683db6dfa200031b80f2a654","68650761e11d3d9743e8ed5b","65f19a1fe38352676f83d5f0","","","","","","","","","","","","","","","","","","","","","","","","","","","","","","","","","","","","","","","","","","","","",""
"2064","","","{""bonus"":[""When I reach 50% of points""]}","survey-multi-select","35","948920","0.0-8.0-8.1-0.1","57","1","2025-07-02 10:18:53","80fe4187154257d5fb01684ea91b68b9","51.36.170.163","Mozilla/5.0 (Windows NT 10.0; Win64; x64) AppleWebKit/537.36 (KHTML, like Gecko) Chrome/137.0.0.0 Safari/537.36","WebKit","Chrome","137.0.0.0","Windows","10.0","https://app.prolific.com/","en-US,en;q=0.9","65f19a1fe38352676f83d5f0","683db6dfa200031b80f2a654","68650761e11d3d9743e8ed5b","65f19a1fe38352676f83d5f0","","","[0]","","","","quiz","","","","","","","","","","","","","","","","","","","","","","","","","","","","","","","","","","","","","true",""
"1546","","<p align='center'><b>CORRECT!</b> Indeed, you receive 2 pounds extra when you reach 50% of points.</p>","0","html-button-response","36","950468","0.0-8.0-8.1-1.1","57","1","2025-07-02 10:18:53","80fe4187154257d5fb01684ea91b68b9","51.36.170.163","Mozilla/5.0 (Windows NT 10.0; Win64; x64) AppleWebKit/537.36 (KHTML, like Gecko) Chrome/137.0.0.0 Safari/537.36","WebKit","Chrome","137.0.0.0","Windows","10.0","https://app.prolific.com/","en-US,en;q=0.9","65f19a1fe38352676f83d5f0","683db6dfa200031b80f2a654","68650761e11d3d9743e8ed5b","65f19a1fe38352676f83d5f0","","","","","","","","","","","","","","","","","","","","","","","","","","","","","","","","","","","","","","","","","","","","",""
"11944","","","","instructions","37","962413","0.0-8.0-9.0","57","1","2025-07-02 10:18:53","80fe4187154257d5fb01684ea91b68b9","51.36.170.163","Mozilla/5.0 (Windows NT 10.0; Win64; x64) AppleWebKit/537.36 (KHTML, like Gecko) Chrome/137.0.0.0 Safari/537.36","WebKit","Chrome","137.0.0.0","Windows","10.0","https://app.prolific.com/","en-US,en;q=0.9","65f19a1fe38352676f83d5f0","683db6dfa200031b80f2a654","68650761e11d3d9743e8ed5b","65f19a1fe38352676f83d5f0","","[{""page_index"":0,""viewing_time"":11944}]","","","","","","","","","","","","","","","","","","","","","","","","","","","","","","","","","","","","","","","","","","",""
"5423","","<p>Before you start with this game please answer the following three questions yourself. </p>
  <p>Through this game, we measure several aspects of your cognitive performance, such as reaction times, multi-tasking capabilities </p>
  <p>and the ability to assess the situation you are in.</p>
  <p></p>
  <p><b>How good do you usually are in such tasks?</b></p>","54","html-slider-response","38","967838","0.0-9.0-0.0","57","1","2025-07-02 10:18:53","80fe4187154257d5fb01684ea91b68b9","51.36.170.163","Mozilla/5.0 (Windows NT 10.0; Win64; x64) AppleWebKit/537.36 (KHTML, like Gecko) Chrome/137.0.0.0 Safari/537.36","WebKit","Chrome","137.0.0.0","Windows","10.0","https://app.prolific.com/","en-US,en;q=0.9","65f19a1fe38352676f83d5f0","683db6dfa200031b80f2a654","68650761e11d3d9743e8ed5b","65f19a1fe38352676f83d5f0","2025-07-02T10:35:04.075Z","","","","","","PreSkillQ","","","","","","","","","","","","","","","","","","","","","","","","","","","","","","","","","","","","","","50"
"5059","","<div style=""width:500px;"">
  <p>How well do you think you will perform in this task compared to other participants?</p>
  </div>","52","html-slider-response","39","972900","0.0-9.0-1.0","57","1","2025-07-02 10:18:53","80fe4187154257d5fb01684ea91b68b9","51.36.170.163","Mozilla/5.0 (Windows NT 10.0; Win64; x64) AppleWebKit/537.36 (KHTML, like Gecko) Chrome/137.0.0.0 Safari/537.36","WebKit","Chrome","137.0.0.0","Windows","10.0","https://app.prolific.com/","en-US,en;q=0.9","65f19a1fe38352676f83d5f0","683db6dfa200031b80f2a654","68650761e11d3d9743e8ed5b","65f19a1fe38352676f83d5f0","2025-07-02T10:35:09.137Z","","","","","","PrePerfQ","","","","","","","","","","","","","","","","","","","","","","","","","","","","","","","","","","","","","","50"
"5001","","<div style=""width:500px;"">
  <p>What best describes how you currently feel?</p>
  </div>","53","html-slider-response","40","977903","0.0-9.0-2.0","57","1","2025-07-02 10:18:53","80fe4187154257d5fb01684ea91b68b9","51.36.170.163","Mozilla/5.0 (Windows NT 10.0; Win64; x64) AppleWebKit/537.36 (KHTML, like Gecko) Chrome/137.0.0.0 Safari/537.36","WebKit","Chrome","137.0.0.0","Windows","10.0","https://app.prolific.com/","en-US,en;q=0.9","65f19a1fe38352676f83d5f0","683db6dfa200031b80f2a654","68650761e11d3d9743e8ed5b","65f19a1fe38352676f83d5f0","2025-07-02T10:35:14.140Z","","","","","","PreMotivationQ","","","","","","","","","","","","","","","","","","","","","","","","","","","","","","","","","","","","","","50"
"","","","","ctl-task-cpt","41","1002373","0.0-10.0-0.0","57","1","2025-07-02 10:18:53","80fe4187154257d5fb01684ea91b68b9","51.36.170.163","Mozilla/5.0 (Windows NT 10.0; Win64; x64) AppleWebKit/537.36 (KHTML, like Gecko) Chrome/137.0.0.0 Safari/537.36","WebKit","Chrome","137.0.0.0","Windows","10.0","https://app.prolific.com/","en-US,en;q=0.9","65f19a1fe38352676f83d5f0","683db6dfa200031b80f2a654","68650761e11d3d9743e8ed5b","65f19a1fe38352676f83d5f0","2025-07-02T10:35:38.610Z","","","","","","","","","","","","","","","","win-only","2","g1:SE,g2:NW","1","1","0","982972.3","1848.3","6850.5","21451","1","4","4","6","1","1","1","1","0","0.007575757575757576","1362.2","3000","1090","[""down"",""right""]","{""num_key_presses"":4,""num_perfect"":4,""num_errors"":0,""num_randdir"":0,""num_randdir_good_moves"":0,""num_whilered"":0,""num_whileblue"":0,""num_blue"":1,""num_good_moves"":4}","[411.5714133126395,416.57142761775424,0.3,411.5714133126395,416.57142761775424,102.7,411.5714133126395,416.57142761775424,207.1,411.5714133126395,416.57142761775424,312.6,411.5714133126395,416.57142761775424,417,411.5714133126395,416.57142761775424,517.7,411.5714133126395,416.57142761775424,622.3,424.0714133126395,431.57142761775424,727.1,515.3214133126395,564.0714276177542,827.8,677.8214133126395,771.5714276177542,932.2,706.5714133126395,786.5714276177542,1033.2,731.5714133126395,786.5714276177542,1137.3,737.8214133126395,779.0714276177542,1237.6,737.8214133126395,779.0714276177542,1342.5,737.8214133126395,779.0714276177542,1444.8,737.8214133126395,779.0714276177542,1547.5,737.8214133126395,779.0714276177542,1652.3,737.8214133126395,779.0714276177542,1752.6,737.8214133126395,779.0714276177542,1852.8,737.8214133126395,779.0714276177542,1953,737.8214133126395,779.0714276177542,2059.1,737.8214133126395,779.0714276177542,2160.8,737.8214133126395,779.0714276177542,2262,737.8214133126395,779.0714276177542,2363.2,737.8214133126395,779.0714276177542,2467.3,737.8214133126395,779.0714276177542,2567.5,737.8214133126395,779.0714276177542,2672.2,737.8214133126395,779.0714276177542,2777.5,737.8214133126395,779.0714276177542,2879.4,737.8214133126395,779.0714276177542,2981.9,737.8214133126395,779.0714276177542,3082.5,737.8214133126395,779.0714276177542,3182.7,737.8214133126395,779.0714276177542,3283.6,737.8214133126395,779.0714276177542,3387.1,737.8214133126395,779.0714276177542,3487.4,916.5714133126395,721.5714276177542,3592.6,959.0714133126395,704.0714276177542,3693.9,959.0714133126395,704.0714276177542,3793.9,959.0714133126395,704.0714276177542,3894.5,959.0714133126395,704.0714276177542,3996.9,959.0714133126395,704.0714276177542,4097.8,959.0714133126395,704.0714276177542,4202.7,959.0714133126395,704.0714276177542,4308,959.0714133126395,704.0714276177542,4412.1,959.0714133126395,704.0714276177542,4512.8,959.0714133126395,704.0714276177542,4617.4,959.0714133126395,704.0714276177542,4717.6,959.0714133126395,704.0714276177542,4823.4,959.0714133126395,704.0714276177542,4927.3]","[1514.9,1514.9,1000,0,514.9,""smooth"",""down"",""down"",""good_move"",4681.2,3165.9,2591,1515.3,574.9,""smooth"",""down"",""down"",""good_move"",11775.2,7093.6,2288.1,9116.7,370.4,""smooth"",""right"",""right"",""good_move"",14510.3,2734.8,2252.7,11775.5,482.1,""smooth"",""right"",""right"",""good_move""]","",""
"7146","","<div style=""width:500px;"">
  <p>What determined the result of this run?</p>
  </div>","53","html-slider-response","42","1009521","0.0-10.0-1.0","57","1","2025-07-02 10:18:53","80fe4187154257d5fb01684ea91b68b9","51.36.170.163","Mozilla/5.0 (Windows NT 10.0; Win64; x64) AppleWebKit/537.36 (KHTML, like Gecko) Chrome/137.0.0.0 Safari/537.36","WebKit","Chrome","137.0.0.0","Windows","10.0","https://app.prolific.com/","en-US,en;q=0.9","65f19a1fe38352676f83d5f0","683db6dfa200031b80f2a654","68650761e11d3d9743e8ed5b","65f19a1fe38352676f83d5f0","2025-07-02T10:35:45.758Z","","","","","","AttribQ","","","","","","","","","","","","","","","","","","","","","","","","","","","","","","","","","","","","","","50"
"5151","","<div style=""width:500px;"">
  <p>How much control did you have over the ball?</p>
  </div>","69","html-slider-response","43","1014673","0.0-10.0-2.0","57","1","2025-07-02 10:18:53","80fe4187154257d5fb01684ea91b68b9","51.36.170.163","Mozilla/5.0 (Windows NT 10.0; Win64; x64) AppleWebKit/537.36 (KHTML, like Gecko) Chrome/137.0.0.0 Safari/537.36","WebKit","Chrome","137.0.0.0","Windows","10.0","https://app.prolific.com/","en-US,en;q=0.9","65f19a1fe38352676f83d5f0","683db6dfa200031b80f2a654","68650761e11d3d9743e8ed5b","65f19a1fe38352676f83d5f0","2025-07-02T10:35:50.910Z","","","","","","ControlQ","","","","","","","","","","","","","","","","","","","","","","","","","","","","","","","","","","","","","","50"
"4257","","<div style=""width:500px;"">
  <p>How would you describe your current emotional state?</p>
  </div>","43","html-slider-response","44","1018932","0.0-10.0-3.0","57","1","2025-07-02 10:18:53","80fe4187154257d5fb01684ea91b68b9","51.36.170.163","Mozilla/5.0 (Windows NT 10.0; Win64; x64) AppleWebKit/537.36 (KHTML, like Gecko) Chrome/137.0.0.0 Safari/537.36","WebKit","Chrome","137.0.0.0","Windows","10.0","https://app.prolific.com/","en-US,en;q=0.9","65f19a1fe38352676f83d5f0","683db6dfa200031b80f2a654","68650761e11d3d9743e8ed5b","65f19a1fe38352676f83d5f0","2025-07-02T10:35:55.169Z","","","","","","StressQ","","","","","","","","","","","","","","","","","","","","","","","","","","","","","","","","","","","","","","50"
"3790","","<div style=""width:500px;"">
  <p>What best describes how you currently feel?</p>
  </div>","57","html-slider-response","45","1022723","0.0-10.0-4.0","57","1","2025-07-02 10:18:53","80fe4187154257d5fb01684ea91b68b9","51.36.170.163","Mozilla/5.0 (Windows NT 10.0; Win64; x64) AppleWebKit/537.36 (KHTML, like Gecko) Chrome/137.0.0.0 Safari/537.36","WebKit","Chrome","137.0.0.0","Windows","10.0","https://app.prolific.com/","en-US,en;q=0.9","65f19a1fe38352676f83d5f0","683db6dfa200031b80f2a654","68650761e11d3d9743e8ed5b","65f19a1fe38352676f83d5f0","2025-07-02T10:35:58.960Z","","","","","","MotivationQ","","","","","","","","","","","","","","","","","","","","","","","","","","","","","","","","","","","","","","50"
"","","","","ctl-task-cpt","46","1043204","0.0-10.0-0.1","57","1","2025-07-02 10:18:53","80fe4187154257d5fb01684ea91b68b9","51.36.170.163","Mozilla/5.0 (Windows NT 10.0; Win64; x64) AppleWebKit/537.36 (KHTML, like Gecko) Chrome/137.0.0.0 Safari/537.36","WebKit","Chrome","137.0.0.0","Windows","10.0","https://app.prolific.com/","en-US,en;q=0.9","65f19a1fe38352676f83d5f0","683db6dfa200031b80f2a654","68650761e11d3d9743e8ed5b","65f19a1fe38352676f83d5f0","2025-07-02T10:36:19.441Z","","","","","","","","","","","","","","","","win-only","3","g1:SW,g2:NE","0.9","2","0","1027791.8","1451.6","6452.4","17461.7","1","4","8","6","1","1","1","2","1","0.015151515151515152","1668.1","3000","935","[""down"",""left""]","{""num_key_presses"":4,""num_perfect"":3,""num_errors"":0,""num_randdir"":1,""num_randdir_good_moves"":1,""num_whilered"":0,""num_whileblue"":0,""num_blue"":0,""num_good_moves"":4}","[414.0714133126395,421.57142761775424,0.3,414.0714133126395,421.57142761775424,100.5,414.0714133126395,421.57142761775424,200.9,414.0714133126395,421.57142761775424,301,414.0714133126395,421.57142761775424,401.8,414.0714133126395,421.57142761775424,504.3,414.0714133126395,421.57142761775424,609.1,414.0714133126395,421.57142761775424,709.3,414.0714133126395,421.57142761775424,814.9,227.8214133126395,631.5714276177542,920.9,176.5714133126395,674.0714276177542,1021,175.3214133126395,676.5714276177542,1121,175.3214133126395,676.5714276177542,1224.2,126.5714133126395,701.5714276177542,1329.2,71.5714133126395,737.8214276177542,1429.6,71.5714133126395,737.8214276177542,1533.9,71.5714133126395,737.8214276177542,1634.8,71.5714133126395,737.8214276177542,1735.3,71.5714133126395,737.8214276177542,1838.7,71.5714133126395,737.8214276177542,1944,71.5714133126395,737.8214276177542,2044.3,71.5714133126395,737.8214276177542,2144.5,71.5714133126395,737.8214276177542,2244.5,-67.1785866873605,674.0714276177542,2344.8,-67.1785866873605,674.0714276177542,2448.8,-67.1785866873605,674.0714276177542,2549.4,-67.1785866873605,674.0714276177542,2650.1,-67.1785866873605,674.0714276177542,2753.7,-67.1785866873605,674.0714276177542,2853.8,-67.1785866873605,674.0714276177542,2954.5,-67.1785866873605,674.0714276177542,3058.6,-67.1785866873605,674.0714276177542,3164.9,-67.1785866873605,674.0714276177542,3269.7,-67.1785866873605,674.0714276177542,3374.5,-67.1785866873605,674.0714276177542,3474.7,-67.1785866873605,674.0714276177542,3578.9,-67.1785866873605,674.0714276177542,3680.4,-67.1785866873605,674.0714276177542,3784.9,-67.1785866873605,674.0714276177542,3885.5,-67.1785866873605,674.0714276177542,3988.7,-67.1785866873605,674.0714276177542,4094.2,-67.1785866873605,674.0714276177542,4194.3,-67.1785866873605,674.0714276177542,4302.2,-67.1785866873605,674.0714276177542,4402.8,-67.1785866873605,674.0714276177542,4504.1,-67.1785866873605,674.0714276177542,4610,-67.1785866873605,674.0714276177542,4715.7,-67.1785866873605,674.0714276177542,4818.9,-67.1785866873605,674.0714276177542,4924.6]","[1785.8,1785.8,1000,0,785.8,""oops"",""left"",""left"",""good_move"",4934.4,3148.2,2722.8,1786.2,425.4,""smooth"",""down"",""down"",""good_move"",7965.4,3030.5,2621.2,4934.9,409.3,""smooth"",""down"",""down"",""good_move"",10913.5,2948,2470.4,7965.5,477.6,""smooth"",""left"",""left"",""good_move""]","",""
"4241","","<div style=""width:500px;"">
  <p>What determined the result of this run?</p>
  </div>","60","html-slider-response","47","1047447","0.0-10.0-1.1","57","1","2025-07-02 10:18:53","80fe4187154257d5fb01684ea91b68b9","51.36.170.163","Mozilla/5.0 (Windows NT 10.0; Win64; x64) AppleWebKit/537.36 (KHTML, like Gecko) Chrome/137.0.0.0 Safari/537.36","WebKit","Chrome","137.0.0.0","Windows","10.0","https://app.prolific.com/","en-US,en;q=0.9","65f19a1fe38352676f83d5f0","683db6dfa200031b80f2a654","68650761e11d3d9743e8ed5b","65f19a1fe38352676f83d5f0","2025-07-02T10:36:23.684Z","","","","","","AttribQ","","","","","","","","","","","","","","","","","","","","","","","","","","","","","","","","","","","","","","50"
"2116","","<div style=""width:500px;"">
  <p>How much control did you have over the ball?</p>
  </div>","59","html-slider-response","48","1049563","0.0-10.0-2.1","57","1","2025-07-02 10:18:53","80fe4187154257d5fb01684ea91b68b9","51.36.170.163","Mozilla/5.0 (Windows NT 10.0; Win64; x64) AppleWebKit/537.36 (KHTML, like Gecko) Chrome/137.0.0.0 Safari/537.36","WebKit","Chrome","137.0.0.0","Windows","10.0","https://app.prolific.com/","en-US,en;q=0.9","65f19a1fe38352676f83d5f0","683db6dfa200031b80f2a654","68650761e11d3d9743e8ed5b","65f19a1fe38352676f83d5f0","2025-07-02T10:36:25.800Z","","","","","","ControlQ","","","","","","","","","","","","","","","","","","","","","","","","","","","","","","","","","","","","","","50"
"15139","","<div style=""width:500px;"">
  <p>How would you describe your current emotional state?</p>
  </div>","44","html-slider-response","49","1064704","0.0-10.0-3.1","57","1","2025-07-02 10:18:53","80fe4187154257d5fb01684ea91b68b9","51.36.170.163","Mozilla/5.0 (Windows NT 10.0; Win64; x64) AppleWebKit/537.36 (KHTML, like Gecko) Chrome/137.0.0.0 Safari/537.36","WebKit","Chrome","137.0.0.0","Windows","10.0","https://app.prolific.com/","en-US,en;q=0.9","65f19a1fe38352676f83d5f0","683db6dfa200031b80f2a654","68650761e11d3d9743e8ed5b","65f19a1fe38352676f83d5f0","2025-07-02T10:36:40.941Z","","","","","","StressQ","","","","","","","","","","","","","","","","","","","","","","","","","","","","","","","","","","","","","","50"
"4086","","<div style=""width:500px;"">
  <p>What best describes how you currently feel?</p>
  </div>","56","html-slider-response","50","1068792","0.0-10.0-4.1","57","1","2025-07-02 10:18:53","80fe4187154257d5fb01684ea91b68b9","51.36.170.163","Mozilla/5.0 (Windows NT 10.0; Win64; x64) AppleWebKit/537.36 (KHTML, like Gecko) Chrome/137.0.0.0 Safari/537.36","WebKit","Chrome","137.0.0.0","Windows","10.0","https://app.prolific.com/","en-US,en;q=0.9","65f19a1fe38352676f83d5f0","683db6dfa200031b80f2a654","68650761e11d3d9743e8ed5b","65f19a1fe38352676f83d5f0","2025-07-02T10:36:45.029Z","","","","","","MotivationQ","","","","","","","","","","","","","","","","","","","","","","","","","","","","","","","","","","","","","","50"
"","","","","ctl-task-cpt","51","1101997","0.0-10.0-0.2","57","1","2025-07-02 10:18:53","80fe4187154257d5fb01684ea91b68b9","51.36.170.163","Mozilla/5.0 (Windows NT 10.0; Win64; x64) AppleWebKit/537.36 (KHTML, like Gecko) Chrome/137.0.0.0 Safari/537.36","WebKit","Chrome","137.0.0.0","Windows","10.0","https://app.prolific.com/","en-US,en;q=0.9","65f19a1fe38352676f83d5f0","683db6dfa200031b80f2a654","68650761e11d3d9743e8ed5b","65f19a1fe38352676f83d5f0","2025-07-02T10:37:18.234Z","","","","","","","","","","","","","","","","win-only","1","g1:NE,g2:SW","0.8","3","0","1073859.9","1801.9","6806.2","30187","1","4","4","6","1","-1","-1","1","2","0.007575757575757576","1982.5","3000","-3000","[""up"",""right""]","{""num_key_presses"":5,""num_perfect"":3,""num_errors"":0,""num_randdir"":2,""num_randdir_good_moves"":1,""num_whilered"":0,""num_whileblue"":0,""num_blue"":2,""num_good_moves"":4}","[421.5714133126395,411.57142761775424,0.2,421.5714133126395,411.57142761775424,104,421.5714133126395,411.57142761775424,209.7,421.5714133126395,411.57142761775424,314.6,421.5714133126395,411.57142761775424,419.4,421.5714133126395,411.57142761775424,520,421.5714133126395,411.57142761775424,624.1,421.5714133126395,411.57142761775424,724.2,450.3214133126395,396.57142761775424,824.4,622.8214133126395,202.82142761775424,930.8,649.0714133126395,92.82142761775425,1033.4,670.3214133126395,87.82142761775425,1134.1,712.8214133126395,91.57142761775425,1234.2,721.5714133126395,85.32142761775425,1339.4,721.5714133126395,85.32142761775425,1443.8,721.5714133126395,85.32142761775425,1544.5,764.0714133126395,86.57142761775425,1650.1,766.5714133126395,86.57142761775425,1753.7,766.5714133126395,86.57142761775425,1854.7,766.5714133126395,86.57142761775425,1959.3,766.5714133126395,86.57142761775425,2064.1,766.5714133126395,86.57142761775425,2169.2,766.5714133126395,86.57142761775425,2269.4,766.5714133126395,86.57142761775425,2369.4,766.5714133126395,86.57142761775425,2469.5,766.5714133126395,86.57142761775425,2573.9,766.5714133126395,86.57142761775425,2674.5,766.5714133126395,86.57142761775425,2775.2,766.5714133126395,86.57142761775425,2876.8,766.5714133126395,86.57142761775425,2980.9,766.5714133126395,86.57142761775425,3084.2,766.5714133126395,86.57142761775425,3184.4,766.5714133126395,86.57142761775425,3289.9,766.5714133126395,86.57142761775425,3393.4,766.5714133126395,86.57142761775425,3494.5,766.5714133126395,86.57142761775425,3599.1,766.5714133126395,86.57142761775425,3700.1,766.5714133126395,86.57142761775425,3800.2,766.5714133126395,86.57142761775425,3903.5,766.5714133126395,86.57142761775425,4004.3,766.5714133126395,86.57142761775425,4104.5,766.5714133126395,86.57142761775425,4208.9,766.5714133126395,86.57142761775425,4309,766.5714133126395,86.57142761775425,4410.2,766.5714133126395,86.57142761775425,4514,766.5714133126395,86.57142761775425,4619.4,381.5714133126395,160.32142761775424,4724.3,-84.6785866873605,364.07142761775424,4830,-84.6785866873605,364.07142761775424,4934.6]","[1641.7,1641.7,1000,0,641.7,""smooth"",""up"",""up"",""good_move"",4728.5,3086.3,2646.3,1642.2,440,""smooth"",""up"",""up"",""good_move"",7155.4,2426.7,1955.8,4728.7,470.9,""oops"",""right"",""right"",""good_move"",17102,9946.2,2293.7,14330,478.3,""oops"",""right"",""down"",""bad_move"",20290.2,3187.9,2500.3,17102.3,687.6,""smooth"",""up"",""up"",""good_move""]","",""
"7088","","<div style=""width:500px;"">
  <p>What determined the result of this run?</p>
  </div>","33","html-slider-response","52","1109086","0.0-10.0-1.2","57","1","2025-07-02 10:18:53","80fe4187154257d5fb01684ea91b68b9","51.36.170.163","Mozilla/5.0 (Windows NT 10.0; Win64; x64) AppleWebKit/537.36 (KHTML, like Gecko) Chrome/137.0.0.0 Safari/537.36","WebKit","Chrome","137.0.0.0","Windows","10.0","https://app.prolific.com/","en-US,en;q=0.9","65f19a1fe38352676f83d5f0","683db6dfa200031b80f2a654","68650761e11d3d9743e8ed5b","65f19a1fe38352676f83d5f0","2025-07-02T10:37:25.323Z","","","","","","AttribQ","","","","","","","","","","","","","","","","","","","","","","","","","","","","","","","","","","","","","","50"
"4412","","<div style=""width:500px;"">
  <p>How much control did you have over the ball?</p>
  </div>","37","html-slider-response","53","1113499","0.0-10.0-2.2","57","1","2025-07-02 10:18:53","80fe4187154257d5fb01684ea91b68b9","51.36.170.163","Mozilla/5.0 (Windows NT 10.0; Win64; x64) AppleWebKit/537.36 (KHTML, like Gecko) Chrome/137.0.0.0 Safari/537.36","WebKit","Chrome","137.0.0.0","Windows","10.0","https://app.prolific.com/","en-US,en;q=0.9","65f19a1fe38352676f83d5f0","683db6dfa200031b80f2a654","68650761e11d3d9743e8ed5b","65f19a1fe38352676f83d5f0","2025-07-02T10:37:29.736Z","","","","","","ControlQ","","","","","","","","","","","","","","","","","","","","","","","","","","","","","","","","","","","","","","50"
"3639","","<div style=""width:500px;"">
  <p>How would you describe your current emotional state?</p>
  </div>","51","html-slider-response","54","1117139","0.0-10.0-3.2","57","1","2025-07-02 10:18:53","80fe4187154257d5fb01684ea91b68b9","51.36.170.163","Mozilla/5.0 (Windows NT 10.0; Win64; x64) AppleWebKit/537.36 (KHTML, like Gecko) Chrome/137.0.0.0 Safari/537.36","WebKit","Chrome","137.0.0.0","Windows","10.0","https://app.prolific.com/","en-US,en;q=0.9","65f19a1fe38352676f83d5f0","683db6dfa200031b80f2a654","68650761e11d3d9743e8ed5b","65f19a1fe38352676f83d5f0","2025-07-02T10:37:33.376Z","","","","","","StressQ","","","","","","","","","","","","","","","","","","","","","","","","","","","","","","","","","","","","","","50"
"3055","","<div style=""width:500px;"">
  <p>What best describes how you currently feel?</p>
  </div>","53","html-slider-response","55","1120195","0.0-10.0-4.2","57","1","2025-07-02 10:18:53","80fe4187154257d5fb01684ea91b68b9","51.36.170.163","Mozilla/5.0 (Windows NT 10.0; Win64; x64) AppleWebKit/537.36 (KHTML, like Gecko) Chrome/137.0.0.0 Safari/537.36","WebKit","Chrome","137.0.0.0","Windows","10.0","https://app.prolific.com/","en-US,en;q=0.9","65f19a1fe38352676f83d5f0","683db6dfa200031b80f2a654","68650761e11d3d9743e8ed5b","65f19a1fe38352676f83d5f0","2025-07-02T10:37:36.432Z","","","","","","MotivationQ","","","","","","","","","","","","","","","","","","","","","","","","","","","","","","","","","","","","","","50"
"","","","","ctl-task-cpt","56","1145696","0.0-10.0-0.3","57","1","2025-07-02 10:18:53","80fe4187154257d5fb01684ea91b68b9","51.36.170.163","Mozilla/5.0 (Windows NT 10.0; Win64; x64) AppleWebKit/537.36 (KHTML, like Gecko) Chrome/137.0.0.0 Safari/537.36","WebKit","Chrome","137.0.0.0","Windows","10.0","https://app.prolific.com/","en-US,en;q=0.9","65f19a1fe38352676f83d5f0","683db6dfa200031b80f2a654","68650761e11d3d9743e8ed5b","65f19a1fe38352676f83d5f0","2025-07-02T10:38:01.933Z","","","","","","","","","","","","","","","","win-only","0","g1:NW,g2:SE","0.7","4","0","1125263.9","3289","8291.7","22479.3","1","4","8","6","1","1","1","2","1","0.015151515151515152","1299.4","3000","1095","[""left"",""up""]","{""num_key_presses"":4,""num_perfect"":4,""num_errors"":0,""num_randdir"":0,""num_randdir_good_moves"":0,""num_whilered"":0,""num_whileblue"":0,""num_blue"":1,""num_good_moves"":4}","[409.0714133126395,407.82142761775424,0.3,409.0714133126395,407.82142761775424,101.4,409.0714133126395,407.82142761775424,202.1,409.0714133126395,407.82142761775424,307.1,409.0714133126395,407.82142761775424,411.3,-13.428586687360493,437.82142761775424,514.4,-33.42858668736049,450.32142761775424,617.3,-33.42858668736049,450.32142761775424,721.3,-33.42858668736049,450.32142761775424,822.6,39.07141331263951,146.57142761775424,927.5,51.57141331263951,96.57142761775425,1035.8,66.5714133126395,69.07142761775425,1136.5,66.5714133126395,69.07142761775425,1236.8,66.5714133126395,69.07142761775425,1341.8,66.5714133126395,69.07142761775425,1442.3,66.5714133126395,69.07142761775425,1547.1,66.5714133126395,69.07142761775425,1647.5,66.5714133126395,69.07142761775425,1751.9,-64.6785866873605,230.32142761775424,1852.3,-94.6785866873605,270.32142761775424,1957,-94.6785866873605,270.32142761775424,2063.8,-94.6785866873605,270.32142761775424,2166.6,-94.6785866873605,270.32142761775424,2267,-94.6785866873605,270.32142761775424,2372.6,-94.6785866873605,270.32142761775424,2476.5,-94.6785866873605,270.32142761775424,2580.5,-94.6785866873605,270.32142761775424,2682.1,-94.6785866873605,270.32142761775424,2784.3,-94.6785866873605,270.32142761775424,2887.1,-94.6785866873605,270.32142761775424,2991.3,-94.6785866873605,270.32142761775424,3092.2,-94.6785866873605,270.32142761775424,3198,-94.6785866873605,270.32142761775424,3299.1,-94.6785866873605,270.32142761775424,3401.2,-94.6785866873605,270.32142761775424,3502.4,-94.6785866873605,270.32142761775424,3607.2,-94.6785866873605,270.32142761775424,3712.3,-94.6785866873605,270.32142761775424,3813.2,-94.6785866873605,270.32142761775424,3916.6,-94.6785866873605,270.32142761775424,4017.2,-94.6785866873605,270.32142761775424,4121.3,-94.6785866873605,270.32142761775424,4222.3,-94.6785866873605,270.32142761775424,4328.2,-94.6785866873605,270.32142761775424,4428.2,-94.6785866873605,270.32142761775424,4532.5,-94.6785866873605,270.32142761775424,4636.8,-94.6785866873605,270.32142761775424,4737,-94.6785866873605,270.32142761775424,4837.5,-94.6785866873605,270.32142761775424,4941.7]","[1402.9,1403,1000,0,403,""smooth"",""left"",""left"",""good_move"",3795.9,2392.7,1923.8,1403.2,468.9,""smooth"",""left"",""left"",""good_move"",8058.2,4262.1,3632.6,3796.1,629.5,""smooth"",""up"",""up"",""good_move"",14093.3,6034.8,2304.4,11300.5,488.4,""smooth"",""up"",""up"",""good_move""]","",""
"3537","","<div style=""width:500px;"">
  <p>What determined the result of this run?</p>
  </div>","55","html-slider-response","57","1149234","0.0-10.0-1.3","57","1","2025-07-02 10:18:53","80fe4187154257d5fb01684ea91b68b9","51.36.170.163","Mozilla/5.0 (Windows NT 10.0; Win64; x64) AppleWebKit/537.36 (KHTML, like Gecko) Chrome/137.0.0.0 Safari/537.36","WebKit","Chrome","137.0.0.0","Windows","10.0","https://app.prolific.com/","en-US,en;q=0.9","65f19a1fe38352676f83d5f0","683db6dfa200031b80f2a654","68650761e11d3d9743e8ed5b","65f19a1fe38352676f83d5f0","2025-07-02T10:38:05.471Z","","","","","","AttribQ","","","","","","","","","","","","","","","","","","","","","","","","","","","","","","","","","","","","","","50"
"2787","","<div style=""width:500px;"">
  <p>How much control did you have over the ball?</p>
  </div>","70","html-slider-response","58","1152022","0.0-10.0-2.3","57","1","2025-07-02 10:18:53","80fe4187154257d5fb01684ea91b68b9","51.36.170.163","Mozilla/5.0 (Windows NT 10.0; Win64; x64) AppleWebKit/537.36 (KHTML, like Gecko) Chrome/137.0.0.0 Safari/537.36","WebKit","Chrome","137.0.0.0","Windows","10.0","https://app.prolific.com/","en-US,en;q=0.9","65f19a1fe38352676f83d5f0","683db6dfa200031b80f2a654","68650761e11d3d9743e8ed5b","65f19a1fe38352676f83d5f0","2025-07-02T10:38:08.259Z","","","","","","ControlQ","","","","","","","","","","","","","","","","","","","","","","","","","","","","","","","","","","","","","","50"
"3747","","<div style=""width:500px;"">
  <p>How would you describe your current emotional state?</p>
  </div>","43","html-slider-response","59","1155770","0.0-10.0-3.3","57","1","2025-07-02 10:18:53","80fe4187154257d5fb01684ea91b68b9","51.36.170.163","Mozilla/5.0 (Windows NT 10.0; Win64; x64) AppleWebKit/537.36 (KHTML, like Gecko) Chrome/137.0.0.0 Safari/537.36","WebKit","Chrome","137.0.0.0","Windows","10.0","https://app.prolific.com/","en-US,en;q=0.9","65f19a1fe38352676f83d5f0","683db6dfa200031b80f2a654","68650761e11d3d9743e8ed5b","65f19a1fe38352676f83d5f0","2025-07-02T10:38:12.007Z","","","","","","StressQ","","","","","","","","","","","","","","","","","","","","","","","","","","","","","","","","","","","","","","50"
"2307","","<div style=""width:500px;"">
  <p>What best describes how you currently feel?</p>
  </div>","55","html-slider-response","60","1158078","0.0-10.0-4.3","57","1","2025-07-02 10:18:53","80fe4187154257d5fb01684ea91b68b9","51.36.170.163","Mozilla/5.0 (Windows NT 10.0; Win64; x64) AppleWebKit/537.36 (KHTML, like Gecko) Chrome/137.0.0.0 Safari/537.36","WebKit","Chrome","137.0.0.0","Windows","10.0","https://app.prolific.com/","en-US,en;q=0.9","65f19a1fe38352676f83d5f0","683db6dfa200031b80f2a654","68650761e11d3d9743e8ed5b","65f19a1fe38352676f83d5f0","2025-07-02T10:38:14.315Z","","","","","","MotivationQ","","","","","","","","","","","","","","","","","","","","","","","","","","","","","","","","","","","","","","50"
"","","","","ctl-task-cpt","61","1206067","0.0-10.0-0.4","57","1","2025-07-02 10:18:53","80fe4187154257d5fb01684ea91b68b9","51.36.170.163","Mozilla/5.0 (Windows NT 10.0; Win64; x64) AppleWebKit/537.36 (KHTML, like Gecko) Chrome/137.0.0.0 Safari/537.36","WebKit","Chrome","137.0.0.0","Windows","10.0","https://app.prolific.com/","en-US,en;q=0.9","65f19a1fe38352676f83d5f0","683db6dfa200031b80f2a654","68650761e11d3d9743e8ed5b","65f19a1fe38352676f83d5f0","2025-07-02T10:39:02.304Z","","","","","","","","","","","","","","","","win-only","1","g1:NE,g2:SW","0.6","5","0","1163145.9","8256.8","13260.9","44971.9","1","4","4","6","1","1","1","3","2","0.022727272727272728","1228.7","3000","120","[""up"",""right""]","{""num_key_presses"":6,""num_perfect"":5,""num_errors"":0,""num_randdir"":1,""num_randdir_good_moves"":0,""num_whilered"":0,""num_whileblue"":0,""num_blue"":4,""num_good_moves"":5}","[416.5714133126395,420.32142761775424,0.2,416.5714133126395,420.32142761775424,104.2,416.5714133126395,420.32142761775424,208.4,416.5714133126395,420.32142761775424,310.8,416.5714133126395,420.32142761775424,413.5,96.5714133126395,346.57142761775424,514.1,-69.6785866873605,351.57142761775424,618.9,504.0714133126395,179.07142761775424,719.4,645.3214133126395,87.82142761775425,823.8,645.3214133126395,87.82142761775425,924,741.5714133126395,76.57142761775425,1024,775.3214133126395,71.57142761775425,1124.3,775.3214133126395,71.57142761775425,1230.6,775.3214133126395,71.57142761775425,1333.5,775.3214133126395,71.57142761775425,1438.9,775.3214133126395,71.57142761775425,1539,775.3214133126395,71.57142761775425,1647.4,260.3214133126395,81.57142761775425,1749.1,169.0714133126395,125.32142761775425,1849.3,169.0714133126395,125.32142761775425,1953.5,169.0714133126395,125.32142761775425,2055.3,-43.42858668736049,150.32142761775424,2158.4,-63.42858668736049,157.82142761775424,2261.3,-63.42858668736049,157.82142761775424,2364.2,-63.42858668736049,157.82142761775424,2464.3,-63.42858668736049,157.82142761775424,2564.3,-63.42858668736049,157.82142761775424,2669,-63.42858668736049,157.82142761775424,2774.2,-63.42858668736049,157.82142761775424,2880.5,-63.42858668736049,157.82142761775424,2980.9,-63.42858668736049,157.82142761775424,3083.9,-63.42858668736049,157.82142761775424,3188.7,-63.42858668736049,157.82142761775424,3289.7,-63.42858668736049,157.82142761775424,3394.1,-63.42858668736049,157.82142761775424,3499.1,-63.42858668736049,157.82142761775424,3604.3,-63.42858668736049,157.82142761775424,3708.9,-63.42858668736049,157.82142761775424,3810.7,-63.42858668736049,157.82142761775424,3914.5,-63.42858668736049,157.82142761775424,4018.9,-63.42858668736049,157.82142761775424,4119.1,-63.42858668736049,157.82142761775424,4225.7,-63.42858668736049,157.82142761775424,4326,-63.42858668736049,157.82142761775424,4431.8,-63.42858668736049,157.82142761775424,4534.3,-63.42858668736049,157.82142761775424,4641.8,-63.42858668736049,157.82142761775424,4748.2,-63.42858668736049,157.82142761775424,4848.4,-63.42858668736049,157.82142761775424,4948.7]","[1626.3,1626.3,1000,0,626.3,""oops"",""up"",""down"",""bad_move"",4589.8,2963.2,2426.2,1626.6,537,""smooth"",""right"",""right"",""good_move"",18446.3,13856.2,1930.6,16035.6,480.1,""smooth"",""right"",""right"",""good_move"",24939.3,6492.6,2403.5,22105.3,430.5,""smooth"",""up"",""up"",""good_move"",28297.7,3358.2,2887.1,24939.5,471.1,""smooth"",""up"",""up"",""good_move"",31621.4,3323.5,2940,28297.9,383.5,""smooth"",""up"",""up"",""good_move""]","",""
"75511","","<div style=""width:500px;"">
  <p>What determined the result of this run?</p>
  </div>","57","html-slider-response","62","1281579","0.0-10.0-1.4","57","1","2025-07-02 10:18:53","80fe4187154257d5fb01684ea91b68b9","51.36.170.163","Mozilla/5.0 (Windows NT 10.0; Win64; x64) AppleWebKit/537.36 (KHTML, like Gecko) Chrome/137.0.0.0 Safari/537.36","WebKit","Chrome","137.0.0.0","Windows","10.0","https://app.prolific.com/","en-US,en;q=0.9","65f19a1fe38352676f83d5f0","683db6dfa200031b80f2a654","68650761e11d3d9743e8ed5b","65f19a1fe38352676f83d5f0","2025-07-02T10:40:17.816Z","","","","","","AttribQ","","","","","","","","","","","","","","","","","","","","","","","","","","","","","","","","","","","","","","50"
"68462","","<div style=""width:500px;"">
  <p>How much control did you have over the ball?</p>
  </div>","53","html-slider-response","63","1350042","0.0-10.0-2.4","57","1","2025-07-02 10:18:53","80fe4187154257d5fb01684ea91b68b9","51.36.170.163","Mozilla/5.0 (Windows NT 10.0; Win64; x64) AppleWebKit/537.36 (KHTML, like Gecko) Chrome/137.0.0.0 Safari/537.36","WebKit","Chrome","137.0.0.0","Windows","10.0","https://app.prolific.com/","en-US,en;q=0.9","65f19a1fe38352676f83d5f0","683db6dfa200031b80f2a654","68650761e11d3d9743e8ed5b","65f19a1fe38352676f83d5f0","2025-07-02T10:41:26.279Z","","","","","","ControlQ","","","","","","","","","","","","","","","","","","","","","","","","","","","","","","","","","","","","","","50"
"5137","","<div style=""width:500px;"">
  <p>How would you describe your current emotional state?</p>
  </div>","53","html-slider-response","64","1355181","0.0-10.0-3.4","57","1","2025-07-02 10:18:53","80fe4187154257d5fb01684ea91b68b9","51.36.170.163","Mozilla/5.0 (Windows NT 10.0; Win64; x64) AppleWebKit/537.36 (KHTML, like Gecko) Chrome/137.0.0.0 Safari/537.36","WebKit","Chrome","137.0.0.0","Windows","10.0","https://app.prolific.com/","en-US,en;q=0.9","65f19a1fe38352676f83d5f0","683db6dfa200031b80f2a654","68650761e11d3d9743e8ed5b","65f19a1fe38352676f83d5f0","2025-07-02T10:41:31.418Z","","","","","","StressQ","","","","","","","","","","","","","","","","","","","","","","","","","","","","","","","","","","","","","","50"
"2841","","<div style=""width:500px;"">
  <p>What best describes how you currently feel?</p>
  </div>","53","html-slider-response","65","1358024","0.0-10.0-4.4","57","1","2025-07-02 10:18:53","80fe4187154257d5fb01684ea91b68b9","51.36.170.163","Mozilla/5.0 (Windows NT 10.0; Win64; x64) AppleWebKit/537.36 (KHTML, like Gecko) Chrome/137.0.0.0 Safari/537.36","WebKit","Chrome","137.0.0.0","Windows","10.0","https://app.prolific.com/","en-US,en;q=0.9","65f19a1fe38352676f83d5f0","683db6dfa200031b80f2a654","68650761e11d3d9743e8ed5b","65f19a1fe38352676f83d5f0","2025-07-02T10:41:34.261Z","","","","","","MotivationQ","","","","","","","","","","","","","","","","","","","","","","","","","","","","","","","","","","","","","","50"
"","","","","ctl-task-cpt","66","1398712","0.0-10.0-0.5","57","1","2025-07-02 10:18:53","80fe4187154257d5fb01684ea91b68b9","51.36.170.163","Mozilla/5.0 (Windows NT 10.0; Win64; x64) AppleWebKit/537.36 (KHTML, like Gecko) Chrome/137.0.0.0 Safari/537.36","WebKit","Chrome","137.0.0.0","Windows","10.0","https://app.prolific.com/","en-US,en;q=0.9","65f19a1fe38352676f83d5f0","683db6dfa200031b80f2a654","68650761e11d3d9743e8ed5b","65f19a1fe38352676f83d5f0","2025-07-02T10:42:14.950Z","","","","","","","","","","","","","","","","win-only","0","g1:NW,g2:SE","0.5","6","0","1363092","2287.6","7291","37665.2","1","4","8","6","1","-1","-2","1","3","0.007575757575757576","1053.9","3000","-2975","[""left"",""up""]","{""num_key_presses"":8,""num_perfect"":4,""num_errors"":1,""num_randdir"":3,""num_randdir_good_moves"":1,""num_whilered"":0,""num_whileblue"":0,""num_blue"":2,""num_good_moves"":5}","[415.3214133126395,421.57142761775424,0.2,415.3214133126395,421.57142761775424,104,415.3214133126395,421.57142761775424,208.7,415.3214133126395,421.57142761775424,312.8,415.3214133126395,421.57142761775424,415.3,397.8214133126395,339.07142761775424,515.6,132.8214133126395,41.57142761775425,619.2,99.0714133126395,16.571427617754253,722.8,90.3214133126395,42.82142761775425,828.9,82.8214133126395,52.82142761775425,929.8,82.8214133126395,52.82142761775425,1035.4,82.8214133126395,52.82142761775425,1137,82.8214133126395,52.82142761775425,1238.2,82.8214133126395,52.82142761775425,1342.8,82.8214133126395,52.82142761775425,1448.7,82.8214133126395,52.82142761775425,1551.3,-128.4285866873605,205.32142761775424,1653.6,-183.4285866873605,256.57142761775424,1758.1,-183.4285866873605,256.57142761775424,1865.5,-183.4285866873605,256.57142761775424,1969.4,-183.4285866873605,256.57142761775424,2073,-183.4285866873605,256.57142761775424,2173.7,-183.4285866873605,256.57142761775424,2281.1,-183.4285866873605,256.57142761775424,2384.2,-183.4285866873605,256.57142761775424,2488.6,-183.4285866873605,256.57142761775424,2592.9,-183.4285866873605,256.57142761775424,2694,-183.4285866873605,256.57142761775424,2794.7,-183.4285866873605,256.57142761775424,2899.1,-183.4285866873605,256.57142761775424,3003,-183.4285866873605,256.57142761775424,3103,-183.4285866873605,256.57142761775424,3207.9,-183.4285866873605,256.57142761775424,3308,-183.4285866873605,256.57142761775424,3408,-183.4285866873605,256.57142761775424,3508.1,-183.4285866873605,256.57142761775424,3615.2,-183.4285866873605,256.57142761775424,3718.2,-183.4285866873605,256.57142761775424,3823,-183.4285866873605,256.57142761775424,3923,-183.4285866873605,256.57142761775424,4028,-183.4285866873605,256.57142761775424,4128.8,-183.4285866873605,256.57142761775424,4228.9,-183.4285866873605,256.57142761775424,4329.6,-183.4285866873605,256.57142761775424,4430.9,-183.4285866873605,256.57142761775424,4535.4,-183.4285866873605,256.57142761775424,4638.1,-183.4285866873605,256.57142761775424,4738.6,-183.4285866873605,256.57142761775424,4843,-183.4285866873605,256.57142761775424,4943.7]","[1554.5,1554.5,1000,0,554.5,""smooth"",""left"",""left"",""good_move"",8279.7,6724.9,2361.7,5570.2,347.8,""oops"",""left"",""left"",""good_move"",11411.6,3131.6,2734.1,8280,397.5,""oops"",""up"",""right"",""bad_move"",13711.8,2299.9,1840.5,11411.9,459.4,""smooth"",""left"",""left"",""good_move"",17111.4,3399.6,3058.5,13711.9,341.1,""oops"",""up"",""right"",""bad_move"",22824.1,5712.4,1929.7,20435.1,459.3,""smooth"",""left"",""left"",""good_move"",25577.1,2752.8,2314.7,22824.3,438.1,""smooth"",""up"",""up"",""good_move"",26479,901.6,2547.9,25577.4,-1646.3,""error"",""-"",""-"",""no_move""]","",""
"2926","","<div style=""width:500px;"">
  <p>What determined the result of this run?</p>
  </div>","44","html-slider-response","67","1401640","0.0-10.0-1.5","57","1","2025-07-02 10:18:53","80fe4187154257d5fb01684ea91b68b9","51.36.170.163","Mozilla/5.0 (Windows NT 10.0; Win64; x64) AppleWebKit/537.36 (KHTML, like Gecko) Chrome/137.0.0.0 Safari/537.36","WebKit","Chrome","137.0.0.0","Windows","10.0","https://app.prolific.com/","en-US,en;q=0.9","65f19a1fe38352676f83d5f0","683db6dfa200031b80f2a654","68650761e11d3d9743e8ed5b","65f19a1fe38352676f83d5f0","2025-07-02T10:42:17.877Z","","","","","","AttribQ","","","","","","","","","","","","","","","","","","","","","","","","","","","","","","","","","","","","","","50"
"3754","","<div style=""width:500px;"">
  <p>How much control did you have over the ball?</p>
  </div>","45","html-slider-response","68","1405395","0.0-10.0-2.5","57","1","2025-07-02 10:18:53","80fe4187154257d5fb01684ea91b68b9","51.36.170.163","Mozilla/5.0 (Windows NT 10.0; Win64; x64) AppleWebKit/537.36 (KHTML, like Gecko) Chrome/137.0.0.0 Safari/537.36","WebKit","Chrome","137.0.0.0","Windows","10.0","https://app.prolific.com/","en-US,en;q=0.9","65f19a1fe38352676f83d5f0","683db6dfa200031b80f2a654","68650761e11d3d9743e8ed5b","65f19a1fe38352676f83d5f0","2025-07-02T10:42:21.632Z","","","","","","ControlQ","","","","","","","","","","","","","","","","","","","","","","","","","","","","","","","","","","","","","","50"
"2933","","<div style=""width:500px;"">
  <p>How would you describe your current emotional state?</p>
  </div>","57","html-slider-response","69","1408329","0.0-10.0-3.5","57","1","2025-07-02 10:18:53","80fe4187154257d5fb01684ea91b68b9","51.36.170.163","Mozilla/5.0 (Windows NT 10.0; Win64; x64) AppleWebKit/537.36 (KHTML, like Gecko) Chrome/137.0.0.0 Safari/537.36","WebKit","Chrome","137.0.0.0","Windows","10.0","https://app.prolific.com/","en-US,en;q=0.9","65f19a1fe38352676f83d5f0","683db6dfa200031b80f2a654","68650761e11d3d9743e8ed5b","65f19a1fe38352676f83d5f0","2025-07-02T10:42:24.567Z","","","","","","StressQ","","","","","","","","","","","","","","","","","","","","","","","","","","","","","","","","","","","","","","50"
"2777","","<div style=""width:500px;"">
  <p>What best describes how you currently feel?</p>
  </div>","53","html-slider-response","70","1411107","0.0-10.0-4.5","57","1","2025-07-02 10:18:53","80fe4187154257d5fb01684ea91b68b9","51.36.170.163","Mozilla/5.0 (Windows NT 10.0; Win64; x64) AppleWebKit/537.36 (KHTML, like Gecko) Chrome/137.0.0.0 Safari/537.36","WebKit","Chrome","137.0.0.0","Windows","10.0","https://app.prolific.com/","en-US,en;q=0.9","65f19a1fe38352676f83d5f0","683db6dfa200031b80f2a654","68650761e11d3d9743e8ed5b","65f19a1fe38352676f83d5f0","2025-07-02T10:42:27.344Z","","","","","","MotivationQ","","","","","","","","","","","","","","","","","","","","","","","","","","","","","","","","","","","","","","50"
"","","","","ctl-task-cpt","71","1441579","0.0-10.0-0.6","57","1","2025-07-02 10:18:53","80fe4187154257d5fb01684ea91b68b9","51.36.170.163","Mozilla/5.0 (Windows NT 10.0; Win64; x64) AppleWebKit/537.36 (KHTML, like Gecko) Chrome/137.0.0.0 Safari/537.36","WebKit","Chrome","137.0.0.0","Windows","10.0","https://app.prolific.com/","en-US,en;q=0.9","65f19a1fe38352676f83d5f0","683db6dfa200031b80f2a654","68650761e11d3d9743e8ed5b","65f19a1fe38352676f83d5f0","2025-07-02T10:42:57.816Z","","","","","","","","","","","","","","","","win-only","1","g1:NE,g2:SW","0.4","7","0","1416174.6","1115.9","6116.4","27450.3","1","4","8","6","1","1","1","2","1","0.015151515151515152","1589.1","3000","1140","[""up"",""right""]","{""num_key_presses"":4,""num_perfect"":2,""num_errors"":0,""num_randdir"":2,""num_randdir_good_moves"":2,""num_whilered"":0,""num_whileblue"":0,""num_blue"":3,""num_good_moves"":4}","[416.5714133126395,412.82142761775424,0.3,416.5714133126395,412.82142761775424,104.3,416.5714133126395,412.82142761775424,204.5,416.5714133126395,412.82142761775424,305.1,416.5714133126395,412.82142761775424,409.7,-154.6785866873605,462.82142761775424,518.3,-154.6785866873605,462.82142761775424,620.3,-154.6785866873605,462.82142761775424,720.5,-154.6785866873605,462.82142761775424,824.8,-154.6785866873605,462.82142761775424,924.9,-123.4285866873605,437.82142761775424,1032.1,710.3214133126395,-3.428572382245747,1135.4,772.8214133126395,-12.178572382245747,1239.6,816.5714133126395,-3.428572382245747,1340.4,767.8214133126395,84.07142761775425,1445.4,766.5714133126395,91.57142761775425,1547,766.5714133126395,91.57142761775425,1650.7,766.5714133126395,91.57142761775425,1752.6,766.5714133126395,91.57142761775425,1855,766.5714133126395,91.57142761775425,1955.1,-33.42858668736049,257.82142761775424,2059.8,-433.4285866873605,401.57142761775424,2160.3,-433.4285866873605,401.57142761775424,2265.9,-433.4285866873605,401.57142761775424,2370.4,-433.4285866873605,401.57142761775424,2476.2,-433.4285866873605,401.57142761775424,2580.3,-433.4285866873605,401.57142761775424,2685.6,-433.4285866873605,401.57142761775424,2793,-433.4285866873605,401.57142761775424,2897.1,-433.4285866873605,401.57142761775424,3000.4,-433.4285866873605,401.57142761775424,3105.3,-433.4285866873605,401.57142761775424,3209.8,-433.4285866873605,401.57142761775424,3310.5,-433.4285866873605,401.57142761775424,3413.3,-433.4285866873605,401.57142761775424,3518.1,-433.4285866873605,401.57142761775424,3619.4,-433.4285866873605,401.57142761775424,3720.3,-433.4285866873605,401.57142761775424,3825.5,-433.4285866873605,401.57142761775424,3925.6,-433.4285866873605,401.57142761775424,4032.2,-433.4285866873605,401.57142761775424,4134.8,-433.4285866873605,401.57142761775424,4235.2,-433.4285866873605,401.57142761775424,4339.8,-433.4285866873605,401.57142761775424,4446,-433.4285866873605,401.57142761775424,4547,-433.4285866873605,401.57142761775424,4649.8,-433.4285866873605,401.57142761775424,4750,-433.4285866873605,401.57142761775424,4855,-433.4285866873605,401.57142761775424,4955]","[1499.8,1499.8,1000,0,499.8,""smooth"",""right"",""right"",""good_move"",11484.6,9984.5,2457.2,8679.6,347.8,""smooth"",""right"",""right"",""good_move"",14499.1,3013.5,2416.5,11485.7,596.9,""oops"",""up"",""up"",""good_move"",21244.3,6744.9,2683.6,18109.4,451.3,""oops"",""up"",""up"",""good_move""]","",""
"3180","","<div style=""width:500px;"">
  <p>What determined the result of this run?</p>
  </div>","55","html-slider-response","72","1444761","0.0-10.0-1.6","57","1","2025-07-02 10:18:53","80fe4187154257d5fb01684ea91b68b9","51.36.170.163","Mozilla/5.0 (Windows NT 10.0; Win64; x64) AppleWebKit/537.36 (KHTML, like Gecko) Chrome/137.0.0.0 Safari/537.36","WebKit","Chrome","137.0.0.0","Windows","10.0","https://app.prolific.com/","en-US,en;q=0.9","65f19a1fe38352676f83d5f0","683db6dfa200031b80f2a654","68650761e11d3d9743e8ed5b","65f19a1fe38352676f83d5f0","2025-07-02T10:43:00.998Z","","","","","","AttribQ","","","","","","","","","","","","","","","","","","","","","","","","","","","","","","","","","","","","","","50"
"3063","","<div style=""width:500px;"">
  <p>How much control did you have over the ball?</p>
  </div>","62","html-slider-response","73","1447826","0.0-10.0-2.6","57","1","2025-07-02 10:18:53","80fe4187154257d5fb01684ea91b68b9","51.36.170.163","Mozilla/5.0 (Windows NT 10.0; Win64; x64) AppleWebKit/537.36 (KHTML, like Gecko) Chrome/137.0.0.0 Safari/537.36","WebKit","Chrome","137.0.0.0","Windows","10.0","https://app.prolific.com/","en-US,en;q=0.9","65f19a1fe38352676f83d5f0","683db6dfa200031b80f2a654","68650761e11d3d9743e8ed5b","65f19a1fe38352676f83d5f0","2025-07-02T10:43:04.063Z","","","","","","ControlQ","","","","","","","","","","","","","","","","","","","","","","","","","","","","","","","","","","","","","","50"
"3790","","<div style=""width:500px;"">
  <p>How would you describe your current emotional state?</p>
  </div>","48","html-slider-response","74","1451617","0.0-10.0-3.6","57","1","2025-07-02 10:18:53","80fe4187154257d5fb01684ea91b68b9","51.36.170.163","Mozilla/5.0 (Windows NT 10.0; Win64; x64) AppleWebKit/537.36 (KHTML, like Gecko) Chrome/137.0.0.0 Safari/537.36","WebKit","Chrome","137.0.0.0","Windows","10.0","https://app.prolific.com/","en-US,en;q=0.9","65f19a1fe38352676f83d5f0","683db6dfa200031b80f2a654","68650761e11d3d9743e8ed5b","65f19a1fe38352676f83d5f0","2025-07-02T10:43:07.854Z","","","","","","StressQ","","","","","","","","","","","","","","","","","","","","","","","","","","","","","","","","","","","","","","50"
"2480","","<div style=""width:500px;"">
  <p>What best describes how you currently feel?</p>
  </div>","53","html-slider-response","75","1454098","0.0-10.0-4.6","57","1","2025-07-02 10:18:53","80fe4187154257d5fb01684ea91b68b9","51.36.170.163","Mozilla/5.0 (Windows NT 10.0; Win64; x64) AppleWebKit/537.36 (KHTML, like Gecko) Chrome/137.0.0.0 Safari/537.36","WebKit","Chrome","137.0.0.0","Windows","10.0","https://app.prolific.com/","en-US,en;q=0.9","65f19a1fe38352676f83d5f0","683db6dfa200031b80f2a654","68650761e11d3d9743e8ed5b","65f19a1fe38352676f83d5f0","2025-07-02T10:43:10.335Z","","","","","","MotivationQ","","","","","","","","","","","","","","","","","","","","","","","","","","","","","","","","","","","","","","50"
"","","","","ctl-task-cpt","76","1641844","0.0-10.0-0.7","57","1","2025-07-02 10:18:53","80fe4187154257d5fb01684ea91b68b9","51.36.170.163","Mozilla/5.0 (Windows NT 10.0; Win64; x64) AppleWebKit/537.36 (KHTML, like Gecko) Chrome/137.0.0.0 Safari/537.36","WebKit","Chrome","137.0.0.0","Windows","10.0","https://app.prolific.com/","en-US,en;q=0.9","65f19a1fe38352676f83d5f0","683db6dfa200031b80f2a654","68650761e11d3d9743e8ed5b","65f19a1fe38352676f83d5f0","2025-07-02T10:46:18.081Z","","","","","","","","","","","","","","","","win-only","3","g1:SW,g2:NE","0.3","8","0","1459164.8","156356.8","161362.1","184728.7","1","4","4","6","1","-1","-1","1","2","0.007575757575757576","1565.4","3000","-2950","[""down"",""left""]","{""num_key_presses"":7,""num_perfect"":2,""num_errors"":0,""num_randdir"":5,""num_randdir_good_moves"":2,""num_whilered"":0,""num_whileblue"":0,""num_blue"":1,""num_good_moves"":4}","[421.5714133126395,414.07142761775424,0.3,421.5714133126395,414.07142761775424,103.7,421.5714133126395,414.07142761775424,209.2,421.5714133126395,414.07142761775424,309.8,427.8214133126395,406.57142761775424,418.5,691.5714133126395,115.32142761775425,519.6,670.3214133126395,109.07142761775425,623.9,209.0714133126395,504.07142761775424,725.2,16.571413312639507,750.3214276177542,829.2,-4.678586687360493,777.8214276177542,933.8,-4.678586687360493,775.3214276177542,1038.9,-4.678586687360493,775.3214276177542,1139,5.321413312639507,776.5714276177542,1245.3,51.57141331263951,779.0714276177542,1350,60.32141331263951,777.8214276177542,1453.8,60.32141331263951,777.8214276177542,1558.7,60.32141331263951,777.8214276177542,1662.6,60.32141331263951,777.8214276177542,1764.3,60.32141331263951,777.8214276177542,1868.9,60.32141331263951,777.8214276177542,1969.1,51.57141331263951,772.8214276177542,2074.9,-79.6785866873605,736.5714276177542,2179.5,-80.9285866873605,736.5714276177542,2280.1,-80.9285866873605,736.5714276177542,2384.1,-80.9285866873605,736.5714276177542,2484.3,-80.9285866873605,736.5714276177542,2589.4,-80.9285866873605,736.5714276177542,2689.9,-80.9285866873605,736.5714276177542,2797.6,-80.9285866873605,736.5714276177542,2898.7,-80.9285866873605,736.5714276177542,2999.2,-80.9285866873605,736.5714276177542,3099.3,-80.9285866873605,736.5714276177542,3199.5,-80.9285866873605,736.5714276177542,3303.8,-80.9285866873605,736.5714276177542,3409.4,-80.9285866873605,736.5714276177542,3515.4,-80.9285866873605,736.5714276177542,3618.5,-80.9285866873605,736.5714276177542,3718.7,-80.9285866873605,736.5714276177542,3819.1,-80.9285866873605,736.5714276177542,3919.3,-80.9285866873605,736.5714276177542,4023.8,-80.9285866873605,736.5714276177542,4125.1,-80.9285866873605,736.5714276177542,4226.5,-80.9285866873605,736.5714276177542,4329.9,-80.9285866873605,736.5714276177542,4434.1,-80.9285866873605,736.5714276177542,4534.5,-80.9285866873605,736.5714276177542,4638.6,-80.9285866873605,736.5714276177542,4739.1,-80.9285866873605,736.5714276177542,4844.5,-80.9285866873605,736.5714276177542,4947.9]","[1631.3,1631.3,1000,0,631.3,""smooth"",""down"",""down"",""good_move"",7291.7,5660.1,2123.6,4783.9,384.2,""oops"",""down"",""left"",""good_move"",10384.7,3092.6,2673.1,7292.1,419.5,""oops"",""down"",""right"",""bad_move"",12535.3,2150,1690.6,10385.3,459.4,""oops"",""down"",""up"",""bad_move"",15302.1,2766.2,2395.7,12535.9,370.5,""smooth"",""down"",""down"",""good_move"",17968.7,2666.3,2259.2,15302.4,407.1,""oops"",""down"",""up"",""bad_move"",20838.6,2869.7,2454,17968.9,415.7,""oops"",""down"",""down"",""good_move""]","",""
"4029","","<div style=""width:500px;"">
  <p>What determined the result of this run?</p>
  </div>","11","html-slider-response","77","1645875","0.0-10.0-1.7","57","1","2025-07-02 10:18:53","80fe4187154257d5fb01684ea91b68b9","51.36.170.163","Mozilla/5.0 (Windows NT 10.0; Win64; x64) AppleWebKit/537.36 (KHTML, like Gecko) Chrome/137.0.0.0 Safari/537.36","WebKit","Chrome","137.0.0.0","Windows","10.0","https://app.prolific.com/","en-US,en;q=0.9","65f19a1fe38352676f83d5f0","683db6dfa200031b80f2a654","68650761e11d3d9743e8ed5b","65f19a1fe38352676f83d5f0","2025-07-02T10:46:22.112Z","","","","","","AttribQ","","","","","","","","","","","","","","","","","","","","","","","","","","","","","","","","","","","","","","50"
"3911","","<div style=""width:500px;"">
  <p>How much control did you have over the ball?</p>
  </div>","11","html-slider-response","78","1649786","0.0-10.0-2.7","57","1","2025-07-02 10:18:53","80fe4187154257d5fb01684ea91b68b9","51.36.170.163","Mozilla/5.0 (Windows NT 10.0; Win64; x64) AppleWebKit/537.36 (KHTML, like Gecko) Chrome/137.0.0.0 Safari/537.36","WebKit","Chrome","137.0.0.0","Windows","10.0","https://app.prolific.com/","en-US,en;q=0.9","65f19a1fe38352676f83d5f0","683db6dfa200031b80f2a654","68650761e11d3d9743e8ed5b","65f19a1fe38352676f83d5f0","2025-07-02T10:46:26.023Z","","","","","","ControlQ","","","","","","","","","","","","","","","","","","","","","","","","","","","","","","","","","","","","","","50"
"2416","","<div style=""width:500px;"">
  <p>How would you describe your current emotional state?</p>
  </div>","72","html-slider-response","79","1652203","0.0-10.0-3.7","57","1","2025-07-02 10:18:53","80fe4187154257d5fb01684ea91b68b9","51.36.170.163","Mozilla/5.0 (Windows NT 10.0; Win64; x64) AppleWebKit/537.36 (KHTML, like Gecko) Chrome/137.0.0.0 Safari/537.36","WebKit","Chrome","137.0.0.0","Windows","10.0","https://app.prolific.com/","en-US,en;q=0.9","65f19a1fe38352676f83d5f0","683db6dfa200031b80f2a654","68650761e11d3d9743e8ed5b","65f19a1fe38352676f83d5f0","2025-07-02T10:46:28.440Z","","","","","","StressQ","","","","","","","","","","","","","","","","","","","","","","","","","","","","","","","","","","","","","","50"
"2685","","<div style=""width:500px;"">
  <p>What best describes how you currently feel?</p>
  </div>","42","html-slider-response","80","1654889","0.0-10.0-4.7","57","1","2025-07-02 10:18:53","80fe4187154257d5fb01684ea91b68b9","51.36.170.163","Mozilla/5.0 (Windows NT 10.0; Win64; x64) AppleWebKit/537.36 (KHTML, like Gecko) Chrome/137.0.0.0 Safari/537.36","WebKit","Chrome","137.0.0.0","Windows","10.0","https://app.prolific.com/","en-US,en;q=0.9","65f19a1fe38352676f83d5f0","683db6dfa200031b80f2a654","68650761e11d3d9743e8ed5b","65f19a1fe38352676f83d5f0","2025-07-02T10:46:31.126Z","","","","","","MotivationQ","","","","","","","","","","","","","","","","","","","","","","","","","","","","","","","","","","","","","","50"
"","","","","ctl-task-cpt","81","1691555","0.0-10.0-0.8","57","1","2025-07-02 10:18:53","80fe4187154257d5fb01684ea91b68b9","51.36.170.163","Mozilla/5.0 (Windows NT 10.0; Win64; x64) AppleWebKit/537.36 (KHTML, like Gecko) Chrome/137.0.0.0 Safari/537.36","WebKit","Chrome","137.0.0.0","Windows","10.0","https://app.prolific.com/","en-US,en;q=0.9","65f19a1fe38352676f83d5f0","683db6dfa200031b80f2a654","68650761e11d3d9743e8ed5b","65f19a1fe38352676f83d5f0","2025-07-02T10:47:07.793Z","","","","","","","","","","","","","","","","win-only","0","g1:NW,g2:SE","0.4","9","0","1659956.4","2070.8","7072","33641.3","1","4","8","6","1","-1","-1","0","1","0","1174.7","3000","-2920","[""left"",""up""]","{""num_key_presses"":6,""num_perfect"":2,""num_errors"":0,""num_randdir"":4,""num_randdir_good_moves"":0,""num_whilered"":0,""num_whileblue"":0,""num_blue"":2,""num_good_moves"":2}","[406.5714133126395,412.82142761775424,0.9,406.5714133126395,412.82142761775424,100.5,406.5714133126395,412.82142761775424,203,406.5714133126395,412.82142761775424,305.4,406.5714133126395,412.82142761775424,408.2,411.5714133126395,391.57142761775424,510.5,254.0714133126395,131.57142761775424,616.4,129.0714133126395,-19.678572382245747,721.3,96.5714133126395,-5.928572382245747,822.7,54.07141331263951,49.07142761775425,924.9,41.57141331263951,66.57142761775425,1029.4,41.57141331263951,66.57142761775425,1130.6,41.57141331263951,66.57142761775425,1234.7,41.57141331263951,66.57142761775425,1334.7,41.57141331263951,66.57142761775425,1439,41.57141331263951,66.57142761775425,1541.7,41.57141331263951,66.57142761775425,1644.4,-128.4285866873605,176.57142761775424,1745.1,-133.4285866873605,181.57142761775424,1853.4,-133.4285866873605,181.57142761775424,1956.5,-133.4285866873605,181.57142761775424,2060.1,-133.4285866873605,181.57142761775424,2160.7,-133.4285866873605,181.57142761775424,2264.6,-133.4285866873605,181.57142761775424,2365.4,-133.4285866873605,181.57142761775424,2469.2,-133.4285866873605,181.57142761775424,2569.3,-133.4285866873605,181.57142761775424,2670.3,-133.4285866873605,181.57142761775424,2771.3,-133.4285866873605,181.57142761775424,2875.3,-133.4285866873605,181.57142761775424,2976.1,-133.4285866873605,181.57142761775424,3079.6,-133.4285866873605,181.57142761775424,3180.2,-133.4285866873605,181.57142761775424,3283,-133.4285866873605,181.57142761775424,3386.2,-133.4285866873605,181.57142761775424,3487.5,-133.4285866873605,181.57142761775424,3589.6,-133.4285866873605,181.57142761775424,3689.8,-133.4285866873605,181.57142761775424,3790.4,-133.4285866873605,181.57142761775424,3894.6,-133.4285866873605,181.57142761775424,3996.7,-133.4285866873605,181.57142761775424,4104.4,-133.4285866873605,181.57142761775424,4205.7,-133.4285866873605,181.57142761775424,4309.9,-133.4285866873605,181.57142761775424,4409.9,-133.4285866873605,181.57142761775424,4510.2,-133.4285866873605,181.57142761775424,4614.4,-133.4285866873605,181.57142761775424,4716.1,-133.4285866873605,181.57142761775424,4816.6,-133.4285866873605,181.57142761775424,4920.3]","[1651.3,1651.3,1000,0,651.3,""oops"",""left"",""down"",""bad_move"",4243.8,2592.1,2071.8,1651.7,520.3,""smooth"",""left"",""left"",""good_move"",7159.2,2915.1,2497,4244.1,418.1,""oops"",""left"",""down"",""bad_move"",14506.4,7347,3464.4,10534.1,507.9,""oops"",""up"",""down"",""bad_move"",17296.7,2790,2283.6,14506.7,506.4,""smooth"",""up"",""up"",""good_move"",20132.7,2835.7,2414.4,17297,421.3,""oops"",""up"",""right"",""bad_move""]","",""
"4470","","<div style=""width:500px;"">
  <p>What determined the result of this run?</p>
  </div>","10","html-slider-response","82","1696027","0.0-10.0-1.8","57","1","2025-07-02 10:18:53","80fe4187154257d5fb01684ea91b68b9","51.36.170.163","Mozilla/5.0 (Windows NT 10.0; Win64; x64) AppleWebKit/537.36 (KHTML, like Gecko) Chrome/137.0.0.0 Safari/537.36","WebKit","Chrome","137.0.0.0","Windows","10.0","https://app.prolific.com/","en-US,en;q=0.9","65f19a1fe38352676f83d5f0","683db6dfa200031b80f2a654","68650761e11d3d9743e8ed5b","65f19a1fe38352676f83d5f0","2025-07-02T10:47:12.264Z","","","","","","AttribQ","","","","","","","","","","","","","","","","","","","","","","","","","","","","","","","","","","","","","","50"
"3216","","<div style=""width:500px;"">
  <p>How much control did you have over the ball?</p>
  </div>","15","html-slider-response","83","1699244","0.0-10.0-2.8","57","1","2025-07-02 10:18:53","80fe4187154257d5fb01684ea91b68b9","51.36.170.163","Mozilla/5.0 (Windows NT 10.0; Win64; x64) AppleWebKit/537.36 (KHTML, like Gecko) Chrome/137.0.0.0 Safari/537.36","WebKit","Chrome","137.0.0.0","Windows","10.0","https://app.prolific.com/","en-US,en;q=0.9","65f19a1fe38352676f83d5f0","683db6dfa200031b80f2a654","68650761e11d3d9743e8ed5b","65f19a1fe38352676f83d5f0","2025-07-02T10:47:15.481Z","","","","","","ControlQ","","","","","","","","","","","","","","","","","","","","","","","","","","","","","","","","","","","","","","50"
"2383","","<div style=""width:500px;"">
  <p>How would you describe your current emotional state?</p>
  </div>","77","html-slider-response","84","1701628","0.0-10.0-3.8","57","1","2025-07-02 10:18:53","80fe4187154257d5fb01684ea91b68b9","51.36.170.163","Mozilla/5.0 (Windows NT 10.0; Win64; x64) AppleWebKit/537.36 (KHTML, like Gecko) Chrome/137.0.0.0 Safari/537.36","WebKit","Chrome","137.0.0.0","Windows","10.0","https://app.prolific.com/","en-US,en;q=0.9","65f19a1fe38352676f83d5f0","683db6dfa200031b80f2a654","68650761e11d3d9743e8ed5b","65f19a1fe38352676f83d5f0","2025-07-02T10:47:17.865Z","","","","","","StressQ","","","","","","","","","","","","","","","","","","","","","","","","","","","","","","","","","","","","","","50"
"157567","","<div style=""width:500px;"">
  <p>What best describes how you currently feel?</p>
  </div>","29","html-slider-response","85","1859196","0.0-10.0-4.8","57","1","2025-07-02 10:18:53","80fe4187154257d5fb01684ea91b68b9","51.36.170.163","Mozilla/5.0 (Windows NT 10.0; Win64; x64) AppleWebKit/537.36 (KHTML, like Gecko) Chrome/137.0.0.0 Safari/537.36","WebKit","Chrome","137.0.0.0","Windows","10.0","https://app.prolific.com/","en-US,en;q=0.9","65f19a1fe38352676f83d5f0","683db6dfa200031b80f2a654","68650761e11d3d9743e8ed5b","65f19a1fe38352676f83d5f0","2025-07-02T10:49:55.433Z","","","","","","MotivationQ","","","","","","","","","","","","","","","","","","","","","","","","","","","","","","","","","","","","","","50"
"","","","","ctl-task-cpt","86","1883015","0.0-10.0-0.9","57","1","2025-07-02 10:18:53","80fe4187154257d5fb01684ea91b68b9","51.36.170.163","Mozilla/5.0 (Windows NT 10.0; Win64; x64) AppleWebKit/537.36 (KHTML, like Gecko) Chrome/137.0.0.0 Safari/537.36","WebKit","Chrome","137.0.0.0","Windows","10.0","https://app.prolific.com/","en-US,en;q=0.9","65f19a1fe38352676f83d5f0","683db6dfa200031b80f2a654","68650761e11d3d9743e8ed5b","65f19a1fe38352676f83d5f0","2025-07-02T10:50:19.252Z","","","","","","","","","","","","","","","","win-only","3","g1:SW,g2:NE","0.5","10","0","1864263.2","1653.8","6658.8","20801.4","1","4","4","6","2","4","4","4","0","0.030303030303030304","1697.1","3000","225","[""up"",""right""]","{""num_key_presses"":6,""num_perfect"":3,""num_errors"":0,""num_randdir"":3,""num_randdir_good_moves"":3,""num_whilered"":0,""num_whileblue"":0,""num_blue"":0,""num_good_moves"":6}","[409.0714133126395,419.07142761775424,0.5,409.0714133126395,419.07142761775424,102.2,409.0714133126395,419.07142761775424,202.3,409.0714133126395,419.07142761775424,312.8,409.0714133126395,419.07142761775424,413,409.0714133126395,419.07142761775424,516.4,409.0714133126395,419.07142761775424,616.9,271.5714133126395,485.32142761775424,723.2,179.0714133126395,591.5714276177542,825.3,179.0714133126395,592.8214276177542,926.6,179.0714133126395,592.8214276177542,1026.8,179.0714133126395,592.8214276177542,1127.3,607.8214133126395,312.82142761775424,1227.3,784.0714133126395,124.07142761775425,1331.6,782.8214133126395,120.32142761775425,1432.3,781.5714133126395,116.57142761775425,1533,781.5714133126395,116.57142761775425,1633.6,781.5714133126395,116.57142761775425,1738.6,781.5714133126395,116.57142761775425,1841,781.5714133126395,116.57142761775425,1946.8,781.5714133126395,116.57142761775425,2047.5,781.5714133126395,116.57142761775425,2153.5,456.5714133126395,246.57142761775424,2263.2,-43.42858668736049,609.0714276177542,2370.9,-57.17858668736049,622.8214276177542,2472.9,-57.17858668736049,622.8214276177542,2577.2,-57.17858668736049,622.8214276177542,2682.4,-57.17858668736049,622.8214276177542,2782.5,-57.17858668736049,622.8214276177542,2888.2,-57.17858668736049,622.8214276177542,2992,-57.17858668736049,622.8214276177542,3096.9,-57.17858668736049,622.8214276177542,3203.2,-57.17858668736049,622.8214276177542,3306.5,-57.17858668736049,622.8214276177542,3411.3,-57.17858668736049,622.8214276177542,3511.6,-57.17858668736049,622.8214276177542,3612.6,-57.17858668736049,622.8214276177542,3717,-57.17858668736049,622.8214276177542,3827.6,-57.17858668736049,622.8214276177542,3932.1,-57.17858668736049,622.8214276177542,4032.1,-57.17858668736049,622.8214276177542,4132.2,-57.17858668736049,622.8214276177542,4233.2,-57.17858668736049,622.8214276177542,4341.4,-57.17858668736049,622.8214276177542,4444.5,-57.17858668736049,622.8214276177542,4546.6,-57.17858668736049,622.8214276177542,4647.2,-57.17858668736049,622.8214276177542,4751.9,-57.17858668736049,622.8214276177542,4854.8,-57.17858668736049,622.8214276177542,4960.4]","[1694,1694,1000,0,694,""smooth"",""up"",""up"",""good_move"",3853.8,2159.3,1789.5,1694.5,369.9,""smooth"",""up"",""up"",""good_move"",6543.8,2689.8,2243.4,3854,446.4,""oops"",""up"",""right"",""good_move"",9120.5,2574.7,2032.5,6545.8,542.2,""oops"",""up"",""right"",""good_move"",11580.6,2459.9,2017.5,9120.7,442.4,""oops"",""up"",""up"",""good_move"",14048.4,2467.5,1982.9,11580.9,484.6,""smooth"",""right"",""right"",""good_move""]","",""
"3689","","<div style=""width:500px;"">
  <p>What determined the result of this run?</p>
