"rt","response_timestamp","stimulus","response","trial_type","trial_index","time_elapsed","internal_node_id","run_id","condition","recorded_at","source_code_version","ip","user_agent","device","browser","browser_version","platform","platform_version","referer","accept_language","PROLIFIC_PID","STUDY_ID","SESSION_ID","prolific_id","realtime","view_history","question_order","consent","success","question_id","eventType","responses","item_order","radio_event_ids","radio_event_times","key_event_times","mouse_event_times","straightlining","zigzagging","honeypot","which_type","canvas_config","goals_layout","control_level","trial_number","tutorial_trial_number","trial_start_time","phase1_start_time","phase2_start_time","phase3_start_time","goal_1_value","goal_1_distance","goal_2_value","goal_2_distance","goal_selected","outcome","outcome_total","participant_final_score","participant_initial_score","participant_final_score_prop","goal_choice_rt","allocated_time","allocated_time_remaining","goal_direction","counts","mouse_movements","key_presses","correct","slider_start"
"14588","1751451649684","<p style='font-size:40px;line-height:1.25'><strong>Welcome to the experiment!</strong></p><p style='font-size:1.1em;line-height:1.25'>Thank you for your interest in our experiment! Before you begin, it is important that we obtain your informed consent to participate in the study.</p><p style='font-size:1.1em;line-height:1.25'>On the next screen will be an <strong>information sheet</strong> for you to read. To participate in the study we need you to read this information sheet and the following consent form carefully. If you agree with all the statements, please click the <strong>I agree</strong> button.</p><p style='font-size:1.1em;line-height:1.25'>Press <strong>Next</strong> to read the information sheet.</p>","0","custom-html-button-response","0","14591","0.0-0.0","135","1","2025-07-02 10:20:32","80fe4187154257d5fb01684ea91b68b9","102.218.124.242","Mozilla/5.0 (Windows NT 10.0; Win64; x64) AppleWebKit/537.36 (KHTML, like Gecko) Chrome/138.0.0.0 Safari/537.36","WebKit","Chrome","138.0.0.0","Windows","10.0","https://app.prolific.com/","en-GB,en-US;q=0.9,en;q=0.8,es-US;q=0.7,es;q=0.6","65feaaac53eb219f09ad5ea0","683db6dfa200031b80f2a654","6865078828fc658afd079d2e","65feaaac53eb219f09ad5ea0","2025-07-02T10:20:49.686Z","","","","","","","","","","","","","","","","","","","","","","","","","","","","","","","","","","","","","","","","","","","",""
"258497","","","","instructions","1","273090","0.0-1.0","135","1","2025-07-02 10:20:32","80fe4187154257d5fb01684ea91b68b9","102.218.124.242","Mozilla/5.0 (Windows NT 10.0; Win64; x64) AppleWebKit/537.36 (KHTML, like Gecko) Chrome/138.0.0.0 Safari/537.36","WebKit","Chrome","138.0.0.0","Windows","10.0","https://app.prolific.com/","en-GB,en-US;q=0.9,en;q=0.8,es-US;q=0.7,es;q=0.6","65feaaac53eb219f09ad5ea0","683db6dfa200031b80f2a654","6865078828fc658afd079d2e","65feaaac53eb219f09ad5ea0","","[{""page_index"":0,""viewing_time"":247947},{""page_index"":1,""viewing_time"":10547}]","","","","","","","","","","","","","","","","","","","","","","","","","","","","","","","","","","","","","","","","","","",""
"9454","","","{""Q0"":"""",""Q1"":"""",""Q2"":"""",""Q3"":"""",""Q4"":"""",""Q5"":"""",""Q6"":""I agree""}","survey-multi-choice","2","282548","0.0-2.0","135","1","2025-07-02 10:20:32","80fe4187154257d5fb01684ea91b68b9","102.218.124.242","Mozilla/5.0 (Windows NT 10.0; Win64; x64) AppleWebKit/537.36 (KHTML, like Gecko) Chrome/138.0.0.0 Safari/537.36","WebKit","Chrome","138.0.0.0","Windows","10.0","https://app.prolific.com/","en-GB,en-US;q=0.9,en;q=0.8,es-US;q=0.7,es;q=0.6","65feaaac53eb219f09ad5ea0","683db6dfa200031b80f2a654","6865078828fc658afd079d2e","65feaaac53eb219f09ad5ea0","","","[0,1,2,3,4,5,6]","true","","","","","","","","","","","","","","","","","","","","","","","","","","","","","","","","","","","","","","","","",""
"15550","","","","fullscreen","3","299112","0.0-4.0","135","1","2025-07-02 10:20:32","80fe4187154257d5fb01684ea91b68b9","102.218.124.242","Mozilla/5.0 (Windows NT 10.0; Win64; x64) AppleWebKit/537.36 (KHTML, like Gecko) Chrome/138.0.0.0 Safari/537.36","WebKit","Chrome","138.0.0.0","Windows","10.0","https://app.prolific.com/","en-GB,en-US;q=0.9,en;q=0.8,es-US;q=0.7,es;q=0.6","65feaaac53eb219f09ad5ea0","683db6dfa200031b80f2a654","6865078828fc658afd079d2e","65feaaac53eb219f09ad5ea0","","","","","true","","","","","","","","","","","","","","","","","","","","","","","","","","","","","","","","","","","","","","","",""
"7820","1751451942027"," <p style='font-size:1.1em;line-height:1.25'>Thank you for completing the consent form and closing all other tabs.</p><p style='font-size:1.1em;line-height:1.25'>We will now invite you to fill in some demographic information and questionnaires, before starting the game.<br>This will take about 5 minutes.<br></p><p style='font-size:1.1em;line-height:1.25'>Press the <strong>Next</strong> button to continue.</p>","0","custom-html-button-response","4","306934","0.0-5.0","135","1","2025-07-02 10:20:32","80fe4187154257d5fb01684ea91b68b9","102.218.124.242","Mozilla/5.0 (Windows NT 10.0; Win64; x64) AppleWebKit/537.36 (KHTML, like Gecko) Chrome/138.0.0.0 Safari/537.36","WebKit","Chrome","138.0.0.0","Windows","10.0","https://app.prolific.com/","en-GB,en-US;q=0.9,en;q=0.8,es-US;q=0.7,es;q=0.6","65feaaac53eb219f09ad5ea0","683db6dfa200031b80f2a654","6865078828fc658afd079d2e","65feaaac53eb219f09ad5ea0","2025-07-02T10:25:42.028Z","","","","","","","","","","","","","","","","","","","","","","","","","","","","","","","","","","","","","","","","","","","",""
"3479","","","{""age"":""24""}","survey-text","5","310416","0.0-6.0-0.0","135","1","2025-07-02 10:20:32","80fe4187154257d5fb01684ea91b68b9","102.218.124.242","Mozilla/5.0 (Windows NT 10.0; Win64; x64) AppleWebKit/537.36 (KHTML, like Gecko) Chrome/138.0.0.0 Safari/537.36","WebKit","Chrome","138.0.0.0","Windows","10.0","https://app.prolific.com/","en-GB,en-US;q=0.9,en;q=0.8,es-US;q=0.7,es;q=0.6","65feaaac53eb219f09ad5ea0","683db6dfa200031b80f2a654","6865078828fc658afd079d2e","65feaaac53eb219f09ad5ea0","","","","","","0","demographics","","","","","","","","","","","","","","","","","","","","","","","","","","","","","","","","","","","","","",""
"4028","","","{""gender_identity"":""male/man""}","survey-multi-choice","6","314446","0.0-6.0-1.0","135","1","2025-07-02 10:20:32","80fe4187154257d5fb01684ea91b68b9","102.218.124.242","Mozilla/5.0 (Windows NT 10.0; Win64; x64) AppleWebKit/537.36 (KHTML, like Gecko) Chrome/138.0.0.0 Safari/537.36","WebKit","Chrome","138.0.0.0","Windows","10.0","https://app.prolific.com/","en-GB,en-US;q=0.9,en;q=0.8,es-US;q=0.7,es;q=0.6","65feaaac53eb219f09ad5ea0","683db6dfa200031b80f2a654","6865078828fc658afd079d2e","65feaaac53eb219f09ad5ea0","","","[0]","","","1","demographics","","","","","","","","","","","","","","","","","","","","","","","","","","","","","","","","","","","","","",""
"3456","","","{""assigned_sex"":""male""}","survey-multi-choice","7","317903","0.0-6.0-2.0","135","1","2025-07-02 10:20:32","80fe4187154257d5fb01684ea91b68b9","102.218.124.242","Mozilla/5.0 (Windows NT 10.0; Win64; x64) AppleWebKit/537.36 (KHTML, like Gecko) Chrome/138.0.0.0 Safari/537.36","WebKit","Chrome","138.0.0.0","Windows","10.0","https://app.prolific.com/","en-GB,en-US;q=0.9,en;q=0.8,es-US;q=0.7,es;q=0.6","65feaaac53eb219f09ad5ea0","683db6dfa200031b80f2a654","6865078828fc658afd079d2e","65feaaac53eb219f09ad5ea0","","","[0]","","","2","demographics","","","","","","","","","","","","","","","","","","","","","","","","","","","","","","","","","","","","","",""
"14562","","","{""menstrual_cycle"":""Yes""}","survey-multi-choice","8","332466","0.0-6.0-3.0","135","1","2025-07-02 10:20:32","80fe4187154257d5fb01684ea91b68b9","102.218.124.242","Mozilla/5.0 (Windows NT 10.0; Win64; x64) AppleWebKit/537.36 (KHTML, like Gecko) Chrome/138.0.0.0 Safari/537.36","WebKit","Chrome","138.0.0.0","Windows","10.0","https://app.prolific.com/","en-GB,en-US;q=0.9,en;q=0.8,es-US;q=0.7,es;q=0.6","65feaaac53eb219f09ad5ea0","683db6dfa200031b80f2a654","6865078828fc658afd079d2e","65feaaac53eb219f09ad5ea0","","","[0]","","","4","demographics","","","","","","","","","","","","","","","","","","","","","","","","","","","","","","","","","","","","","",""
"11997","","","{""education"":""Master's Degree (e.g., MSc)""}","survey-multi-choice","9","344464","0.0-6.0-4.0","135","1","2025-07-02 10:20:32","80fe4187154257d5fb01684ea91b68b9","102.218.124.242","Mozilla/5.0 (Windows NT 10.0; Win64; x64) AppleWebKit/537.36 (KHTML, like Gecko) Chrome/138.0.0.0 Safari/537.36","WebKit","Chrome","138.0.0.0","Windows","10.0","https://app.prolific.com/","en-GB,en-US;q=0.9,en;q=0.8,es-US;q=0.7,es;q=0.6","65feaaac53eb219f09ad5ea0","683db6dfa200031b80f2a654","6865078828fc658afd079d2e","65feaaac53eb219f09ad5ea0","","","[0]","","","5","demographics","","","","","","","","","","","","","","","","","","","","","","","","","","","","","","","","","","","","","",""
"10224","","","{""education"":""Higher National Certificate""}","survey-multi-choice","10","354690","0.0-6.0-5.0","135","1","2025-07-02 10:20:32","80fe4187154257d5fb01684ea91b68b9","102.218.124.242","Mozilla/5.0 (Windows NT 10.0; Win64; x64) AppleWebKit/537.36 (KHTML, like Gecko) Chrome/138.0.0.0 Safari/537.36","WebKit","Chrome","138.0.0.0","Windows","10.0","https://app.prolific.com/","en-GB,en-US;q=0.9,en;q=0.8,es-US;q=0.7,es;q=0.6","65feaaac53eb219f09ad5ea0","683db6dfa200031b80f2a654","6865078828fc658afd079d2e","65feaaac53eb219f09ad5ea0","2025-07-02T10:26:29.784Z","","[0]","","","6","demographics","","","","","","","","","","","","","","","","","","","","","","","","","","","","","","","","","","","","","",""
"21467","","","{""mental_health_condition"":""No"",""mental_health_treatment"":""No"",""psychiatric_medication"":""N/A""}","survey-text","11","376160","0.0-7.0-0.0","135","1","2025-07-02 10:20:32","80fe4187154257d5fb01684ea91b68b9","102.218.124.242","Mozilla/5.0 (Windows NT 10.0; Win64; x64) AppleWebKit/537.36 (KHTML, like Gecko) Chrome/138.0.0.0 Safari/537.36","WebKit","Chrome","138.0.0.0","Windows","10.0","https://app.prolific.com/","en-GB,en-US;q=0.9,en;q=0.8,es-US;q=0.7,es;q=0.6","65feaaac53eb219f09ad5ea0","683db6dfa200031b80f2a654","6865078828fc658afd079d2e","65feaaac53eb219f09ad5ea0","2025-07-02T10:26:51.254Z","","","","","1","mental_health","","","","","","","","","","","","","","","","","","","","","","","","","","","","","","","","","","","","","",""
"18701","","","{""depression_history"":[""No""]}","survey-multi-select","12","394872","0.0-7.0-1.0","135","1","2025-07-02 10:20:32","80fe4187154257d5fb01684ea91b68b9","102.218.124.242","Mozilla/5.0 (Windows NT 10.0; Win64; x64) AppleWebKit/537.36 (KHTML, like Gecko) Chrome/138.0.0.0 Safari/537.36","WebKit","Chrome","138.0.0.0","Windows","10.0","https://app.prolific.com/","en-GB,en-US;q=0.9,en;q=0.8,es-US;q=0.7,es;q=0.6","65feaaac53eb219f09ad5ea0","683db6dfa200031b80f2a654","6865078828fc658afd079d2e","65feaaac53eb219f09ad5ea0","","","[0]","","","","mental_health","","","","","","","","","","","","","","","","","","","","","","","","","","","","","","","","","","","","","",""
"86832","","","","survey-template","13","481709","0.0-7.0-3.0","135","1","2025-07-02 10:20:32","80fe4187154257d5fb01684ea91b68b9","102.218.124.242","Mozilla/5.0 (Windows NT 10.0; Win64; x64) AppleWebKit/537.36 (KHTML, like Gecko) Chrome/138.0.0.0 Safari/537.36","WebKit","Chrome","138.0.0.0","Windows","10.0","https://app.prolific.com/","en-GB,en-US;q=0.9,en;q=0.8,es-US;q=0.7,es;q=0.6","65feaaac53eb219f09ad5ea0","683db6dfa200031b80f2a654","6865078828fc658afd079d2e","65feaaac53eb219f09ad5ea0","2025-07-02T10:28:36.803Z","","","","","","ius","{""Q01"":""1"",""Q02"":""2"",""Q03"":""1"",""Q04"":""3"",""Q05"":""1"",""Q06"":""0"",""Q07"":""1"",""Q08"":""0"",""Q09"":""4"",""Q10"":""1"",""Q11"":""2"",""Q12"":""4"",""Q13"":""3""}","[0,1,2,3,4,5,6,7,8,9,10,11,12]","[""Q01"",""Q02"",""Q03"",""Q04"",""Q04"",""Q05"",""Q06"",""Q06"",""Q06"",""Q05"",""Q07"",""Q07"",""Q08"",""Q09"",""Q10"",""Q11"",""Q12"",""Q13""]","[9363.70000000298,13905.20000000298,17837.20000000298,21633,22835.90000000596,28753,33527,34683.80000001192,36782.20000000298,37593.40000000596,40427.80000001192,42044.10000000894,48495.10000000894,64637.10000000894,70336.30000001192,75695.20000000298,81356.20000000298,85334.40000000596]","[]","[9363.70000000298,13905.20000000298,17837.20000000298,21633,22835.90000000596,28753,32797,33527,34683.80000001192,36782.20000000298,37593.40000000596,40427.80000001192,42044.10000000894,48495.10000000894,58411.10000000894,59644.10000000894,61034.90000000596,61463,62605.90000000596,62937.10000000894,64637.10000000894,70336.30000001192,75695.20000000298,81356.20000000298,85334.40000000596,86829.30000001192]","0.38461538461538464","0.6666666666666666","0","","","","","","","","","","","","","","","","","","","","","","","","","","","","",""
"4783","1751452121587","<p style='font-size:1.1em;line-height:1.25'>In the following, we will ask you a few questions relating to your experiences over the past month.<br></p><p style='font-size:1.1em;line-height:1.25'>Press the <strong>Next</strong> button to continue.</p>","0","custom-html-button-response","14","486493","0.0-7.0-4.0","135","1","2025-07-02 10:20:32","80fe4187154257d5fb01684ea91b68b9","102.218.124.242","Mozilla/5.0 (Windows NT 10.0; Win64; x64) AppleWebKit/537.36 (KHTML, like Gecko) Chrome/138.0.0.0 Safari/537.36","WebKit","Chrome","138.0.0.0","Windows","10.0","https://app.prolific.com/","en-GB,en-US;q=0.9,en;q=0.8,es-US;q=0.7,es;q=0.6","65feaaac53eb219f09ad5ea0","683db6dfa200031b80f2a654","6865078828fc658afd079d2e","65feaaac53eb219f09ad5ea0","2025-07-02T10:28:41.587Z","","","","","","","","","","","","","","","","","","","","","","","","","","","","","","","","","","","","","","","","","","","",""
"164681.39999999106","","","","survey-template","15","651177","0.0-7.0-5.0","135","1","2025-07-02 10:20:32","80fe4187154257d5fb01684ea91b68b9","102.218.124.242","Mozilla/5.0 (Windows NT 10.0; Win64; x64) AppleWebKit/537.36 (KHTML, like Gecko) Chrome/138.0.0.0 Safari/537.36","WebKit","Chrome","138.0.0.0","Windows","10.0","https://app.prolific.com/","en-GB,en-US;q=0.9,en;q=0.8,es-US;q=0.7,es;q=0.6","65feaaac53eb219f09ad5ea0","683db6dfa200031b80f2a654","6865078828fc658afd079d2e","65feaaac53eb219f09ad5ea0","2025-07-02T10:31:26.271Z","","","","","","pss","{""Q01"":""2"",""Q02"":""1"",""Q03"":""2"",""Q04"":""1"",""Q05"":""1"",""Q06"":""1"",""Q07"":""0"",""Q08"":""1"",""Q09"":""1"",""Q10"":""0""}","[0,1,2,3,4,5,6,7,8,9]","[""Q01"",""Q01"",""Q02"",""Q03"",""Q04"",""Q05"",""Q06"",""Q07"",""Q08"",""Q09"",""Q10""]","[100815.89999999106,103107.20000000298,108949.59999999404,114167.09999999404,121391.70000000298,126834.39999999106,135886.79999999702,140261.89999999106,147014.09999999404,153207.79999999702,161702.70000000298]","[]","[0,100815.89999999106,102032.89999999106,102378.59999999404,102694.59999999404,103107.20000000298,108949.59999999404,114167.09999999404,121391.70000000298,126834.39999999106,135036.5,135570.70000000298,135886.79999999702,139947.59999999404,140261.89999999106,147014.09999999404,153207.79999999702,160861.09999999404,161702.70000000298,164679.20000000298]","0.3","0.5555555555555556","0","","","","","","","","","","","","","","","","","","","","","","","","","","","","",""
"4056","1751452290328","<p style='font-size:1.1em;line-height:1.25'>Thank you for your answers! Now we will ask you a few more questions relating to your feelings in the last 24 hours.<br></p><p style='font-size:1.1em;line-height:1.25'>Press the <strong>Next</strong> button to continue.</p>","0","custom-html-button-response","16","655235","0.0-7.0-6.0","135","1","2025-07-02 10:20:32","80fe4187154257d5fb01684ea91b68b9","102.218.124.242","Mozilla/5.0 (Windows NT 10.0; Win64; x64) AppleWebKit/537.36 (KHTML, like Gecko) Chrome/138.0.0.0 Safari/537.36","WebKit","Chrome","138.0.0.0","Windows","10.0","https://app.prolific.com/","en-GB,en-US;q=0.9,en;q=0.8,es-US;q=0.7,es;q=0.6","65feaaac53eb219f09ad5ea0","683db6dfa200031b80f2a654","6865078828fc658afd079d2e","65feaaac53eb219f09ad5ea0","2025-07-02T10:31:30.329Z","","","","","","","","","","","","","","","","","","","","","","","","","","","","","","","","","","","","","","","","","","","",""
"83790.5","","","","survey-template","17","739030","0.0-7.0-7.0","135","1","2025-07-02 10:20:32","80fe4187154257d5fb01684ea91b68b9","102.218.124.242","Mozilla/5.0 (Windows NT 10.0; Win64; x64) AppleWebKit/537.36 (KHTML, like Gecko) Chrome/138.0.0.0 Safari/537.36","WebKit","Chrome","138.0.0.0","Windows","10.0","https://app.prolific.com/","en-GB,en-US;q=0.9,en;q=0.8,es-US;q=0.7,es;q=0.6","65feaaac53eb219f09ad5ea0","683db6dfa200031b80f2a654","6865078828fc658afd079d2e","65feaaac53eb219f09ad5ea0","2025-07-02T10:32:54.124Z","","","","","","drsp","{""Q01"":""0"",""Q02"":""1"",""Q03"":""0"",""Q04"":""1"",""Q05"":""1"",""Q06"":""0"",""Q07"":""0"",""Q08"":""0"",""Q09"":""2"",""Q10"":""1"",""Q11"":""1"",""Q12"":""2"",""Q13"":""3"",""Q14"":""2"",""Q15"":""1"",""Q16"":""3"",""Q17"":""0"",""Q18"":""0"",""Q19"":""0"",""Q20"":""0"",""Q21"":""0""}","[0,1,2,3,4,5,6,7,8,9,10,11,12,13,14,15,16,17,18,19,20]","[""Q01"",""Q02"",""Q03"",""Q04"",""Q05"",""Q06"",""Q07"",""Q08"",""Q09"",""Q10"",""Q11"",""Q12"",""Q13"",""Q14"",""Q15"",""Q16"",""Q17"",""Q18"",""Q19"",""Q19"",""Q20"",""Q21""]","[6019.20000000298,9229.29999999702,10205.70000000298,12522.39999999106,16912.5,19935.20000000298,21957.20000000298,23491.5,26528.39999999106,29558.5,33581.29999999702,36181.59999999404,38849.89999999106,42541,47300,50938.89999999106,53563,60562.39999999106,66945.29999999702,67050.20000000298,69268.29999999702,79770.39999999106]","[]","[0.09999999403953552,5530.20000000298,6019.20000000298,7282.79999999702,9229.29999999702,10205.70000000298,12522.39999999106,15589.5,16235.89999999106,16912.5,19935.20000000298,21957.20000000298,23491.5,25994.70000000298,26528.39999999106,29558.5,33581.29999999702,36181.59999999404,38849.89999999106,42541,47300,50938.89999999106,53563,59945.79999999702,60562.39999999106,66945.29999999702,67050.20000000298,69268.29999999702,79770.39999999106,83785.59999999404]","0.47619047619047616","0.45","0","","","","","","","","","","","","","","","","","","","","","","","","","","","","",""
"18463.5","","","","survey-template","18","757495","0.0-7.0-8.0","135","1","2025-07-02 10:20:32","80fe4187154257d5fb01684ea91b68b9","102.218.124.242","Mozilla/5.0 (Windows NT 10.0; Win64; x64) AppleWebKit/537.36 (KHTML, like Gecko) Chrome/138.0.0.0 Safari/537.36","WebKit","Chrome","138.0.0.0","Windows","10.0","https://app.prolific.com/","en-GB,en-US;q=0.9,en;q=0.8,es-US;q=0.7,es;q=0.6","65feaaac53eb219f09ad5ea0","683db6dfa200031b80f2a654","6865078828fc658afd079d2e","65feaaac53eb219f09ad5ea0","2025-07-02T10:33:12.590Z","","","","","","stress","{""Q01"":""1"",""Q02"":""3"",""Q03"":""1""}","[0,1,2]","[""Q01"",""Q02"",""Q03""]","[6441.199999988079,12335.199999988079,16538.19999998808]","[]","[6441.199999988079,11839,12335.199999988079,16538.19999998808,18462.29999999702]","0.6666666666666666","1","0","","","","","","","","","","","","","","","","","","","","","","","","","","","","",""
"123646","","","","instructions","19","881143","0.0-8.0-0.0","135","1","2025-07-02 10:20:32","80fe4187154257d5fb01684ea91b68b9","102.218.124.242","Mozilla/5.0 (Windows NT 10.0; Win64; x64) AppleWebKit/537.36 (KHTML, like Gecko) Chrome/138.0.0.0 Safari/537.36","WebKit","Chrome","138.0.0.0","Windows","10.0","https://app.prolific.com/","en-GB,en-US;q=0.9,en;q=0.8,es-US;q=0.7,es;q=0.6","65feaaac53eb219f09ad5ea0","683db6dfa200031b80f2a654","6865078828fc658afd079d2e","65feaaac53eb219f09ad5ea0","","[{""page_index"":0,""viewing_time"":16936},{""page_index"":1,""viewing_time"":47553},{""page_index"":2,""viewing_time"":13448},{""page_index"":3,""viewing_time"":45709}]","","","","","","","","","","","","","","","","","","","","","","","","","","","","","","","","","","","","","","","","","","",""
"","","","","ctl-task-cpt","20","920395","0.0-8.0-1.0","135","1","2025-07-02 10:20:32","80fe4187154257d5fb01684ea91b68b9","102.218.124.242","Mozilla/5.0 (Windows NT 10.0; Win64; x64) AppleWebKit/537.36 (KHTML, like Gecko) Chrome/138.0.0.0 Safari/537.36","WebKit","Chrome","138.0.0.0","Windows","10.0","https://app.prolific.com/","en-GB,en-US;q=0.9,en;q=0.8,es-US;q=0.7,es;q=0.6","65feaaac53eb219f09ad5ea0","683db6dfa200031b80f2a654","6865078828fc658afd079d2e","65feaaac53eb219f09ad5ea0","","","","","","","","","","","","","","","","","win-only","0","g1:NW,g2:SE","1","0","1","884777.9","3169.5","7171.7","36239.9","2","4","4","6","1","-2","-6","0","0","0","4002.1","4000","-2705","[""left"",""up""]","{""num_key_presses"":10,""num_perfect"":6,""num_errors"":4,""num_randdir"":0,""num_randdir_good_moves"":0,""num_whilered"":0,""num_whileblue"":0,""num_blue"":0,""num_good_moves"":0}","[427.07142857142856,414.6808016640799,0.9,427.07142857142856,414.6808016640799,102.2,427.07142857142856,414.6808016640799,202.3,427.07142857142856,414.6808016640799,307.9,427.07142857142856,414.6808016640799,411.2,427.07142857142856,414.6808016640799,513.1,395.57142857142856,395.1808016640799,613.4,395.57142857142856,395.1808016640799,716.2,383.57142857142856,387.6808016640799,819.2,380.57142857142856,383.1808016640799,922.1,367.07142857142856,369.6808016640799,1026.7,349.07142857142856,348.6808016640799,1127.2,349.07142857142856,348.6808016640799,1227.4,349.07142857142856,348.6808016640799,1327.7,349.07142857142856,348.6808016640799,1427.9,349.07142857142856,348.6808016640799,1534.9,349.07142857142856,348.6808016640799,1635.9,349.07142857142856,348.6808016640799,1736.2,358.07142857142856,363.6808016640799,1837.4,371.57142857142856,380.1808016640799,1938,377.57142857142856,392.1808016640799,2042.3,377.57142857142856,392.1808016640799,2146.7,377.57142857142856,392.1808016640799,2251.4,377.57142857142856,392.1808016640799,2356.4,377.57142857142856,392.1808016640799,2457.4,377.57142857142856,392.1808016640799,2557.5,377.57142857142856,392.1808016640799,2661.9,377.57142857142856,392.1808016640799,2765.2,377.57142857142856,392.1808016640799,2867,377.57142857142856,392.1808016640799,2967.8,377.57142857142856,392.1808016640799,3067.8,377.57142857142856,392.1808016640799,3172.4,377.57142857142856,392.1808016640799,3278.2,377.57142857142856,392.1808016640799,3384.6,377.57142857142856,392.1808016640799,3487.6,377.57142857142856,392.1808016640799,3591.9,377.57142857142856,392.1808016640799,3697.8,377.57142857142856,392.1808016640799,3801.5,377.57142857142856,392.1808016640799,3902]","[337.8,337.7,1000,0.1,-662.2,""error"",""-"",""-"",""no_move"",2698.2,2360,1949,1340.3,-591.1,""error"",""-"",""-"",""no_move"",6762.2,4063.4,2104.6,3700.9,956.7,""smooth"",""right"",""right"",""bad_move"",8388.8,1625.8,2588.2,6763,-962.4,""error"",""-"",""-"",""no_move"",11928.7,3539.6,2211,9389.8,327.9,""smooth"",""right"",""right"",""bad_move"",13380.8,1451.9,2300,11929,-848.1,""error"",""-"",""-"",""no_move"",16825.5,3444.2,2055.4,14384.7,385.4,""smooth"",""right"",""right"",""bad_move"",19809.9,2983.8,2312.8,16826.1,671,""smooth"",""down"",""down"",""bad_move"",22912.4,3102.1,2701.8,19810.3,400.3,""smooth"",""down"",""down"",""bad_move"",25649.3,2736.6,2385.3,22912.7,351.3,""smooth"",""down"",""down"",""bad_move""]","",""
"20035","","","","instructions","21","940431","0.0-8.0-2.0","135","1","2025-07-02 10:20:32","80fe4187154257d5fb01684ea91b68b9","102.218.124.242","Mozilla/5.0 (Windows NT 10.0; Win64; x64) AppleWebKit/537.36 (KHTML, like Gecko) Chrome/138.0.0.0 Safari/537.36","WebKit","Chrome","138.0.0.0","Windows","10.0","https://app.prolific.com/","en-GB,en-US;q=0.9,en;q=0.8,es-US;q=0.7,es;q=0.6","65feaaac53eb219f09ad5ea0","683db6dfa200031b80f2a654","6865078828fc658afd079d2e","65feaaac53eb219f09ad5ea0","","[{""page_index"":0,""viewing_time"":20034}]","","","","","","","","","","","","","","","","","","","","","","","","","","","","","","","","","","","","","","","","","","",""
"","","","","ctl-task-cpt","22","962015","0.0-8.0-3.0","135","1","2025-07-02 10:20:32","80fe4187154257d5fb01684ea91b68b9","102.218.124.242","Mozilla/5.0 (Windows NT 10.0; Win64; x64) AppleWebKit/537.36 (KHTML, like Gecko) Chrome/138.0.0.0 Safari/537.36","WebKit","Chrome","138.0.0.0","Windows","10.0","https://app.prolific.com/","en-GB,en-US;q=0.9,en;q=0.8,es-US;q=0.7,es;q=0.6","65feaaac53eb219f09ad5ea0","683db6dfa200031b80f2a654","6865078828fc658afd079d2e","65feaaac53eb219f09ad5ea0","","","","","","","","","","","","","","","","","win-only","0","g1:NW,g2:SE","0.35","0","3","944062.7","3361","7366.4","18566.7","2","4","8","6","1","2","2","2","0","0.015151515151515152","4005.4","4000","2275","[""left"",""up""]","{""num_key_presses"":4,""num_perfect"":3,""num_errors"":0,""num_randdir"":1,""num_randdir_good_moves"":1,""num_whilered"":0,""num_whileblue"":0,""num_blue"":0,""num_good_moves"":4}","[409.07142857142856,414.6808016640799,0.3,409.07142857142856,414.6808016640799,100.4,409.07142857142856,414.6808016640799,205,409.07142857142856,414.6808016640799,305.5,409.07142857142856,414.6808016640799,410,409.07142857142856,414.6808016640799,510.5,409.07142857142856,414.6808016640799,616.9,409.07142857142856,414.6808016640799,720.2,409.07142857142856,414.6808016640799,820.3,409.07142857142856,414.6808016640799,920.7,409.07142857142856,414.6808016640799,1024.9,409.07142857142856,414.6808016640799,1125.9,409.07142857142856,414.6808016640799,1233,409.07142857142856,414.6808016640799,1335.8,409.07142857142856,414.6808016640799,1435.9,409.07142857142856,414.6808016640799,1536,409.07142857142856,414.6808016640799,1640.6,409.07142857142856,414.6808016640799,1749.8,409.07142857142856,414.6808016640799,1849.8,409.07142857142856,414.6808016640799,1950,409.07142857142856,414.6808016640799,2055.2,409.07142857142856,414.6808016640799,2155.2,409.07142857142856,414.6808016640799,2255.2,409.07142857142856,414.6808016640799,2361,409.07142857142856,414.6808016640799,2466,409.07142857142856,414.6808016640799,2571,409.07142857142856,414.6808016640799,2675.2,409.07142857142856,414.6808016640799,2782.6,409.07142857142856,414.6808016640799,2883.4,409.07142857142856,414.6808016640799,2984.7,409.07142857142856,414.6808016640799,3090.8,409.07142857142856,414.6808016640799,3200.5,409.07142857142856,414.6808016640799,3304.7,409.07142857142856,414.6808016640799,3405.7,409.07142857142856,414.6808016640799,3510.5,409.07142857142856,414.6808016640799,3611.7,409.07142857142856,414.6808016640799,3717.1,409.07142857142856,414.6808016640799,3820.5,409.07142857142856,414.6808016640799,3925.1]","[1609.6,1609.6,1000,0,609.6,""oops"",""up"",""up"",""good_move"",5549.3,3939,3471.1,1610.3,467.9,""smooth"",""left"",""left"",""good_move"",8975.4,3425.6,3005.7,5549.8,419.9,""smooth"",""up"",""up"",""good_move"",11108.1,2132.4,1677.1,8975.9,455.2,""smooth"",""left"",""left"",""good_move""]","",""
"58390","","","","instructions","23","1020406","0.0-8.0-4.0","135","1","2025-07-02 10:20:32","80fe4187154257d5fb01684ea91b68b9","102.218.124.242","Mozilla/5.0 (Windows NT 10.0; Win64; x64) AppleWebKit/537.36 (KHTML, like Gecko) Chrome/138.0.0.0 Safari/537.36","WebKit","Chrome","138.0.0.0","Windows","10.0","https://app.prolific.com/","en-GB,en-US;q=0.9,en;q=0.8,es-US;q=0.7,es;q=0.6","65feaaac53eb219f09ad5ea0","683db6dfa200031b80f2a654","6865078828fc658afd079d2e","65feaaac53eb219f09ad5ea0","","[{""page_index"":0,""viewing_time"":11994},{""page_index"":1,""viewing_time"":46396}]","","","","","","","","","","","","","","","","","","","","","","","","","","","","","","","","","","","","","","","","","","",""
"12794","","","{""green_ball"":[""Ball always moves in the direction I press""]}","survey-multi-select","24","1033203","0.0-8.0-5.0-0.0","135","1","2025-07-02 10:20:32","80fe4187154257d5fb01684ea91b68b9","102.218.124.242","Mozilla/5.0 (Windows NT 10.0; Win64; x64) AppleWebKit/537.36 (KHTML, like Gecko) Chrome/138.0.0.0 Safari/537.36","WebKit","Chrome","138.0.0.0","Windows","10.0","https://app.prolific.com/","en-GB,en-US;q=0.9,en;q=0.8,es-US;q=0.7,es;q=0.6","65feaaac53eb219f09ad5ea0","683db6dfa200031b80f2a654","6865078828fc658afd079d2e","65feaaac53eb219f09ad5ea0","","","[0]","","","","quiz","","","","","","","","","","","","","","","","","","","","","","","","","","","","","","","","","","","","","false",""
"5762","","<p align='center'><b>INCORRECT.</b> Usually the green ball moves in the indicated direction, but sometimes it shakes and moves randomly. </p>","0","html-button-response","25","1038976","0.0-8.0-5.0-1.0","135","1","2025-07-02 10:20:32","80fe4187154257d5fb01684ea91b68b9","102.218.124.242","Mozilla/5.0 (Windows NT 10.0; Win64; x64) AppleWebKit/537.36 (KHTML, like Gecko) Chrome/138.0.0.0 Safari/537.36","WebKit","Chrome","138.0.0.0","Windows","10.0","https://app.prolific.com/","en-GB,en-US;q=0.9,en;q=0.8,es-US;q=0.7,es;q=0.6","65feaaac53eb219f09ad5ea0","683db6dfa200031b80f2a654","6865078828fc658afd079d2e","65feaaac53eb219f09ad5ea0","","","","","","","","","","","","","","","","","","","","","","","","","","","","","","","","","","","","","","","","","","","","",""
"8260","","","{""green_ball"":[""Ball sometimes shakes and moves in a random direction""]}","survey-multi-select","26","1047239","0.0-8.0-5.1-0.1","135","1","2025-07-02 10:20:32","80fe4187154257d5fb01684ea91b68b9","102.218.124.242","Mozilla/5.0 (Windows NT 10.0; Win64; x64) AppleWebKit/537.36 (KHTML, like Gecko) Chrome/138.0.0.0 Safari/537.36","WebKit","Chrome","138.0.0.0","Windows","10.0","https://app.prolific.com/","en-GB,en-US;q=0.9,en;q=0.8,es-US;q=0.7,es;q=0.6","65feaaac53eb219f09ad5ea0","683db6dfa200031b80f2a654","6865078828fc658afd079d2e","65feaaac53eb219f09ad5ea0","","","[0]","","","","quiz","","","","","","","","","","","","","","","","","","","","","","","","","","","","","","","","","","","","","true",""
"2434","","<p align='center'><b>CORRECT!</b> Indeed, the green ball may sometimes shake and move in a random direction.</p>","0","html-button-response","27","1049674","0.0-8.0-5.1-1.1","135","1","2025-07-02 10:20:32","80fe4187154257d5fb01684ea91b68b9","102.218.124.242","Mozilla/5.0 (Windows NT 10.0; Win64; x64) AppleWebKit/537.36 (KHTML, like Gecko) Chrome/138.0.0.0 Safari/537.36","WebKit","Chrome","138.0.0.0","Windows","10.0","https://app.prolific.com/","en-GB,en-US;q=0.9,en;q=0.8,es-US;q=0.7,es;q=0.6","65feaaac53eb219f09ad5ea0","683db6dfa200031b80f2a654","6865078828fc658afd079d2e","65feaaac53eb219f09ad5ea0","","","","","","","","","","","","","","","","","","","","","","","","","","","","","","","","","","","","","","","","","","","","",""
"8471","","","{""yellow_ball"":[""Ball doesn‘t move and I get -1 penalty point""]}","survey-multi-select","28","1058148","0.0-8.0-6.0-0.0","135","1","2025-07-02 10:20:32","80fe4187154257d5fb01684ea91b68b9","102.218.124.242","Mozilla/5.0 (Windows NT 10.0; Win64; x64) AppleWebKit/537.36 (KHTML, like Gecko) Chrome/138.0.0.0 Safari/537.36","WebKit","Chrome","138.0.0.0","Windows","10.0","https://app.prolific.com/","en-GB,en-US;q=0.9,en;q=0.8,es-US;q=0.7,es;q=0.6","65feaaac53eb219f09ad5ea0","683db6dfa200031b80f2a654","6865078828fc658afd079d2e","65feaaac53eb219f09ad5ea0","","","[0]","","","","quiz","","","","","","","","","","","","","","","","","","","","","","","","","","","","","","","","","","","","","true",""
"1306","","<p align='center'><b>CORRECT!</b> Indeed, the yellow ball never moves and you receive a penalty.</p>","0","html-button-response","29","1059455","0.0-8.0-6.0-1.0","135","1","2025-07-02 10:20:32","80fe4187154257d5fb01684ea91b68b9","102.218.124.242","Mozilla/5.0 (Windows NT 10.0; Win64; x64) AppleWebKit/537.36 (KHTML, like Gecko) Chrome/138.0.0.0 Safari/537.36","WebKit","Chrome","138.0.0.0","Windows","10.0","https://app.prolific.com/","en-GB,en-US;q=0.9,en;q=0.8,es-US;q=0.7,es;q=0.6","65feaaac53eb219f09ad5ea0","683db6dfa200031b80f2a654","6865078828fc658afd079d2e","65feaaac53eb219f09ad5ea0","","","","","","","","","","","","","","","","","","","","","","","","","","","","","","","","","","","","","","","","","","","","",""
"7140","","","{""blue_ball"":[""Ball doesn‘t move and I get -1 penalty point""]}","survey-multi-select","30","1066598","0.0-8.0-7.0-0.0","135","1","2025-07-02 10:20:32","80fe4187154257d5fb01684ea91b68b9","102.218.124.242","Mozilla/5.0 (Windows NT 10.0; Win64; x64) AppleWebKit/537.36 (KHTML, like Gecko) Chrome/138.0.0.0 Safari/537.36","WebKit","Chrome","138.0.0.0","Windows","10.0","https://app.prolific.com/","en-GB,en-US;q=0.9,en;q=0.8,es-US;q=0.7,es;q=0.6","65feaaac53eb219f09ad5ea0","683db6dfa200031b80f2a654","6865078828fc658afd079d2e","65feaaac53eb219f09ad5ea0","","","[0]","","","","quiz","","","","","","","","","","","","","","","","","","","","","","","","","","","","","","","","","","","","","false",""
"2486","","<p align='center'><b>INCORRECT.</b> The blue ball always shakes and moves randomly.</p>","0","html-button-response","31","1069085","0.0-8.0-7.0-1.0","135","1","2025-07-02 10:20:32","80fe4187154257d5fb01684ea91b68b9","102.218.124.242","Mozilla/5.0 (Windows NT 10.0; Win64; x64) AppleWebKit/537.36 (KHTML, like Gecko) Chrome/138.0.0.0 Safari/537.36","WebKit","Chrome","138.0.0.0","Windows","10.0","https://app.prolific.com/","en-GB,en-US;q=0.9,en;q=0.8,es-US;q=0.7,es;q=0.6","65feaaac53eb219f09ad5ea0","683db6dfa200031b80f2a654","6865078828fc658afd079d2e","65feaaac53eb219f09ad5ea0","","","","","","","","","","","","","","","","","","","","","","","","","","","","","","","","","","","","","","","","","","","","",""
"4201","","","{""blue_ball"":[""Ball always shakes and moves in a random direction""]}","survey-multi-select","32","1073288","0.0-8.0-7.1-0.1","135","1","2025-07-02 10:20:32","80fe4187154257d5fb01684ea91b68b9","102.218.124.242","Mozilla/5.0 (Windows NT 10.0; Win64; x64) AppleWebKit/537.36 (KHTML, like Gecko) Chrome/138.0.0.0 Safari/537.36","WebKit","Chrome","138.0.0.0","Windows","10.0","https://app.prolific.com/","en-GB,en-US;q=0.9,en;q=0.8,es-US;q=0.7,es;q=0.6","65feaaac53eb219f09ad5ea0","683db6dfa200031b80f2a654","6865078828fc658afd079d2e","65feaaac53eb219f09ad5ea0","","","[0]","","","","quiz","","","","","","","","","","","","","","","","","","","","","","","","","","","","","","","","","","","","","true",""
"1044","","<p align='center'><b>CORRECT!</b> Indeed, the blue ball always shakes and moves in a random direction. Also there is a penalty of -1 point.</p>","0","html-button-response","33","1074333","0.0-8.0-7.1-1.1","135","1","2025-07-02 10:20:32","80fe4187154257d5fb01684ea91b68b9","102.218.124.242","Mozilla/5.0 (Windows NT 10.0; Win64; x64) AppleWebKit/537.36 (KHTML, like Gecko) Chrome/138.0.0.0 Safari/537.36","WebKit","Chrome","138.0.0.0","Windows","10.0","https://app.prolific.com/","en-GB,en-US;q=0.9,en;q=0.8,es-US;q=0.7,es;q=0.6","65feaaac53eb219f09ad5ea0","683db6dfa200031b80f2a654","6865078828fc658afd079d2e","65feaaac53eb219f09ad5ea0","","","","","","","","","","","","","","","","","","","","","","","","","","","","","","","","","","","","","","","","","","","","",""
"3531","","","{""bonus"":[""When I reach 50% of points""]}","survey-multi-select","34","1077866","0.0-8.0-8.0-0.0","135","1","2025-07-02 10:20:32","80fe4187154257d5fb01684ea91b68b9","102.218.124.242","Mozilla/5.0 (Windows NT 10.0; Win64; x64) AppleWebKit/537.36 (KHTML, like Gecko) Chrome/138.0.0.0 Safari/537.36","WebKit","Chrome","138.0.0.0","Windows","10.0","https://app.prolific.com/","en-GB,en-US;q=0.9,en;q=0.8,es-US;q=0.7,es;q=0.6","65feaaac53eb219f09ad5ea0","683db6dfa200031b80f2a654","6865078828fc658afd079d2e","65feaaac53eb219f09ad5ea0","","","[0]","","","","quiz","","","","","","","","","","","","","","","","","","","","","","","","","","","","","","","","","","","","","true",""
"886","","<p align='center'><b>CORRECT!</b> Indeed, you receive 2 pounds extra when you reach 50% of points.</p>","0","html-button-response","35","1078753","0.0-8.0-8.0-1.0","135","1","2025-07-02 10:20:32","80fe4187154257d5fb01684ea91b68b9","102.218.124.242","Mozilla/5.0 (Windows NT 10.0; Win64; x64) AppleWebKit/537.36 (KHTML, like Gecko) Chrome/138.0.0.0 Safari/537.36","WebKit","Chrome","138.0.0.0","Windows","10.0","https://app.prolific.com/","en-GB,en-US;q=0.9,en;q=0.8,es-US;q=0.7,es;q=0.6","65feaaac53eb219f09ad5ea0","683db6dfa200031b80f2a654","6865078828fc658afd079d2e","65feaaac53eb219f09ad5ea0","","","","","","","","","","","","","","","","","","","","","","","","","","","","","","","","","","","","","","","","","","","","",""
"4051","","","","instructions","36","1082805","0.0-8.0-9.0","135","1","2025-07-02 10:20:32","80fe4187154257d5fb01684ea91b68b9","102.218.124.242","Mozilla/5.0 (Windows NT 10.0; Win64; x64) AppleWebKit/537.36 (KHTML, like Gecko) Chrome/138.0.0.0 Safari/537.36","WebKit","Chrome","138.0.0.0","Windows","10.0","https://app.prolific.com/","en-GB,en-US;q=0.9,en;q=0.8,es-US;q=0.7,es;q=0.6","65feaaac53eb219f09ad5ea0","683db6dfa200031b80f2a654","6865078828fc658afd079d2e","65feaaac53eb219f09ad5ea0","","[{""page_index"":0,""viewing_time"":4051}]","","","","","","","","","","","","","","","","","","","","","","","","","","","","","","","","","","","","","","","","","","",""
"17328","","<p>Before you start with this game please answer the following three questions yourself. </p>
  <p>Through this game, we measure several aspects of your cognitive performance, such as reaction times, multi-tasking capabilities </p>
  <p>and the ability to assess the situation you are in.</p>
  <p></p>
  <p><b>How good do you usually are in such tasks?</b></p>","84","html-slider-response","37","1100135","0.0-9.0-0.0","135","1","2025-07-02 10:20:32","80fe4187154257d5fb01684ea91b68b9","102.218.124.242","Mozilla/5.0 (Windows NT 10.0; Win64; x64) AppleWebKit/537.36 (KHTML, like Gecko) Chrome/138.0.0.0 Safari/537.36","WebKit","Chrome","138.0.0.0","Windows","10.0","https://app.prolific.com/","en-GB,en-US;q=0.9,en;q=0.8,es-US;q=0.7,es;q=0.6","65feaaac53eb219f09ad5ea0","683db6dfa200031b80f2a654","6865078828fc658afd079d2e","65feaaac53eb219f09ad5ea0","2025-07-02T10:38:55.229Z","","","","","","PreSkillQ","","","","","","","","","","","","","","","","","","","","","","","","","","","","","","","","","","","","","","50"
"6788","","<div style=""width:500px;"">
  <p>How well do you think you will perform in this task compared to other participants?</p>
  </div>","63","html-slider-response","38","1106925","0.0-9.0-1.0","135","1","2025-07-02 10:20:32","80fe4187154257d5fb01684ea91b68b9","102.218.124.242","Mozilla/5.0 (Windows NT 10.0; Win64; x64) AppleWebKit/537.36 (KHTML, like Gecko) Chrome/138.0.0.0 Safari/537.36","WebKit","Chrome","138.0.0.0","Windows","10.0","https://app.prolific.com/","en-GB,en-US;q=0.9,en;q=0.8,es-US;q=0.7,es;q=0.6","65feaaac53eb219f09ad5ea0","683db6dfa200031b80f2a654","6865078828fc658afd079d2e","65feaaac53eb219f09ad5ea0","2025-07-02T10:39:02.019Z","","","","","","PrePerfQ","","","","","","","","","","","","","","","","","","","","","","","","","","","","","","","","","","","","","","50"
"4583","","<div style=""width:500px;"">
  <p>What best describes how you currently feel?</p>
  </div>","100","html-slider-response","39","1111509","0.0-9.0-2.0","135","1","2025-07-02 10:20:32","80fe4187154257d5fb01684ea91b68b9","102.218.124.242","Mozilla/5.0 (Windows NT 10.0; Win64; x64) AppleWebKit/537.36 (KHTML, like Gecko) Chrome/138.0.0.0 Safari/537.36","WebKit","Chrome","138.0.0.0","Windows","10.0","https://app.prolific.com/","en-GB,en-US;q=0.9,en;q=0.8,es-US;q=0.7,es;q=0.6","65feaaac53eb219f09ad5ea0","683db6dfa200031b80f2a654","6865078828fc658afd079d2e","65feaaac53eb219f09ad5ea0","2025-07-02T10:39:06.603Z","","","","","","PreMotivationQ","","","","","","","","","","","","","","","","","","","","","","","","","","","","","","","","","","","","","","50"
"","","","","ctl-task-cpt","40","1144713","0.0-10.0-0.0","135","1","2025-07-02 10:20:32","80fe4187154257d5fb01684ea91b68b9","102.218.124.242","Mozilla/5.0 (Windows NT 10.0; Win64; x64) AppleWebKit/537.36 (KHTML, like Gecko) Chrome/138.0.0.0 Safari/537.36","WebKit","Chrome","138.0.0.0","Windows","10.0","https://app.prolific.com/","en-GB,en-US;q=0.9,en;q=0.8,es-US;q=0.7,es;q=0.6","65feaaac53eb219f09ad5ea0","683db6dfa200031b80f2a654","6865078828fc658afd079d2e","65feaaac53eb219f09ad5ea0","2025-07-02T10:39:39.807Z","","","","","","","","","","","","","","","","win-only","2","g1:SE,g2:NW","1","1","0","1115143.2","2651.3","7651.7","30194.2","1","4","4","6","2","4","2","2","0","0.015151515151515152","1044.3","3000","235","[""left"",""up""]","{""num_key_presses"":8,""num_perfect"":6,""num_errors"":2,""num_randdir"":0,""num_randdir_good_moves"":0,""num_whilered"":0,""num_whileblue"":2,""num_blue"":2,""num_good_moves"":7}","[404.57142857142856,414.6808016640799,0.3,407.57142857142856,414.6808016640799,100.5,407.57142857142856,414.6808016640799,205.1,407.57142857142856,414.6808016640799,311.6,778.0714285714286,861.6808016640799,416.1,728.5714285714286,791.1808016640799,520.1,197.57142857142856,239.18080166407992,620.9,-24.42857142857143,-57.81919833592006,729.1,-7.928571428571431,-48.81919833592006,829.5,37.07142857142857,-2.3191983359200634,930.2,50.57142857142857,21.680801664079937,1036.2,50.57142857142857,21.680801664079937,1146,47.57142857142857,21.680801664079937,1249.5,47.57142857142857,47.18080166407994,1350.8,62.57142857142857,72.68080166407994,1456,88.07142857142857,125.18080166407994,1562.2,88.07142857142857,137.18080166407992,1662.9,88.07142857142857,137.18080166407992,1765.2,88.07142857142857,137.18080166407992,1869.9,88.07142857142857,137.18080166407992,1970.4,88.07142857142857,137.18080166407992,2070.6,88.07142857142857,137.18080166407992,2178.6,88.07142857142857,137.18080166407992,2278.9,88.07142857142857,137.18080166407992,2379.1,88.07142857142857,137.18080166407992,2479.4,88.07142857142857,137.18080166407992,2581.3,88.07142857142857,137.18080166407992,2687,88.07142857142857,137.18080166407992,2794.9,88.07142857142857,137.18080166407992,2897,88.07142857142857,137.18080166407992,3000.3,88.07142857142857,137.18080166407992,3105,88.07142857142857,137.18080166407992,3206.2,88.07142857142857,137.18080166407992,3311.3,88.07142857142857,137.18080166407992,3413.7,88.07142857142857,137.18080166407992,3515.1,88.07142857142857,137.18080166407992,3620.2,88.07142857142857,137.18080166407992,3720.4,88.07142857142857,137.18080166407992,3828.1,88.07142857142857,137.18080166407992,3929.4,88.07142857142857,137.18080166407992,4029.4,88.07142857142857,137.18080166407992,4135.2,88.07142857142857,137.18080166407992,4244.7,88.07142857142857,137.18080166407992,4349.6,88.07142857142857,137.18080166407992,4450.1,88.07142857142857,137.18080166407992,4555.4,88.07142857142857,137.18080166407992,4662.4,88.07142857142857,137.18080166407992,4762.4,88.07142857142857,137.18080166407992,4864.3,88.07142857142857,137.18080166407992,4964.8]","[2018.1,2018,1000,0.1,1018,""smooth"",""up"",""up"",""good_move"",4782.2,2763.5,2113.3,2018.7,650.2,""smooth"",""left"",""left"",""good_move"",8362.4,3579.5,3229.5,4782.9,350,""smooth"",""up"",""up"",""good_move"",10964.7,2602,2306.7,8362.7,295.3,""while_blue"",""left"",""right"",""bad_move"",14819,3853.9,3408.9,10965.1,445,""smooth"",""left"",""left"",""good_move"",17371.5,2552.2,2193.6,14819.3,358.6,""smooth"",""left"",""left"",""good_move"",19909.7,2537.8,2213.4,17371.9,324.4,""while_blue"",""up"",""left"",""good_move"",22442.1,2532.2,2178.1,19910,354,""smooth"",""up"",""up"",""good_move""]","",""
"4399","","<div style=""width:500px;"">
  <p>What determined the result of this run?</p>
  </div>","100","html-slider-response","41","1149115","0.0-10.0-1.0","135","1","2025-07-02 10:20:32","80fe4187154257d5fb01684ea91b68b9","102.218.124.242","Mozilla/5.0 (Windows NT 10.0; Win64; x64) AppleWebKit/537.36 (KHTML, like Gecko) Chrome/138.0.0.0 Safari/537.36","WebKit","Chrome","138.0.0.0","Windows","10.0","https://app.prolific.com/","en-GB,en-US;q=0.9,en;q=0.8,es-US;q=0.7,es;q=0.6","65feaaac53eb219f09ad5ea0","683db6dfa200031b80f2a654","6865078828fc658afd079d2e","65feaaac53eb219f09ad5ea0","2025-07-02T10:39:44.209Z","","","","","","AttribQ","","","","","","","","","","","","","","","","","","","","","","","","","","","","","","","","","","","","","","50"
"4359","","<div style=""width:500px;"">
  <p>How much control did you have over the ball?</p>
  </div>","99","html-slider-response","42","1153475","0.0-10.0-2.0","135","1","2025-07-02 10:20:32","80fe4187154257d5fb01684ea91b68b9","102.218.124.242","Mozilla/5.0 (Windows NT 10.0; Win64; x64) AppleWebKit/537.36 (KHTML, like Gecko) Chrome/138.0.0.0 Safari/537.36","WebKit","Chrome","138.0.0.0","Windows","10.0","https://app.prolific.com/","en-GB,en-US;q=0.9,en;q=0.8,es-US;q=0.7,es;q=0.6","65feaaac53eb219f09ad5ea0","683db6dfa200031b80f2a654","6865078828fc658afd079d2e","65feaaac53eb219f09ad5ea0","2025-07-02T10:39:48.569Z","","","","","","ControlQ","","","","","","","","","","","","","","","","","","","","","","","","","","","","","","","","","","","","","","50"
"5548","","<div style=""width:500px;"">
  <p>How would you describe your current emotional state?</p>
  </div>","31","html-slider-response","43","1159024","0.0-10.0-3.0","135","1","2025-07-02 10:20:32","80fe4187154257d5fb01684ea91b68b9","102.218.124.242","Mozilla/5.0 (Windows NT 10.0; Win64; x64) AppleWebKit/537.36 (KHTML, like Gecko) Chrome/138.0.0.0 Safari/537.36","WebKit","Chrome","138.0.0.0","Windows","10.0","https://app.prolific.com/","en-GB,en-US;q=0.9,en;q=0.8,es-US;q=0.7,es;q=0.6","65feaaac53eb219f09ad5ea0","683db6dfa200031b80f2a654","6865078828fc658afd079d2e","65feaaac53eb219f09ad5ea0","2025-07-02T10:39:54.118Z","","","","","","StressQ","","","","","","","","","","","","","","","","","","","","","","","","","","","","","","","","","","","","","","50"
"5937","","<div style=""width:500px;"">
  <p>What best describes how you currently feel?</p>
  </div>","100","html-slider-response","44","1164962","0.0-10.0-4.0","135","1","2025-07-02 10:20:32","80fe4187154257d5fb01684ea91b68b9","102.218.124.242","Mozilla/5.0 (Windows NT 10.0; Win64; x64) AppleWebKit/537.36 (KHTML, like Gecko) Chrome/138.0.0.0 Safari/537.36","WebKit","Chrome","138.0.0.0","Windows","10.0","https://app.prolific.com/","en-GB,en-US;q=0.9,en;q=0.8,es-US;q=0.7,es;q=0.6","65feaaac53eb219f09ad5ea0","683db6dfa200031b80f2a654","6865078828fc658afd079d2e","65feaaac53eb219f09ad5ea0","2025-07-02T10:40:00.056Z","","","","","","MotivationQ","","","","","","","","","","","","","","","","","","","","","","","","","","","","","","","","","","","","","","50"
"","","","","ctl-task-cpt","45","1200401","0.0-10.0-0.1","135","1","2025-07-02 10:20:32","80fe4187154257d5fb01684ea91b68b9","102.218.124.242","Mozilla/5.0 (Windows NT 10.0; Win64; x64) AppleWebKit/537.36 (KHTML, like Gecko) Chrome/138.0.0.0 Safari/537.36","WebKit","Chrome","138.0.0.0","Windows","10.0","https://app.prolific.com/","en-GB,en-US;q=0.9,en;q=0.8,es-US;q=0.7,es;q=0.6","65feaaac53eb219f09ad5ea0","683db6dfa200031b80f2a654","6865078828fc658afd079d2e","65feaaac53eb219f09ad5ea0","2025-07-02T10:40:35.495Z","","","","","","","","","","","","","","","","win-only","2","g1:SE,g2:NW","0.9","2","0","1168595.1","3703.5","8706.3","32419","1","4","8","6","2","8","6","8","2","0.06060606060606061","813.2","3000","280","[""left"",""up""]","{""num_key_presses"":9,""num_perfect"":6,""num_errors"":2,""num_randdir"":1,""num_randdir_good_moves"":1,""num_whilered"":0,""num_whileblue"":1,""num_blue"":1,""num_good_moves"":7}","[412.07142857142856,429.6808016640799,0.2,412.07142857142856,429.6808016640799,112.8,412.07142857142856,429.6808016640799,217.4,412.07142857142856,429.6808016640799,322.2,407.57142857142856,429.6808016640799,422.7,128.57142857142856,23.180801664079937,523,110.57142857142857,12.680801664079937,623.1,89.57142857142857,23.180801664079937,729.9,73.07142857142857,42.68080166407994,830.3,73.07142857142857,42.68080166407994,932.6,73.07142857142857,42.68080166407994,1037.6,73.07142857142857,42.68080166407994,1144.5,73.07142857142857,42.68080166407994,1250.2,73.07142857142857,42.68080166407994,1352,73.07142857142857,42.68080166407994,1452.7,73.07142857142857,42.68080166407994,1557.1,73.07142857142857,42.68080166407994,1657.2,73.07142857142857,42.68080166407994,1764.4,73.07142857142857,42.68080166407994,1865.5,73.07142857142857,42.68080166407994,1966.9,73.07142857142857,42.68080166407994,2067.1,73.07142857142857,42.68080166407994,2172,73.07142857142857,42.68080166407994,2278.4,73.07142857142857,42.68080166407994,2383.2,73.07142857142857,42.68080166407994,2488.2,73.07142857142857,42.68080166407994,2591.9,73.07142857142857,42.68080166407994,2694.1,73.07142857142857,42.68080166407994,2798.6,73.07142857142857,42.68080166407994,2902.2,73.07142857142857,42.68080166407994,3006.9,73.07142857142857,42.68080166407994,3106.9,73.07142857142857,42.68080166407994,3207.7,73.07142857142857,42.68080166407994,3315.6,73.07142857142857,42.68080166407994,3418,73.07142857142857,42.68080166407994,3521.8,73.07142857142857,42.68080166407994,3622.8,73.07142857142857,42.68080166407994,3727.4,73.07142857142857,42.68080166407994,3828.4,73.07142857142857,42.68080166407994,3929.1,73.07142857142857,42.68080166407994,4032,73.07142857142857,42.68080166407994,4132.2,73.07142857142857,42.68080166407994,4237.3,73.07142857142857,42.68080166407994,4337.7,73.07142857142857,42.68080166407994,4438,73.07142857142857,42.68080166407994,4542.6,73.07142857142857,42.68080166407994,4648.4,73.07142857142857,42.68080166407994,4749,73.07142857142857,42.68080166407994,4852.8,73.07142857142857,42.68080166407994,4957.7]","[1523.6,1523.7,1000,0,523.7,""oops"",""up"",""up"",""good_move"",4934.5,3410.4,3032,1524.1,378.4,""smooth"",""left"",""left"",""good_move"",7854.4,2919.5,2480.3,4934.9,439.2,""smooth"",""up"",""up"",""good_move"",10449.2,2594.6,2250.9,7854.6,343.7,""while_blue"",""left"",""up"",""good_move"",13994.7,3545.1,3108.7,10449.6,436.4,""smooth"",""left"",""left"",""good_move"",17033,3038.2,2512.7,13994.8,525.5,""smooth"",""down"",""down"",""bad_move"",17045.7,12.3,2824.6,17033.4,-2812.3,""error"",""-"",""-"",""no_move"",20253.9,3208.1,1731.3,18050.3,472.3,""smooth"",""up"",""up"",""good_move"",23599,3344.9,2960.6,20254.1,384.3,""smooth"",""left"",""left"",""good_move""]","",""
"5931","","<div style=""width:500px;"">
  <p>What determined the result of this run?</p>
  </div>","100","html-slider-response","46","1206332","0.0-10.0-1.1","135","1","2025-07-02 10:20:32","80fe4187154257d5fb01684ea91b68b9","102.218.124.242","Mozilla/5.0 (Windows NT 10.0; Win64; x64) AppleWebKit/537.36 (KHTML, like Gecko) Chrome/138.0.0.0 Safari/537.36","WebKit","Chrome","138.0.0.0","Windows","10.0","https://app.prolific.com/","en-GB,en-US;q=0.9,en;q=0.8,es-US;q=0.7,es;q=0.6","65feaaac53eb219f09ad5ea0","683db6dfa200031b80f2a654","6865078828fc658afd079d2e","65feaaac53eb219f09ad5ea0","2025-07-02T10:40:41.427Z","","","","","","AttribQ","","","","","","","","","","","","","","","","","","","","","","","","","","","","","","","","","","","","","","50"
"2360","","<div style=""width:500px;"">
  <p>How much control did you have over the ball?</p>
  </div>","100","html-slider-response","47","1208694","0.0-10.0-2.1","135","1","2025-07-02 10:20:32","80fe4187154257d5fb01684ea91b68b9","102.218.124.242","Mozilla/5.0 (Windows NT 10.0; Win64; x64) AppleWebKit/537.36 (KHTML, like Gecko) Chrome/138.0.0.0 Safari/537.36","WebKit","Chrome","138.0.0.0","Windows","10.0","https://app.prolific.com/","en-GB,en-US;q=0.9,en;q=0.8,es-US;q=0.7,es;q=0.6","65feaaac53eb219f09ad5ea0","683db6dfa200031b80f2a654","6865078828fc658afd079d2e","65feaaac53eb219f09ad5ea0","2025-07-02T10:40:43.788Z","","","","","","ControlQ","","","","","","","","","","","","","","","","","","","","","","","","","","","","","","","","","","","","","","50"
"4171","","<div style=""width:500px;"">
  <p>How would you describe your current emotional state?</p>
  </div>","5","html-slider-response","48","1212865","0.0-10.0-3.1","135","1","2025-07-02 10:20:32","80fe4187154257d5fb01684ea91b68b9","102.218.124.242","Mozilla/5.0 (Windows NT 10.0; Win64; x64) AppleWebKit/537.36 (KHTML, like Gecko) Chrome/138.0.0.0 Safari/537.36","WebKit","Chrome","138.0.0.0","Windows","10.0","https://app.prolific.com/","en-GB,en-US;q=0.9,en;q=0.8,es-US;q=0.7,es;q=0.6","65feaaac53eb219f09ad5ea0","683db6dfa200031b80f2a654","6865078828fc658afd079d2e","65feaaac53eb219f09ad5ea0","2025-07-02T10:40:47.959Z","","","","","","StressQ","","","","","","","","","","","","","","","","","","","","","","","","","","","","","","","","","","","","","","50"
"2917","","<div style=""width:500px;"">
  <p>What best describes how you currently feel?</p>
  </div>","90","html-slider-response","49","1215783","0.0-10.0-4.1","135","1","2025-07-02 10:20:32","80fe4187154257d5fb01684ea91b68b9","102.218.124.242","Mozilla/5.0 (Windows NT 10.0; Win64; x64) AppleWebKit/537.36 (KHTML, like Gecko) Chrome/138.0.0.0 Safari/537.36","WebKit","Chrome","138.0.0.0","Windows","10.0","https://app.prolific.com/","en-GB,en-US;q=0.9,en;q=0.8,es-US;q=0.7,es;q=0.6","65feaaac53eb219f09ad5ea0","683db6dfa200031b80f2a654","6865078828fc658afd079d2e","65feaaac53eb219f09ad5ea0","2025-07-02T10:40:50.877Z","","","","","","MotivationQ","","","","","","","","","","","","","","","","","","","","","","","","","","","","","","","","","","","","","","50"
"","","","","ctl-task-cpt","50","1250929","0.0-10.0-0.2","135","1","2025-07-02 10:20:32","80fe4187154257d5fb01684ea91b68b9","102.218.124.242","Mozilla/5.0 (Windows NT 10.0; Win64; x64) AppleWebKit/537.36 (KHTML, like Gecko) Chrome/138.0.0.0 Safari/537.36","WebKit","Chrome","138.0.0.0","Windows","10.0","https://app.prolific.com/","en-GB,en-US;q=0.9,en;q=0.8,es-US;q=0.7,es;q=0.6","65feaaac53eb219f09ad5ea0","683db6dfa200031b80f2a654","6865078828fc658afd079d2e","65feaaac53eb219f09ad5ea0","2025-07-02T10:41:26.023Z","","","","","","","","","","","","","","","","win-only","0","g1:NW,g2:SE","0.8","3","0","1219416.3","2516.4","7520.4","32116.3","1","4","4","6","2","4","4","12","8","0.09090909090909091","962.3","3000","690","[""down"",""right""]","{""num_key_presses"":6,""num_perfect"":6,""num_errors"":0,""num_randdir"":0,""num_randdir_good_moves"":0,""num_whilered"":0,""num_whileblue"":0,""num_blue"":2,""num_good_moves"":6}","[413.57142857142856,426.6808016640799,0.2,413.57142857142856,426.6808016640799,104.5,413.57142857142856,426.6808016640799,213.2,406.07142857142856,413.1808016640799,314.7,431.57142857142856,455.1808016640799,419,617.5714285714286,636.6808016640799,519.8,664.0714285714286,681.6808016640799,623.9,698.5714285714286,701.1808016640799,724.1,707.5714285714286,705.6808016640799,824.2,737.5714285714286,743.1808016640799,929.6,737.5714285714286,743.1808016640799,1031.2,737.5714285714286,743.1808016640799,1134.4,737.5714285714286,743.1808016640799,1234.7,737.5714285714286,743.1808016640799,1347.7,737.5714285714286,743.1808016640799,1449.1,737.5714285714286,743.1808016640799,1549.8,737.5714285714286,743.1808016640799,1653.9,737.5714285714286,743.1808016640799,1763.4,737.5714285714286,743.1808016640799,1864.6,737.5714285714286,743.1808016640799,1965,737.5714285714286,743.1808016640799,2065,737.5714285714286,743.1808016640799,2170,737.5714285714286,743.1808016640799,2281.6,737.5714285714286,743.1808016640799,2384.4,737.5714285714286,743.1808016640799,2489.5,737.5714285714286,743.1808016640799,2597.1,737.5714285714286,743.1808016640799,2699.2,737.5714285714286,743.1808016640799,2799.6,737.5714285714286,743.1808016640799,2900.2,737.5714285714286,743.1808016640799,3013,737.5714285714286,743.1808016640799,3114.1,737.5714285714286,743.1808016640799,3219.7,737.5714285714286,743.1808016640799,3321.1,737.5714285714286,743.1808016640799,3425,737.5714285714286,743.1808016640799,3529.5,737.5714285714286,743.1808016640799,3635.2,737.5714285714286,743.1808016640799,3746.6,737.5714285714286,743.1808016640799,3850.1,737.5714285714286,743.1808016640799,3962.9,737.5714285714286,743.1808016640799,4063.2,737.5714285714286,743.1808016640799,4164.6,737.5714285714286,743.1808016640799,4264.9,737.5714285714286,743.1808016640799,4365,737.5714285714286,743.1808016640799,4466.4,737.5714285714286,743.1808016640799,4569.9,737.5714285714286,743.1808016640799,4681,737.5714285714286,743.1808016640799,4785.1,737.5714285714286,743.1808016640799,4885.3,737.5714285714286,743.1808016640799,4996.7]","[1490.8,1490.8,1000,0,490.8,""smooth"",""right"",""right"",""good_move"",7979.5,6488.4,2387.2,5145.3,447,""smooth"",""right"",""right"",""good_move"",10811.5,2831.8,2287.3,7979.7,544.5,""smooth"",""right"",""right"",""good_move"",17615.5,6803.7,2906.7,14295.6,413.2,""smooth"",""down"",""down"",""good_move"",21238.2,3622.1,3124.6,17616.1,497.5,""smooth"",""down"",""down"",""good_move"",24478.7,3240.3,2685.2,21238.4,555.1,""smooth"",""down"",""down"",""good_move""]","",""
"3036","","<div style=""width:500px;"">
  <p>What determined the result of this run?</p>
  </div>","100","html-slider-response","51","1253967","0.0-10.0-1.2","135","1","2025-07-02 10:20:32","80fe4187154257d5fb01684ea91b68b9","102.218.124.242","Mozilla/5.0 (Windows NT 10.0; Win64; x64) AppleWebKit/537.36 (KHTML, like Gecko) Chrome/138.0.0.0 Safari/537.36","WebKit","Chrome","138.0.0.0","Windows","10.0","https://app.prolific.com/","en-GB,en-US;q=0.9,en;q=0.8,es-US;q=0.7,es;q=0.6","65feaaac53eb219f09ad5ea0","683db6dfa200031b80f2a654","6865078828fc658afd079d2e","65feaaac53eb219f09ad5ea0","2025-07-02T10:41:29.061Z","","","","","","AttribQ","","","","","","","","","","","","","","","","","","","","","","","","","","","","","","","","","","","","","","50"
"3691","","<div style=""width:500px;"">
  <p>How much control did you have over the ball?</p>
  </div>","100","html-slider-response","52","1257660","0.0-10.0-2.2","135","1","2025-07-02 10:20:32","80fe4187154257d5fb01684ea91b68b9","102.218.124.242","Mozilla/5.0 (Windows NT 10.0; Win64; x64) AppleWebKit/537.36 (KHTML, like Gecko) Chrome/138.0.0.0 Safari/537.36","WebKit","Chrome","138.0.0.0","Windows","10.0","https://app.prolific.com/","en-GB,en-US;q=0.9,en;q=0.8,es-US;q=0.7,es;q=0.6","65feaaac53eb219f09ad5ea0","683db6dfa200031b80f2a654","6865078828fc658afd079d2e","65feaaac53eb219f09ad5ea0","2025-07-02T10:41:32.754Z","","","","","","ControlQ","","","","","","","","","","","","","","","","","","","","","","","","","","","","","","","","","","","","","","50"
"8651","","<div style=""width:500px;"">
  <p>How would you describe your current emotional state?</p>
  </div>","0","html-slider-response","53","1266312","0.0-10.0-3.2","135","1","2025-07-02 10:20:32","80fe4187154257d5fb01684ea91b68b9","102.218.124.242","Mozilla/5.0 (Windows NT 10.0; Win64; x64) AppleWebKit/537.36 (KHTML, like Gecko) Chrome/138.0.0.0 Safari/537.36","WebKit","Chrome","138.0.0.0","Windows","10.0","https://app.prolific.com/","en-GB,en-US;q=0.9,en;q=0.8,es-US;q=0.7,es;q=0.6","65feaaac53eb219f09ad5ea0","683db6dfa200031b80f2a654","6865078828fc658afd079d2e","65feaaac53eb219f09ad5ea0","2025-07-02T10:41:41.406Z","","","","","","StressQ","","","","","","","","","","","","","","","","","","","","","","","","","","","","","","","","","","","","","","50"
"3510","","<div style=""width:500px;"">
  <p>What best describes how you currently feel?</p>
  </div>","100","html-slider-response","54","1269823","0.0-10.0-4.2","135","1","2025-07-02 10:20:32","80fe4187154257d5fb01684ea91b68b9","102.218.124.242","Mozilla/5.0 (Windows NT 10.0; Win64; x64) AppleWebKit/537.36 (KHTML, like Gecko) Chrome/138.0.0.0 Safari/537.36","WebKit","Chrome","138.0.0.0","Windows","10.0","https://app.prolific.com/","en-GB,en-US;q=0.9,en;q=0.8,es-US;q=0.7,es;q=0.6","65feaaac53eb219f09ad5ea0","683db6dfa200031b80f2a654","6865078828fc658afd079d2e","65feaaac53eb219f09ad5ea0","2025-07-02T10:41:44.917Z","","","","","","MotivationQ","","","","","","","","","","","","","","","","","","","","","","","","","","","","","","","","","","","","","","50"
"","","","","ctl-task-cpt","55","1310674","0.0-10.0-0.3","135","1","2025-07-02 10:20:32","80fe4187154257d5fb01684ea91b68b9","102.218.124.242","Mozilla/5.0 (Windows NT 10.0; Win64; x64) AppleWebKit/537.36 (KHTML, like Gecko) Chrome/138.0.0.0 Safari/537.36","WebKit","Chrome","138.0.0.0","Windows","10.0","https://app.prolific.com/","en-GB,en-US;q=0.9,en;q=0.8,es-US;q=0.7,es;q=0.6","65feaaac53eb219f09ad5ea0","683db6dfa200031b80f2a654","6865078828fc658afd079d2e","65feaaac53eb219f09ad5ea0","2025-07-02T10:42:25.768Z","","","","","","","","","","","","","","","","win-only","0","g1:NW,g2:SE","0.7","4","0","1273455.5","1038.2","6040.8","37826.6","1","4","8","6","2","-8","-8","4","12","0.030303030303030304","839.5","3000","-2315","[""down"",""right""]","{""num_key_presses"":7,""num_perfect"":5,""num_errors"":0,""num_randdir"":2,""num_randdir_good_moves"":1,""num_whilered"":0,""num_whileblue"":0,""num_blue"":3,""num_good_moves"":6}","[409.07142857142856,413.1808016640799,0.1,409.07142857142856,413.1808016640799,106.3,409.07142857142856,413.1808016640799,207.9,392.57142857142856,396.6808016640799,315.4,695.5714285714286,600.6808016640799,417.5,727.0714285714286,642.6808016640799,522.9,782.5714285714286,725.1808016640799,622.9,782.5714285714286,737.1808016640799,722.9,767.5714285714286,749.1808016640799,826,767.5714285714286,749.1808016640799,929.4,767.5714285714286,749.1808016640799,1033.2,767.5714285714286,749.1808016640799,1140,767.5714285714286,749.1808016640799,1243.4,767.5714285714286,749.1808016640799,1347.1,767.5714285714286,749.1808016640799,1447.7,767.5714285714286,749.1808016640799,1548.3,767.5714285714286,749.1808016640799,1653.3,767.5714285714286,749.1808016640799,1765.6,767.5714285714286,749.1808016640799,1868.1,767.5714285714286,749.1808016640799,1968.4,767.5714285714286,749.1808016640799,2069.2,767.5714285714286,749.1808016640799,2173,767.5714285714286,749.1808016640799,2278,767.5714285714286,749.1808016640799,2383.1,767.5714285714286,749.1808016640799,2494.4,767.5714285714286,749.1808016640799,2595.8,767.5714285714286,749.1808016640799,2705.5,767.5714285714286,749.1808016640799,2814.8,767.5714285714286,749.1808016640799,2918.2,767.5714285714286,749.1808016640799,3031.7,767.5714285714286,749.1808016640799,3133.2,767.5714285714286,749.1808016640799,3237.5,767.5714285714286,749.1808016640799,3338.2,767.5714285714286,749.1808016640799,3441.5,767.5714285714286,749.1808016640799,3550.3,767.5714285714286,749.1808016640799,3653,767.5714285714286,749.1808016640799,3758.1,767.5714285714286,749.1808016640799,3865.1,767.5714285714286,749.1808016640799,3965.2,767.5714285714286,749.1808016640799,4068.4,767.5714285714286,749.1808016640799,4172.9,767.5714285714286,749.1808016640799,4273.3,767.5714285714286,749.1808016640799,4378.4,767.5714285714286,749.1808016640799,4478.4,767.5714285714286,749.1808016640799,4582.9,767.5714285714286,749.1808016640799,4683,767.5714285714286,749.1808016640799,4783,767.5714285714286,749.1808016640799,4888.3,767.5714285714286,749.1808016640799,4999]","[5398.8,5398.8,2925.7,2004.3,468.8,""smooth"",""right"",""right"",""good_move"",11287.2,5888.1,2315.8,8530.8,440.6,""oops"",""right"",""down"",""good_move"",14204.7,2917.1,2271.7,11287.6,645.4,""smooth"",""right"",""right"",""good_move"",17043.5,2838.5,2295.8,14205,542.7,""smooth"",""right"",""right"",""good_move"",20423.4,3379.7,2931,17043.7,448.7,""oops"",""down"",""up"",""bad_move"",23257.3,2833.7,2420.2,20423.6,413.5,""smooth"",""down"",""down"",""good_move"",25941.8,2684.3,2327.4,23257.5,356.9,""smooth"",""down"",""down"",""good_move""]","",""
"5271","","<div style=""width:500px;"">
  <p>What determined the result of this run?</p>
  </div>","36","html-slider-response","56","1315946","0.0-10.0-1.3","135","1","2025-07-02 10:20:32","80fe4187154257d5fb01684ea91b68b9","102.218.124.242","Mozilla/5.0 (Windows NT 10.0; Win64; x64) AppleWebKit/537.36 (KHTML, like Gecko) Chrome/138.0.0.0 Safari/537.36","WebKit","Chrome","138.0.0.0","Windows","10.0","https://app.prolific.com/","en-GB,en-US;q=0.9,en;q=0.8,es-US;q=0.7,es;q=0.6","65feaaac53eb219f09ad5ea0","683db6dfa200031b80f2a654","6865078828fc658afd079d2e","65feaaac53eb219f09ad5ea0","2025-07-02T10:42:31.040Z","","","","","","AttribQ","","","","","","","","","","","","","","","","","","","","","","","","","","","","","","","","","","","","","","50"
"3201","","<div style=""width:500px;"">
  <p>How much control did you have over the ball?</p>
  </div>","59","html-slider-response","57","1319148","0.0-10.0-2.3","135","1","2025-07-02 10:20:32","80fe4187154257d5fb01684ea91b68b9","102.218.124.242","Mozilla/5.0 (Windows NT 10.0; Win64; x64) AppleWebKit/537.36 (KHTML, like Gecko) Chrome/138.0.0.0 Safari/537.36","WebKit","Chrome","138.0.0.0","Windows","10.0","https://app.prolific.com/","en-GB,en-US;q=0.9,en;q=0.8,es-US;q=0.7,es;q=0.6","65feaaac53eb219f09ad5ea0","683db6dfa200031b80f2a654","6865078828fc658afd079d2e","65feaaac53eb219f09ad5ea0","2025-07-02T10:42:34.242Z","","","","","","ControlQ","","","","","","","","","","","","","","","","","","","","","","","","","","","","","","","","","","","","","","50"
"2683","","<div style=""width:500px;"">
  <p>How would you describe your current emotional state?</p>
  </div>","61","html-slider-response","58","1321832","0.0-10.0-3.3","135","1","2025-07-02 10:20:32","80fe4187154257d5fb01684ea91b68b9","102.218.124.242","Mozilla/5.0 (Windows NT 10.0; Win64; x64) AppleWebKit/537.36 (KHTML, like Gecko) Chrome/138.0.0.0 Safari/537.36","WebKit","Chrome","138.0.0.0","Windows","10.0","https://app.prolific.com/","en-GB,en-US;q=0.9,en;q=0.8,es-US;q=0.7,es;q=0.6","65feaaac53eb219f09ad5ea0","683db6dfa200031b80f2a654","6865078828fc658afd079d2e","65feaaac53eb219f09ad5ea0","2025-07-02T10:42:36.926Z","","","","","","StressQ","","","","","","","","","","","","","","","","","","","","","","","","","","","","","","","","","","","","","","50"
"4065","","<div style=""width:500px;"">
  <p>What best describes how you currently feel?</p>
  </div>","67","html-slider-response","59","1325899","0.0-10.0-4.3","135","1","2025-07-02 10:20:32","80fe4187154257d5fb01684ea91b68b9","102.218.124.242","Mozilla/5.0 (Windows NT 10.0; Win64; x64) AppleWebKit/537.36 (KHTML, like Gecko) Chrome/138.0.0.0 Safari/537.36","WebKit","Chrome","138.0.0.0","Windows","10.0","https://app.prolific.com/","en-GB,en-US;q=0.9,en;q=0.8,es-US;q=0.7,es;q=0.6","65feaaac53eb219f09ad5ea0","683db6dfa200031b80f2a654","6865078828fc658afd079d2e","65feaaac53eb219f09ad5ea0","2025-07-02T10:42:40.993Z","","","","","","MotivationQ","","","","","","","","","","","","","","","","","","","","","","","","","","","","","","","","","","","","","","50"
"","","","","ctl-task-cpt","60","1375185","0.0-10.0-0.4","135","1","2025-07-02 10:20:32","80fe4187154257d5fb01684ea91b68b9","102.218.124.242","Mozilla/5.0 (Windows NT 10.0; Win64; x64) AppleWebKit/537.36 (KHTML, like Gecko) Chrome/138.0.0.0 Safari/537.36","WebKit","Chrome","138.0.0.0","Windows","10.0","https://app.prolific.com/","en-GB,en-US;q=0.9,en;q=0.8,es-US;q=0.7,es;q=0.6","65feaaac53eb219f09ad5ea0","683db6dfa200031b80f2a654","6865078828fc658afd079d2e","65feaaac53eb219f09ad5ea0","2025-07-02T10:43:30.279Z","","","","","","","","","","","","","","","","win-only","0","g1:NW,g2:SE","0.6","5","0","1329531.5","1303.8","6305.7","46272.5","1","4","4","6","2","-4","-4","0","4","0","1010","3000","-2125","[""down"",""right""]","{""num_key_presses"":8,""num_perfect"":5,""num_errors"":0,""num_randdir"":3,""num_randdir_good_moves"":1,""num_whilered"":0,""num_whileblue"":0,""num_blue"":4,""num_good_moves"":6}","[404.57142857142856,416.1808016640799,0.2,404.57142857142856,416.1808016640799,102,404.57142857142856,416.1808016640799,206.6,404.57142857142856,408.6808016640799,306.9,473.57142857142856,500.1808016640799,407.9,692.5714285714286,647.1808016640799,508.3,727.0714285714286,675.6808016640799,612.4,812.5714285714286,770.1808016640799,718,806.5714285714286,779.1808016640799,822.1,791.5714285714286,779.1808016640799,936.4,791.5714285714286,779.1808016640799,1036.6,791.5714285714286,779.1808016640799,1136.7,791.5714285714286,779.1808016640799,1241.8,791.5714285714286,779.1808016640799,1342.5,788.5714285714286,776.1808016640799,1447.3,788.5714285714286,776.1808016640799,1547.3,788.5714285714286,776.1808016640799,1651.9,788.5714285714286,776.1808016640799,1752.3,788.5714285714286,776.1808016640799,1872.4,788.5714285714286,776.1808016640799,1973.1,788.5714285714286,776.1808016640799,2076.9,788.5714285714286,776.1808016640799,2178.5,788.5714285714286,776.1808016640799,2282.7,788.5714285714286,776.1808016640799,2383.3,788.5714285714286,776.1808016640799,2486.8,788.5714285714286,776.1808016640799,2587.3,788.5714285714286,776.1808016640799,2688.4,788.5714285714286,776.1808016640799,2802.5,788.5714285714286,776.1808016640799,2908.1,788.5714285714286,776.1808016640799,3012.7,788.5714285714286,776.1808016640799,3117.7,788.5714285714286,776.1808016640799,3223,788.5714285714286,776.1808016640799,3323.1,788.5714285714286,776.1808016640799,3434,788.5714285714286,776.1808016640799,3537,788.5714285714286,776.1808016640799,3638.1,788.5714285714286,776.1808016640799,3751.5,788.5714285714286,776.1808016640799,3852.5,788.5714285714286,776.1808016640799,3968,788.5714285714286,776.1808016640799,4073.1,788.5714285714286,776.1808016640799,4176.6,788.5714285714286,776.1808016640799,4277.6,788.5714285714286,776.1808016640799,4377.6,788.5714285714286,776.1808016640799,4477.7,788.5714285714286,776.1808016640799,4581.7,788.5714285714286,776.1808016640799,4682.6,788.5714285714286,776.1808016640799,4782.9,788.5714285714286,776.1808016640799,4887.7]","[1631.2,1631.2,1000,0,631.2,""smooth"",""right"",""right"",""good_move"",5464.4,3832.9,3314.2,1631.5,518.7,""oops"",""right"",""left"",""bad_move"",9329,3863.8,3319.9,5465.2,543.9,""smooth"",""right"",""right"",""good_move"",12635.5,3306.2,2828.6,9329.4,477.5,""oops"",""right"",""up"",""bad_move"",22180.2,9543.9,2212.9,19305.3,662,""oops"",""down"",""down"",""good_move"",24824.6,2644.1,2039.2,22180.5,604.9,""smooth"",""down"",""down"",""good_move"",27791,2966.2,2514.1,24824.8,452.1,""smooth"",""right"",""right"",""good_move"",34679.3,6887.5,2722.4,31546.1,410.9,""smooth"",""right"",""right"",""good_move""]","",""
"2672","","<div style=""width:500px;"">
  <p>What determined the result of this run?</p>
  </div>","43","html-slider-response","61","1377858","0.0-10.0-1.4","135","1","2025-07-02 10:20:32","80fe4187154257d5fb01684ea91b68b9","102.218.124.242","Mozilla/5.0 (Windows NT 10.0; Win64; x64) AppleWebKit/537.36 (KHTML, like Gecko) Chrome/138.0.0.0 Safari/537.36","WebKit","Chrome","138.0.0.0","Windows","10.0","https://app.prolific.com/","en-GB,en-US;q=0.9,en;q=0.8,es-US;q=0.7,es;q=0.6","65feaaac53eb219f09ad5ea0","683db6dfa200031b80f2a654","6865078828fc658afd079d2e","65feaaac53eb219f09ad5ea0","2025-07-02T10:43:32.952Z","","","","","","AttribQ","","","","","","","","","","","","","","","","","","","","","","","","","","","","","","","","","","","","","","50"
"3913","","<div style=""width:500px;"">
  <p>How much control did you have over the ball?</p>
  </div>","70","html-slider-response","62","1381773","0.0-10.0-2.4","135","1","2025-07-02 10:20:32","80fe4187154257d5fb01684ea91b68b9","102.218.124.242","Mozilla/5.0 (Windows NT 10.0; Win64; x64) AppleWebKit/537.36 (KHTML, like Gecko) Chrome/138.0.0.0 Safari/537.36","WebKit","Chrome","138.0.0.0","Windows","10.0","https://app.prolific.com/","en-GB,en-US;q=0.9,en;q=0.8,es-US;q=0.7,es;q=0.6","65feaaac53eb219f09ad5ea0","683db6dfa200031b80f2a654","6865078828fc658afd079d2e","65feaaac53eb219f09ad5ea0","2025-07-02T10:43:36.867Z","","","","","","ControlQ","","","","","","","","","","","","","","","","","","","","","","","","","","","","","","","","","","","","","","50"
"2623","","<div style=""width:500px;"">
  <p>How would you describe your current emotional state?</p>
  </div>","56","html-slider-response","63","1384397","0.0-10.0-3.4","135","1","2025-07-02 10:20:32","80fe4187154257d5fb01684ea91b68b9","102.218.124.242","Mozilla/5.0 (Windows NT 10.0; Win64; x64) AppleWebKit/537.36 (KHTML, like Gecko) Chrome/138.0.0.0 Safari/537.36","WebKit","Chrome","138.0.0.0","Windows","10.0","https://app.prolific.com/","en-GB,en-US;q=0.9,en;q=0.8,es-US;q=0.7,es;q=0.6","65feaaac53eb219f09ad5ea0","683db6dfa200031b80f2a654","6865078828fc658afd079d2e","65feaaac53eb219f09ad5ea0","2025-07-02T10:43:39.491Z","","","","","","StressQ","","","","","","","","","","","","","","","","","","","","","","","","","","","","","","","","","","","","","","50"
"2909","","<div style=""width:500px;"">
  <p>What best describes how you currently feel?</p>
  </div>","53","html-slider-response","64","1387307","0.0-10.0-4.4","135","1","2025-07-02 10:20:32","80fe4187154257d5fb01684ea91b68b9","102.218.124.242","Mozilla/5.0 (Windows NT 10.0; Win64; x64) AppleWebKit/537.36 (KHTML, like Gecko) Chrome/138.0.0.0 Safari/537.36","WebKit","Chrome","138.0.0.0","Windows","10.0","https://app.prolific.com/","en-GB,en-US;q=0.9,en;q=0.8,es-US;q=0.7,es;q=0.6","65feaaac53eb219f09ad5ea0","683db6dfa200031b80f2a654","6865078828fc658afd079d2e","65feaaac53eb219f09ad5ea0","2025-07-02T10:43:42.401Z","","","","","","MotivationQ","","","","","","","","","","","","","","","","","","","","","","","","","","","","","","","","","","","","","","50"
"","","","","ctl-task-cpt","65","1420715","0.0-10.0-0.5","135","1","2025-07-02 10:20:32","80fe4187154257d5fb01684ea91b68b9","102.218.124.242","Mozilla/5.0 (Windows NT 10.0; Win64; x64) AppleWebKit/537.36 (KHTML, like Gecko) Chrome/138.0.0.0 Safari/537.36","WebKit","Chrome","138.0.0.0","Windows","10.0","https://app.prolific.com/","en-GB,en-US;q=0.9,en;q=0.8,es-US;q=0.7,es;q=0.6","65feaaac53eb219f09ad5ea0","683db6dfa200031b80f2a654","6865078828fc658afd079d2e","65feaaac53eb219f09ad5ea0","2025-07-02T10:44:15.809Z","","","","","","","","","","","","","","","","win-only","1","g1:NE,g2:SW","0.5","6","0","1390939.3","1055.5","6060.4","30388.8","1","4","8","6","2","8","8","8","0","0.06060606060606061","1100.5","3000","100","[""down"",""left""]","{""num_key_presses"":8,""num_perfect"":3,""num_errors"":0,""num_randdir"":5,""num_randdir_good_moves"":4,""num_whilered"":0,""num_whileblue"":0,""num_blue"":1,""num_good_moves"":7}","[425.57142857142856,414.6808016640799,0.2,425.57142857142856,414.6808016640799,103.2,425.57142857142856,414.6808016640799,205.6,428.57142857142856,419.1808016640799,310.1,464.57142857142856,437.1808016640799,410.3,458.57142857142856,417.6808016640799,510.3,257.57142857142856,611.1808016640799,611,217.07142857142856,740.1808016640799,715.1,110.57142857142857,812.1808016640799,820.1,107.57142857142857,816.6808016640799,920.8,100.07142857142857,791.1808016640799,1036.7,100.07142857142857,786.6808016640799,1144.2,100.07142857142857,786.6808016640799,1251.9,107.57142857142857,779.1808016640799,1353.2,107.57142857142857,776.1808016640799,1455.4,106.07142857142857,717.6808016640799,1555.5,103.07142857142857,698.1808016640799,1671,103.07142857142857,698.1808016640799,1787.6,103.07142857142857,698.1808016640799,1890.8,103.07142857142857,698.1808016640799,1991,103.07142857142857,698.1808016640799,2094.7,103.07142857142857,698.1808016640799,2195,103.07142857142857,698.1808016640799,2295.3,103.07142857142857,698.1808016640799,2395.5,103.07142857142857,698.1808016640799,2500,103.07142857142857,698.1808016640799,2605.2,103.07142857142857,698.1808016640799,2722,103.07142857142857,698.1808016640799,2825.7,103.07142857142857,698.1808016640799,2930.4,103.07142857142857,698.1808016640799,3035.9,103.07142857142857,698.1808016640799,3152.1,103.07142857142857,698.1808016640799,3253.5,103.07142857142857,698.1808016640799,3354.8,103.07142857142857,698.1808016640799,3461,103.07142857142857,698.1808016640799,3571.1,103.07142857142857,698.1808016640799,3671.4,103.07142857142857,698.1808016640799,3779,103.07142857142857,698.1808016640799,3884.9,103.07142857142857,698.1808016640799,3989.4,103.07142857142857,698.1808016640799,4090.2,103.07142857142857,698.1808016640799,4195.8,103.07142857142857,698.1808016640799,4300.4,103.07142857142857,698.1808016640799,4405.2,103.07142857142857,698.1808016640799,4520.6,103.07142857142857,698.1808016640799,4620.6,103.07142857142857,698.1808016640799,4721.3,103.07142857142857,698.1808016640799,4824.9,103.07142857142857,698.1808016640799,4925.6]","[1647.1,1647.1,1000,0,647.1,""oops"",""down"",""up"",""bad_move"",4588.9,2941.4,2291.4,1647.5,650,""smooth"",""down"",""down"",""good_move"",10065,5475.8,2580.4,7034.9,449.7,""oops"",""left"",""left"",""good_move"",12826.3,2760.4,2183.8,10066,576.6,""smooth"",""down"",""down"",""good_move"",15979,3152.5,2590.2,12826.5,562.3,""oops"",""left"",""left"",""good_move"",18761,2781.9,2278.1,15979.1,503.8,""smooth"",""down"",""down"",""good_move"",21575.5,2814.3,2378,18761.2,436.3,""oops"",""left"",""down"",""good_move"",24192.4,2616.7,2210.3,21575.7,406.4,""oops"",""left"",""left"",""good_move""]","",""
"3564","","<div style=""width:500px;"">
  <p>What determined the result of this run?</p>
  </div>","100","html-slider-response","66","1424280","0.0-10.0-1.5","135","1","2025-07-02 10:20:32","80fe4187154257d5fb01684ea91b68b9","102.218.124.242","Mozilla/5.0 (Windows NT 10.0; Win64; x64) AppleWebKit/537.36 (KHTML, like Gecko) Chrome/138.0.0.0 Safari/537.36","WebKit","Chrome","138.0.0.0","Windows","10.0","https://app.prolific.com/","en-GB,en-US;q=0.9,en;q=0.8,es-US;q=0.7,es;q=0.6","65feaaac53eb219f09ad5ea0","683db6dfa200031b80f2a654","6865078828fc658afd079d2e","65feaaac53eb219f09ad5ea0","2025-07-02T10:44:19.374Z","","","","","","AttribQ","","","","","","","","","","","","","","","","","","","","","","","","","","","","","","","","","","","","","","50"
"4096","","<div style=""width:500px;"">
  <p>How much control did you have over the ball?</p>
  </div>","93","html-slider-response","67","1428377","0.0-10.0-2.5","135","1","2025-07-02 10:20:32","80fe4187154257d5fb01684ea91b68b9","102.218.124.242","Mozilla/5.0 (Windows NT 10.0; Win64; x64) AppleWebKit/537.36 (KHTML, like Gecko) Chrome/138.0.0.0 Safari/537.36","WebKit","Chrome","138.0.0.0","Windows","10.0","https://app.prolific.com/","en-GB,en-US;q=0.9,en;q=0.8,es-US;q=0.7,es;q=0.6","65feaaac53eb219f09ad5ea0","683db6dfa200031b80f2a654","6865078828fc658afd079d2e","65feaaac53eb219f09ad5ea0","2025-07-02T10:44:23.471Z","","","","","","ControlQ","","","","","","","","","","","","","","","","","","","","","","","","","","","","","","","","","","","","","","50"
"2367","","<div style=""width:500px;"">
  <p>How would you describe your current emotional state?</p>
  </div>","18","html-slider-response","68","1430746","0.0-10.0-3.5","135","1","2025-07-02 10:20:32","80fe4187154257d5fb01684ea91b68b9","102.218.124.242","Mozilla/5.0 (Windows NT 10.0; Win64; x64) AppleWebKit/537.36 (KHTML, like Gecko) Chrome/138.0.0.0 Safari/537.36","WebKit","Chrome","138.0.0.0","Windows","10.0","https://app.prolific.com/","en-GB,en-US;q=0.9,en;q=0.8,es-US;q=0.7,es;q=0.6","65feaaac53eb219f09ad5ea0","683db6dfa200031b80f2a654","6865078828fc658afd079d2e","65feaaac53eb219f09ad5ea0","2025-07-02T10:44:25.840Z","","","","","","StressQ","","","","","","","","","","","","","","","","","","","","","","","","","","","","","","","","","","","","","","50"
"2960","","<div style=""width:500px;"">
  <p>What best describes how you currently feel?</p>
  </div>","71","html-slider-response","69","1433708","0.0-10.0-4.5","135","1","2025-07-02 10:20:32","80fe4187154257d5fb01684ea91b68b9","102.218.124.242","Mozilla/5.0 (Windows NT 10.0; Win64; x64) AppleWebKit/537.36 (KHTML, like Gecko) Chrome/138.0.0.0 Safari/537.36","WebKit","Chrome","138.0.0.0","Windows","10.0","https://app.prolific.com/","en-GB,en-US;q=0.9,en;q=0.8,es-US;q=0.7,es;q=0.6","65feaaac53eb219f09ad5ea0","683db6dfa200031b80f2a654","6865078828fc658afd079d2e","65feaaac53eb219f09ad5ea0","2025-07-02T10:44:28.802Z","","","","","","MotivationQ","","","","","","","","","","","","","","","","","","","","","","","","","","","","","","","","","","","","","","50"
"","","","","ctl-task-cpt","70","1482625","0.0-10.0-0.6","135","1","2025-07-02 10:20:32","80fe4187154257d5fb01684ea91b68b9","102.218.124.242","Mozilla/5.0 (Windows NT 10.0; Win64; x64) AppleWebKit/537.36 (KHTML, like Gecko) Chrome/138.0.0.0 Safari/537.36","WebKit","Chrome","138.0.0.0","Windows","10.0","https://app.prolific.com/","en-GB,en-US;q=0.9,en;q=0.8,es-US;q=0.7,es;q=0.6","65feaaac53eb219f09ad5ea0","683db6dfa200031b80f2a654","6865078828fc658afd079d2e","65feaaac53eb219f09ad5ea0","2025-07-02T10:45:17.719Z","","","","","","","","","","","","","","","","win-only","0","g1:NW,g2:SE","0.4","7","0","1437340.9","1079.5","6082.1","45904.2","1","4","4","6","2","4","4","12","8","0.09090909090909091","948.6","3000","760","[""down"",""right""]","{""num_key_presses"":8,""num_perfect"":3,""num_errors"":0,""num_randdir"":5,""num_randdir_good_moves"":4,""num_whilered"":0,""num_whileblue"":0,""num_blue"":4,""num_good_moves"":7}","[416.57142857142856,422.1808016640799,0.2,416.57142857142856,422.1808016640799,101.7,416.57142857142856,422.1808016640799,207.4,416.57142857142856,422.1808016640799,311.6,496.07142857142856,531.6808016640799,413.8,568.0714285714286,627.6808016640799,517.7,584.5714285714286,671.1808016640799,620.8,724.0714285714286,764.1808016640799,721.3,728.5714285714286,764.1808016640799,835.6,728.5714285714286,762.6808016640799,941,728.5714285714286,758.1808016640799,1053.8,728.5714285714286,755.1808016640799,1156.8,728.5714285714286,755.1808016640799,1261.4,728.5714285714286,750.6808016640799,1368,728.5714285714286,750.6808016640799,1470.2,728.5714285714286,750.6808016640799,1571.7,728.5714285714286,750.6808016640799,1676.4,728.5714285714286,750.6808016640799,1777.1,728.5714285714286,750.6808016640799,1886.1,728.5714285714286,750.6808016640799,1991,728.5714285714286,750.6808016640799,2093.2,728.5714285714286,750.6808016640799,2196.8,728.5714285714286,750.6808016640799,2301.8,728.5714285714286,750.6808016640799,2406.8,728.5714285714286,750.6808016640799,2511.2,728.5714285714286,750.6808016640799,2611.4,728.5714285714286,750.6808016640799,2717.3,728.5714285714286,750.6808016640799,2822,728.5714285714286,750.6808016640799,2937.5,728.5714285714286,750.6808016640799,3037.8,728.5714285714286,750.6808016640799,3141.5,728.5714285714286,750.6808016640799,3241.6,728.5714285714286,750.6808016640799,3341.6,728.5714285714286,750.6808016640799,3441.6,728.5714285714286,750.6808016640799,3544,728.5714285714286,750.6808016640799,3653.3,728.5714285714286,750.6808016640799,3755.9,728.5714285714286,750.6808016640799,3856.6,728.5714285714286,750.6808016640799,3973,728.5714285714286,750.6808016640799,4073.2,728.5714285714286,750.6808016640799,4173.3,728.5714285714286,750.6808016640799,4273.7,728.5714285714286,750.6808016640799,4375.5,728.5714285714286,750.6808016640799,4477.4,728.5714285714286,750.6808016640799,4582.1,728.5714285714286,750.6808016640799,4686.8,728.5714285714286,750.6808016640799,4789.3,728.5714285714286,750.6808016640799,4889.4,728.5714285714286,750.6808016640799,4990]","[4734.1,4734.1,2275.1,2025.5,433.5,""oops"",""down"",""down"",""good_move"",11619.6,6885.2,2661,8502.6,456.1,""oops"",""right"",""down"",""good_move"",15365.2,3745.3,3270.2,11619.9,475.1,""oops"",""right"",""down"",""good_move"",18700.4,3335,2900.3,15365.4,434.7,""smooth"",""right"",""right"",""good_move"",25786.7,7086,2492.4,22806.8,487.5,""smooth"",""right"",""right"",""good_move"",29249.8,3463,2901.9,25786.8,561.1,""oops"",""right"",""up"",""bad_move"",35938.3,6688.1,3029.7,32400,508.6,""smooth"",""right"",""right"",""good_move"",39614.6,3676.2,3236.4,35938.4,439.8,""oops"",""down"",""down"",""good_move""]","",""
"3512","","<div style=""width:500px;"">
  <p>What determined the result of this run?</p>
  </div>","100","html-slider-response","71","1486138","0.0-10.0-1.6","135","1","2025-07-02 10:20:32","80fe4187154257d5fb01684ea91b68b9","102.218.124.242","Mozilla/5.0 (Windows NT 10.0; Win64; x64) AppleWebKit/537.36 (KHTML, like Gecko) Chrome/138.0.0.0 Safari/537.36","WebKit","Chrome","138.0.0.0","Windows","10.0","https://app.prolific.com/","en-GB,en-US;q=0.9,en;q=0.8,es-US;q=0.7,es;q=0.6","65feaaac53eb219f09ad5ea0","683db6dfa200031b80f2a654","6865078828fc658afd079d2e","65feaaac53eb219f09ad5ea0","2025-07-02T10:45:21.232Z","","","","","","AttribQ","","","","","","","","","","","","","","","","","","","","","","","","","","","","","","","","","","","","","","50"
"3789","","<div style=""width:500px;"">
  <p>How much control did you have over the ball?</p>
  </div>","100","html-slider-response","72","1489927","0.0-10.0-2.6","135","1","2025-07-02 10:20:32","80fe4187154257d5fb01684ea91b68b9","102.218.124.242","Mozilla/5.0 (Windows NT 10.0; Win64; x64) AppleWebKit/537.36 (KHTML, like Gecko) Chrome/138.0.0.0 Safari/537.36","WebKit","Chrome","138.0.0.0","Windows","10.0","https://app.prolific.com/","en-GB,en-US;q=0.9,en;q=0.8,es-US;q=0.7,es;q=0.6","65feaaac53eb219f09ad5ea0","683db6dfa200031b80f2a654","6865078828fc658afd079d2e","65feaaac53eb219f09ad5ea0","2025-07-02T10:45:25.021Z","","","","","","ControlQ","","","","","","","","","","","","","","","","","","","","","","","","","","","","","","","","","","","","","","50"
"3622","","<div style=""width:500px;"">
  <p>How would you describe your current emotional state?</p>
  </div>","4","html-slider-response","73","1493551","0.0-10.0-3.6","135","1","2025-07-02 10:20:32","80fe4187154257d5fb01684ea91b68b9","102.218.124.242","Mozilla/5.0 (Windows NT 10.0; Win64; x64) AppleWebKit/537.36 (KHTML, like Gecko) Chrome/138.0.0.0 Safari/537.36","WebKit","Chrome","138.0.0.0","Windows","10.0","https://app.prolific.com/","en-GB,en-US;q=0.9,en;q=0.8,es-US;q=0.7,es;q=0.6","65feaaac53eb219f09ad5ea0","683db6dfa200031b80f2a654","6865078828fc658afd079d2e","65feaaac53eb219f09ad5ea0","2025-07-02T10:45:28.645Z","","","","","","StressQ","","","","","","","","","","","","","","","","","","","","","","","","","","","","","","","","","","","","","","50"
"2270","","<div style=""width:500px;"">
  <p>What best describes how you currently feel?</p>
  </div>","64","html-slider-response","74","1495822","0.0-10.0-4.6","135","1","2025-07-02 10:20:32","80fe4187154257d5fb01684ea91b68b9","102.218.124.242","Mozilla/5.0 (Windows NT 10.0; Win64; x64) AppleWebKit/537.36 (KHTML, like Gecko) Chrome/138.0.0.0 Safari/537.36","WebKit","Chrome","138.0.0.0","Windows","10.0","https://app.prolific.com/","en-GB,en-US;q=0.9,en;q=0.8,es-US;q=0.7,es;q=0.6","65feaaac53eb219f09ad5ea0","683db6dfa200031b80f2a654","6865078828fc658afd079d2e","65feaaac53eb219f09ad5ea0","2025-07-02T10:45:30.916Z","","","","","","MotivationQ","","","","","","","","","","","","","","","","","","","","","","","","","","","","","","","","","","","","","","50"
"","","","","ctl-task-cpt","75","1543554","0.0-10.0-0.7","135","1","2025-07-02 10:20:32","80fe4187154257d5fb01684ea91b68b9","102.218.124.242","Mozilla/5.0 (Windows NT 10.0; Win64; x64) AppleWebKit/537.36 (KHTML, like Gecko) Chrome/138.0.0.0 Safari/537.36","WebKit","Chrome","138.0.0.0","Windows","10.0","https://app.prolific.com/","en-GB,en-US;q=0.9,en;q=0.8,es-US;q=0.7,es;q=0.6","65feaaac53eb219f09ad5ea0","683db6dfa200031b80f2a654","6865078828fc658afd079d2e","65feaaac53eb219f09ad5ea0","2025-07-02T10:46:18.648Z","","","","","","","","","","","","","","","","win-only","0","g1:NW,g2:SE","0.3","8","0","1499454.6","1042.3","6050.3","44707.9","1","4","8","6","2","-8","-8","4","12","0.030303030303030304","1059.9","3000","-1840","[""down"",""right""]","{""num_key_presses"":7,""num_perfect"":3,""num_errors"":0,""num_randdir"":4,""num_randdir_good_moves"":1,""num_whilered"":0,""num_whileblue"":0,""num_blue"":4,""num_good_moves"":4}","[410.57142857142856,413.1808016640799,0.2,410.57142857142856,413.1808016640799,103.5,410.57142857142856,413.1808016640799,207.7,410.57142857142856,413.1808016640799,307.8,425.57142857142856,438.6808016640799,411.1,511.07142857142856,515.1808016640799,514.1,619.0714285714286,617.1808016640799,626.8,662.5714285714286,662.1808016640799,734.6,704.5714285714286,701.1808016640799,840,736.0714285714286,723.6808016640799,950.6,736.0714285714286,723.6808016640799,1057.9,736.0714285714286,723.6808016640799,1164.3,736.0714285714286,723.6808016640799,1269,736.0714285714286,723.6808016640799,1378.3,736.0714285714286,723.6808016640799,1497.8,736.0714285714286,723.6808016640799,1598,736.0714285714286,723.6808016640799,1698.9,736.0714285714286,723.6808016640799,1801.2,736.0714285714286,723.6808016640799,1902.9,736.0714285714286,723.6808016640799,2006.6,736.0714285714286,723.6808016640799,2108.9,736.0714285714286,723.6808016640799,2212.8,736.0714285714286,723.6808016640799,2316.6,736.0714285714286,723.6808016640799,2424.2,736.0714285714286,723.6808016640799,2537.9,736.0714285714286,723.6808016640799,2638.2,736.0714285714286,723.6808016640799,2738.5,736.0714285714286,723.6808016640799,2838.7,736.0714285714286,723.6808016640799,2951.1,736.0714285714286,723.6808016640799,3052,736.0714285714286,723.6808016640799,3153,736.0714285714286,723.6808016640799,3253.5,736.0714285714286,723.6808016640799,3365.5,736.0714285714286,723.6808016640799,3467.7,736.0714285714286,723.6808016640799,3568.1,736.0714285714286,723.6808016640799,3668.4,736.0714285714286,723.6808016640799,3769.5,736.0714285714286,723.6808016640799,3873,736.0714285714286,723.6808016640799,3973.7,736.0714285714286,723.6808016640799,4078.5,736.0714285714286,723.6808016640799,4178.9,736.0714285714286,723.6808016640799,4288.8,736.0714285714286,723.6808016640799,4389.2,736.0714285714286,723.6808016640799,4494.4,736.0714285714286,723.6808016640799,4594.9,736.0714285714286,723.6808016640799,4699.3,736.0714285714286,723.6808016640799,4799.3,736.0714285714286,723.6808016640799,4903.5]","[9925.7,9925.7,3224.4,6202.8,498.5,""smooth"",""down"",""down"",""good_move"",13191.6,3265.7,2562.8,9926,702.9,""smooth"",""down"",""down"",""good_move"",19862.5,6670.6,2875.4,16493.2,493.9,""smooth"",""right"",""right"",""good_move"",25532.9,5670,1819,23026.6,687.3,""oops"",""right"",""right"",""good_move"",28921.1,3387.9,2805.7,25533.2,582.2,""oops"",""right"",""left"",""bad_move"",32439,3517.2,3020.7,28921.8,496.5,""oops"",""right"",""left"",""bad_move"",35796.6,3357.5,2978.3,32439.1,379.2,""oops"",""down"",""left"",""bad_move""]","",""
"6170","","<div style=""width:500px;"">
  <p>What determined the result of this run?</p>
  </div>","43","html-slider-response","76","1549725","0.0-10.0-1.7","135","1","2025-07-02 10:20:32","80fe4187154257d5fb01684ea91b68b9","102.218.124.242","Mozilla/5.0 (Windows NT 10.0; Win64; x64) AppleWebKit/537.36 (KHTML, like Gecko) Chrome/138.0.0.0 Safari/537.36","WebKit","Chrome","138.0.0.0","Windows","10.0","https://app.prolific.com/","en-GB,en-US;q=0.9,en;q=0.8,es-US;q=0.7,es;q=0.6","65feaaac53eb219f09ad5ea0","683db6dfa200031b80f2a654","6865078828fc658afd079d2e","65feaaac53eb219f09ad5ea0","2025-07-02T10:46:24.819Z","","","","","","AttribQ","","","","","","","","","","","","","","","","","","","","","","","","","","","","","","","","","","","","","","50"
"3871","","<div style=""width:500px;"">
  <p>How much control did you have over the ball?</p>
  </div>","34","html-slider-response","77","1553598","0.0-10.0-2.7","135","1","2025-07-02 10:20:32","80fe4187154257d5fb01684ea91b68b9","102.218.124.242","Mozilla/5.0 (Windows NT 10.0; Win64; x64) AppleWebKit/537.36 (KHTML, like Gecko) Chrome/138.0.0.0 Safari/537.36","WebKit","Chrome","138.0.0.0","Windows","10.0","https://app.prolific.com/","en-GB,en-US;q=0.9,en;q=0.8,es-US;q=0.7,es;q=0.6","65feaaac53eb219f09ad5ea0","683db6dfa200031b80f2a654","6865078828fc658afd079d2e","65feaaac53eb219f09ad5ea0","2025-07-02T10:46:28.692Z","","","","","","ControlQ","","","","","","","","","","","","","","","","","","","","","","","","","","","","","","","","","","","","","","50"
"3449","","<div style=""width:500px;"">
  <p>How would you describe your current emotional state?</p>
  </div>","54","html-slider-response","78","1557048","0.0-10.0-3.7","135","1","2025-07-02 10:20:32","80fe4187154257d5fb01684ea91b68b9","102.218.124.242","Mozilla/5.0 (Windows NT 10.0; Win64; x64) AppleWebKit/537.36 (KHTML, like Gecko) Chrome/138.0.0.0 Safari/537.36","WebKit","Chrome","138.0.0.0","Windows","10.0","https://app.prolific.com/","en-GB,en-US;q=0.9,en;q=0.8,es-US;q=0.7,es;q=0.6","65feaaac53eb219f09ad5ea0","683db6dfa200031b80f2a654","6865078828fc658afd079d2e","65feaaac53eb219f09ad5ea0","2025-07-02T10:46:32.142Z","","","","","","StressQ","","","","","","","","","","","","","","","","","","","","","","","","","","","","","","","","","","","","","","50"
"2923","","<div style=""width:500px;"">
  <p>What best describes how you currently feel?</p>
  </div>","56","html-slider-response","79","1559972","0.0-10.0-4.7","135","1","2025-07-02 10:20:32","80fe4187154257d5fb01684ea91b68b9","102.218.124.242","Mozilla/5.0 (Windows NT 10.0; Win64; x64) AppleWebKit/537.36 (KHTML, like Gecko) Chrome/138.0.0.0 Safari/537.36","WebKit","Chrome","138.0.0.0","Windows","10.0","https://app.prolific.com/","en-GB,en-US;q=0.9,en;q=0.8,es-US;q=0.7,es;q=0.6","65feaaac53eb219f09ad5ea0","683db6dfa200031b80f2a654","6865078828fc658afd079d2e","65feaaac53eb219f09ad5ea0","2025-07-02T10:46:35.066Z","","","","","","MotivationQ","","","","","","","","","","","","","","","","","","","","","","","","","","","","","","","","","","","","","","50"
"","","","","ctl-task-cpt","80","1617050","0.0-10.0-0.8","135","1","2025-07-02 10:20:32","80fe4187154257d5fb01684ea91b68b9","102.218.124.242","Mozilla/5.0 (Windows NT 10.0; Win64; x64) AppleWebKit/537.36 (KHTML, like Gecko) Chrome/138.0.0.0 Safari/537.36","WebKit","Chrome","138.0.0.0","Windows","10.0","https://app.prolific.com/","en-GB,en-US;q=0.9,en;q=0.8,es-US;q=0.7,es;q=0.6","65feaaac53eb219f09ad5ea0","683db6dfa200031b80f2a654","6865078828fc658afd079d2e","65feaaac53eb219f09ad5ea0","2025-07-02T10:47:32.144Z","","","","","","","","","","","","","","","","win-only","2","g1:SE,g2:NW","0.4","9","0","1563604.8","2959.6","7967.9","54051.2","1","4","4","6","2","4","4","8","4","0.06060606060606061","1343","3000","85","[""left"",""up""]","{""num_key_presses"":12,""num_perfect"":6,""num_errors"":0,""num_randdir"":6,""num_randdir_good_moves"":3,""num_whilered"":0,""num_whileblue"":0,""num_blue"":3,""num_good_moves"":9}","[406.07142857142856,416.1808016640799,0.3,406.07142857142856,416.1808016640799,109.8,406.07142857142856,416.1808016640799,211.1,406.07142857142856,416.1808016640799,316.4,524.5714285714286,501.6808016640799,423.5,548.5714285714286,527.1808016640799,525.7,377.57142857142856,410.1808016640799,639.7,247.07142857142856,296.1808016640799,746,176.57142857142856,222.68080166407992,846.7,149.57142857142856,189.68080166407992,951.4,116.57142857142857,149.18080166407992,1061.1,88.07142857142857,125.18080166407994,1162.3,71.57142857142857,101.18080166407994,1266.4,68.57142857142857,101.18080166407994,1381.4,68.57142857142857,101.18080166407994,1495.7,68.57142857142857,101.18080166407994,1596.3,68.57142857142857,101.18080166407994,1702.4,68.57142857142857,101.18080166407994,1810.5,68.57142857142857,101.18080166407994,1910.9,68.57142857142857,101.18080166407994,2016.1,68.57142857142857,101.18080166407994,2119.5,68.57142857142857,101.18080166407994,2232.1,68.57142857142857,101.18080166407994,2339,68.57142857142857,101.18080166407994,2450.9,68.57142857142857,101.18080166407994,2564.5,68.57142857142857,101.18080166407994,2680.2,68.57142857142857,101.18080166407994,2782,68.57142857142857,101.18080166407994,2900.4,68.57142857142857,101.18080166407994,3003.6,68.57142857142857,101.18080166407994,3106.1,68.57142857142857,101.18080166407994,3215.8,68.57142857142857,101.18080166407994,3316.9,68.57142857142857,101.18080166407994,3419.6,68.57142857142857,101.18080166407994,3519.9,68.57142857142857,101.18080166407994,3631.3,68.57142857142857,101.18080166407994,3736.7,68.57142857142857,101.18080166407994,3840.7,68.57142857142857,101.18080166407994,3941.5,68.57142857142857,101.18080166407994,4050.4,68.57142857142857,101.18080166407994,4156.1,68.57142857142857,101.18080166407994,4271.3,68.57142857142857,101.18080166407994,4375.8,68.57142857142857,101.18080166407994,4481.1,68.57142857142857,101.18080166407994,4581.6,68.57142857142857,101.18080166407994,4682.8,68.57142857142857,101.18080166407994,4791.4,68.57142857142857,101.18080166407994,4901.7]","[7939,7939,2712.7,4748.3,478,""smooth"",""up"",""up"",""good_move"",11069.2,3129.9,2545,7939.4,584.9,""smooth"",""left"",""left"",""good_move"",13747,2677.4,2202,11069.6,475.4,""oops"",""up"",""down"",""bad_move"",17036.8,3289.3,2805.6,13747.5,483.7,""smooth"",""left"",""left"",""good_move"",19374.6,2337.6,1877.7,17037,459.9,""smooth"",""up"",""up"",""good_move"",21977.1,2602.2,2143.6,19374.9,458.6,""oops"",""up"",""up"",""good_move"",24977.9,3000.5,2604.7,21977.4,395.8,""oops"",""left"",""down"",""bad_move"",32754.5,7776.3,3238,28980.6,535.9,""oops"",""up"",""left"",""good_move"",35944.5,3189.9,2731.4,32754.7,458.4,""oops"",""up"",""up"",""good_move"",39266.5,3321.9,2786,35944.7,535.9,""oops"",""up"",""down"",""bad_move"",42403.4,3136.6,2689.4,39266.8,447.2,""smooth"",""up"",""up"",""good_move"",45925,3521.4,3086.9,42403.6,434.5,""smooth"",""up"",""up"",""good_move""]","",""
"6169","","<div style=""width:500px;"">
  <p>What determined the result of this run?</p>
  </div>","60","html-slider-response","81","1623221","0.0-10.0-1.8","135","1","2025-07-02 10:20:32","80fe4187154257d5fb01684ea91b68b9","102.218.124.242","Mozilla/5.0 (Windows NT 10.0; Win64; x64) AppleWebKit/537.36 (KHTML, like Gecko) Chrome/138.0.0.0 Safari/537.36","WebKit","Chrome","138.0.0.0","Windows","10.0","https://app.prolific.com/","en-GB,en-US;q=0.9,en;q=0.8,es-US;q=0.7,es;q=0.6","65feaaac53eb219f09ad5ea0","683db6dfa200031b80f2a654","6865078828fc658afd079d2e","65feaaac53eb219f09ad5ea0","2025-07-02T10:47:38.315Z","","","","","","AttribQ","","","","","","","","","","","","","","","","","","","","","","","","","","","","","","","","","","","","","","50"
"2817","","<div style=""width:500px;"">
  <p>How much control did you have over the ball?</p>
  </div>","63","html-slider-response","82","1626040","0.0-10.0-2.8","135","1","2025-07-02 10:20:32","80fe4187154257d5fb01684ea91b68b9","102.218.124.242","Mozilla/5.0 (Windows NT 10.0; Win64; x64) AppleWebKit/537.36 (KHTML, like Gecko) Chrome/138.0.0.0 Safari/537.36","WebKit","Chrome","138.0.0.0","Windows","10.0","https://app.prolific.com/","en-GB,en-US;q=0.9,en;q=0.8,es-US;q=0.7,es;q=0.6","65feaaac53eb219f09ad5ea0","683db6dfa200031b80f2a654","6865078828fc658afd079d2e","65feaaac53eb219f09ad5ea0","2025-07-02T10:47:41.134Z","","","","","","ControlQ","","","","","","","","","","","","","","","","","","","","","","","","","","","","","","","","","","","","","","50"
"9518","","<div style=""width:500px;"">
  <p>How would you describe your current emotional state?</p>
  </div>","41","html-slider-response","83","1635559","0.0-10.0-3.8","135","1","2025-07-02 10:20:32","80fe4187154257d5fb01684ea91b68b9","102.218.124.242","Mozilla/5.0 (Windows NT 10.0; Win64; x64) AppleWebKit/537.36 (KHTML, like Gecko) Chrome/138.0.0.0 Safari/537.36","WebKit","Chrome","138.0.0.0","Windows","10.0","https://app.prolific.com/","en-GB,en-US;q=0.9,en;q=0.8,es-US;q=0.7,es;q=0.6","65feaaac53eb219f09ad5ea0","683db6dfa200031b80f2a654","6865078828fc658afd079d2e","65feaaac53eb219f09ad5ea0","2025-07-02T10:47:50.653Z","","","","","","StressQ","","","","","","","","","","","","","","","","","","","","","","","","","","","","","","","","","","","","","","50"
"3012","","<div style=""width:500px;"">
  <p>What best describes how you currently feel?</p>
  </div>","63","html-slider-response","84","1638573","0.0-10.0-4.8","135","1","2025-07-02 10:20:32","80fe4187154257d5fb01684ea91b68b9","102.218.124.242","Mozilla/5.0 (Windows NT 10.0; Win64; x64) AppleWebKit/537.36 (KHTML, like Gecko) Chrome/138.0.0.0 Safari/537.36","WebKit","Chrome","138.0.0.0","Windows","10.0","https://app.prolific.com/","en-GB,en-US;q=0.9,en;q=0.8,es-US;q=0.7,es;q=0.6","65feaaac53eb219f09ad5ea0","683db6dfa200031b80f2a654","6865078828fc658afd079d2e","65feaaac53eb219f09ad5ea0","2025-07-02T10:47:53.667Z","","","","","","MotivationQ","","","","","","","","","","","","","","","","","","","","","","","","","","","","","","","","","","","","","","50"
