"rt","response_timestamp","stimulus","response","trial_type","trial_index","time_elapsed","internal_node_id","run_id","condition","recorded_at","source_code_version","ip","user_agent","device","browser","browser_version","platform","platform_version","referer","accept_language","PROLIFIC_PID","STUDY_ID","SESSION_ID","prolific_id","realtime","view_history","question_order","consent","success","question_id","eventType","responses","item_order","radio_event_ids","radio_event_times","key_event_times","mouse_event_times","straightlining","zigzagging","honeypot","which_type","canvas_config","goals_layout","control_level","trial_number","tutorial_trial_number","trial_start_time","phase1_start_time","phase2_start_time","phase3_start_time","goal_1_value","goal_1_distance","goal_2_value","goal_2_distance","goal_selected","outcome","outcome_total","participant_final_score","participant_initial_score","participant_final_score_prop","goal_choice_rt","allocated_time","allocated_time_remaining","goal_direction","counts","mouse_movements","key_presses","correct","slider_start"
"7130","1751451548163","<p style='font-size:40px;line-height:1.25'><strong>Welcome to the experiment!</strong></p><p style='font-size:1.1em;line-height:1.25'>Thank you for your interest in our experiment! Before you begin, it is important that we obtain your informed consent to participate in the study.</p><p style='font-size:1.1em;line-height:1.25'>On the next screen will be an <strong>information sheet</strong> for you to read. To participate in the study we need you to read this information sheet and the following consent form carefully. If you agree with all the statements, please click the <strong>I agree</strong> button.</p><p style='font-size:1.1em;line-height:1.25'>Press <strong>Next</strong> to read the information sheet.</p>","0","custom-html-button-response","0","7133","0.0-0.0","74","1","2025-07-02 10:19:02","80fe4187154257d5fb01684ea91b68b9","86.162.192.186","Mozilla/5.0 (Windows NT 10.0; Win64; x64) AppleWebKit/537.36 (KHTML, like Gecko) Chrome/138.0.0.0 Safari/537.36 Edg/138.0.0.0","WebKit","Edge","138.0.0.0","Windows","10.0","https://app.prolific.com/","en-US,en;q=0.9,en-GB;q=0.8","661d1672f01169fe41f1f001","683db6dfa200031b80f2a654","68650784814549a85cf6fca9","661d1672f01169fe41f1f001","2025-07-02T10:19:08.165Z","","","","","","","","","","","","","","","","","","","","","","","","","","","","","","","","","","","","","","","","","","","",""
"13726","","","","instructions","1","20861","0.0-1.0","74","1","2025-07-02 10:19:02","80fe4187154257d5fb01684ea91b68b9","86.162.192.186","Mozilla/5.0 (Windows NT 10.0; Win64; x64) AppleWebKit/537.36 (KHTML, like Gecko) Chrome/138.0.0.0 Safari/537.36 Edg/138.0.0.0","WebKit","Edge","138.0.0.0","Windows","10.0","https://app.prolific.com/","en-US,en;q=0.9,en-GB;q=0.8","661d1672f01169fe41f1f001","683db6dfa200031b80f2a654","68650784814549a85cf6fca9","661d1672f01169fe41f1f001","","[{""page_index"":0,""viewing_time"":10883},{""page_index"":1,""viewing_time"":2842}]","","","","","","","","","","","","","","","","","","","","","","","","","","","","","","","","","","","","","","","","","","",""
"5760","","","{""Q0"":"""",""Q1"":"""",""Q2"":"""",""Q3"":"""",""Q4"":"""",""Q5"":"""",""Q6"":""I agree""}","survey-multi-choice","2","26625","0.0-2.0","74","1","2025-07-02 10:19:02","80fe4187154257d5fb01684ea91b68b9","86.162.192.186","Mozilla/5.0 (Windows NT 10.0; Win64; x64) AppleWebKit/537.36 (KHTML, like Gecko) Chrome/138.0.0.0 Safari/537.36 Edg/138.0.0.0","WebKit","Edge","138.0.0.0","Windows","10.0","https://app.prolific.com/","en-US,en;q=0.9,en-GB;q=0.8","661d1672f01169fe41f1f001","683db6dfa200031b80f2a654","68650784814549a85cf6fca9","661d1672f01169fe41f1f001","","","[0,1,2,3,4,5,6]","true","","","","","","","","","","","","","","","","","","","","","","","","","","","","","","","","","","","","","","","","",""
"8173","","","","fullscreen","3","35804","0.0-4.0","74","1","2025-07-02 10:19:02","80fe4187154257d5fb01684ea91b68b9","86.162.192.186","Mozilla/5.0 (Windows NT 10.0; Win64; x64) AppleWebKit/537.36 (KHTML, like Gecko) Chrome/138.0.0.0 Safari/537.36 Edg/138.0.0.0","WebKit","Edge","138.0.0.0","Windows","10.0","https://app.prolific.com/","en-US,en;q=0.9,en-GB;q=0.8","661d1672f01169fe41f1f001","683db6dfa200031b80f2a654","68650784814549a85cf6fca9","661d1672f01169fe41f1f001","","","","","true","","","","","","","","","","","","","","","","","","","","","","","","","","","","","","","","","","","","","","","",""
"10676","1751451587513"," <p style='font-size:1.1em;line-height:1.25'>Thank you for completing the consent form and closing all other tabs.</p><p style='font-size:1.1em;line-height:1.25'>We will now invite you to fill in some demographic information and questionnaires, before starting the game.<br>This will take about 5 minutes.<br></p><p style='font-size:1.1em;line-height:1.25'>Press the <strong>Next</strong> button to continue.</p>","0","custom-html-button-response","4","46481","0.0-5.0","74","1","2025-07-02 10:19:02","80fe4187154257d5fb01684ea91b68b9","86.162.192.186","Mozilla/5.0 (Windows NT 10.0; Win64; x64) AppleWebKit/537.36 (KHTML, like Gecko) Chrome/138.0.0.0 Safari/537.36 Edg/138.0.0.0","WebKit","Edge","138.0.0.0","Windows","10.0","https://app.prolific.com/","en-US,en;q=0.9,en-GB;q=0.8","661d1672f01169fe41f1f001","683db6dfa200031b80f2a654","68650784814549a85cf6fca9","661d1672f01169fe41f1f001","2025-07-02T10:19:47.514Z","","","","","","","","","","","","","","","","","","","","","","","","","","","","","","","","","","","","","","","","","","","",""
"3559","","","{""age"":""38""}","survey-text","5","50047","0.0-6.0-0.0","74","1","2025-07-02 10:19:02","80fe4187154257d5fb01684ea91b68b9","86.162.192.186","Mozilla/5.0 (Windows NT 10.0; Win64; x64) AppleWebKit/537.36 (KHTML, like Gecko) Chrome/138.0.0.0 Safari/537.36 Edg/138.0.0.0","WebKit","Edge","138.0.0.0","Windows","10.0","https://app.prolific.com/","en-US,en;q=0.9,en-GB;q=0.8","661d1672f01169fe41f1f001","683db6dfa200031b80f2a654","68650784814549a85cf6fca9","661d1672f01169fe41f1f001","","","","","","0","demographics","","","","","","","","","","","","","","","","","","","","","","","","","","","","","","","","","","","","","",""
"4785","","","{""gender_identity"":""male/man""}","survey-multi-choice","6","54833","0.0-6.0-1.0","74","1","2025-07-02 10:19:02","80fe4187154257d5fb01684ea91b68b9","86.162.192.186","Mozilla/5.0 (Windows NT 10.0; Win64; x64) AppleWebKit/537.36 (KHTML, like Gecko) Chrome/138.0.0.0 Safari/537.36 Edg/138.0.0.0","WebKit","Edge","138.0.0.0","Windows","10.0","https://app.prolific.com/","en-US,en;q=0.9,en-GB;q=0.8","661d1672f01169fe41f1f001","683db6dfa200031b80f2a654","68650784814549a85cf6fca9","661d1672f01169fe41f1f001","","","[0]","","","1","demographics","","","","","","","","","","","","","","","","","","","","","","","","","","","","","","","","","","","","","",""
"5164","","","{""assigned_sex"":""male""}","survey-multi-choice","7","59999","0.0-6.0-2.0","74","1","2025-07-02 10:19:02","80fe4187154257d5fb01684ea91b68b9","86.162.192.186","Mozilla/5.0 (Windows NT 10.0; Win64; x64) AppleWebKit/537.36 (KHTML, like Gecko) Chrome/138.0.0.0 Safari/537.36 Edg/138.0.0.0","WebKit","Edge","138.0.0.0","Windows","10.0","https://app.prolific.com/","en-US,en;q=0.9,en-GB;q=0.8","661d1672f01169fe41f1f001","683db6dfa200031b80f2a654","68650784814549a85cf6fca9","661d1672f01169fe41f1f001","","","[0]","","","2","demographics","","","","","","","","","","","","","","","","","","","","","","","","","","","","","","","","","","","","","",""
"7686","","","{""menstrual_cycle"":""No""}","survey-multi-choice","8","67687","0.0-6.0-3.0","74","1","2025-07-02 10:19:02","80fe4187154257d5fb01684ea91b68b9","86.162.192.186","Mozilla/5.0 (Windows NT 10.0; Win64; x64) AppleWebKit/537.36 (KHTML, like Gecko) Chrome/138.0.0.0 Safari/537.36 Edg/138.0.0.0","WebKit","Edge","138.0.0.0","Windows","10.0","https://app.prolific.com/","en-US,en;q=0.9,en-GB;q=0.8","661d1672f01169fe41f1f001","683db6dfa200031b80f2a654","68650784814549a85cf6fca9","661d1672f01169fe41f1f001","","","[0]","","","4","demographics","","","","","","","","","","","","","","","","","","","","","","","","","","","","","","","","","","","","","",""
"12705","","","{""education"":""Vocational Qualifications (e.g. City & Guilds)""}","survey-multi-choice","9","80395","0.0-6.0-4.0","74","1","2025-07-02 10:19:02","80fe4187154257d5fb01684ea91b68b9","86.162.192.186","Mozilla/5.0 (Windows NT 10.0; Win64; x64) AppleWebKit/537.36 (KHTML, like Gecko) Chrome/138.0.0.0 Safari/537.36 Edg/138.0.0.0","WebKit","Edge","138.0.0.0","Windows","10.0","https://app.prolific.com/","en-US,en;q=0.9,en-GB;q=0.8","661d1672f01169fe41f1f001","683db6dfa200031b80f2a654","68650784814549a85cf6fca9","661d1672f01169fe41f1f001","","","[0]","","","5","demographics","","","","","","","","","","","","","","","","","","","","","","","","","","","","","","","","","","","","","",""
"6994","","","{""education"":""GCSE/Standard Grades""}","survey-multi-choice","10","87391","0.0-6.0-5.0","74","1","2025-07-02 10:19:02","80fe4187154257d5fb01684ea91b68b9","86.162.192.186","Mozilla/5.0 (Windows NT 10.0; Win64; x64) AppleWebKit/537.36 (KHTML, like Gecko) Chrome/138.0.0.0 Safari/537.36 Edg/138.0.0.0","WebKit","Edge","138.0.0.0","Windows","10.0","https://app.prolific.com/","en-US,en;q=0.9,en-GB;q=0.8","661d1672f01169fe41f1f001","683db6dfa200031b80f2a654","68650784814549a85cf6fca9","661d1672f01169fe41f1f001","2025-07-02T10:20:28.423Z","","[0]","","","6","demographics","","","","","","","","","","","","","","","","","","","","","","","","","","","","","","","","","","","","","",""
"14890","","","{""mental_health_condition"":""no"",""mental_health_treatment"":""no"",""psychiatric_medication"":""no""}","survey-text","11","102286","0.0-7.0-0.0","74","1","2025-07-02 10:19:02","80fe4187154257d5fb01684ea91b68b9","86.162.192.186","Mozilla/5.0 (Windows NT 10.0; Win64; x64) AppleWebKit/537.36 (KHTML, like Gecko) Chrome/138.0.0.0 Safari/537.36 Edg/138.0.0.0","WebKit","Edge","138.0.0.0","Windows","10.0","https://app.prolific.com/","en-US,en;q=0.9,en-GB;q=0.8","661d1672f01169fe41f1f001","683db6dfa200031b80f2a654","68650784814549a85cf6fca9","661d1672f01169fe41f1f001","2025-07-02T10:20:43.318Z","","","","","1","mental_health","","","","","","","","","","","","","","","","","","","","","","","","","","","","","","","","","","","","","",""
"6488","","","{""depression_history"":[""No""]}","survey-multi-select","12","108779","0.0-7.0-1.0","74","1","2025-07-02 10:19:02","80fe4187154257d5fb01684ea91b68b9","86.162.192.186","Mozilla/5.0 (Windows NT 10.0; Win64; x64) AppleWebKit/537.36 (KHTML, like Gecko) Chrome/138.0.0.0 Safari/537.36 Edg/138.0.0.0","WebKit","Edge","138.0.0.0","Windows","10.0","https://app.prolific.com/","en-US,en;q=0.9,en-GB;q=0.8","661d1672f01169fe41f1f001","683db6dfa200031b80f2a654","68650784814549a85cf6fca9","661d1672f01169fe41f1f001","","","[0]","","","","mental_health","","","","","","","","","","","","","","","","","","","","","","","","","","","","","","","","","","","","","",""
"76669.09999999404","","","","survey-template","13","185454","0.0-7.0-3.0","74","1","2025-07-02 10:19:02","80fe4187154257d5fb01684ea91b68b9","86.162.192.186","Mozilla/5.0 (Windows NT 10.0; Win64; x64) AppleWebKit/537.36 (KHTML, like Gecko) Chrome/138.0.0.0 Safari/537.36 Edg/138.0.0.0","WebKit","Edge","138.0.0.0","Windows","10.0","https://app.prolific.com/","en-US,en;q=0.9,en-GB;q=0.8","661d1672f01169fe41f1f001","683db6dfa200031b80f2a654","68650784814549a85cf6fca9","661d1672f01169fe41f1f001","2025-07-02T10:22:06.486Z","","","","","","ius","{""Q01"":""1"",""Q02"":""3"",""Q03"":""1"",""Q04"":""2"",""Q05"":""1"",""Q06"":""2"",""Q07"":""2"",""Q08"":""0"",""Q09"":""2"",""Q10"":""1"",""Q11"":""1"",""Q12"":""3"",""Q13"":""1""}","[0,1,2,3,4,5,6,7,8,9,10,11,12]","[""Q01"",""Q02"",""Q03"",""Q04"",""Q05"",""Q06"",""Q07"",""Q08"",""Q09"",""Q10"",""Q11"",""Q12"",""Q13""]","[17544.5,22126.19999998808,26149.09999999404,33464,37418.69999998808,43898.39999997616,47281,51879.5,57275.89999997616,62180.29999998212,68591.19999998808,72346.69999998808,75484.5]","[]","[17544.5,21093.69999998808,22126.19999998808,25127.59999999404,26149.09999999404,32870.39999997616,33464,37418.69999998808,42740.69999998808,43898.39999997616,47281,51879.5,57275.89999997616,62180.29999998212,67338.09999999404,68591.19999998808,72346.69999998808,75484.5,76664.79999998212]","0.46153846153846156","0.3333333333333333","0","","","","","","","","","","","","","","","","","","","","","","","","","","","","",""
"3612","1751451730099","<p style='font-size:1.1em;line-height:1.25'>In the following, we will ask you a few questions relating to your experiences over the past month.<br></p><p style='font-size:1.1em;line-height:1.25'>Press the <strong>Next</strong> button to continue.</p>","0","custom-html-button-response","14","189068","0.0-7.0-4.0","74","1","2025-07-02 10:19:02","80fe4187154257d5fb01684ea91b68b9","86.162.192.186","Mozilla/5.0 (Windows NT 10.0; Win64; x64) AppleWebKit/537.36 (KHTML, like Gecko) Chrome/138.0.0.0 Safari/537.36 Edg/138.0.0.0","WebKit","Edge","138.0.0.0","Windows","10.0","https://app.prolific.com/","en-US,en;q=0.9,en-GB;q=0.8","661d1672f01169fe41f1f001","683db6dfa200031b80f2a654","68650784814549a85cf6fca9","661d1672f01169fe41f1f001","2025-07-02T10:22:10.100Z","","","","","","","","","","","","","","","","","","","","","","","","","","","","","","","","","","","","","","","","","","","",""
"96416.59999999404","","","","survey-template","15","285489","0.0-7.0-5.0","74","1","2025-07-02 10:19:02","80fe4187154257d5fb01684ea91b68b9","86.162.192.186","Mozilla/5.0 (Windows NT 10.0; Win64; x64) AppleWebKit/537.36 (KHTML, like Gecko) Chrome/138.0.0.0 Safari/537.36 Edg/138.0.0.0","WebKit","Edge","138.0.0.0","Windows","10.0","https://app.prolific.com/","en-US,en;q=0.9,en-GB;q=0.8","661d1672f01169fe41f1f001","683db6dfa200031b80f2a654","68650784814549a85cf6fca9","661d1672f01169fe41f1f001","2025-07-02T10:23:46.521Z","","","","","","pss","{""Q01"":""1"",""Q02"":""0"",""Q03"":""1"",""Q04"":""1"",""Q05"":""3"",""Q06"":""0"",""Q07"":""1"",""Q08"":""1"",""Q09"":""1"",""Q10"":""0""}","[0,1,2,3,4,5,6,7,8,9]","[""Q01"",""Q02"",""Q03"",""Q04"",""Q05"",""Q06"",""Q07"",""Q08"",""Q09"",""Q10""]","[19709.69999998808,26478.19999998808,29097.40000000596,33546.5,51884.69999998808,60795.09999999404,66226.29999998212,80364,90247.69999998808,95382]","[]","[0,19709.69999998808,24428.90000000596,26478.19999998808,29097.40000000596,33546.5,51000.90000000596,51884.69999998808,58717,60795.09999999404,64936.19999998808,65485,66226.29999998212,80364,90247.69999998808,94661.19999998808,95382,96413]","0.4","0.4444444444444444","0","","","","","","","","","","","","","","","","","","","","","","","","","","","","",""
"2804","1751451829327","<p style='font-size:1.1em;line-height:1.25'>Thank you for your answers! Now we will ask you a few more questions relating to your feelings in the last 24 hours.<br></p><p style='font-size:1.1em;line-height:1.25'>Press the <strong>Next</strong> button to continue.</p>","0","custom-html-button-response","16","288295","0.0-7.0-6.0","74","1","2025-07-02 10:19:02","80fe4187154257d5fb01684ea91b68b9","86.162.192.186","Mozilla/5.0 (Windows NT 10.0; Win64; x64) AppleWebKit/537.36 (KHTML, like Gecko) Chrome/138.0.0.0 Safari/537.36 Edg/138.0.0.0","WebKit","Edge","138.0.0.0","Windows","10.0","https://app.prolific.com/","en-US,en;q=0.9,en-GB;q=0.8","661d1672f01169fe41f1f001","683db6dfa200031b80f2a654","68650784814549a85cf6fca9","661d1672f01169fe41f1f001","2025-07-02T10:23:49.327Z","","","","","","","","","","","","","","","","","","","","","","","","","","","","","","","","","","","","","","","","","","","",""
"68917.5","","","","survey-template","17","357216","0.0-7.0-7.0","74","1","2025-07-02 10:19:02","80fe4187154257d5fb01684ea91b68b9","86.162.192.186","Mozilla/5.0 (Windows NT 10.0; Win64; x64) AppleWebKit/537.36 (KHTML, like Gecko) Chrome/138.0.0.0 Safari/537.36 Edg/138.0.0.0","WebKit","Edge","138.0.0.0","Windows","10.0","https://app.prolific.com/","en-US,en;q=0.9,en-GB;q=0.8","661d1672f01169fe41f1f001","683db6dfa200031b80f2a654","68650784814549a85cf6fca9","661d1672f01169fe41f1f001","2025-07-02T10:24:58.249Z","","","","","","drsp","{""Q01"":""0"",""Q02"":""0"",""Q03"":""0"",""Q04"":""0"",""Q05"":""0"",""Q06"":""0"",""Q07"":""0"",""Q08"":""0"",""Q09"":""0"",""Q10"":""0"",""Q11"":""0"",""Q12"":""0"",""Q13"":""1"",""Q14"":""0"",""Q15"":""2"",""Q16"":""0"",""Q17"":""0"",""Q18"":""0"",""Q19"":""0"",""Q20"":""0"",""Q21"":""0""}","[0,1,2,3,4,5,6,7,8,9,10,11,12,13,14,15,16,17,18,19,20]","[""Q01"",""Q02"",""Q03"",""Q04"",""Q05"",""Q06"",""Q07"",""Q08"",""Q09"",""Q10"",""Q11"",""Q12"",""Q13"",""Q14"",""Q15"",""Q16"",""Q17"",""Q18"",""Q19"",""Q20"",""Q21""]","[8743.90000000596,11370.800000011921,12341.40000000596,13887.09999999404,15323.800000011921,16438.90000000596,17763,19507,22321.59999999404,23944.80000001192,25380.5,27484.90000000596,30750.5,33167,38177.80000001192,40345,41450.90000000596,51644.5,61602.5,63962.69999998808,67026.69999998808]","[]","[0.09999999403953552,7947.300000011921,8743.90000000596,11370.800000011921,12341.40000000596,13887.09999999404,15323.800000011921,16438.90000000596,17763,19507,22321.59999999404,23944.80000001192,25380.5,27484.90000000596,30750.5,33167,38177.80000001192,40345,41450.90000000596,51644.5,61602.5,63962.69999998808,67026.69999998808,68911.59999999404]","0.9047619047619048","0.1","0","","","","","","","","","","","","","","","","","","","","","","","","","","","","",""
"10091.699999988079","","","","survey-template","18","367311","0.0-7.0-8.0","74","1","2025-07-02 10:19:02","80fe4187154257d5fb01684ea91b68b9","86.162.192.186","Mozilla/5.0 (Windows NT 10.0; Win64; x64) AppleWebKit/537.36 (KHTML, like Gecko) Chrome/138.0.0.0 Safari/537.36 Edg/138.0.0.0","WebKit","Edge","138.0.0.0","Windows","10.0","https://app.prolific.com/","en-US,en;q=0.9,en-GB;q=0.8","661d1672f01169fe41f1f001","683db6dfa200031b80f2a654","68650784814549a85cf6fca9","661d1672f01169fe41f1f001","2025-07-02T10:25:08.343Z","","","","","","stress","{""Q01"":""0"",""Q02"":""5"",""Q03"":""0""}","[0,1,2]","[""Q01"",""Q02"",""Q03""]","[5450.300000011921,6275.300000011921,8959.5]","[]","[4123.199999988079,5450.300000011921,6275.300000011921,8959.5,10089.699999988079]","1","0","0","","","","","","","","","","","","","","","","","","","","","","","","","","","","",""
"74812","","","","instructions","19","442125","0.0-8.0-0.0","74","1","2025-07-02 10:19:02","80fe4187154257d5fb01684ea91b68b9","86.162.192.186","Mozilla/5.0 (Windows NT 10.0; Win64; x64) AppleWebKit/537.36 (KHTML, like Gecko) Chrome/138.0.0.0 Safari/537.36 Edg/138.0.0.0","WebKit","Edge","138.0.0.0","Windows","10.0","https://app.prolific.com/","en-US,en;q=0.9,en-GB;q=0.8","661d1672f01169fe41f1f001","683db6dfa200031b80f2a654","68650784814549a85cf6fca9","661d1672f01169fe41f1f001","","[{""page_index"":0,""viewing_time"":17899},{""page_index"":1,""viewing_time"":20733},{""page_index"":2,""viewing_time"":8940},{""page_index"":3,""viewing_time"":27240}]","","","","","","","","","","","","","","","","","","","","","","","","","","","","","","","","","","","","","","","","","","",""
"","","","","ctl-task-cpt","20","481090","0.0-8.0-1.0","74","1","2025-07-02 10:19:02","80fe4187154257d5fb01684ea91b68b9","86.162.192.186","Mozilla/5.0 (Windows NT 10.0; Win64; x64) AppleWebKit/537.36 (KHTML, like Gecko) Chrome/138.0.0.0 Safari/537.36 Edg/138.0.0.0","WebKit","Edge","138.0.0.0","Windows","10.0","https://app.prolific.com/","en-US,en;q=0.9,en-GB;q=0.8","661d1672f01169fe41f1f001","683db6dfa200031b80f2a654","68650784814549a85cf6fca9","661d1672f01169fe41f1f001","","","","","","","","","","","","","","","","","win-only","0","g1:NW,g2:SE","1","0","1","443385.9","3016.1","7016.7","35958.2","2","4","4","6","2","4","2","2","0","0.015151515151515152","3246.5","4000","1590","[""down"",""right""]","{""num_key_presses"":9,""num_perfect"":7,""num_errors"":2,""num_randdir"":0,""num_randdir_good_moves"":0,""num_whilered"":0,""num_whileblue"":1,""num_blue"":2,""num_good_moves"":7}","[614.8294490269252,609.9388392857143,0.4,614.8294490269252,609.9388392857143,105.3,614.8294490269252,609.9388392857143,209.8,614.8294490269252,609.9388392857143,310.5,614.8294490269252,609.9388392857143,414.7,614.8294490269252,609.9388392857143,515.7,614.8294490269252,609.9388392857143,620.1,614.8294490269252,609.9388392857143,725,652.3294490269252,627.9388392857143,825.2,626.8294490269252,623.4388392857143,929.7,556.3294490269252,560.4388392857143,1029.9,553.3294490269252,543.9388392857143,1129.9,551.8294490269252,542.4388392857143,1235.3,551.8294490269252,542.4388392857143,1340.6,548.8294490269252,540.9388392857143,1445.7,547.3294490269252,539.4388392857143,1549.7,547.3294490269252,539.4388392857143,1650.5,547.3294490269252,539.4388392857143,1754.8,547.3294490269252,539.4388392857143,1859.6,556.3294490269252,539.4388392857143,1960.5,737.8294490269252,587.4388392857143,2064.7,833.8294490269252,653.4388392857143,2164.7,851.8294490269252,689.4388392857143,2269.3,934.3294490269252,740.4388392857143,2370.3,949.3294490269252,795.9388392857143,2474.1,952.3294490269252,861.9388392857143,2580.3,989.8294490269252,983.4388392857143,2684.2,1019.8294490269252,1013.4388392857143,2851.9,1049.8294490269252,1026.9388392857143,2954.8,1118.8294490269252,1046.4388392857143,3055.1,1118.8294490269252,1046.4388392857143,3160.6,1118.8294490269252,1046.4388392857143,3264.4,1118.8294490269252,1046.4388392857143,3369.4,1118.8294490269252,1046.4388392857143,3470.4,1118.8294490269252,1046.4388392857143,3571,1118.8294490269252,1046.4388392857143,3675.9,1087.3294490269252,1011.9388392857143,3780.3,922.3294490269252,902.4388392857143,3880.5,922.3294490269252,902.4388392857143,3984.3]","[1017.7,1017.7,1000,0,17.7,""smooth"",""right"",""right"",""good_move"",1930.2,912.2,1658.6,1018,-746.4,""error"",""-"",""-"",""no_move"",6152.9,4222.3,2838.7,2934.4,379.8,""smooth"",""right"",""right"",""good_move"",9431.2,3278.2,2691.4,6153,586.8,""smooth"",""right"",""right"",""good_move"",12729.2,3297.8,2892.8,9431.5,404.9,""smooth"",""down"",""down"",""good_move"",15762.5,3033.1,2587.7,12729.4,445.4,""smooth"",""down"",""down"",""good_move"",19079,3316.3,3016.2,15762.7,300.1,""while_blue"",""down"",""up"",""bad_move"",22286.1,3206.7,2736.8,19079.4,469.9,""smooth"",""down"",""down"",""good_move"",28833.9,6547.5,2080.7,26363,390.2,""smooth"",""down"",""down"",""good_move""]","",""
"14755","","","","instructions","21","495845","0.0-8.0-2.0","74","1","2025-07-02 10:19:02","80fe4187154257d5fb01684ea91b68b9","86.162.192.186","Mozilla/5.0 (Windows NT 10.0; Win64; x64) AppleWebKit/537.36 (KHTML, like Gecko) Chrome/138.0.0.0 Safari/537.36 Edg/138.0.0.0","WebKit","Edge","138.0.0.0","Windows","10.0","https://app.prolific.com/","en-US,en;q=0.9,en-GB;q=0.8","661d1672f01169fe41f1f001","683db6dfa200031b80f2a654","68650784814549a85cf6fca9","661d1672f01169fe41f1f001","","[{""page_index"":0,""viewing_time"":14755}]","","","","","","","","","","","","","","","","","","","","","","","","","","","","","","","","","","","","","","","","","","",""
"","","","","ctl-task-cpt","22","538229","0.0-8.0-3.0","74","1","2025-07-02 10:19:02","80fe4187154257d5fb01684ea91b68b9","86.162.192.186","Mozilla/5.0 (Windows NT 10.0; Win64; x64) AppleWebKit/537.36 (KHTML, like Gecko) Chrome/138.0.0.0 Safari/537.36 Edg/138.0.0.0","WebKit","Edge","138.0.0.0","Windows","10.0","https://app.prolific.com/","en-US,en;q=0.9,en-GB;q=0.8","661d1672f01169fe41f1f001","683db6dfa200031b80f2a654","68650784814549a85cf6fca9","661d1672f01169fe41f1f001","","","","","","","","","","","","","","","","","win-only","0","g1:NW,g2:SE","0.35","0","3","497106.1","1961.3","5966","39377.6","2","4","8","6","2","-8","-9","0","0","0","1134.8","4000","-2690","[""down"",""right""]","{""num_key_presses"":10,""num_perfect"":4,""num_errors"":1,""num_randdir"":5,""num_randdir_good_moves"":2,""num_whilered"":0,""num_whileblue"":1,""num_blue"":2,""num_good_moves"":5}","[616.3294490269252,629.4388392857143,0.2,616.3294490269252,629.4388392857143,104.2,616.3294490269252,629.4388392857143,204.4,616.3294490269252,629.4388392857143,309.3,616.3294490269252,629.4388392857143,410.5,616.3294490269252,629.4388392857143,515,616.3294490269252,629.4388392857143,616.1,823.3294490269252,861.9388392857143,719.2,980.8294490269252,1017.9388392857143,823.8,1060.3294490269252,1062.9388392857143,924.8,1172.8294490269252,1160.4388392857143,1033.1,1172.8294490269252,1166.4388392857143,1134.1,1172.8294490269252,1166.4388392857143,1234.4,1172.8294490269252,1166.4388392857143,1334.4,1172.8294490269252,1166.4388392857143,1434.7,1172.8294490269252,1160.4388392857143,1540,1195.3294490269252,978.9388392857143,1649.6,1246.3294490269252,764.4388392857143,1755,1256.8294490269252,689.4388392857143,1859.9,1256.8294490269252,689.4388392857143,1960.1,1256.8294490269252,689.4388392857143,2064.9,1256.8294490269252,689.4388392857143,2165.8,1256.8294490269252,689.4388392857143,2269.1,1256.8294490269252,689.4388392857143,2374.6,1256.8294490269252,689.4388392857143,2475.1,1256.8294490269252,689.4388392857143,2582.7,1256.8294490269252,689.4388392857143,2684.2,1256.8294490269252,689.4388392857143,2784.4,1256.8294490269252,689.4388392857143,2890,1256.8294490269252,689.4388392857143,2998.7,1256.8294490269252,689.4388392857143,3098.9,1256.8294490269252,689.4388392857143,3199.2,1256.8294490269252,689.4388392857143,3305.4,1256.8294490269252,689.4388392857143,3409.6,1256.8294490269252,689.4388392857143,3510.2,1256.8294490269252,689.4388392857143,3610.4,1256.8294490269252,689.4388392857143,3716.8,1256.8294490269252,689.4388392857143,3820.2,1256.8294490269252,689.4388392857143,3921.2]","[1428.9,1428.9,1000,0,428.9,""oops"",""down"",""up"",""bad_move"",4862.5,3433.3,3032.6,1429.2,400.7,""oops"",""right"",""up"",""bad_move"",7893.9,3031.3,2610.8,4862.6,420.5,""smooth"",""right"",""right"",""good_move"",11113.3,3219.2,2794,7894.1,425.2,""oops"",""down"",""down"",""good_move"",14547.8,3434.4,3088.9,11113.5,345.5,""oops"",""down"",""left"",""bad_move"",17416.7,2868.5,2510.9,14548.3,357.6,""smooth"",""right"",""right"",""good_move"",19745.2,2328.3,1839.1,17416.9,489.2,""smooth"",""right"",""right"",""good_move"",23427,3681.4,3311.9,19745.6,369.5,""oops"",""down"",""right"",""good_move"",25582.1,2154.7,1282.9,23427.4,871.8,""smooth"",""right"",""up"",""bad_move"",30794,5211.7,1950.2,28504.7,339.1,""while_blue"",""down"",""left"",""bad_move""]","",""
"20344","","","","instructions","23","558573","0.0-8.0-4.0","74","1","2025-07-02 10:19:02","80fe4187154257d5fb01684ea91b68b9","86.162.192.186","Mozilla/5.0 (Windows NT 10.0; Win64; x64) AppleWebKit/537.36 (KHTML, like Gecko) Chrome/138.0.0.0 Safari/537.36 Edg/138.0.0.0","WebKit","Edge","138.0.0.0","Windows","10.0","https://app.prolific.com/","en-US,en;q=0.9,en-GB;q=0.8","661d1672f01169fe41f1f001","683db6dfa200031b80f2a654","68650784814549a85cf6fca9","661d1672f01169fe41f1f001","","[{""page_index"":0,""viewing_time"":12272},{""page_index"":1,""viewing_time"":8072}]","","","","","","","","","","","","","","","","","","","","","","","","","","","","","","","","","","","","","","","","","","",""
"16584","","","{""green_ball"":[""Ball sometimes shakes and moves in a random direction""]}","survey-multi-select","24","575161","0.0-8.0-5.0-0.0","74","1","2025-07-02 10:19:02","80fe4187154257d5fb01684ea91b68b9","86.162.192.186","Mozilla/5.0 (Windows NT 10.0; Win64; x64) AppleWebKit/537.36 (KHTML, like Gecko) Chrome/138.0.0.0 Safari/537.36 Edg/138.0.0.0","WebKit","Edge","138.0.0.0","Windows","10.0","https://app.prolific.com/","en-US,en;q=0.9,en-GB;q=0.8","661d1672f01169fe41f1f001","683db6dfa200031b80f2a654","68650784814549a85cf6fca9","661d1672f01169fe41f1f001","","","[0]","","","","quiz","","","","","","","","","","","","","","","","","","","","","","","","","","","","","","","","","","","","","true",""
"3196","","<p align='center'><b>CORRECT!</b> Indeed, the green ball may sometimes shake and move in a random direction.</p>","0","html-button-response","25","578358","0.0-8.0-5.0-1.0","74","1","2025-07-02 10:19:02","80fe4187154257d5fb01684ea91b68b9","86.162.192.186","Mozilla/5.0 (Windows NT 10.0; Win64; x64) AppleWebKit/537.36 (KHTML, like Gecko) Chrome/138.0.0.0 Safari/537.36 Edg/138.0.0.0","WebKit","Edge","138.0.0.0","Windows","10.0","https://app.prolific.com/","en-US,en;q=0.9,en-GB;q=0.8","661d1672f01169fe41f1f001","683db6dfa200031b80f2a654","68650784814549a85cf6fca9","661d1672f01169fe41f1f001","","","","","","","","","","","","","","","","","","","","","","","","","","","","","","","","","","","","","","","","","","","","",""
"7082","","","{""yellow_ball"":[""Ball doesn‘t move and I get -1 penalty point""]}","survey-multi-select","26","585443","0.0-8.0-6.0-0.0","74","1","2025-07-02 10:19:02","80fe4187154257d5fb01684ea91b68b9","86.162.192.186","Mozilla/5.0 (Windows NT 10.0; Win64; x64) AppleWebKit/537.36 (KHTML, like Gecko) Chrome/138.0.0.0 Safari/537.36 Edg/138.0.0.0","WebKit","Edge","138.0.0.0","Windows","10.0","https://app.prolific.com/","en-US,en;q=0.9,en-GB;q=0.8","661d1672f01169fe41f1f001","683db6dfa200031b80f2a654","68650784814549a85cf6fca9","661d1672f01169fe41f1f001","","","[0]","","","","quiz","","","","","","","","","","","","","","","","","","","","","","","","","","","","","","","","","","","","","true",""
"2017","","<p align='center'><b>CORRECT!</b> Indeed, the yellow ball never moves and you receive a penalty.</p>","0","html-button-response","27","587461","0.0-8.0-6.0-1.0","74","1","2025-07-02 10:19:02","80fe4187154257d5fb01684ea91b68b9","86.162.192.186","Mozilla/5.0 (Windows NT 10.0; Win64; x64) AppleWebKit/537.36 (KHTML, like Gecko) Chrome/138.0.0.0 Safari/537.36 Edg/138.0.0.0","WebKit","Edge","138.0.0.0","Windows","10.0","https://app.prolific.com/","en-US,en;q=0.9,en-GB;q=0.8","661d1672f01169fe41f1f001","683db6dfa200031b80f2a654","68650784814549a85cf6fca9","661d1672f01169fe41f1f001","","","","","","","","","","","","","","","","","","","","","","","","","","","","","","","","","","","","","","","","","","","","",""
"16398","","","{""blue_ball"":[""Ball always shakes and moves in a random direction""]}","survey-multi-select","28","603862","0.0-8.0-7.0-0.0","74","1","2025-07-02 10:19:02","80fe4187154257d5fb01684ea91b68b9","86.162.192.186","Mozilla/5.0 (Windows NT 10.0; Win64; x64) AppleWebKit/537.36 (KHTML, like Gecko) Chrome/138.0.0.0 Safari/537.36 Edg/138.0.0.0","WebKit","Edge","138.0.0.0","Windows","10.0","https://app.prolific.com/","en-US,en;q=0.9,en-GB;q=0.8","661d1672f01169fe41f1f001","683db6dfa200031b80f2a654","68650784814549a85cf6fca9","661d1672f01169fe41f1f001","","","[0]","","","","quiz","","","","","","","","","","","","","","","","","","","","","","","","","","","","","","","","","","","","","true",""
"2759","","<p align='center'><b>CORRECT!</b> Indeed, the blue ball always shakes and moves in a random direction. Also there is a penalty of -1 point.</p>","0","html-button-response","29","606622","0.0-8.0-7.0-1.0","74","1","2025-07-02 10:19:02","80fe4187154257d5fb01684ea91b68b9","86.162.192.186","Mozilla/5.0 (Windows NT 10.0; Win64; x64) AppleWebKit/537.36 (KHTML, like Gecko) Chrome/138.0.0.0 Safari/537.36 Edg/138.0.0.0","WebKit","Edge","138.0.0.0","Windows","10.0","https://app.prolific.com/","en-US,en;q=0.9,en-GB;q=0.8","661d1672f01169fe41f1f001","683db6dfa200031b80f2a654","68650784814549a85cf6fca9","661d1672f01169fe41f1f001","","","","","","","","","","","","","","","","","","","","","","","","","","","","","","","","","","","","","","","","","","","","",""
"12839","","","{""bonus"":[""When I reach 80% of points""]}","survey-multi-select","30","619463","0.0-8.0-8.0-0.0","74","1","2025-07-02 10:19:02","80fe4187154257d5fb01684ea91b68b9","86.162.192.186","Mozilla/5.0 (Windows NT 10.0; Win64; x64) AppleWebKit/537.36 (KHTML, like Gecko) Chrome/138.0.0.0 Safari/537.36 Edg/138.0.0.0","WebKit","Edge","138.0.0.0","Windows","10.0","https://app.prolific.com/","en-US,en;q=0.9,en-GB;q=0.8","661d1672f01169fe41f1f001","683db6dfa200031b80f2a654","68650784814549a85cf6fca9","661d1672f01169fe41f1f001","","","[0]","","","","quiz","","","","","","","","","","","","","","","","","","","","","","","","","","","","","","","","","","","","","false",""
"3047","","<p align='center'><b>INCORRECT.</b> You receive 2 pounds extra when you reach 50% of points </p>","0","html-button-response","31","622512","0.0-8.0-8.0-1.0","74","1","2025-07-02 10:19:02","80fe4187154257d5fb01684ea91b68b9","86.162.192.186","Mozilla/5.0 (Windows NT 10.0; Win64; x64) AppleWebKit/537.36 (KHTML, like Gecko) Chrome/138.0.0.0 Safari/537.36 Edg/138.0.0.0","WebKit","Edge","138.0.0.0","Windows","10.0","https://app.prolific.com/","en-US,en;q=0.9,en-GB;q=0.8","661d1672f01169fe41f1f001","683db6dfa200031b80f2a654","68650784814549a85cf6fca9","661d1672f01169fe41f1f001","","","","","","","","","","","","","","","","","","","","","","","","","","","","","","","","","","","","","","","","","","","","",""
"4000","","","{""bonus"":[""When I reach 50% of points""]}","survey-multi-select","32","626514","0.0-8.0-8.1-0.1","74","1","2025-07-02 10:19:02","80fe4187154257d5fb01684ea91b68b9","86.162.192.186","Mozilla/5.0 (Windows NT 10.0; Win64; x64) AppleWebKit/537.36 (KHTML, like Gecko) Chrome/138.0.0.0 Safari/537.36 Edg/138.0.0.0","WebKit","Edge","138.0.0.0","Windows","10.0","https://app.prolific.com/","en-US,en;q=0.9,en-GB;q=0.8","661d1672f01169fe41f1f001","683db6dfa200031b80f2a654","68650784814549a85cf6fca9","661d1672f01169fe41f1f001","","","[0]","","","","quiz","","","","","","","","","","","","","","","","","","","","","","","","","","","","","","","","","","","","","true",""
"2158","","<p align='center'><b>CORRECT!</b> Indeed, you receive 2 pounds extra when you reach 50% of points.</p>","0","html-button-response","33","628673","0.0-8.0-8.1-1.1","74","1","2025-07-02 10:19:02","80fe4187154257d5fb01684ea91b68b9","86.162.192.186","Mozilla/5.0 (Windows NT 10.0; Win64; x64) AppleWebKit/537.36 (KHTML, like Gecko) Chrome/138.0.0.0 Safari/537.36 Edg/138.0.0.0","WebKit","Edge","138.0.0.0","Windows","10.0","https://app.prolific.com/","en-US,en;q=0.9,en-GB;q=0.8","661d1672f01169fe41f1f001","683db6dfa200031b80f2a654","68650784814549a85cf6fca9","661d1672f01169fe41f1f001","","","","","","","","","","","","","","","","","","","","","","","","","","","","","","","","","","","","","","","","","","","","",""
"2033","","","","instructions","34","630708","0.0-8.0-9.0","74","1","2025-07-02 10:19:02","80fe4187154257d5fb01684ea91b68b9","86.162.192.186","Mozilla/5.0 (Windows NT 10.0; Win64; x64) AppleWebKit/537.36 (KHTML, like Gecko) Chrome/138.0.0.0 Safari/537.36 Edg/138.0.0.0","WebKit","Edge","138.0.0.0","Windows","10.0","https://app.prolific.com/","en-US,en;q=0.9,en-GB;q=0.8","661d1672f01169fe41f1f001","683db6dfa200031b80f2a654","68650784814549a85cf6fca9","661d1672f01169fe41f1f001","","[{""page_index"":0,""viewing_time"":2033}]","","","","","","","","","","","","","","","","","","","","","","","","","","","","","","","","","","","","","","","","","","",""
"23441","","<p>Before you start with this game please answer the following three questions yourself. </p>
  <p>Through this game, we measure several aspects of your cognitive performance, such as reaction times, multi-tasking capabilities </p>
  <p>and the ability to assess the situation you are in.</p>
  <p></p>
  <p><b>How good do you usually are in such tasks?</b></p>","77","html-slider-response","35","654151","0.0-9.0-0.0","74","1","2025-07-02 10:19:02","80fe4187154257d5fb01684ea91b68b9","86.162.192.186","Mozilla/5.0 (Windows NT 10.0; Win64; x64) AppleWebKit/537.36 (KHTML, like Gecko) Chrome/138.0.0.0 Safari/537.36 Edg/138.0.0.0","WebKit","Edge","138.0.0.0","Windows","10.0","https://app.prolific.com/","en-US,en;q=0.9,en-GB;q=0.8","661d1672f01169fe41f1f001","683db6dfa200031b80f2a654","68650784814549a85cf6fca9","661d1672f01169fe41f1f001","2025-07-02T10:29:55.183Z","","","","","","PreSkillQ","","","","","","","","","","","","","","","","","","","","","","","","","","","","","","","","","","","","","","50"
"5784","","<div style=""width:500px;"">
  <p>How well do you think you will perform in this task compared to other participants?</p>
  </div>","74","html-slider-response","36","659937","0.0-9.0-1.0","74","1","2025-07-02 10:19:02","80fe4187154257d5fb01684ea91b68b9","86.162.192.186","Mozilla/5.0 (Windows NT 10.0; Win64; x64) AppleWebKit/537.36 (KHTML, like Gecko) Chrome/138.0.0.0 Safari/537.36 Edg/138.0.0.0","WebKit","Edge","138.0.0.0","Windows","10.0","https://app.prolific.com/","en-US,en;q=0.9,en-GB;q=0.8","661d1672f01169fe41f1f001","683db6dfa200031b80f2a654","68650784814549a85cf6fca9","661d1672f01169fe41f1f001","2025-07-02T10:30:00.969Z","","","","","","PrePerfQ","","","","","","","","","","","","","","","","","","","","","","","","","","","","","","","","","","","","","","50"
"5112","","<div style=""width:500px;"">
  <p>What best describes how you currently feel?</p>
  </div>","78","html-slider-response","37","665050","0.0-9.0-2.0","74","1","2025-07-02 10:19:02","80fe4187154257d5fb01684ea91b68b9","86.162.192.186","Mozilla/5.0 (Windows NT 10.0; Win64; x64) AppleWebKit/537.36 (KHTML, like Gecko) Chrome/138.0.0.0 Safari/537.36 Edg/138.0.0.0","WebKit","Edge","138.0.0.0","Windows","10.0","https://app.prolific.com/","en-US,en;q=0.9,en-GB;q=0.8","661d1672f01169fe41f1f001","683db6dfa200031b80f2a654","68650784814549a85cf6fca9","661d1672f01169fe41f1f001","2025-07-02T10:30:06.082Z","","","","","","PreMotivationQ","","","","","","","","","","","","","","","","","","","","","","","","","","","","","","","","","","","","","","50"
"","","","","ctl-task-cpt","38","700972","0.0-10.0-0.0","74","1","2025-07-02 10:19:02","80fe4187154257d5fb01684ea91b68b9","86.162.192.186","Mozilla/5.0 (Windows NT 10.0; Win64; x64) AppleWebKit/537.36 (KHTML, like Gecko) Chrome/138.0.0.0 Safari/537.36 Edg/138.0.0.0","WebKit","Edge","138.0.0.0","Windows","10.0","https://app.prolific.com/","en-US,en;q=0.9,en-GB;q=0.8","661d1672f01169fe41f1f001","683db6dfa200031b80f2a654","68650784814549a85cf6fca9","661d1672f01169fe41f1f001","2025-07-02T10:30:42.004Z","","","","","","","","","","","","","","","","win-only","0","g1:NW,g2:SE","1","1","0","666313.1","2343.5","7345.8","32910.7","1","4","4","6","2","4","4","4","0","0.030303030303030304","3271.4","3000","440","[""down"",""right""]","{""num_key_presses"":6,""num_perfect"":6,""num_errors"":0,""num_randdir"":0,""num_randdir_good_moves"":0,""num_whilered"":0,""num_whileblue"":0,""num_blue"":3,""num_good_moves"":6}","[608.8294490269252,620.4388392857143,0.2,608.8294490269252,620.4388392857143,102.3,608.8294490269252,620.4388392857143,206.9,608.8294490269252,620.4388392857143,307.2,556.3294490269252,615.9388392857143,412.7,548.8294490269252,617.4388392857143,517.7,638.8294490269252,602.4388392857143,622.1,655.3294490269252,578.4388392857143,727.3,677.8294490269252,548.4388392857143,827.6,722.8294490269252,524.4388392857143,932.1,803.8294490269252,518.4388392857143,1037.7,893.8294490269252,506.43883928571427,1137.8,896.8294490269252,504.93883928571427,1243.1,896.8294490269252,504.93883928571427,1348.3,884.8294490269252,498.93883928571427,1452.1,875.8294490269252,587.4388392857143,1557.2,1073.8294490269252,863.4388392857143,1658.4,1073.8294490269252,863.4388392857143,1758.5,1073.8294490269252,863.4388392857143,1862.2,1073.8294490269252,863.4388392857143,1963,947.8294490269252,905.4388392857143,2068.7,929.8294490269252,923.4388392857143,2172.8,931.3294490269252,920.4388392857143,2276.8,931.3294490269252,912.9388392857143,2376.8,931.3294490269252,911.4388392857143,2477.5,931.3294490269252,908.4388392857143,2581.8,932.8294490269252,906.9388392857143,2682.9,944.8294490269252,893.4388392857143,2786.7,953.8294490269252,887.4388392857143,2888.5,1006.3294490269252,950.4388392857143,2993.4,1147.3294490269252,1122.9388392857143,3096.9,1151.8294490269252,1124.4388392857143,3232.1,1151.8294490269252,1124.4388392857143,3333.3,1151.8294490269252,1124.4388392857143,3437.3,1151.8294490269252,1124.4388392857143,3537.3,1151.8294490269252,1124.4388392857143,3638,1151.8294490269252,1124.4388392857143,3742.3,929.8294490269252,960.9388392857143,3848,803.8294490269252,783.9388392857143,3953.1,896.8294490269252,692.4388392857143,4053.1,1015.3294490269252,740.4388392857143,4157.9,1015.3294490269252,740.4388392857143,4258.1,1015.3294490269252,740.4388392857143,4362.9,1015.3294490269252,740.4388392857143,4467.1,1015.3294490269252,740.4388392857143,4567.7,1015.3294490269252,740.4388392857143,4668.2,1015.3294490269252,740.4388392857143,4773.8,1015.3294490269252,740.4388392857143,4877.6,1015.3294490269252,740.4388392857143,4981.9]","[1689,1689,1000,0,689,""smooth"",""down"",""down"",""good_move"",3908.6,2219.3,1797.4,1689.3,421.9,""smooth"",""right"",""right"",""good_move"",6464.2,2555.4,2119.2,3908.8,436.2,""smooth"",""right"",""right"",""good_move"",15539.6,9075.2,2082.2,13056.1,401.3,""smooth"",""down"",""down"",""good_move"",18211.9,2672.2,2265.3,15539.7,406.9,""smooth"",""right"",""right"",""good_move"",25463.9,7251.9,3208.1,21780.1,475.8,""smooth"",""down"",""down"",""good_move""]","",""
"7720","","<div style=""width:500px;"">
  <p>What determined the result of this run?</p>
  </div>","100","html-slider-response","39","708693","0.0-10.0-1.0","74","1","2025-07-02 10:19:02","80fe4187154257d5fb01684ea91b68b9","86.162.192.186","Mozilla/5.0 (Windows NT 10.0; Win64; x64) AppleWebKit/537.36 (KHTML, like Gecko) Chrome/138.0.0.0 Safari/537.36 Edg/138.0.0.0","WebKit","Edge","138.0.0.0","Windows","10.0","https://app.prolific.com/","en-US,en;q=0.9,en-GB;q=0.8","661d1672f01169fe41f1f001","683db6dfa200031b80f2a654","68650784814549a85cf6fca9","661d1672f01169fe41f1f001","2025-07-02T10:30:49.725Z","","","","","","AttribQ","","","","","","","","","","","","","","","","","","","","","","","","","","","","","","","","","","","","","","50"
"3700","","<div style=""width:500px;"">
  <p>How much control did you have over the ball?</p>
  </div>","100","html-slider-response","40","712394","0.0-10.0-2.0","74","1","2025-07-02 10:19:02","80fe4187154257d5fb01684ea91b68b9","86.162.192.186","Mozilla/5.0 (Windows NT 10.0; Win64; x64) AppleWebKit/537.36 (KHTML, like Gecko) Chrome/138.0.0.0 Safari/537.36 Edg/138.0.0.0","WebKit","Edge","138.0.0.0","Windows","10.0","https://app.prolific.com/","en-US,en;q=0.9,en-GB;q=0.8","661d1672f01169fe41f1f001","683db6dfa200031b80f2a654","68650784814549a85cf6fca9","661d1672f01169fe41f1f001","2025-07-02T10:30:53.426Z","","","","","","ControlQ","","","","","","","","","","","","","","","","","","","","","","","","","","","","","","","","","","","","","","50"
"4302","","<div style=""width:500px;"">
  <p>How would you describe your current emotional state?</p>
  </div>","0","html-slider-response","41","716697","0.0-10.0-3.0","74","1","2025-07-02 10:19:02","80fe4187154257d5fb01684ea91b68b9","86.162.192.186","Mozilla/5.0 (Windows NT 10.0; Win64; x64) AppleWebKit/537.36 (KHTML, like Gecko) Chrome/138.0.0.0 Safari/537.36 Edg/138.0.0.0","WebKit","Edge","138.0.0.0","Windows","10.0","https://app.prolific.com/","en-US,en;q=0.9,en-GB;q=0.8","661d1672f01169fe41f1f001","683db6dfa200031b80f2a654","68650784814549a85cf6fca9","661d1672f01169fe41f1f001","2025-07-02T10:30:57.729Z","","","","","","StressQ","","","","","","","","","","","","","","","","","","","","","","","","","","","","","","","","","","","","","","50"
"6203","","<div style=""width:500px;"">
  <p>What best describes how you currently feel?</p>
  </div>","85","html-slider-response","42","722901","0.0-10.0-4.0","74","1","2025-07-02 10:19:02","80fe4187154257d5fb01684ea91b68b9","86.162.192.186","Mozilla/5.0 (Windows NT 10.0; Win64; x64) AppleWebKit/537.36 (KHTML, like Gecko) Chrome/138.0.0.0 Safari/537.36 Edg/138.0.0.0","WebKit","Edge","138.0.0.0","Windows","10.0","https://app.prolific.com/","en-US,en;q=0.9,en-GB;q=0.8","661d1672f01169fe41f1f001","683db6dfa200031b80f2a654","68650784814549a85cf6fca9","661d1672f01169fe41f1f001","2025-07-02T10:31:03.933Z","","","","","","MotivationQ","","","","","","","","","","","","","","","","","","","","","","","","","","","","","","","","","","","","","","50"
"","","","","ctl-task-cpt","43","759817","0.0-10.0-0.1","74","1","2025-07-02 10:19:02","80fe4187154257d5fb01684ea91b68b9","86.162.192.186","Mozilla/5.0 (Windows NT 10.0; Win64; x64) AppleWebKit/537.36 (KHTML, like Gecko) Chrome/138.0.0.0 Safari/537.36 Edg/138.0.0.0","WebKit","Edge","138.0.0.0","Windows","10.0","https://app.prolific.com/","en-US,en;q=0.9,en-GB;q=0.8","661d1672f01169fe41f1f001","683db6dfa200031b80f2a654","68650784814549a85cf6fca9","661d1672f01169fe41f1f001","2025-07-02T10:31:40.849Z","","","","","","","","","","","","","","","","win-only","3","g1:SW,g2:NE","0.9","2","0","724163.5","1502.1","6505.4","33891.7","1","4","8","6","2","8","8","12","4","0.09090909090909091","4102.1","3000","720","[""up"",""right""]","{""num_key_presses"":6,""num_perfect"":5,""num_errors"":0,""num_randdir"":1,""num_randdir_good_moves"":1,""num_whilered"":0,""num_whileblue"":0,""num_blue"":3,""num_good_moves"":6}","[610.3294490269252,626.4388392857143,0.1,610.3294490269252,626.4388392857143,103.4,610.3294490269252,626.4388392857143,203.6,610.3294490269252,626.4388392857143,308.8,610.3294490269252,626.4388392857143,413.3,610.3294490269252,626.4388392857143,513.4,610.3294490269252,626.4388392857143,613.4,610.3294490269252,626.4388392857143,716.4,656.8294490269252,701.4388392857143,817.4,823.3294490269252,644.4388392857143,919.7,904.3294490269252,477.93883928571427,1024.5,902.8294490269252,459.93883928571427,1129.6,902.8294490269252,459.93883928571427,1233.5,902.8294490269252,459.93883928571427,1335.2,899.8294490269252,453.93883928571427,1438.9,877.3294490269252,374.43883928571427,1543.8,887.8294490269252,347.43883928571427,1648.8,782.8294490269252,384.93883928571427,1755.1,733.3294490269252,389.43883928571427,1859.1,730.3294490269252,428.43883928571427,1959.1,824.8294490269252,371.43883928571427,2059.3,848.8294490269252,344.43883928571427,2163.3,850.3294490269252,344.43883928571427,2269.1,850.3294490269252,344.43883928571427,2373.8,850.3294490269252,344.43883928571427,2474.7,850.3294490269252,344.43883928571427,2579.5,850.3294490269252,344.43883928571427,2683.2,850.3294490269252,345.93883928571427,2783.9,887.8294490269252,375.93883928571427,2889.2,893.8294490269252,369.93883928571427,2994,895.3294490269252,363.93883928571427,3098.1,895.3294490269252,363.93883928571427,3199.3,895.3294490269252,363.93883928571427,3303.4,895.3294490269252,363.93883928571427,3410,895.3294490269252,363.93883928571427,3513.5,895.3294490269252,363.93883928571427,3614,895.3294490269252,363.93883928571427,3714.4,899.8294490269252,351.93883928571427,3818.3,1018.3294490269252,182.43883928571427,3918.6,1081.3294490269252,131.43883928571427,4018.7,1087.3294490269252,128.43883928571427,4119.8,1087.3294490269252,128.43883928571427,4231,1087.3294490269252,128.43883928571427,4333.2,1087.3294490269252,128.43883928571427,4434.1,824.8294490269252,456.93883928571427,4539.8,728.8294490269252,549.9388392857143,4643.2,727.3294490269252,551.4388392857143,4749.2,727.3294490269252,551.4388392857143,4849.7,727.3294490269252,551.4388392857143,4954.9]","[12703.6,12703.6,3540.8,8686,476.8,""smooth"",""up"",""up"",""good_move"",15683.6,2979.7,2607.1,12703.9,372.6,""smooth"",""right"",""right"",""good_move"",18878.9,3195.1,2777,15683.8,418.1,""oops"",""up"",""right"",""good_move"",21580.7,2701.6,2252.9,18879.1,448.7,""smooth"",""up"",""up"",""good_move"",24445,2864.1,2387.9,21580.9,476.2,""smooth"",""up"",""up"",""good_move"",27284.8,2839.6,2497,24445.2,342.6,""smooth"",""right"",""right"",""good_move""]","",""
"5957","","<div style=""width:500px;"">
  <p>What determined the result of this run?</p>
  </div>","77","html-slider-response","44","765776","0.0-10.0-1.1","74","1","2025-07-02 10:19:02","80fe4187154257d5fb01684ea91b68b9","86.162.192.186","Mozilla/5.0 (Windows NT 10.0; Win64; x64) AppleWebKit/537.36 (KHTML, like Gecko) Chrome/138.0.0.0 Safari/537.36 Edg/138.0.0.0","WebKit","Edge","138.0.0.0","Windows","10.0","https://app.prolific.com/","en-US,en;q=0.9,en-GB;q=0.8","661d1672f01169fe41f1f001","683db6dfa200031b80f2a654","68650784814549a85cf6fca9","661d1672f01169fe41f1f001","2025-07-02T10:31:46.808Z","","","","","","AttribQ","","","","","","","","","","","","","","","","","","","","","","","","","","","","","","","","","","","","","","50"
"6923","","<div style=""width:500px;"">
  <p>How much control did you have over the ball?</p>
  </div>","87","html-slider-response","45","772699","0.0-10.0-2.1","74","1","2025-07-02 10:19:02","80fe4187154257d5fb01684ea91b68b9","86.162.192.186","Mozilla/5.0 (Windows NT 10.0; Win64; x64) AppleWebKit/537.36 (KHTML, like Gecko) Chrome/138.0.0.0 Safari/537.36 Edg/138.0.0.0","WebKit","Edge","138.0.0.0","Windows","10.0","https://app.prolific.com/","en-US,en;q=0.9,en-GB;q=0.8","661d1672f01169fe41f1f001","683db6dfa200031b80f2a654","68650784814549a85cf6fca9","661d1672f01169fe41f1f001","2025-07-02T10:31:53.732Z","","","","","","ControlQ","","","","","","","","","","","","","","","","","","","","","","","","","","","","","","","","","","","","","","50"
"5376","","<div style=""width:500px;"">
  <p>How would you describe your current emotional state?</p>
  </div>","18","html-slider-response","46","778077","0.0-10.0-3.1","74","1","2025-07-02 10:19:02","80fe4187154257d5fb01684ea91b68b9","86.162.192.186","Mozilla/5.0 (Windows NT 10.0; Win64; x64) AppleWebKit/537.36 (KHTML, like Gecko) Chrome/138.0.0.0 Safari/537.36 Edg/138.0.0.0","WebKit","Edge","138.0.0.0","Windows","10.0","https://app.prolific.com/","en-US,en;q=0.9,en-GB;q=0.8","661d1672f01169fe41f1f001","683db6dfa200031b80f2a654","68650784814549a85cf6fca9","661d1672f01169fe41f1f001","2025-07-02T10:31:59.109Z","","","","","","StressQ","","","","","","","","","","","","","","","","","","","","","","","","","","","","","","","","","","","","","","50"
"3114","","<div style=""width:500px;"">
  <p>What best describes how you currently feel?</p>
  </div>","82","html-slider-response","47","781192","0.0-10.0-4.1","74","1","2025-07-02 10:19:02","80fe4187154257d5fb01684ea91b68b9","86.162.192.186","Mozilla/5.0 (Windows NT 10.0; Win64; x64) AppleWebKit/537.36 (KHTML, like Gecko) Chrome/138.0.0.0 Safari/537.36 Edg/138.0.0.0","WebKit","Edge","138.0.0.0","Windows","10.0","https://app.prolific.com/","en-US,en;q=0.9,en-GB;q=0.8","661d1672f01169fe41f1f001","683db6dfa200031b80f2a654","68650784814549a85cf6fca9","661d1672f01169fe41f1f001","2025-07-02T10:32:02.224Z","","","","","","MotivationQ","","","","","","","","","","","","","","","","","","","","","","","","","","","","","","","","","","","","","","50"
"","","","","ctl-task-cpt","48","801856","0.0-10.0-0.2","74","1","2025-07-02 10:19:02","80fe4187154257d5fb01684ea91b68b9","86.162.192.186","Mozilla/5.0 (Windows NT 10.0; Win64; x64) AppleWebKit/537.36 (KHTML, like Gecko) Chrome/138.0.0.0 Safari/537.36 Edg/138.0.0.0","WebKit","Edge","138.0.0.0","Windows","10.0","https://app.prolific.com/","en-US,en;q=0.9,en-GB;q=0.8","661d1672f01169fe41f1f001","683db6dfa200031b80f2a654","68650784814549a85cf6fca9","661d1672f01169fe41f1f001","2025-07-02T10:32:22.888Z","","","","","","","","","","","","","","","","win-only","2","g1:SE,g2:NW","0.8","3","0","782453.7","2015.2","7016.1","17648.8","1","4","8","6","1","1","1","13","12","0.09848484848484848","4093.6","3000","1300","[""down"",""right""]","{""num_key_presses"":4,""num_perfect"":4,""num_errors"":0,""num_randdir"":0,""num_randdir_good_moves"":0,""num_whilered"":0,""num_whileblue"":0,""num_blue"":0,""num_good_moves"":4}","[608.8294490269252,608.4388392857143,0.2,608.8294490269252,608.4388392857143,100,608.8294490269252,608.4388392857143,200.5,608.8294490269252,608.4388392857143,305,608.8294490269252,608.4388392857143,405.9,608.8294490269252,608.4388392857143,506.1,608.8294490269252,608.4388392857143,613.6,608.8294490269252,608.4388392857143,714,485.8294490269252,485.43883928571427,814,457.3294490269252,461.43883928571427,916,455.8294490269252,465.93883928571427,1016.1,436.3294490269252,459.93883928571427,1122.5,413.8294490269252,452.43883928571427,1225.8,361.3294490269252,386.43883928571427,1331.3,349.3294490269252,372.93883928571427,1435,349.3294490269252,372.93883928571427,1536,349.3294490269252,372.93883928571427,1640.7,349.3294490269252,372.93883928571427,1741.6,349.3294490269252,372.93883928571427,1845.7,349.3294490269252,372.93883928571427,1946.1,349.3294490269252,372.93883928571427,2050.6,349.3294490269252,372.93883928571427,2156,349.3294490269252,372.93883928571427,2256.4,349.3294490269252,372.93883928571427,2361.2,349.3294490269252,372.93883928571427,2465.3,314.8294490269252,443.43883928571427,2571.8,311.8294490269252,452.43883928571427,2676.5,311.8294490269252,452.43883928571427,2781.5,311.8294490269252,452.43883928571427,2885.9,236.8294490269252,314.43883928571427,2990,185.8294490269252,206.43883928571427,3090.1,173.8294490269252,192.93883928571427,3190.6,161.8294490269252,173.43883928571427,3291,206.8294490269252,215.43883928571427,3395.6,1325.8294490269252,1151.4388392857143,3500.5,1466.8294490269252,1289.4388392857143,3601.7,1394.8294490269252,1233.9388392857143,3706.1,1363.3294490269252,1251.9388392857143,3812.8,1199.8294490269252,1119.9388392857143,3916.4,1144.3294490269252,1103.4388392857143,4020.9,1139.8294490269252,1104.9388392857143,4121.4,1139.8294490269252,1104.9388392857143,4227,1139.8294490269252,1104.9388392857143,4330.6,1139.8294490269252,1104.9388392857143,4432.1,1205.8294490269252,1106.4388392857143,4535.8,1496.8294490269252,956.4388392857143,4640.5,1622.8294490269252,863.4388392857143,4745.4,1622.8294490269252,863.4388392857143,4846.2,1622.8294490269252,863.4388392857143,4950]","[1549,1549,1000,0,549,""smooth"",""down"",""down"",""good_move"",3961.2,2411,1952.1,1550.2,458.9,""smooth"",""right"",""right"",""good_move"",7654.8,3693.5,3227.1,3961.3,466.4,""smooth"",""right"",""right"",""good_move"",10538,2882.9,2487.7,7655.1,395.2,""smooth"",""down"",""down"",""good_move""]","",""
"5243","","<div style=""width:500px;"">
  <p>What determined the result of this run?</p>
  </div>","100","html-slider-response","49","807100","0.0-10.0-1.2","74","1","2025-07-02 10:19:02","80fe4187154257d5fb01684ea91b68b9","86.162.192.186","Mozilla/5.0 (Windows NT 10.0; Win64; x64) AppleWebKit/537.36 (KHTML, like Gecko) Chrome/138.0.0.0 Safari/537.36 Edg/138.0.0.0","WebKit","Edge","138.0.0.0","Windows","10.0","https://app.prolific.com/","en-US,en;q=0.9,en-GB;q=0.8","661d1672f01169fe41f1f001","683db6dfa200031b80f2a654","68650784814549a85cf6fca9","661d1672f01169fe41f1f001","2025-07-02T10:32:28.132Z","","","","","","AttribQ","","","","","","","","","","","","","","","","","","","","","","","","","","","","","","","","","","","","","","50"
"2758","","<div style=""width:500px;"">
  <p>How much control did you have over the ball?</p>
  </div>","100","html-slider-response","50","809859","0.0-10.0-2.2","74","1","2025-07-02 10:19:02","80fe4187154257d5fb01684ea91b68b9","86.162.192.186","Mozilla/5.0 (Windows NT 10.0; Win64; x64) AppleWebKit/537.36 (KHTML, like Gecko) Chrome/138.0.0.0 Safari/537.36 Edg/138.0.0.0","WebKit","Edge","138.0.0.0","Windows","10.0","https://app.prolific.com/","en-US,en;q=0.9,en-GB;q=0.8","661d1672f01169fe41f1f001","683db6dfa200031b80f2a654","68650784814549a85cf6fca9","661d1672f01169fe41f1f001","2025-07-02T10:32:30.891Z","","","","","","ControlQ","","","","","","","","","","","","","","","","","","","","","","","","","","","","","","","","","","","","","","50"
"5636","","<div style=""width:500px;"">
  <p>How would you describe your current emotional state?</p>
  </div>","14","html-slider-response","51","815496","0.0-10.0-3.2","74","1","2025-07-02 10:19:02","80fe4187154257d5fb01684ea91b68b9","86.162.192.186","Mozilla/5.0 (Windows NT 10.0; Win64; x64) AppleWebKit/537.36 (KHTML, like Gecko) Chrome/138.0.0.0 Safari/537.36 Edg/138.0.0.0","WebKit","Edge","138.0.0.0","Windows","10.0","https://app.prolific.com/","en-US,en;q=0.9,en-GB;q=0.8","661d1672f01169fe41f1f001","683db6dfa200031b80f2a654","68650784814549a85cf6fca9","661d1672f01169fe41f1f001","2025-07-02T10:32:36.529Z","","","","","","StressQ","","","","","","","","","","","","","","","","","","","","","","","","","","","","","","","","","","","","","","50"
"2818","","<div style=""width:500px;"">
  <p>What best describes how you currently feel?</p>
  </div>","85","html-slider-response","52","818316","0.0-10.0-4.2","74","1","2025-07-02 10:19:02","80fe4187154257d5fb01684ea91b68b9","86.162.192.186","Mozilla/5.0 (Windows NT 10.0; Win64; x64) AppleWebKit/537.36 (KHTML, like Gecko) Chrome/138.0.0.0 Safari/537.36 Edg/138.0.0.0","WebKit","Edge","138.0.0.0","Windows","10.0","https://app.prolific.com/","en-US,en;q=0.9,en-GB;q=0.8","661d1672f01169fe41f1f001","683db6dfa200031b80f2a654","68650784814549a85cf6fca9","661d1672f01169fe41f1f001","2025-07-02T10:32:39.348Z","","","","","","MotivationQ","","","","","","","","","","","","","","","","","","","","","","","","","","","","","","","","","","","","","","50"
"","","","","ctl-task-cpt","53","849758","0.0-10.0-0.3","74","1","2025-07-02 10:19:02","80fe4187154257d5fb01684ea91b68b9","86.162.192.186","Mozilla/5.0 (Windows NT 10.0; Win64; x64) AppleWebKit/537.36 (KHTML, like Gecko) Chrome/138.0.0.0 Safari/537.36 Edg/138.0.0.0","WebKit","Edge","138.0.0.0","Windows","10.0","https://app.prolific.com/","en-US,en;q=0.9,en-GB;q=0.8","661d1672f01169fe41f1f001","683db6dfa200031b80f2a654","68650784814549a85cf6fca9","661d1672f01169fe41f1f001","2025-07-02T10:33:10.790Z","","","","","","","","","","","","","","","","win-only","0","g1:NW,g2:SE","0.7","4","0","819576.5","1137.9","6139.4","28430.6","1","4","4","6","2","4","4","17","13","0.12878787878787878","1316.6","3000","305","[""down"",""right""]","{""num_key_presses"":8,""num_perfect"":6,""num_errors"":0,""num_randdir"":2,""num_randdir_good_moves"":1,""num_whilered"":0,""num_whileblue"":0,""num_blue"":0,""num_good_moves"":7}","[608.8294490269252,615.9388392857143,0.3,608.8294490269252,615.9388392857143,100.9,608.8294490269252,615.9388392857143,201,608.8294490269252,615.9388392857143,303.4,608.8294490269252,615.9388392857143,408.1,608.8294490269252,615.9388392857143,517.8,608.8294490269252,615.9388392857143,619.5,608.8294490269252,615.9388392857143,722.2,922.3294490269252,974.4388392857143,822.9,944.8294490269252,998.4388392857143,923.4,959.8294490269252,1014.9388392857143,1023.6,1063.3294490269252,1094.4388392857143,1123.7,1079.8294490269252,1094.4388392857143,1227.7,1082.8294490269252,1094.4388392857143,1328.1,1082.8294490269252,1094.4388392857143,1434.2,1082.8294490269252,1094.4388392857143,1534.2,1082.8294490269252,1094.4388392857143,1639.2,887.8294490269252,879.9388392857143,1744,689.8294490269252,692.4388392857143,1851.2,740.8294490269252,705.9388392857143,1953.1,1040.8294490269252,815.4388392857143,2053.6,1145.8294490269252,863.4388392857143,2157.9,1147.3294490269252,863.4388392857143,2258.3,1147.3294490269252,863.4388392857143,2367.4,1147.3294490269252,863.4388392857143,2467.4,1147.3294490269252,863.4388392857143,2567.6,1147.3294490269252,863.4388392857143,2668.6,1147.3294490269252,863.4388392857143,2772.8,1147.3294490269252,863.4388392857143,2872.9,1147.3294490269252,863.4388392857143,2973.2,1147.3294490269252,863.4388392857143,3079,1147.3294490269252,863.4388392857143,3183.4,1147.3294490269252,863.4388392857143,3287.9,1147.3294490269252,863.4388392857143,3393.4,1147.3294490269252,863.4388392857143,3493.8,1147.3294490269252,863.4388392857143,3600.8,1147.3294490269252,863.4388392857143,3703.1,1147.3294490269252,863.4388392857143,3808,1147.3294490269252,863.4388392857143,3909.1,1147.3294490269252,863.4388392857143,4020.6,1147.3294490269252,863.4388392857143,4122.2,1147.3294490269252,863.4388392857143,4222.8,1147.3294490269252,863.4388392857143,4323,1147.3294490269252,863.4388392857143,4433.6,1147.3294490269252,863.4388392857143,4538,1147.3294490269252,863.4388392857143,4638,1147.3294490269252,863.4388392857143,4739,1147.3294490269252,863.4388392857143,4842.3,1147.3294490269252,863.4388392857143,4943.1]","[1506.1,1506.2,1000,0,506.2,""smooth"",""right"",""right"",""good_move"",4428.5,2922.1,2543,1506.4,379.1,""smooth"",""down"",""down"",""good_move"",8183.9,3755.1,3404.8,4428.8,350.3,""smooth"",""right"",""right"",""good_move"",10794.6,2610.6,2266,8184,344.6,""oops"",""down"",""right"",""good_move"",13439.5,2644.8,2341.3,10794.7,303.5,""oops"",""down"",""up"",""bad_move"",16173.2,2733.3,2406.9,13439.9,326.4,""smooth"",""down"",""down"",""good_move"",19215,3041.5,2749.5,16173.5,292,""smooth"",""down"",""down"",""good_move"",22183.6,2968.5,2632.7,19215.1,335.8,""smooth"",""down"",""down"",""good_move""]","",""
"7136","","<div style=""width:500px;"">
  <p>What determined the result of this run?</p>
  </div>","72","html-slider-response","54","856895","0.0-10.0-1.3","74","1","2025-07-02 10:19:02","80fe4187154257d5fb01684ea91b68b9","86.162.192.186","Mozilla/5.0 (Windows NT 10.0; Win64; x64) AppleWebKit/537.36 (KHTML, like Gecko) Chrome/138.0.0.0 Safari/537.36 Edg/138.0.0.0","WebKit","Edge","138.0.0.0","Windows","10.0","https://app.prolific.com/","en-US,en;q=0.9,en-GB;q=0.8","661d1672f01169fe41f1f001","683db6dfa200031b80f2a654","68650784814549a85cf6fca9","661d1672f01169fe41f1f001","2025-07-02T10:33:17.927Z","","","","","","AttribQ","","","","","","","","","","","","","","","","","","","","","","","","","","","","","","","","","","","","","","50"
"3416","","<div style=""width:500px;"">
  <p>How much control did you have over the ball?</p>
  </div>","71","html-slider-response","55","860312","0.0-10.0-2.3","74","1","2025-07-02 10:19:02","80fe4187154257d5fb01684ea91b68b9","86.162.192.186","Mozilla/5.0 (Windows NT 10.0; Win64; x64) AppleWebKit/537.36 (KHTML, like Gecko) Chrome/138.0.0.0 Safari/537.36 Edg/138.0.0.0","WebKit","Edge","138.0.0.0","Windows","10.0","https://app.prolific.com/","en-US,en;q=0.9,en-GB;q=0.8","661d1672f01169fe41f1f001","683db6dfa200031b80f2a654","68650784814549a85cf6fca9","661d1672f01169fe41f1f001","2025-07-02T10:33:21.344Z","","","","","","ControlQ","","","","","","","","","","","","","","","","","","","","","","","","","","","","","","","","","","","","","","50"
"3585","","<div style=""width:500px;"">
  <p>How would you describe your current emotional state?</p>
  </div>","16","html-slider-response","56","863898","0.0-10.0-3.3","74","1","2025-07-02 10:19:02","80fe4187154257d5fb01684ea91b68b9","86.162.192.186","Mozilla/5.0 (Windows NT 10.0; Win64; x64) AppleWebKit/537.36 (KHTML, like Gecko) Chrome/138.0.0.0 Safari/537.36 Edg/138.0.0.0","WebKit","Edge","138.0.0.0","Windows","10.0","https://app.prolific.com/","en-US,en;q=0.9,en-GB;q=0.8","661d1672f01169fe41f1f001","683db6dfa200031b80f2a654","68650784814549a85cf6fca9","661d1672f01169fe41f1f001","2025-07-02T10:33:24.930Z","","","","","","StressQ","","","","","","","","","","","","","","","","","","","","","","","","","","","","","","","","","","","","","","50"
"2817","","<div style=""width:500px;"">
  <p>What best describes how you currently feel?</p>
  </div>","85","html-slider-response","57","866716","0.0-10.0-4.3","74","1","2025-07-02 10:19:02","80fe4187154257d5fb01684ea91b68b9","86.162.192.186","Mozilla/5.0 (Windows NT 10.0; Win64; x64) AppleWebKit/537.36 (KHTML, like Gecko) Chrome/138.0.0.0 Safari/537.36 Edg/138.0.0.0","WebKit","Edge","138.0.0.0","Windows","10.0","https://app.prolific.com/","en-US,en;q=0.9,en-GB;q=0.8","661d1672f01169fe41f1f001","683db6dfa200031b80f2a654","68650784814549a85cf6fca9","661d1672f01169fe41f1f001","2025-07-02T10:33:27.748Z","","","","","","MotivationQ","","","","","","","","","","","","","","","","","","","","","","","","","","","","","","","","","","","","","","50"
"","","","","ctl-task-cpt","58","891857","0.0-10.0-0.4","74","1","2025-07-02 10:19:02","80fe4187154257d5fb01684ea91b68b9","86.162.192.186","Mozilla/5.0 (Windows NT 10.0; Win64; x64) AppleWebKit/537.36 (KHTML, like Gecko) Chrome/138.0.0.0 Safari/537.36 Edg/138.0.0.0","WebKit","Edge","138.0.0.0","Windows","10.0","https://app.prolific.com/","en-US,en;q=0.9,en-GB;q=0.8","661d1672f01169fe41f1f001","683db6dfa200031b80f2a654","68650784814549a85cf6fca9","661d1672f01169fe41f1f001","2025-07-02T10:33:52.889Z","","","","","","","","","","","","","","","","win-only","1","g1:NE,g2:SW","0.6","5","0","867976.4","1804.8","6806.5","22123","1","4","8","6","1","1","1","18","17","0.13636363636363635","3367.6","3000","1445","[""up"",""right""]","{""num_key_presses"":4,""num_perfect"":3,""num_errors"":0,""num_randdir"":1,""num_randdir_good_moves"":1,""num_whilered"":0,""num_whileblue"":0,""num_blue"":1,""num_good_moves"":4}","[617.8294490269252,614.4388392857143,0.4,617.8294490269252,614.4388392857143,100.5,617.8294490269252,614.4388392857143,200.7,617.8294490269252,614.4388392857143,301.7,617.8294490269252,614.4388392857143,407.1,617.8294490269252,614.4388392857143,511,617.8294490269252,614.4388392857143,612.2,617.8294490269252,614.4388392857143,718.8,617.8294490269252,614.4388392857143,821.7,617.8294490269252,614.4388392857143,926.1,557.8294490269252,677.4388392857143,1027.3,431.8294490269252,752.4388392857143,1134.9,364.3294490269252,812.4388392857143,1235,341.8294490269252,857.4388392857143,1335.7,326.8294490269252,881.4388392857143,1436.5,608.8294490269252,504.93883928571427,1541.2,863.8294490269252,288.93883928571427,1642,842.8294490269252,317.43883928571427,1742.4,400.3294490269252,701.4388392857143,1851.2,302.8294490269252,878.4388392857143,1955.6,269.8294490269252,962.4388392857143,2056.9,244.3294490269252,969.9388392857143,2161.6,239.8294490269252,965.4388392857143,2262.4,239.8294490269252,965.4388392857143,2364.5,239.8294490269252,965.4388392857143,2468.7,239.8294490269252,965.4388392857143,2571.9,212.8294490269252,998.4388392857143,2677.4,134.8294490269252,1109.4388392857143,2777.4,131.8294490269252,1115.4388392857143,2886.1,662.8294490269252,414.93883928571427,2992.3,1078.3294490269252,77.43883928571428,3101.2,1094.8294490269252,80.43883928571428,3206.8,1166.8294490269252,56.43883928571428,3307,1175.8294490269252,60.93883928571428,3412.2,1175.8294490269252,60.93883928571428,3518,1175.8294490269252,60.93883928571428,3621,1175.8294490269252,60.93883928571428,3721,1141.3294490269252,213.93883928571427,3821.4,1234.3294490269252,816.9388392857143,3926.1,1268.8294490269252,900.9388392857143,4030.6,1268.8294490269252,900.9388392857143,4134.3,1268.8294490269252,900.9388392857143,4236.6,1268.8294490269252,900.9388392857143,4341.9,1268.8294490269252,900.9388392857143,4447.6,1268.8294490269252,900.9388392857143,4551.1,1268.8294490269252,900.9388392857143,4656.2,1268.8294490269252,900.9388392857143,4761.8,1268.8294490269252,900.9388392857143,4866,1268.8294490269252,900.9388392857143,4967.8]","[1531.2,1531.2,1000,0,531.2,""smooth"",""up"",""up"",""good_move"",8315.1,6783.7,2547.1,5320,448,""smooth"",""right"",""right"",""good_move"",11931.2,3615.9,3171.7,8315.3,444.2,""smooth"",""up"",""up"",""good_move"",15205.2,3273.6,2902.8,11931.6,370.8,""oops"",""right"",""right"",""good_move""]","",""
"3718","","<div style=""width:500px;"">
  <p>What determined the result of this run?</p>
  </div>","100","html-slider-response","59","895576","0.0-10.0-1.4","74","1","2025-07-02 10:19:02","80fe4187154257d5fb01684ea91b68b9","86.162.192.186","Mozilla/5.0 (Windows NT 10.0; Win64; x64) AppleWebKit/537.36 (KHTML, like Gecko) Chrome/138.0.0.0 Safari/537.36 Edg/138.0.0.0","WebKit","Edge","138.0.0.0","Windows","10.0","https://app.prolific.com/","en-US,en;q=0.9,en-GB;q=0.8","661d1672f01169fe41f1f001","683db6dfa200031b80f2a654","68650784814549a85cf6fca9","661d1672f01169fe41f1f001","2025-07-02T10:33:56.608Z","","","","","","AttribQ","","","","","","","","","","","","","","","","","","","","","","","","","","","","","","","","","","","","","","50"
"2721","","<div style=""width:500px;"">
  <p>How much control did you have over the ball?</p>
  </div>","100","html-slider-response","60","898298","0.0-10.0-2.4","74","1","2025-07-02 10:19:02","80fe4187154257d5fb01684ea91b68b9","86.162.192.186","Mozilla/5.0 (Windows NT 10.0; Win64; x64) AppleWebKit/537.36 (KHTML, like Gecko) Chrome/138.0.0.0 Safari/537.36 Edg/138.0.0.0","WebKit","Edge","138.0.0.0","Windows","10.0","https://app.prolific.com/","en-US,en;q=0.9,en-GB;q=0.8","661d1672f01169fe41f1f001","683db6dfa200031b80f2a654","68650784814549a85cf6fca9","661d1672f01169fe41f1f001","2025-07-02T10:33:59.330Z","","","","","","ControlQ","","","","","","","","","","","","","","","","","","","","","","","","","","","","","","","","","","","","","","50"
"3063","","<div style=""width:500px;"">
  <p>How would you describe your current emotional state?</p>
  </div>","15","html-slider-response","61","901362","0.0-10.0-3.4","74","1","2025-07-02 10:19:02","80fe4187154257d5fb01684ea91b68b9","86.162.192.186","Mozilla/5.0 (Windows NT 10.0; Win64; x64) AppleWebKit/537.36 (KHTML, like Gecko) Chrome/138.0.0.0 Safari/537.36 Edg/138.0.0.0","WebKit","Edge","138.0.0.0","Windows","10.0","https://app.prolific.com/","en-US,en;q=0.9,en-GB;q=0.8","661d1672f01169fe41f1f001","683db6dfa200031b80f2a654","68650784814549a85cf6fca9","661d1672f01169fe41f1f001","2025-07-02T10:34:02.394Z","","","","","","StressQ","","","","","","","","","","","","","","","","","","","","","","","","","","","","","","","","","","","","","","50"
"3977","","<div style=""width:500px;"">
  <p>What best describes how you currently feel?</p>
  </div>","86","html-slider-response","62","905339","0.0-10.0-4.4","74","1","2025-07-02 10:19:02","80fe4187154257d5fb01684ea91b68b9","86.162.192.186","Mozilla/5.0 (Windows NT 10.0; Win64; x64) AppleWebKit/537.36 (KHTML, like Gecko) Chrome/138.0.0.0 Safari/537.36 Edg/138.0.0.0","WebKit","Edge","138.0.0.0","Windows","10.0","https://app.prolific.com/","en-US,en;q=0.9,en-GB;q=0.8","661d1672f01169fe41f1f001","683db6dfa200031b80f2a654","68650784814549a85cf6fca9","661d1672f01169fe41f1f001","2025-07-02T10:34:06.371Z","","","","","","MotivationQ","","","","","","","","","","","","","","","","","","","","","","","","","","","","","","","","","","","","","","50"
"","","","","ctl-task-cpt","63","957159","0.0-10.0-0.5","74","1","2025-07-02 10:19:02","80fe4187154257d5fb01684ea91b68b9","86.162.192.186","Mozilla/5.0 (Windows NT 10.0; Win64; x64) AppleWebKit/537.36 (KHTML, like Gecko) Chrome/138.0.0.0 Safari/537.36 Edg/138.0.0.0","WebKit","Edge","138.0.0.0","Windows","10.0","https://app.prolific.com/","en-US,en;q=0.9,en-GB;q=0.8","661d1672f01169fe41f1f001","683db6dfa200031b80f2a654","68650784814549a85cf6fca9","661d1672f01169fe41f1f001","2025-07-02T10:34:58.191Z","","","","","","","","","","","","","","","","win-only","0","g1:NW,g2:SE","0.5","6","0","906600.1","1505.5","6515.2","48814.5","1","4","4","6","2","-4","-4","14","18","0.10606060606060606","1170.4","3000","-2685","[""down"",""right""]","{""num_key_presses"":9,""num_perfect"":4,""num_errors"":0,""num_randdir"":5,""num_randdir_good_moves"":1,""num_whilered"":0,""num_whileblue"":0,""num_blue"":5,""num_good_moves"":5}","[620.8294490269252,621.9388392857143,0.2,620.8294490269252,621.9388392857143,100,620.8294490269252,621.9388392857143,201,620.8294490269252,621.9388392857143,304.8,620.8294490269252,621.9388392857143,405.6,620.8294490269252,621.9388392857143,510.1,620.8294490269252,621.9388392857143,614.7,668.8294490269252,678.9388392857143,715.9,1021.3294490269252,1122.9388392857143,820.4,1064.8294490269252,1160.4388392857143,926.1,1108.3294490269252,1169.4388392857143,1029.6,1121.8294490269252,1164.9388392857143,1129.8,1121.8294490269252,1161.9388392857143,1235.7,1121.8294490269252,1161.9388392857143,1340.9,1121.8294490269252,1161.9388392857143,1441.1,1100.8294490269252,1025.4388392857143,1541.2,1244.8294490269252,864.9388392857143,1642,1394.8294490269252,824.4388392857143,1745.9,1396.3294490269252,824.4388392857143,1849.7,1396.3294490269252,824.4388392857143,1949.8,1396.3294490269252,824.4388392857143,2055.3,1396.3294490269252,824.4388392857143,2155.7,1396.3294490269252,824.4388392857143,2259.6,1396.3294490269252,824.4388392857143,2360.3,1396.3294490269252,824.4388392857143,2464.8,1396.3294490269252,824.4388392857143,2565,1396.3294490269252,824.4388392857143,2665.8,1396.3294490269252,824.4388392857143,2776.9,1396.3294490269252,824.4388392857143,2879.7,1396.3294490269252,824.4388392857143,2979.7,1396.3294490269252,824.4388392857143,3079.7,1396.3294490269252,824.4388392857143,3180.3,1396.3294490269252,824.4388392857143,3280.3,1396.3294490269252,824.4388392857143,3380.7,1396.3294490269252,824.4388392857143,3481.1,1396.3294490269252,824.4388392857143,3586.5,1396.3294490269252,824.4388392857143,3686.5,1396.3294490269252,824.4388392857143,3794.3,1396.3294490269252,824.4388392857143,3895.1,1396.3294490269252,824.4388392857143,3996.3,1396.3294490269252,824.4388392857143,4100,1396.3294490269252,824.4388392857143,4200.1,1396.3294490269252,824.4388392857143,4300.6,1396.3294490269252,824.4388392857143,4409.7,1396.3294490269252,824.4388392857143,4509.8,1396.3294490269252,824.4388392857143,4610.8,1396.3294490269252,824.4388392857143,4714.7,1396.3294490269252,824.4388392857143,4815.5,1396.3294490269252,824.4388392857143,4919.7]","[7770.4,7770.4,2249.8,5085.6,435,""smooth"",""down"",""down"",""good_move"",10235.5,2465,2013.8,7770.6,451.2,""oops"",""right"",""up"",""bad_move"",13152.2,2916.5,2588.6,10235.7,327.9,""oops"",""down"",""up"",""bad_move"",18821.5,5669,1852.5,16567.3,401.7,""smooth"",""down"",""down"",""good_move"",21338.7,2517,2163.7,18821.8,353.2,""oops"",""right"",""up"",""bad_move"",24585.4,3246.5,2909,21338.9,337.5,""smooth"",""down"",""down"",""good_move"",27619.2,3033.7,2720.8,24585.5,312.9,""smooth"",""down"",""down"",""good_move"",30707,3087.5,2750.2,27619.5,337.3,""oops"",""down"",""down"",""good_move"",33298.2,2591.1,2322.9,30707.2,268.1,""oops"",""right"",""up"",""bad_move""]","",""
"4204","","<div style=""width:500px;"">
  <p>What determined the result of this run?</p>
  </div>","0","html-slider-response","64","961364","0.0-10.0-1.5","74","1","2025-07-02 10:19:02","80fe4187154257d5fb01684ea91b68b9","86.162.192.186","Mozilla/5.0 (Windows NT 10.0; Win64; x64) AppleWebKit/537.36 (KHTML, like Gecko) Chrome/138.0.0.0 Safari/537.36 Edg/138.0.0.0","WebKit","Edge","138.0.0.0","Windows","10.0","https://app.prolific.com/","en-US,en;q=0.9,en-GB;q=0.8","661d1672f01169fe41f1f001","683db6dfa200031b80f2a654","68650784814549a85cf6fca9","661d1672f01169fe41f1f001","2025-07-02T10:35:02.396Z","","","","","","AttribQ","","","","","","","","","","","","","","","","","","","","","","","","","","","","","","","","","","","","","","50"
"2685","","<div style=""width:500px;"">
  <p>How much control did you have over the ball?</p>
  </div>","0","html-slider-response","65","964051","0.0-10.0-2.5","74","1","2025-07-02 10:19:02","80fe4187154257d5fb01684ea91b68b9","86.162.192.186","Mozilla/5.0 (Windows NT 10.0; Win64; x64) AppleWebKit/537.36 (KHTML, like Gecko) Chrome/138.0.0.0 Safari/537.36 Edg/138.0.0.0","WebKit","Edge","138.0.0.0","Windows","10.0","https://app.prolific.com/","en-US,en;q=0.9,en-GB;q=0.8","661d1672f01169fe41f1f001","683db6dfa200031b80f2a654","68650784814549a85cf6fca9","661d1672f01169fe41f1f001","2025-07-02T10:35:05.083Z","","","","","","ControlQ","","","","","","","","","","","","","","","","","","","","","","","","","","","","","","","","","","","","","","50"
"3257","","<div style=""width:500px;"">
  <p>How would you describe your current emotional state?</p>
  </div>","18","html-slider-response","66","967309","0.0-10.0-3.5","74","1","2025-07-02 10:19:02","80fe4187154257d5fb01684ea91b68b9","86.162.192.186","Mozilla/5.0 (Windows NT 10.0; Win64; x64) AppleWebKit/537.36 (KHTML, like Gecko) Chrome/138.0.0.0 Safari/537.36 Edg/138.0.0.0","WebKit","Edge","138.0.0.0","Windows","10.0","https://app.prolific.com/","en-US,en;q=0.9,en-GB;q=0.8","661d1672f01169fe41f1f001","683db6dfa200031b80f2a654","68650784814549a85cf6fca9","661d1672f01169fe41f1f001","2025-07-02T10:35:08.341Z","","","","","","StressQ","","","","","","","","","","","","","","","","","","","","","","","","","","","","","","","","","","","","","","50"
"3352","","<div style=""width:500px;"">
  <p>What best describes how you currently feel?</p>
  </div>","86","html-slider-response","67","970662","0.0-10.0-4.5","74","1","2025-07-02 10:19:02","80fe4187154257d5fb01684ea91b68b9","86.162.192.186","Mozilla/5.0 (Windows NT 10.0; Win64; x64) AppleWebKit/537.36 (KHTML, like Gecko) Chrome/138.0.0.0 Safari/537.36 Edg/138.0.0.0","WebKit","Edge","138.0.0.0","Windows","10.0","https://app.prolific.com/","en-US,en;q=0.9,en-GB;q=0.8","661d1672f01169fe41f1f001","683db6dfa200031b80f2a654","68650784814549a85cf6fca9","661d1672f01169fe41f1f001","2025-07-02T10:35:11.694Z","","","","","","MotivationQ","","","","","","","","","","","","","","","","","","","","","","","","","","","","","","","","","","","","","","50"
"","","","","ctl-task-cpt","68","996774","0.0-10.0-0.6","74","1","2025-07-02 10:19:02","80fe4187154257d5fb01684ea91b68b9","86.162.192.186","Mozilla/5.0 (Windows NT 10.0; Win64; x64) AppleWebKit/537.36 (KHTML, like Gecko) Chrome/138.0.0.0 Safari/537.36 Edg/138.0.0.0","WebKit","Edge","138.0.0.0","Windows","10.0","https://app.prolific.com/","en-US,en;q=0.9,en-GB;q=0.8","661d1672f01169fe41f1f001","683db6dfa200031b80f2a654","68650784814549a85cf6fca9","661d1672f01169fe41f1f001","2025-07-02T10:35:37.806Z","","","","","","","","","","","","","","","","win-only","2","g1:SE,g2:NW","0.4","7","0","971922.9","1006.7","6010.6","23086.1","1","4","4","6","1","1","1","15","14","0.11363636363636363","2520.6","3000","1015","[""down"",""right""]","{""num_key_presses"":6,""num_perfect"":4,""num_errors"":0,""num_randdir"":2,""num_randdir_good_moves"":1,""num_whilered"":0,""num_whileblue"":0,""num_blue"":0,""num_good_moves"":5}","[608.8294490269252,617.4388392857143,0.2,608.8294490269252,617.4388392857143,100.5,608.8294490269252,617.4388392857143,200.8,608.8294490269252,617.4388392857143,303.4,608.8294490269252,617.4388392857143,403.4,608.8294490269252,617.4388392857143,503.4,608.8294490269252,617.4388392857143,603.8,608.8294490269252,617.4388392857143,704.4,545.8294490269252,596.4388392857143,809.6,251.8294490269252,255.93883928571427,915.9,251.8294490269252,255.93883928571427,1016.1,251.8294490269252,255.93883928571427,1118.4,251.8294490269252,255.93883928571427,1220.2,157.3294490269252,165.93883928571427,1324.4,140.8294490269252,149.43883928571427,1429.4,140.8294490269252,147.93883928571427,1534.2,140.8294490269252,147.93883928571427,1638.4,398.8294490269252,398.43883928571427,1739.3,868.3294490269252,810.9388392857143,1840.3,1024.3294490269252,896.4388392857143,1943.6,1024.3294490269252,896.4388392857143,2044,1024.3294490269252,896.4388392857143,2148.6,1081.3294490269252,1064.4388392857143,2251.2,1124.8294490269252,1154.4388392857143,2355.3,1127.8294490269252,1163.4388392857143,2458.6,1129.3294490269252,1163.4388392857143,2563.9,1129.3294490269252,1163.4388392857143,2669.1,1129.3294490269252,1163.4388392857143,2770,1168.3294490269252,1109.4388392857143,2874.9,1379.8294490269252,920.4388392857143,2979.9,1507.3294490269252,860.4388392857143,3084.2,1507.3294490269252,860.4388392857143,3184.8,1507.3294490269252,860.4388392857143,3284.9,1507.3294490269252,860.4388392857143,3385.5,1507.3294490269252,860.4388392857143,3488.5,1507.3294490269252,860.4388392857143,3588.8,1507.3294490269252,860.4388392857143,3690.2,1507.3294490269252,860.4388392857143,3794,1507.3294490269252,860.4388392857143,3898.8,1507.3294490269252,860.4388392857143,3999.6,1507.3294490269252,860.4388392857143,4103.8,1507.3294490269252,860.4388392857143,4209.1,1507.3294490269252,860.4388392857143,4310.5,1507.3294490269252,860.4388392857143,4414.2,1507.3294490269252,860.4388392857143,4515.3,1507.3294490269252,860.4388392857143,4618.7,1507.3294490269252,860.4388392857143,4719,1507.3294490269252,860.4388392857143,4824.2,1507.3294490269252,860.4388392857143,4924.8]","[1501.9,1501.9,1000,0,501.9,""smooth"",""right"",""right"",""good_move"",4848.6,3346.4,3025.4,1502.2,321,""oops"",""down"",""left"",""bad_move"",7849.5,3000.8,2634.1,4848.7,366.7,""smooth"",""right"",""right"",""good_move"",11754.1,3904.4,3573.4,7849.7,331,""oops"",""right"",""right"",""good_move"",14681.8,2927.4,2557.5,11754.4,370,""smooth"",""down"",""down"",""good_move"",16969.8,2287.8,1950.5,14682.1,337.2,""smooth"",""down"",""down"",""good_move""]","",""
"4131","","<div style=""width:500px;"">
  <p>What determined the result of this run?</p>
  </div>","65","html-slider-response","69","1000906","0.0-10.0-1.6","74","1","2025-07-02 10:19:02","80fe4187154257d5fb01684ea91b68b9","86.162.192.186","Mozilla/5.0 (Windows NT 10.0; Win64; x64) AppleWebKit/537.36 (KHTML, like Gecko) Chrome/138.0.0.0 Safari/537.36 Edg/138.0.0.0","WebKit","Edge","138.0.0.0","Windows","10.0","https://app.prolific.com/","en-US,en;q=0.9,en-GB;q=0.8","661d1672f01169fe41f1f001","683db6dfa200031b80f2a654","68650784814549a85cf6fca9","661d1672f01169fe41f1f001","2025-07-02T10:35:41.938Z","","","","","","AttribQ","","","","","","","","","","","","","","","","","","","","","","","","","","","","","","","","","","","","","","50"
"6825","","<div style=""width:500px;"">
  <p>How much control did you have over the ball?</p>
  </div>","68","html-slider-response","70","1007731","0.0-10.0-2.6","74","1","2025-07-02 10:19:02","80fe4187154257d5fb01684ea91b68b9","86.162.192.186","Mozilla/5.0 (Windows NT 10.0; Win64; x64) AppleWebKit/537.36 (KHTML, like Gecko) Chrome/138.0.0.0 Safari/537.36 Edg/138.0.0.0","WebKit","Edge","138.0.0.0","Windows","10.0","https://app.prolific.com/","en-US,en;q=0.9,en-GB;q=0.8","661d1672f01169fe41f1f001","683db6dfa200031b80f2a654","68650784814549a85cf6fca9","661d1672f01169fe41f1f001","2025-07-02T10:35:48.763Z","","","","","","ControlQ","","","","","","","","","","","","","","","","","","","","","","","","","","","","","","","","","","","","","","50"
"3702","","<div style=""width:500px;"">
  <p>How would you describe your current emotional state?</p>
  </div>","16","html-slider-response","71","1011434","0.0-10.0-3.6","74","1","2025-07-02 10:19:02","80fe4187154257d5fb01684ea91b68b9","86.162.192.186","Mozilla/5.0 (Windows NT 10.0; Win64; x64) AppleWebKit/537.36 (KHTML, like Gecko) Chrome/138.0.0.0 Safari/537.36 Edg/138.0.0.0","WebKit","Edge","138.0.0.0","Windows","10.0","https://app.prolific.com/","en-US,en;q=0.9,en-GB;q=0.8","661d1672f01169fe41f1f001","683db6dfa200031b80f2a654","68650784814549a85cf6fca9","661d1672f01169fe41f1f001","2025-07-02T10:35:52.466Z","","","","","","StressQ","","","","","","","","","","","","","","","","","","","","","","","","","","","","","","","","","","","","","","50"
"2599","","<div style=""width:500px;"">
  <p>What best describes how you currently feel?</p>
  </div>","85","html-slider-response","72","1014034","0.0-10.0-4.6","74","1","2025-07-02 10:19:02","80fe4187154257d5fb01684ea91b68b9","86.162.192.186","Mozilla/5.0 (Windows NT 10.0; Win64; x64) AppleWebKit/537.36 (KHTML, like Gecko) Chrome/138.0.0.0 Safari/537.36 Edg/138.0.0.0","WebKit","Edge","138.0.0.0","Windows","10.0","https://app.prolific.com/","en-US,en;q=0.9,en-GB;q=0.8","661d1672f01169fe41f1f001","683db6dfa200031b80f2a654","68650784814549a85cf6fca9","661d1672f01169fe41f1f001","2025-07-02T10:35:55.066Z","","","","","","MotivationQ","","","","","","","","","","","","","","","","","","","","","","","","","","","","","","","","","","","","","","50"
"","","","","ctl-task-cpt","73","1052686","0.0-10.0-0.7","74","1","2025-07-02 10:19:02","80fe4187154257d5fb01684ea91b68b9","86.162.192.186","Mozilla/5.0 (Windows NT 10.0; Win64; x64) AppleWebKit/537.36 (KHTML, like Gecko) Chrome/138.0.0.0 Safari/537.36 Edg/138.0.0.0","WebKit","Edge","138.0.0.0","Windows","10.0","https://app.prolific.com/","en-US,en;q=0.9,en-GB;q=0.8","661d1672f01169fe41f1f001","683db6dfa200031b80f2a654","68650784814549a85cf6fca9","661d1672f01169fe41f1f001","2025-07-02T10:36:33.718Z","","","","","","","","","","","","","","","","win-only","0","g1:NW,g2:SE","0.3","8","0","1015294.6","1124","6126.4","35646.7","1","4","8","6","1","-1","-1","14","15","0.10606060606060606","2486","3000","-2980","[""left"",""up""]","{""num_key_presses"":9,""num_perfect"":2,""num_errors"":0,""num_randdir"":7,""num_randdir_good_moves"":3,""num_whilered"":0,""num_whileblue"":0,""num_blue"":1,""num_good_moves"":5}","[619.3294490269252,617.4388392857143,0.2,619.3294490269252,617.4388392857143,102.1,619.3294490269252,617.4388392857143,213.2,619.3294490269252,617.4388392857143,314.7,619.3294490269252,617.4388392857143,418,619.3294490269252,617.4388392857143,521.8,619.3294490269252,617.4388392857143,622.2,619.3294490269252,617.4388392857143,732,619.3294490269252,617.4388392857143,836.8,863.8294490269252,974.4388392857143,937,1103.8294490269252,1265.4388392857143,1037.3,1148.8294490269252,1278.9388392857143,1137.9,1183.3294490269252,1280.4388392857143,1248.7,1154.8294490269252,1232.4388392857143,1351.3,1144.3294490269252,1208.4388392857143,1452,1139.8294490269252,1203.9388392857143,1556.8,1139.8294490269252,1197.9388392857143,1665.4,1138.3294490269252,1193.4388392857143,1765.4,1076.8294490269252,1136.4388392857143,1867.4,64.32944902692522,432.93883928571427,1971.5,-87.17055097307478,150.93883928571427,2072,-73.67055097307478,125.43883928571428,2172,-81.17055097307478,89.43883928571428,2272,56.82944902692522,146.43883928571427,2372.1,119.82944902692522,179.43883928571427,2472.7,119.82944902692522,179.43883928571427,2579.7,119.82944902692522,179.43883928571427,2681.1,119.82944902692522,179.43883928571427,2781.6,191.8294490269252,282.93883928571427,2881.6,734.8294490269252,974.4388392857143,2987.3,791.8294490269252,1073.4388392857143,3097.5,590.8294490269252,1095.9388392857143,3201.4,590.8294490269252,1095.9388392857143,3301.4,590.8294490269252,1095.9388392857143,3401.5,590.8294490269252,1095.9388392857143,3501.8,590.8294490269252,1095.9388392857143,3607.4,590.8294490269252,1095.9388392857143,3713.5,590.8294490269252,1095.9388392857143,3814.1,590.8294490269252,1095.9388392857143,3914.5,590.8294490269252,1095.9388392857143,4016.4,590.8294490269252,1095.9388392857143,4121.4,590.8294490269252,1095.9388392857143,4222,590.8294490269252,1095.9388392857143,4330.5,590.8294490269252,1095.9388392857143,4431.2,590.8294490269252,1095.9388392857143,4531.9,590.8294490269252,1095.9388392857143,4636.9,590.8294490269252,1095.9388392857143,4737.2,590.8294490269252,1095.9388392857143,4837.3,590.8294490269252,1095.9388392857143,4946.6]","[1443,1443,1000,0,443,""oops"",""left"",""right"",""bad_move"",4979,3535.7,3178.3,1443.3,357.4,""oops"",""left"",""up"",""good_move"",7463.6,2484.1,2113.8,4979.5,370.3,""smooth"",""left"",""left"",""good_move"",9310.8,1847,1533.3,7463.8,313.7,""oops"",""left"",""up"",""good_move"",10993.6,1682.7,1349.5,9310.9,333.2,""oops"",""left"",""down"",""bad_move"",14410.8,3417,3053,10993.8,364,""oops"",""left"",""down"",""bad_move"",21026.4,6615.4,2223.9,18413.4,389.1,""smooth"",""left"",""left"",""good_move"",24261.2,3234.5,2877.7,21026.7,356.8,""oops"",""up"",""up"",""good_move"",27426.2,3164.8,2841.4,24261.4,323.4,""oops"",""left"",""right"",""bad_move""]","",""
"2935","","<div style=""width:500px;"">
  <p>What determined the result of this run?</p>
  </div>","0","html-slider-response","74","1055622","0.0-10.0-1.7","74","1","2025-07-02 10:19:02","80fe4187154257d5fb01684ea91b68b9","86.162.192.186","Mozilla/5.0 (Windows NT 10.0; Win64; x64) AppleWebKit/537.36 (KHTML, like Gecko) Chrome/138.0.0.0 Safari/537.36 Edg/138.0.0.0","WebKit","Edge","138.0.0.0","Windows","10.0","https://app.prolific.com/","en-US,en;q=0.9,en-GB;q=0.8","661d1672f01169fe41f1f001","683db6dfa200031b80f2a654","68650784814549a85cf6fca9","661d1672f01169fe41f1f001","2025-07-02T10:36:36.654Z","","","","","","AttribQ","","","","","","","","","","","","","","","","","","","","","","","","","","","","","","","","","","","","","","50"
"2812","","<div style=""width:500px;"">
  <p>How much control did you have over the ball?</p>
  </div>","0","html-slider-response","75","1058436","0.0-10.0-2.7","74","1","2025-07-02 10:19:02","80fe4187154257d5fb01684ea91b68b9","86.162.192.186","Mozilla/5.0 (Windows NT 10.0; Win64; x64) AppleWebKit/537.36 (KHTML, like Gecko) Chrome/138.0.0.0 Safari/537.36 Edg/138.0.0.0","WebKit","Edge","138.0.0.0","Windows","10.0","https://app.prolific.com/","en-US,en;q=0.9,en-GB;q=0.8","661d1672f01169fe41f1f001","683db6dfa200031b80f2a654","68650784814549a85cf6fca9","661d1672f01169fe41f1f001","2025-07-02T10:36:39.468Z","","","","","","ControlQ","","","","","","","","","","","","","","","","","","","","","","","","","","","","","","","","","","","","","","50"
"4405","","<div style=""width:500px;"">
  <p>How would you describe your current emotional state?</p>
  </div>","16","html-slider-response","76","1062841","0.0-10.0-3.7","74","1","2025-07-02 10:19:02","80fe4187154257d5fb01684ea91b68b9","86.162.192.186","Mozilla/5.0 (Windows NT 10.0; Win64; x64) AppleWebKit/537.36 (KHTML, like Gecko) Chrome/138.0.0.0 Safari/537.36 Edg/138.0.0.0","WebKit","Edge","138.0.0.0","Windows","10.0","https://app.prolific.com/","en-US,en;q=0.9,en-GB;q=0.8","661d1672f01169fe41f1f001","683db6dfa200031b80f2a654","68650784814549a85cf6fca9","661d1672f01169fe41f1f001","2025-07-02T10:36:43.874Z","","","","","","StressQ","","","","","","","","","","","","","","","","","","","","","","","","","","","","","","","","","","","","","","50"
"2337","","<div style=""width:500px;"">
  <p>What best describes how you currently feel?</p>
  </div>","81","html-slider-response","77","1065179","0.0-10.0-4.7","74","1","2025-07-02 10:19:02","80fe4187154257d5fb01684ea91b68b9","86.162.192.186","Mozilla/5.0 (Windows NT 10.0; Win64; x64) AppleWebKit/537.36 (KHTML, like Gecko) Chrome/138.0.0.0 Safari/537.36 Edg/138.0.0.0","WebKit","Edge","138.0.0.0","Windows","10.0","https://app.prolific.com/","en-US,en;q=0.9,en-GB;q=0.8","661d1672f01169fe41f1f001","683db6dfa200031b80f2a654","68650784814549a85cf6fca9","661d1672f01169fe41f1f001","2025-07-02T10:36:46.211Z","","","","","","MotivationQ","","","","","","","","","","","","","","","","","","","","","","","","","","","","","","","","","","","","","","50"
"","","","","ctl-task-cpt","78","1109938","0.0-10.0-0.8","74","1","2025-07-02 10:19:02","80fe4187154257d5fb01684ea91b68b9","86.162.192.186","Mozilla/5.0 (Windows NT 10.0; Win64; x64) AppleWebKit/537.36 (KHTML, like Gecko) Chrome/138.0.0.0 Safari/537.36 Edg/138.0.0.0","WebKit","Edge","138.0.0.0","Windows","10.0","https://app.prolific.com/","en-US,en;q=0.9,en-GB;q=0.8","661d1672f01169fe41f1f001","683db6dfa200031b80f2a654","68650784814549a85cf6fca9","661d1672f01169fe41f1f001","2025-07-02T10:37:30.971Z","","","","","","","","","","","","","","","","win-only","0","g1:NW,g2:SE","0.4","9","0","1066439.6","1459.3","6461","41744","1","4","4","6","2","-4","-4","10","14","0.07575757575757576","1676.1","3000","-2585","[""down"",""right""]","{""num_key_presses"":8,""num_perfect"":3,""num_errors"":0,""num_randdir"":5,""num_randdir_good_moves"":2,""num_whilered"":0,""num_whileblue"":0,""num_blue"":4,""num_good_moves"":5}","[623.8294490269252,618.9388392857143,0.1,623.8294490269252,618.9388392857143,100.3,623.8294490269252,618.9388392857143,201.2,623.8294490269252,618.9388392857143,301.5,623.8294490269252,618.9388392857143,404.8,623.8294490269252,618.9388392857143,506,623.8294490269252,618.9388392857143,606.4,692.8294490269252,735.9388392857143,716,704.8294490269252,803.4388392857143,818,704.8294490269252,803.4388392857143,921.6,704.8294490269252,803.4388392857143,1021.7,704.8294490269252,803.4388392857143,1126.7,1078.3294490269252,1137.9388392857143,1233.6,1124.8294490269252,1140.9388392857143,1336.2,1187.8294490269252,1160.4388392857143,1441.4,1186.3294490269252,1157.4388392857143,1541.9,1159.3294490269252,1136.4388392857143,1642.8,1157.8294490269252,1133.4388392857143,1750.3,1157.8294490269252,1133.4388392857143,1851,1157.8294490269252,1133.4388392857143,1951.6,1157.8294490269252,1133.4388392857143,2056.5,1178.8294490269252,1115.4388392857143,2162.5,1448.8294490269252,962.4388392857143,2266.1,1544.8294490269252,917.4388392857143,2366.5,1541.8294490269252,912.9388392857143,2471.8,1541.8294490269252,912.9388392857143,2571.9,1541.8294490269252,912.9388392857143,2673.2,1541.8294490269252,912.9388392857143,2777.9,1541.8294490269252,912.9388392857143,2884.1,1541.8294490269252,912.9388392857143,2986.5,1541.8294490269252,912.9388392857143,3086.9,1541.8294490269252,912.9388392857143,3188.3,1541.8294490269252,912.9388392857143,3291.5,1541.8294490269252,912.9388392857143,3392.1,1541.8294490269252,912.9388392857143,3500.1,1541.8294490269252,912.9388392857143,3601.4,1541.8294490269252,912.9388392857143,3701.4,1541.8294490269252,912.9388392857143,3801.4,1541.8294490269252,912.9388392857143,3901.4,1541.8294490269252,912.9388392857143,4005.9,1541.8294490269252,912.9388392857143,4106.2,1541.8294490269252,912.9388392857143,4206.8,1541.8294490269252,912.9388392857143,4308.1,1541.8294490269252,912.9388392857143,4412.2,1541.8294490269252,912.9388392857143,4517.2,1541.8294490269252,912.9388392857143,4622.6,1541.8294490269252,912.9388392857143,4727.3,1541.8294490269252,912.9388392857143,4834.2,1541.8294490269252,912.9388392857143,4937.2]","[4881.4,4881.4,2439.9,2005.1,436.4,""smooth"",""down"",""down"",""good_move"",11032.7,6151.1,2271.3,8394.2,367.2,""smooth"",""right"",""right"",""good_move"",13289.2,2256.4,1755,11032.9,501.3,""oops"",""down"",""right"",""good_move"",18285.8,4996.4,2012.2,15905.1,368.6,""oops"",""down"",""left"",""bad_move"",24863.7,6577.7,2296.6,22155.1,412,""oops"",""right"",""left"",""bad_move"",28023.1,3159.1,2802.5,24864,356.6,""oops"",""down"",""left"",""bad_move"",30525.7,2502.5,2142.3,28023.2,360.2,""oops"",""right"",""down"",""good_move"",32634.8,2108.9,1797.8,30525.9,311.1,""smooth"",""right"",""right"",""good_move""]","",""
"4317","","<div style=""width:500px;"">
  <p>What determined the result of this run?</p>
  </div>","0","html-slider-response","79","1114256","0.0-10.0-1.8","74","1","2025-07-02 10:19:02","80fe4187154257d5fb01684ea91b68b9","86.162.192.186","Mozilla/5.0 (Windows NT 10.0; Win64; x64) AppleWebKit/537.36 (KHTML, like Gecko) Chrome/138.0.0.0 Safari/537.36 Edg/138.0.0.0","WebKit","Edge","138.0.0.0","Windows","10.0","https://app.prolific.com/","en-US,en;q=0.9,en-GB;q=0.8","661d1672f01169fe41f1f001","683db6dfa200031b80f2a654","68650784814549a85cf6fca9","661d1672f01169fe41f1f001","2025-07-02T10:37:35.289Z","","","","","","AttribQ","","","","","","","","","","","","","","","","","","","","","","","","","","","","","","","","","","","","","","50"
"3788","","<div style=""width:500px;"">
  <p>How much control did you have over the ball?</p>
  </div>","0","html-slider-response","80","1118046","0.0-10.0-2.8","74","1","2025-07-02 10:19:02","80fe4187154257d5fb01684ea91b68b9","86.162.192.186","Mozilla/5.0 (Windows NT 10.0; Win64; x64) AppleWebKit/537.36 (KHTML, like Gecko) Chrome/138.0.0.0 Safari/537.36 Edg/138.0.0.0","WebKit","Edge","138.0.0.0","Windows","10.0","https://app.prolific.com/","en-US,en;q=0.9,en-GB;q=0.8","661d1672f01169fe41f1f001","683db6dfa200031b80f2a654","68650784814549a85cf6fca9","661d1672f01169fe41f1f001","2025-07-02T10:37:39.078Z","","","","","","ControlQ","","","","","","","","","","","","","","","","","","","","","","","","","","","","","","","","","","","","","","50"
"4267","","<div style=""width:500px;"">
  <p>How would you describe your current emotional state?</p>
  </div>","15","html-slider-response","81","1122313","0.0-10.0-3.8","74","1","2025-07-02 10:19:02","80fe4187154257d5fb01684ea91b68b9","86.162.192.186","Mozilla/5.0 (Windows NT 10.0; Win64; x64) AppleWebKit/537.36 (KHTML, like Gecko) Chrome/138.0.0.0 Safari/537.36 Edg/138.0.0.0","WebKit","Edge","138.0.0.0","Windows","10.0","https://app.prolific.com/","en-US,en;q=0.9,en-GB;q=0.8","661d1672f01169fe41f1f001","683db6dfa200031b80f2a654","68650784814549a85cf6fca9","661d1672f01169fe41f1f001","2025-07-02T10:37:43.346Z","","","","","","StressQ","","","","","","","","","","","","","","","","","","","","","","","","","","","","","","","","","","","","","","50"
"15568","","<div style=""width:500px;"">
  <p>What best describes how you currently feel?</p>
  </div>","82","html-slider-response","82","1137882","0.0-10.0-4.8","74","1","2025-07-02 10:19:02","80fe4187154257d5fb01684ea91b68b9","86.162.192.186","Mozilla/5.0 (Windows NT 10.0; Win64; x64) AppleWebKit/537.36 (KHTML, like Gecko) Chrome/138.0.0.0 Safari/537.36 Edg/138.0.0.0","WebKit","Edge","138.0.0.0","Windows","10.0","https://app.prolific.com/","en-US,en;q=0.9,en-GB;q=0.8","661d1672f01169fe41f1f001","683db6dfa200031b80f2a654","68650784814549a85cf6fca9","661d1672f01169fe41f1f001","2025-07-02T10:37:58.914Z","","","","","","MotivationQ","","","","","","","","","","","","","","","","","","","","","","","","","","","","","","","","","","","","","","50"
