"rt","response_timestamp","stimulus","response","trial_type","trial_index","time_elapsed","internal_node_id","run_id","condition","recorded_at","source_code_version","ip","user_agent","device","browser","browser_version","platform","platform_version","referer","accept_language","PROLIFIC_PID","STUDY_ID","SESSION_ID","prolific_id","realtime","view_history","question_order","consent","success","question_id","eventType","responses","item_order","radio_event_ids","radio_event_times","key_event_times","mouse_event_times","straightlining","zigzagging","honeypot","which_type","canvas_config","goals_layout","control_level","trial_number","tutorial_trial_number","trial_start_time","phase1_start_time","phase2_start_time","phase3_start_time","goal_1_value","goal_1_distance","goal_2_value","goal_2_distance","goal_selected","outcome","outcome_total","participant_final_score","participant_initial_score","participant_final_score_prop","goal_choice_rt","allocated_time","allocated_time_remaining","goal_direction","counts","mouse_movements","key_presses","correct","slider_start"
"3282","1751454750549","<p style='font-size:40px;line-height:1.25'><strong>Welcome to the experiment!</strong></p><p style='font-size:1.1em;line-height:1.25'>Thank you for your interest in our experiment! Before you begin, it is important that we obtain your informed consent to participate in the study.</p><p style='font-size:1.1em;line-height:1.25'>On the next screen will be an <strong>information sheet</strong> for you to read. To participate in the study we need you to read this information sheet and the following consent form carefully. If you agree with all the statements, please click the <strong>I agree</strong> button.</p><p style='font-size:1.1em;line-height:1.25'>Press <strong>Next</strong> to read the information sheet.</p>","0","custom-html-button-response","0","3283","0.0-0.0","225","1","2025-07-02 11:12:24","80fe4187154257d5fb01684ea91b68b9","37.47.196.61","Mozilla/5.0 (Windows NT 10.0; Win64; x64) AppleWebKit/537.36 (KHTML, like Gecko) Chrome/137.0.0.0 Safari/537.36","WebKit","Chrome","137.0.0.0","Windows","10.0","https://app.prolific.com/","en-GB,en-US;q=0.9,en;q=0.8","661fcd42e06a76702b43ba20","683db6dfa200031b80f2a654","68650751c9c9934f8b48aa4b","661fcd42e06a76702b43ba20","2025-07-02T11:12:30.549Z","","","","","","","","","","","","","","","","","","","","","","","","","","","","","","","","","","","","","","","","","","","",""
"2184","","","","instructions","1","5468","0.0-1.0","225","1","2025-07-02 11:12:24","80fe4187154257d5fb01684ea91b68b9","37.47.196.61","Mozilla/5.0 (Windows NT 10.0; Win64; x64) AppleWebKit/537.36 (KHTML, like Gecko) Chrome/137.0.0.0 Safari/537.36","WebKit","Chrome","137.0.0.0","Windows","10.0","https://app.prolific.com/","en-GB,en-US;q=0.9,en;q=0.8","661fcd42e06a76702b43ba20","683db6dfa200031b80f2a654","68650751c9c9934f8b48aa4b","661fcd42e06a76702b43ba20","","[{""page_index"":0,""viewing_time"":1429},{""page_index"":1,""viewing_time"":755}]","","","","","","","","","","","","","","","","","","","","","","","","","","","","","","","","","","","","","","","","","","",""
"1869","","","{""Q0"":"""",""Q1"":"""",""Q2"":"""",""Q3"":"""",""Q4"":"""",""Q5"":"""",""Q6"":""I agree""}","survey-multi-choice","2","7338","0.0-2.0","225","1","2025-07-02 11:12:24","80fe4187154257d5fb01684ea91b68b9","37.47.196.61","Mozilla/5.0 (Windows NT 10.0; Win64; x64) AppleWebKit/537.36 (KHTML, like Gecko) Chrome/137.0.0.0 Safari/537.36","WebKit","Chrome","137.0.0.0","Windows","10.0","https://app.prolific.com/","en-GB,en-US;q=0.9,en;q=0.8","661fcd42e06a76702b43ba20","683db6dfa200031b80f2a654","68650751c9c9934f8b48aa4b","661fcd42e06a76702b43ba20","","","[0,1,2,3,4,5,6]","true","","","","","","","","","","","","","","","","","","","","","","","","","","","","","","","","","","","","","","","","",""
"3855","","","","fullscreen","3","12195","0.0-4.0","225","1","2025-07-02 11:12:24","80fe4187154257d5fb01684ea91b68b9","37.47.196.61","Mozilla/5.0 (Windows NT 10.0; Win64; x64) AppleWebKit/537.36 (KHTML, like Gecko) Chrome/137.0.0.0 Safari/537.36","WebKit","Chrome","137.0.0.0","Windows","10.0","https://app.prolific.com/","en-GB,en-US;q=0.9,en;q=0.8","661fcd42e06a76702b43ba20","683db6dfa200031b80f2a654","68650751c9c9934f8b48aa4b","661fcd42e06a76702b43ba20","","","","","true","","","","","","","","","","","","","","","","","","","","","","","","","","","","","","","","","","","","","","","",""
"2117","1751454761578"," <p style='font-size:1.1em;line-height:1.25'>Thank you for completing the consent form and closing all other tabs.</p><p style='font-size:1.1em;line-height:1.25'>We will now invite you to fill in some demographic information and questionnaires, before starting the game.<br>This will take about 5 minutes.<br></p><p style='font-size:1.1em;line-height:1.25'>Press the <strong>Next</strong> button to continue.</p>","0","custom-html-button-response","4","14312","0.0-5.0","225","1","2025-07-02 11:12:24","80fe4187154257d5fb01684ea91b68b9","37.47.196.61","Mozilla/5.0 (Windows NT 10.0; Win64; x64) AppleWebKit/537.36 (KHTML, like Gecko) Chrome/137.0.0.0 Safari/537.36","WebKit","Chrome","137.0.0.0","Windows","10.0","https://app.prolific.com/","en-GB,en-US;q=0.9,en;q=0.8","661fcd42e06a76702b43ba20","683db6dfa200031b80f2a654","68650751c9c9934f8b48aa4b","661fcd42e06a76702b43ba20","2025-07-02T11:12:41.578Z","","","","","","","","","","","","","","","","","","","","","","","","","","","","","","","","","","","","","","","","","","","",""
"11003","","","{""age"":""38""}","survey-text","5","25316","0.0-6.0-0.0","225","1","2025-07-02 11:12:24","80fe4187154257d5fb01684ea91b68b9","37.47.196.61","Mozilla/5.0 (Windows NT 10.0; Win64; x64) AppleWebKit/537.36 (KHTML, like Gecko) Chrome/137.0.0.0 Safari/537.36","WebKit","Chrome","137.0.0.0","Windows","10.0","https://app.prolific.com/","en-GB,en-US;q=0.9,en;q=0.8","661fcd42e06a76702b43ba20","683db6dfa200031b80f2a654","68650751c9c9934f8b48aa4b","661fcd42e06a76702b43ba20","","","","","","0","demographics","","","","","","","","","","","","","","","","","","","","","","","","","","","","","","","","","","","","","",""
"1768","","","{""gender_identity"":""male/man""}","survey-multi-choice","6","27085","0.0-6.0-1.0","225","1","2025-07-02 11:12:24","80fe4187154257d5fb01684ea91b68b9","37.47.196.61","Mozilla/5.0 (Windows NT 10.0; Win64; x64) AppleWebKit/537.36 (KHTML, like Gecko) Chrome/137.0.0.0 Safari/537.36","WebKit","Chrome","137.0.0.0","Windows","10.0","https://app.prolific.com/","en-GB,en-US;q=0.9,en;q=0.8","661fcd42e06a76702b43ba20","683db6dfa200031b80f2a654","68650751c9c9934f8b48aa4b","661fcd42e06a76702b43ba20","","","[0]","","","1","demographics","","","","","","","","","","","","","","","","","","","","","","","","","","","","","","","","","","","","","",""
"2611","","","{""assigned_sex"":""male""}","survey-multi-choice","7","29697","0.0-6.0-2.0","225","1","2025-07-02 11:12:24","80fe4187154257d5fb01684ea91b68b9","37.47.196.61","Mozilla/5.0 (Windows NT 10.0; Win64; x64) AppleWebKit/537.36 (KHTML, like Gecko) Chrome/137.0.0.0 Safari/537.36","WebKit","Chrome","137.0.0.0","Windows","10.0","https://app.prolific.com/","en-GB,en-US;q=0.9,en;q=0.8","661fcd42e06a76702b43ba20","683db6dfa200031b80f2a654","68650751c9c9934f8b48aa4b","661fcd42e06a76702b43ba20","","","[0]","","","2","demographics","","","","","","","","","","","","","","","","","","","","","","","","","","","","","","","","","","","","","",""
"2246","","","{""menstrual_cycle"":""No""}","survey-multi-choice","8","31943","0.0-6.0-3.0","225","1","2025-07-02 11:12:24","80fe4187154257d5fb01684ea91b68b9","37.47.196.61","Mozilla/5.0 (Windows NT 10.0; Win64; x64) AppleWebKit/537.36 (KHTML, like Gecko) Chrome/137.0.0.0 Safari/537.36","WebKit","Chrome","137.0.0.0","Windows","10.0","https://app.prolific.com/","en-GB,en-US;q=0.9,en;q=0.8","661fcd42e06a76702b43ba20","683db6dfa200031b80f2a654","68650751c9c9934f8b48aa4b","661fcd42e06a76702b43ba20","","","[0]","","","4","demographics","","","","","","","","","","","","","","","","","","","","","","","","","","","","","","","","","","","","","",""
"11105","","","{""education"":""Master's Degree (e.g., MSc)""}","survey-multi-choice","9","43049","0.0-6.0-4.0","225","1","2025-07-02 11:12:24","80fe4187154257d5fb01684ea91b68b9","37.47.196.61","Mozilla/5.0 (Windows NT 10.0; Win64; x64) AppleWebKit/537.36 (KHTML, like Gecko) Chrome/137.0.0.0 Safari/537.36","WebKit","Chrome","137.0.0.0","Windows","10.0","https://app.prolific.com/","en-GB,en-US;q=0.9,en;q=0.8","661fcd42e06a76702b43ba20","683db6dfa200031b80f2a654","68650751c9c9934f8b48aa4b","661fcd42e06a76702b43ba20","","","[0]","","","5","demographics","","","","","","","","","","","","","","","","","","","","","","","","","","","","","","","","","","","","","",""
"3911","","","{""education"":""Doctoral Degree (e.g., PhD)""}","survey-multi-choice","10","46960","0.0-6.0-5.0","225","1","2025-07-02 11:12:24","80fe4187154257d5fb01684ea91b68b9","37.47.196.61","Mozilla/5.0 (Windows NT 10.0; Win64; x64) AppleWebKit/537.36 (KHTML, like Gecko) Chrome/137.0.0.0 Safari/537.36","WebKit","Chrome","137.0.0.0","Windows","10.0","https://app.prolific.com/","en-GB,en-US;q=0.9,en;q=0.8","661fcd42e06a76702b43ba20","683db6dfa200031b80f2a654","68650751c9c9934f8b48aa4b","661fcd42e06a76702b43ba20","2025-07-02T11:13:14.226Z","","[0]","","","6","demographics","","","","","","","","","","","","","","","","","","","","","","","","","","","","","","","","","","","","","",""
"9327","","","{""mental_health_condition"":""-"",""mental_health_treatment"":""-"",""psychiatric_medication"":""-""}","survey-text","11","56288","0.0-7.0-0.0","225","1","2025-07-02 11:12:24","80fe4187154257d5fb01684ea91b68b9","37.47.196.61","Mozilla/5.0 (Windows NT 10.0; Win64; x64) AppleWebKit/537.36 (KHTML, like Gecko) Chrome/137.0.0.0 Safari/537.36","WebKit","Chrome","137.0.0.0","Windows","10.0","https://app.prolific.com/","en-GB,en-US;q=0.9,en;q=0.8","661fcd42e06a76702b43ba20","683db6dfa200031b80f2a654","68650751c9c9934f8b48aa4b","661fcd42e06a76702b43ba20","2025-07-02T11:13:23.554Z","","","","","1","mental_health","","","","","","","","","","","","","","","","","","","","","","","","","","","","","","","","","","","","","",""
"8736","","","{""depression_history"":[""No""]}","survey-multi-select","12","65025","0.0-7.0-1.0","225","1","2025-07-02 11:12:24","80fe4187154257d5fb01684ea91b68b9","37.47.196.61","Mozilla/5.0 (Windows NT 10.0; Win64; x64) AppleWebKit/537.36 (KHTML, like Gecko) Chrome/137.0.0.0 Safari/537.36","WebKit","Chrome","137.0.0.0","Windows","10.0","https://app.prolific.com/","en-GB,en-US;q=0.9,en;q=0.8","661fcd42e06a76702b43ba20","683db6dfa200031b80f2a654","68650751c9c9934f8b48aa4b","661fcd42e06a76702b43ba20","","","[0]","","","","mental_health","","","","","","","","","","","","","","","","","","","","","","","","","","","","","","","","","","","","","",""
"30984.19999998808","","","","survey-template","13","96011","0.0-7.0-3.0","225","1","2025-07-02 11:12:24","80fe4187154257d5fb01684ea91b68b9","37.47.196.61","Mozilla/5.0 (Windows NT 10.0; Win64; x64) AppleWebKit/537.36 (KHTML, like Gecko) Chrome/137.0.0.0 Safari/537.36","WebKit","Chrome","137.0.0.0","Windows","10.0","https://app.prolific.com/","en-GB,en-US;q=0.9,en;q=0.8","661fcd42e06a76702b43ba20","683db6dfa200031b80f2a654","68650751c9c9934f8b48aa4b","661fcd42e06a76702b43ba20","2025-07-02T11:14:03.277Z","","","","","","ius","{""Q01"":""2"",""Q02"":""3"",""Q03"":""1"",""Q04"":""3"",""Q05"":""3"",""Q06"":""0"",""Q07"":""1"",""Q08"":""0"",""Q09"":""3"",""Q10"":""3"",""Q11"":""1"",""Q12"":""3"",""Q13"":""3""}","[0,1,2,3,4,5,6,7,8,9,10,11,12]","[""Q01"",""Q01"",""Q02"",""Q03"",""Q03"",""Q04"",""Q05"",""Q06"",""Q06"",""Q06"",""Q07"",""Q08"",""Q09"",""Q10"",""Q11"",""Q11"",""Q12"",""Q13""]","[5172.4000000059605,5568.0999999940395,7453.4000000059605,9484.800000011921,9799.59999999404,11885.59999999404,13402.800000011921,14441,15190.300000011921,15407.09999999404,17228.09999999404,19637.19999998808,22146,24114.80000001192,26164.5,26443.19999998808,28520.90000000596,30537.09999999404]","[]","[2917.300000011921,5172.4000000059605,5568.0999999940395,6940.199999988079,7453.4000000059605,9083.40000000596,9484.800000011921,9799.59999999404,11640.09999999404,11885.59999999404,13402.800000011921,14441,14891.09999999404,15190.300000011921,15407.09999999404,16495.90000000596,17228.09999999404,18743.30000001192,19637.19999998808,21784.5,22146,23573,24114.80000001192,25524.5,25792.09999999404,26164.5,26443.19999998808,28520.90000000596,30537.09999999404,30983.30000001192]","0.5384615384615384","0.25","0","","","","","","","","","","","","","","","","","","","","","","","","","","","","",""
"1261","1751454844539","<p style='font-size:1.1em;line-height:1.25'>In the following, we will ask you a few questions relating to your experiences over the past month.<br></p><p style='font-size:1.1em;line-height:1.25'>Press the <strong>Next</strong> button to continue.</p>","0","custom-html-button-response","14","97273","0.0-7.0-4.0","225","1","2025-07-02 11:12:24","80fe4187154257d5fb01684ea91b68b9","37.47.196.61","Mozilla/5.0 (Windows NT 10.0; Win64; x64) AppleWebKit/537.36 (KHTML, like Gecko) Chrome/137.0.0.0 Safari/537.36","WebKit","Chrome","137.0.0.0","Windows","10.0","https://app.prolific.com/","en-GB,en-US;q=0.9,en;q=0.8","661fcd42e06a76702b43ba20","683db6dfa200031b80f2a654","68650751c9c9934f8b48aa4b","661fcd42e06a76702b43ba20","2025-07-02T11:14:04.539Z","","","","","","","","","","","","","","","","","","","","","","","","","","","","","","","","","","","","","","","","","","","",""
"50206.70000001788","","","","survey-template","15","147481","0.0-7.0-5.0","225","1","2025-07-02 11:12:24","80fe4187154257d5fb01684ea91b68b9","37.47.196.61","Mozilla/5.0 (Windows NT 10.0; Win64; x64) AppleWebKit/537.36 (KHTML, like Gecko) Chrome/137.0.0.0 Safari/537.36","WebKit","Chrome","137.0.0.0","Windows","10.0","https://app.prolific.com/","en-GB,en-US;q=0.9,en;q=0.8","661fcd42e06a76702b43ba20","683db6dfa200031b80f2a654","68650751c9c9934f8b48aa4b","661fcd42e06a76702b43ba20","2025-07-02T11:14:54.747Z","","","","","","pss","{""Q01"":""2"",""Q02"":""2"",""Q03"":""2"",""Q04"":""1"",""Q05"":""1"",""Q06"":""1"",""Q07"":""1"",""Q08"":""1"",""Q09"":""2"",""Q10"":""1""}","[0,1,2,3,4,5,6,7,8,9]","[""Q01"",""Q01"",""Q02"",""Q03"",""Q03"",""Q03"",""Q04"",""Q04"",""Q04"",""Q05"",""Q06"",""Q06"",""Q06"",""Q07"",""Q07"",""Q07"",""Q08"",""Q09"",""Q10"",""Q10""]","[5173,10048.600000023842,13488.800000011921,15812,16904.100000023842,17356.70000001788,18794.30000001192,21111.90000000596,24661.600000023842,29418.90000000596,31184.100000023842,33706.30000001192,34884.90000000596,38751.5,39146,40026.10000002384,42691,45932.80000001192,48425.80000001192,48906.80000001192]","[]","[0,5173,9276.200000017881,10048.600000023842,12668.300000011921,12991.300000011921,13488.800000011921,15812,16548.30000001192,16904.100000023842,17356.70000001788,18794.30000001192,20912.90000000596,21111.90000000596,24661.600000023842,29418.90000000596,31184.100000023842,33706.30000001192,34884.90000000596,38751.5,39146,39507.10000002384,40026.10000002384,42691,45932.80000001192,48425.80000001192,48906.80000001192,50205.90000000596]","0.4","0.3333333333333333","0","","","","","","","","","","","","","","","","","","","","","","","","","","","","",""
"2017","1751454896764","<p style='font-size:1.1em;line-height:1.25'>Thank you for your answers! Now we will ask you a few more questions relating to your feelings in the last 24 hours.<br></p><p style='font-size:1.1em;line-height:1.25'>Press the <strong>Next</strong> button to continue.</p>","0","custom-html-button-response","16","149498","0.0-7.0-6.0","225","1","2025-07-02 11:12:24","80fe4187154257d5fb01684ea91b68b9","37.47.196.61","Mozilla/5.0 (Windows NT 10.0; Win64; x64) AppleWebKit/537.36 (KHTML, like Gecko) Chrome/137.0.0.0 Safari/537.36","WebKit","Chrome","137.0.0.0","Windows","10.0","https://app.prolific.com/","en-GB,en-US;q=0.9,en;q=0.8","661fcd42e06a76702b43ba20","683db6dfa200031b80f2a654","68650751c9c9934f8b48aa4b","661fcd42e06a76702b43ba20","2025-07-02T11:14:56.764Z","","","","","","","","","","","","","","","","","","","","","","","","","","","","","","","","","","","","","","","","","","","",""
"61005.40000000596","","","","survey-template","17","210505","0.0-7.0-7.0","225","1","2025-07-02 11:12:24","80fe4187154257d5fb01684ea91b68b9","37.47.196.61","Mozilla/5.0 (Windows NT 10.0; Win64; x64) AppleWebKit/537.36 (KHTML, like Gecko) Chrome/137.0.0.0 Safari/537.36","WebKit","Chrome","137.0.0.0","Windows","10.0","https://app.prolific.com/","en-GB,en-US;q=0.9,en;q=0.8","661fcd42e06a76702b43ba20","683db6dfa200031b80f2a654","68650751c9c9934f8b48aa4b","661fcd42e06a76702b43ba20","2025-07-02T11:15:57.772Z","","","","","","drsp","{""Q01"":""1"",""Q02"":""1"",""Q03"":""0"",""Q04"":""1"",""Q05"":""1"",""Q06"":""1"",""Q07"":""1"",""Q08"":""1"",""Q09"":""2"",""Q10"":""1"",""Q11"":""2"",""Q12"":""0"",""Q13"":""0"",""Q14"":""1"",""Q15"":""1"",""Q16"":""0"",""Q17"":""1"",""Q18"":""0"",""Q19"":""1"",""Q20"":""1"",""Q21"":""1""}","[0,1,2,3,4,5,6,7,8,9,10,11,12,13,14,15,16,17,18,19,20]","[""Q01"",""Q02"",""Q03"",""Q03"",""Q04"",""Q04"",""Q05"",""Q06"",""Q05"",""Q06"",""Q07"",""Q07"",""Q08"",""Q08"",""Q09"",""Q10"",""Q11"",""Q11"",""Q12"",""Q13"",""Q14"",""Q15"",""Q14"",""Q15"",""Q16"",""Q17"",""Q16"",""Q16"",""Q17"",""Q17"",""Q17"",""Q18"",""Q19"",""Q19"",""Q20"",""Q21""]","[2269.4000000059605,3028.7999999821186,4391.299999982119,6157.0999999940395,6449.199999988079,7509,7960.299999982119,8685.09999999404,9760.299999982119,14969.5,15903.699999988079,16752.5,18442.59999999404,20544.09999999404,21001.09999999404,22285.19999998808,23588.19999998808,25394.79999998212,26647.19999998808,28171.09999999404,29095.09999999404,31536.29999998212,32332.59999999404,35160.19999998808,36995.09999999404,37798.19999998808,38711.09999999404,40020.59999999404,40516.5,41780.79999998212,42969,43735.90000000596,45217,49170.09999999404,56556.09999999404,60528.79999998212]","[]","[0,2044,2269.4000000059605,3028.7999999821186,4391.299999982119,5131.4000000059605,5724.0999999940395,6157.0999999940395,6449.199999988079,7509,7960.299999982119,8685.09999999404,9760.299999982119,11471.90000000596,14969.5,15903.699999988079,16467.90000000596,16752.5,17493.40000000596,17970.19999998808,18442.59999999404,19451.59999999404,20112.19999998808,20544.09999999404,21001.09999999404,22285.19999998808,23588.19999998808,25394.79999998212,26647.19999998808,28171.09999999404,29095.09999999404,31536.29999998212,32332.59999999404,35160.19999998808,36143.19999998808,36572.5,36995.09999999404,37379.59999999404,37798.19999998808,38711.09999999404,40020.59999999404,40516.5,41780.79999998212,42969,43735.90000000596,45217,49170.09999999404,56556.09999999404,60528.79999998212,61003.59999999404]","0.6666666666666666","0.5","0","","","","","","","","","","","","","","","","","","","","","","","","","","","","",""
"13749.699999988079","","","","survey-template","18","224256","0.0-7.0-8.0","225","1","2025-07-02 11:12:24","80fe4187154257d5fb01684ea91b68b9","37.47.196.61","Mozilla/5.0 (Windows NT 10.0; Win64; x64) AppleWebKit/537.36 (KHTML, like Gecko) Chrome/137.0.0.0 Safari/537.36","WebKit","Chrome","137.0.0.0","Windows","10.0","https://app.prolific.com/","en-GB,en-US;q=0.9,en;q=0.8","661fcd42e06a76702b43ba20","683db6dfa200031b80f2a654","68650751c9c9934f8b48aa4b","661fcd42e06a76702b43ba20","2025-07-02T11:16:11.522Z","","","","","","stress","{""Q01"":""1"",""Q02"":""2"",""Q03"":""2""}","[0,1,2]","[""Q01"",""Q02"",""Q03""]","[4257.399999976158,6670.0999999940395,13194.09999999404]","[]","[1283.5999999940395,2727.2999999821186,4257.399999976158,6670.0999999940395,7364.299999982119,13194.09999999404,13749.299999982119]","0.3333333333333333","0.5","0","","","","","","","","","","","","","","","","","","","","","","","","","","","","",""
"48839","","","","instructions","19","273096","0.0-8.0-0.0","225","1","2025-07-02 11:12:24","80fe4187154257d5fb01684ea91b68b9","37.47.196.61","Mozilla/5.0 (Windows NT 10.0; Win64; x64) AppleWebKit/537.36 (KHTML, like Gecko) Chrome/137.0.0.0 Safari/537.36","WebKit","Chrome","137.0.0.0","Windows","10.0","https://app.prolific.com/","en-GB,en-US;q=0.9,en;q=0.8","661fcd42e06a76702b43ba20","683db6dfa200031b80f2a654","68650751c9c9934f8b48aa4b","661fcd42e06a76702b43ba20","","[{""page_index"":0,""viewing_time"":9237},{""page_index"":1,""viewing_time"":18969},{""page_index"":2,""viewing_time"":2012},{""page_index"":3,""viewing_time"":18621}]","","","","","","","","","","","","","","","","","","","","","","","","","","","","","","","","","","","","","","","","","","",""
"","","","","ctl-task-cpt","20","304764","0.0-8.0-1.0","225","1","2025-07-02 11:12:24","80fe4187154257d5fb01684ea91b68b9","37.47.196.61","Mozilla/5.0 (Windows NT 10.0; Win64; x64) AppleWebKit/537.36 (KHTML, like Gecko) Chrome/137.0.0.0 Safari/537.36","WebKit","Chrome","137.0.0.0","Windows","10.0","https://app.prolific.com/","en-GB,en-US;q=0.9,en;q=0.8","661fcd42e06a76702b43ba20","683db6dfa200031b80f2a654","68650751c9c9934f8b48aa4b","661fcd42e06a76702b43ba20","","","","","","","","","","","","","","","","","win-only","0","g1:NW,g2:SE","1","0","1","276670.7","1926.7","5930.5","28662.5","2","4","4","6","1","2","1","1","0","0.007575757575757576","2646.4","4000","335","[""left"",""up""]","{""num_key_presses"":6,""num_perfect"":4,""num_errors"":1,""num_randdir"":0,""num_randdir_good_moves"":0,""num_whilered"":1,""num_whileblue"":0,""num_blue"":3,""num_good_moves"":4}","[558.4285714285714,559.3348214285714,0.1,558.4285714285714,559.3348214285714,104.1,558.4285714285714,559.3348214285714,204.6,558.4285714285714,559.3348214285714,309.1,558.4285714285714,559.3348214285714,409.5,558.4285714285714,559.3348214285714,514.6,526.4285714285714,541.3348214285714,618.9,526.4285714285714,541.3348214285714,719,526.4285714285714,541.3348214285714,824.2,525.4285714285714,535.3348214285714,930,531.4285714285714,528.3348214285714,1034.2,531.4285714285714,528.3348214285714,1139.7,531.4285714285714,528.3348214285714,1244.5,531.4285714285714,528.3348214285714,1349,531.4285714285714,528.3348214285714,1449.6,531.4285714285714,528.3348214285714,1554.6,531.4285714285714,528.3348214285714,1658.6,531.4285714285714,528.3348214285714,1759.2,531.4285714285714,528.3348214285714,1860.3,531.4285714285714,528.3348214285714,1964.3,531.4285714285714,528.3348214285714,2064.5,531.4285714285714,528.3348214285714,2170.1,462.42857142857144,509.33482142857144,2273.7,220.42857142857144,265.33482142857144,2379.1,185.42857142857144,169.33482142857144,2479.7,168.42857142857144,139.33482142857144,2580,139.42857142857144,132.33482142857144,2684,142.42857142857144,145.33482142857144,2784.1,206.42857142857144,251.33482142857144,2889.1,453.42857142857144,449.33482142857144,2994.4,539.4285714285714,479.33482142857144,3094.8,539.4285714285714,479.33482142857144,3195.1,539.4285714285714,479.33482142857144,3299.5,539.4285714285714,479.33482142857144,3403.6,539.4285714285714,479.33482142857144,3504.3,530.4285714285714,510.33482142857144,3604.5,530.4285714285714,511.33482142857144,3705.1,530.4285714285714,511.33482142857144,3808.8,530.4285714285714,511.33482142857144,3909.2]","[3561.8,3561.8,1000,0,2561.8,""smooth"",""left"",""left"",""good_move"",3743.7,181.8,2830.9,3562,-2649.2,""error"",""-"",""-"",""no_move"",3919.7,176,2830.9,3562,-2473.2,""while_red"",""-"",""-"",""no_move"",10260,6516.3,2271.4,7575.4,413.2,""smooth"",""left"",""left"",""good_move"",13340.9,3080.8,2689.9,10260.1,390.9,""smooth"",""up"",""up"",""good_move"",22642.8,9301.7,2305.5,20019.9,317.4,""smooth"",""up"",""up"",""good_move""]","",""
"1624","","","","instructions","21","306388","0.0-8.0-2.0","225","1","2025-07-02 11:12:24","80fe4187154257d5fb01684ea91b68b9","37.47.196.61","Mozilla/5.0 (Windows NT 10.0; Win64; x64) AppleWebKit/537.36 (KHTML, like Gecko) Chrome/137.0.0.0 Safari/537.36","WebKit","Chrome","137.0.0.0","Windows","10.0","https://app.prolific.com/","en-GB,en-US;q=0.9,en;q=0.8","661fcd42e06a76702b43ba20","683db6dfa200031b80f2a654","68650751c9c9934f8b48aa4b","661fcd42e06a76702b43ba20","","[{""page_index"":0,""viewing_time"":1624}]","","","","","","","","","","","","","","","","","","","","","","","","","","","","","","","","","","","","","","","","","","",""
"","","","","ctl-task-cpt","22","333516","0.0-8.0-3.0","225","1","2025-07-02 11:12:24","80fe4187154257d5fb01684ea91b68b9","37.47.196.61","Mozilla/5.0 (Windows NT 10.0; Win64; x64) AppleWebKit/537.36 (KHTML, like Gecko) Chrome/137.0.0.0 Safari/537.36","WebKit","Chrome","137.0.0.0","Windows","10.0","https://app.prolific.com/","en-GB,en-US;q=0.9,en;q=0.8","661fcd42e06a76702b43ba20","683db6dfa200031b80f2a654","68650751c9c9934f8b48aa4b","661fcd42e06a76702b43ba20","","","","","","","","","","","","","","","","","win-only","0","g1:NW,g2:SE","0.35","0","3","309962.1","940.3","4940.8","24110.5","2","4","8","6","1","2","2","2","0","0.015151515151515152","4000.5","4000","2485","[""left"",""up""]","{""num_key_presses"":4,""num_perfect"":3,""num_errors"":0,""num_randdir"":1,""num_randdir_good_moves"":1,""num_whilered"":0,""num_whileblue"":0,""num_blue"":2,""num_good_moves"":4}","[546.4285714285714,545.3348214285714,0.2,546.4285714285714,545.3348214285714,100.9,546.4285714285714,545.3348214285714,206.2,546.4285714285714,545.3348214285714,310.8,546.4285714285714,545.3348214285714,411,529.4285714285714,582.3348214285714,515.8,529.4285714285714,582.3348214285714,616.2,528.4285714285714,569.3348214285714,720.2,530.4285714285714,555.3348214285714,820.5,530.4285714285714,555.3348214285714,920.5,530.4285714285714,555.3348214285714,1020.6,530.4285714285714,555.3348214285714,1121.5,530.4285714285714,555.3348214285714,1225.7,530.4285714285714,555.3348214285714,1330.2,530.4285714285714,555.3348214285714,1430.3,530.4285714285714,555.3348214285714,1531,530.4285714285714,555.3348214285714,1634.9,530.4285714285714,555.3348214285714,1735,530.4285714285714,555.3348214285714,1840.6,530.4285714285714,555.3348214285714,1941,531.4285714285714,570.3348214285714,2044.9,531.4285714285714,570.3348214285714,2145.8,528.4285714285714,570.3348214285714,2250.2,523.4285714285714,558.3348214285714,2355.5,544.4285714285714,596.3348214285714,2461.1,863.4285714285714,775.3348214285714,2564.9,972.4285714285714,793.3348214285714,2665,960.4285714285714,849.3348214285714,2765.3,977.4285714285714,911.3348214285714,2865.4,977.4285714285714,915.3348214285714,2971.1,977.4285714285714,914.3348214285714,3075.2,989.4285714285714,989.3348214285714,3175.3,1031.4285714285713,1000.3348214285714,3275.5,1035.4285714285713,976.3348214285714,3375.5,1029.4285714285713,1013.3348214285714,3475.5,1028.4285714285713,999.3348214285714,3580.4,1028.4285714285713,996.3348214285714,3685.8,1028.4285714285713,996.3348214285714,3789.9,1028.4285714285713,996.3348214285714,3890.9,1028.4285714285713,996.3348214285714,3995.1]","[1277.2,1277.2,1000,0,277.2,""smooth"",""left"",""left"",""good_move"",4378.8,3101.4,2701.5,1277.4,399.9,""oops"",""left"",""up"",""good_move"",8221.8,3842.8,3384.7,4379,458.1,""smooth"",""up"",""up"",""good_move"",19082,10860.1,2617,16065.4,399.6,""smooth"",""left"",""left"",""good_move""]","",""
"22299","","","","instructions","23","355814","0.0-8.0-4.0","225","1","2025-07-02 11:12:24","80fe4187154257d5fb01684ea91b68b9","37.47.196.61","Mozilla/5.0 (Windows NT 10.0; Win64; x64) AppleWebKit/537.36 (KHTML, like Gecko) Chrome/137.0.0.0 Safari/537.36","WebKit","Chrome","137.0.0.0","Windows","10.0","https://app.prolific.com/","en-GB,en-US;q=0.9,en;q=0.8","661fcd42e06a76702b43ba20","683db6dfa200031b80f2a654","68650751c9c9934f8b48aa4b","661fcd42e06a76702b43ba20","","[{""page_index"":0,""viewing_time"":3556},{""page_index"":1,""viewing_time"":18743}]","","","","","","","","","","","","","","","","","","","","","","","","","","","","","","","","","","","","","","","","","","",""
"7277","","","{""green_ball"":[""Ball sometimes shakes and moves in a random direction""]}","survey-multi-select","24","363094","0.0-8.0-5.0-0.0","225","1","2025-07-02 11:12:24","80fe4187154257d5fb01684ea91b68b9","37.47.196.61","Mozilla/5.0 (Windows NT 10.0; Win64; x64) AppleWebKit/537.36 (KHTML, like Gecko) Chrome/137.0.0.0 Safari/537.36","WebKit","Chrome","137.0.0.0","Windows","10.0","https://app.prolific.com/","en-GB,en-US;q=0.9,en;q=0.8","661fcd42e06a76702b43ba20","683db6dfa200031b80f2a654","68650751c9c9934f8b48aa4b","661fcd42e06a76702b43ba20","","","[0]","","","","quiz","","","","","","","","","","","","","","","","","","","","","","","","","","","","","","","","","","","","","true",""
"1709","","<p align='center'><b>CORRECT!</b> Indeed, the green ball may sometimes shake and move in a random direction.</p>","0","html-button-response","25","364807","0.0-8.0-5.0-1.0","225","1","2025-07-02 11:12:24","80fe4187154257d5fb01684ea91b68b9","37.47.196.61","Mozilla/5.0 (Windows NT 10.0; Win64; x64) AppleWebKit/537.36 (KHTML, like Gecko) Chrome/137.0.0.0 Safari/537.36","WebKit","Chrome","137.0.0.0","Windows","10.0","https://app.prolific.com/","en-GB,en-US;q=0.9,en;q=0.8","661fcd42e06a76702b43ba20","683db6dfa200031b80f2a654","68650751c9c9934f8b48aa4b","661fcd42e06a76702b43ba20","","","","","","","","","","","","","","","","","","","","","","","","","","","","","","","","","","","","","","","","","","","","",""
"5634","","","{""yellow_ball"":[""Ball doesn‘t move and I get -1 penalty point""]}","survey-multi-select","26","370442","0.0-8.0-6.0-0.0","225","1","2025-07-02 11:12:24","80fe4187154257d5fb01684ea91b68b9","37.47.196.61","Mozilla/5.0 (Windows NT 10.0; Win64; x64) AppleWebKit/537.36 (KHTML, like Gecko) Chrome/137.0.0.0 Safari/537.36","WebKit","Chrome","137.0.0.0","Windows","10.0","https://app.prolific.com/","en-GB,en-US;q=0.9,en;q=0.8","661fcd42e06a76702b43ba20","683db6dfa200031b80f2a654","68650751c9c9934f8b48aa4b","661fcd42e06a76702b43ba20","","","[0]","","","","quiz","","","","","","","","","","","","","","","","","","","","","","","","","","","","","","","","","","","","","true",""
"1027","","<p align='center'><b>CORRECT!</b> Indeed, the yellow ball never moves and you receive a penalty.</p>","0","html-button-response","27","371469","0.0-8.0-6.0-1.0","225","1","2025-07-02 11:12:24","80fe4187154257d5fb01684ea91b68b9","37.47.196.61","Mozilla/5.0 (Windows NT 10.0; Win64; x64) AppleWebKit/537.36 (KHTML, like Gecko) Chrome/137.0.0.0 Safari/537.36","WebKit","Chrome","137.0.0.0","Windows","10.0","https://app.prolific.com/","en-GB,en-US;q=0.9,en;q=0.8","661fcd42e06a76702b43ba20","683db6dfa200031b80f2a654","68650751c9c9934f8b48aa4b","661fcd42e06a76702b43ba20","","","","","","","","","","","","","","","","","","","","","","","","","","","","","","","","","","","","","","","","","","","","",""
"16851","","","{""blue_ball"":[""Ball always shakes and moves in a random direction"",""Ball doesn‘t move and I get -1 penalty point""]}","survey-multi-select","28","388321","0.0-8.0-7.0-0.0","225","1","2025-07-02 11:12:24","80fe4187154257d5fb01684ea91b68b9","37.47.196.61","Mozilla/5.0 (Windows NT 10.0; Win64; x64) AppleWebKit/537.36 (KHTML, like Gecko) Chrome/137.0.0.0 Safari/537.36","WebKit","Chrome","137.0.0.0","Windows","10.0","https://app.prolific.com/","en-GB,en-US;q=0.9,en;q=0.8","661fcd42e06a76702b43ba20","683db6dfa200031b80f2a654","68650751c9c9934f8b48aa4b","661fcd42e06a76702b43ba20","","","[0]","","","","quiz","","","","","","","","","","","","","","","","","","","","","","","","","","","","","","","","","","","","","false",""
"2594","","<p align='center'><b>INCORRECT.</b> The blue ball always shakes and moves randomly.</p>","0","html-button-response","29","390916","0.0-8.0-7.0-1.0","225","1","2025-07-02 11:12:24","80fe4187154257d5fb01684ea91b68b9","37.47.196.61","Mozilla/5.0 (Windows NT 10.0; Win64; x64) AppleWebKit/537.36 (KHTML, like Gecko) Chrome/137.0.0.0 Safari/537.36","WebKit","Chrome","137.0.0.0","Windows","10.0","https://app.prolific.com/","en-GB,en-US;q=0.9,en;q=0.8","661fcd42e06a76702b43ba20","683db6dfa200031b80f2a654","68650751c9c9934f8b48aa4b","661fcd42e06a76702b43ba20","","","","","","","","","","","","","","","","","","","","","","","","","","","","","","","","","","","","","","","","","","","","",""
"4465","","","{""blue_ball"":[""Ball always shakes and moves in a random direction""]}","survey-multi-select","30","395382","0.0-8.0-7.1-0.1","225","1","2025-07-02 11:12:24","80fe4187154257d5fb01684ea91b68b9","37.47.196.61","Mozilla/5.0 (Windows NT 10.0; Win64; x64) AppleWebKit/537.36 (KHTML, like Gecko) Chrome/137.0.0.0 Safari/537.36","WebKit","Chrome","137.0.0.0","Windows","10.0","https://app.prolific.com/","en-GB,en-US;q=0.9,en;q=0.8","661fcd42e06a76702b43ba20","683db6dfa200031b80f2a654","68650751c9c9934f8b48aa4b","661fcd42e06a76702b43ba20","","","[0]","","","","quiz","","","","","","","","","","","","","","","","","","","","","","","","","","","","","","","","","","","","","true",""
"4184","","<p align='center'><b>CORRECT!</b> Indeed, the blue ball always shakes and moves in a random direction. Also there is a penalty of -1 point.</p>","0","html-button-response","31","399567","0.0-8.0-7.1-1.1","225","1","2025-07-02 11:12:24","80fe4187154257d5fb01684ea91b68b9","37.47.196.61","Mozilla/5.0 (Windows NT 10.0; Win64; x64) AppleWebKit/537.36 (KHTML, like Gecko) Chrome/137.0.0.0 Safari/537.36","WebKit","Chrome","137.0.0.0","Windows","10.0","https://app.prolific.com/","en-GB,en-US;q=0.9,en;q=0.8","661fcd42e06a76702b43ba20","683db6dfa200031b80f2a654","68650751c9c9934f8b48aa4b","661fcd42e06a76702b43ba20","","","","","","","","","","","","","","","","","","","","","","","","","","","","","","","","","","","","","","","","","","","","",""
"3674","","","{""bonus"":[""When I reach 50% of points""]}","survey-multi-select","32","403242","0.0-8.0-8.0-0.0","225","1","2025-07-02 11:12:24","80fe4187154257d5fb01684ea91b68b9","37.47.196.61","Mozilla/5.0 (Windows NT 10.0; Win64; x64) AppleWebKit/537.36 (KHTML, like Gecko) Chrome/137.0.0.0 Safari/537.36","WebKit","Chrome","137.0.0.0","Windows","10.0","https://app.prolific.com/","en-GB,en-US;q=0.9,en;q=0.8","661fcd42e06a76702b43ba20","683db6dfa200031b80f2a654","68650751c9c9934f8b48aa4b","661fcd42e06a76702b43ba20","","","[0]","","","","quiz","","","","","","","","","","","","","","","","","","","","","","","","","","","","","","","","","","","","","true",""
"1452","","<p align='center'><b>CORRECT!</b> Indeed, you receive 2 pounds extra when you reach 50% of points.</p>","0","html-button-response","33","404695","0.0-8.0-8.0-1.0","225","1","2025-07-02 11:12:24","80fe4187154257d5fb01684ea91b68b9","37.47.196.61","Mozilla/5.0 (Windows NT 10.0; Win64; x64) AppleWebKit/537.36 (KHTML, like Gecko) Chrome/137.0.0.0 Safari/537.36","WebKit","Chrome","137.0.0.0","Windows","10.0","https://app.prolific.com/","en-GB,en-US;q=0.9,en;q=0.8","661fcd42e06a76702b43ba20","683db6dfa200031b80f2a654","68650751c9c9934f8b48aa4b","661fcd42e06a76702b43ba20","","","","","","","","","","","","","","","","","","","","","","","","","","","","","","","","","","","","","","","","","","","","",""
"1765","","","","instructions","34","406460","0.0-8.0-9.0","225","1","2025-07-02 11:12:24","80fe4187154257d5fb01684ea91b68b9","37.47.196.61","Mozilla/5.0 (Windows NT 10.0; Win64; x64) AppleWebKit/537.36 (KHTML, like Gecko) Chrome/137.0.0.0 Safari/537.36","WebKit","Chrome","137.0.0.0","Windows","10.0","https://app.prolific.com/","en-GB,en-US;q=0.9,en;q=0.8","661fcd42e06a76702b43ba20","683db6dfa200031b80f2a654","68650751c9c9934f8b48aa4b","661fcd42e06a76702b43ba20","","[{""page_index"":0,""viewing_time"":1765}]","","","","","","","","","","","","","","","","","","","","","","","","","","","","","","","","","","","","","","","","","","",""
"2699","","<p>Before you start with this game please answer the following three questions yourself. </p>
  <p>Through this game, we measure several aspects of your cognitive performance, such as reaction times, multi-tasking capabilities </p>
  <p>and the ability to assess the situation you are in.</p>
  <p></p>
  <p><b>How good do you usually are in such tasks?</b></p>","76","html-slider-response","35","409160","0.0-9.0-0.0","225","1","2025-07-02 11:12:24","80fe4187154257d5fb01684ea91b68b9","37.47.196.61","Mozilla/5.0 (Windows NT 10.0; Win64; x64) AppleWebKit/537.36 (KHTML, like Gecko) Chrome/137.0.0.0 Safari/537.36","WebKit","Chrome","137.0.0.0","Windows","10.0","https://app.prolific.com/","en-GB,en-US;q=0.9,en;q=0.8","661fcd42e06a76702b43ba20","683db6dfa200031b80f2a654","68650751c9c9934f8b48aa4b","661fcd42e06a76702b43ba20","2025-07-02T11:19:16.426Z","","","","","","PreSkillQ","","","","","","","","","","","","","","","","","","","","","","","","","","","","","","","","","","","","","","50"
"3457","","<div style=""width:500px;"">
  <p>How well do you think you will perform in this task compared to other participants?</p>
  </div>","73","html-slider-response","36","412618","0.0-9.0-1.0","225","1","2025-07-02 11:12:24","80fe4187154257d5fb01684ea91b68b9","37.47.196.61","Mozilla/5.0 (Windows NT 10.0; Win64; x64) AppleWebKit/537.36 (KHTML, like Gecko) Chrome/137.0.0.0 Safari/537.36","WebKit","Chrome","137.0.0.0","Windows","10.0","https://app.prolific.com/","en-GB,en-US;q=0.9,en;q=0.8","661fcd42e06a76702b43ba20","683db6dfa200031b80f2a654","68650751c9c9934f8b48aa4b","661fcd42e06a76702b43ba20","2025-07-02T11:19:19.884Z","","","","","","PrePerfQ","","","","","","","","","","","","","","","","","","","","","","","","","","","","","","","","","","","","","","50"
"1861","","<div style=""width:500px;"">
  <p>What best describes how you currently feel?</p>
  </div>","77","html-slider-response","37","414480","0.0-9.0-2.0","225","1","2025-07-02 11:12:24","80fe4187154257d5fb01684ea91b68b9","37.47.196.61","Mozilla/5.0 (Windows NT 10.0; Win64; x64) AppleWebKit/537.36 (KHTML, like Gecko) Chrome/137.0.0.0 Safari/537.36","WebKit","Chrome","137.0.0.0","Windows","10.0","https://app.prolific.com/","en-GB,en-US;q=0.9,en;q=0.8","661fcd42e06a76702b43ba20","683db6dfa200031b80f2a654","68650751c9c9934f8b48aa4b","661fcd42e06a76702b43ba20","2025-07-02T11:19:21.746Z","","","","","","PreMotivationQ","","","","","","","","","","","","","","","","","","","","","","","","","","","","","","","","","","","","","","50"
"","","","","ctl-task-cpt","38","439849","0.0-10.0-0.0","225","1","2025-07-02 11:12:24","80fe4187154257d5fb01684ea91b68b9","37.47.196.61","Mozilla/5.0 (Windows NT 10.0; Win64; x64) AppleWebKit/537.36 (KHTML, like Gecko) Chrome/137.0.0.0 Safari/537.36","WebKit","Chrome","137.0.0.0","Windows","10.0","https://app.prolific.com/","en-GB,en-US;q=0.9,en;q=0.8","661fcd42e06a76702b43ba20","683db6dfa200031b80f2a654","68650751c9c9934f8b48aa4b","661fcd42e06a76702b43ba20","2025-07-02T11:19:47.115Z","","","","","","","","","","","","","","","","win-only","3","g1:SW,g2:NE","1","1","0","418054.5","815.6","5816.3","22351","1","4","8","6","2","8","8","8","0","0.06060606060606061","1484.4","3000","870","[""up"",""right""]","{""num_key_presses"":6,""num_perfect"":6,""num_errors"":0,""num_randdir"":0,""num_randdir_good_moves"":0,""num_whilered"":0,""num_whileblue"":0,""num_blue"":0,""num_good_moves"":6}","[554.4285714285714,564.3348214285714,0,554.4285714285714,564.3348214285714,100.2,554.4285714285714,567.3348214285714,204.6,555.4285714285714,569.3348214285714,304.6,550.4285714285714,569.3348214285714,404.7,461.42857142857144,640.3348214285714,505.9,451.42857142857144,650.3348214285714,610.6,420.42857142857144,681.3348214285714,710.6,289.42857142857144,830.3348214285714,814.8,420.42857142857144,746.3348214285714,914.9,283.42857142857144,807.3348214285714,1020.2,420.42857142857144,813.3348214285714,1124.8,948.4285714285714,93.33482142857143,1226.2,976.4285714285714,52.33482142857143,1330.2,997.4285714285714,81.33482142857143,1430.7,1003.4285714285714,108.33482142857143,1534.9,864.4285714285714,257.33482142857144,1635.4,450.42857142857144,598.3348214285714,1740,438.42857142857144,605.3348214285714,1840.1,414.42857142857144,635.3348214285714,1940.2,447.42857142857144,649.3348214285714,2045.6,448.42857142857144,641.3348214285714,2146.1,448.42857142857144,638.3348214285714,2250.5,448.42857142857144,636.3348214285714,2350.6,448.42857142857144,636.3348214285714,2451.2,448.42857142857144,636.3348214285714,2555.1,448.42857142857144,636.3348214285714,2655.5,448.42857142857144,636.3348214285714,2760.4,448.42857142857144,636.3348214285714,2860.5,453.42857142857144,635.3348214285714,2965.3,460.42857142857144,634.3348214285714,3070.3,460.42857142857144,634.3348214285714,3170.6,461.42857142857144,634.3348214285714,3271.1,882.4285714285714,672.3348214285714,3375.3,1694.4285714285713,518.3348214285714,3475.8,1694.4285714285713,518.3348214285714,3580.4,1694.4285714285713,518.3348214285714,3680.7,1834.4285714285713,608.3348214285714,3785.2,1834.4285714285713,580.3348214285714,3885.3,1834.4285714285713,580.3348214285714,3985.6,1834.4285714285713,580.3348214285714,4085.8,1834.4285714285713,575.3348214285714,4190.2,1834.4285714285713,573.3348214285714,4290.9,1834.4285714285713,573.3348214285714,4394.6,1834.4285714285713,573.3348214285714,4494.7,1834.4285714285713,573.3348214285714,4600.5,1834.4285714285713,573.3348214285714,4700.7,1834.4285714285713,573.3348214285714,4800.9,1834.4285714285713,573.3348214285714,4905.5]","[1523,1523,1000,0,523,""smooth"",""up"",""up"",""good_move"",4009,2485.7,2106.2,1523.3,379.5,""smooth"",""right"",""right"",""good_move"",7573.9,3564.8,3195.5,4009.1,369.3,""smooth"",""up"",""up"",""good_move"",9921.8,2347.8,2075.9,7574,271.9,""smooth"",""right"",""right"",""good_move"",14348,4426.1,4074.9,9921.9,351.2,""smooth"",""up"",""up"",""good_move"",16445,2096.9,1823.8,14348.1,273.1,""smooth"",""right"",""right"",""good_move""]","",""
"3631","","<div style=""width:500px;"">
  <p>What determined the result of this run?</p>
  </div>","84","html-slider-response","39","443481","0.0-10.0-1.0","225","1","2025-07-02 11:12:24","80fe4187154257d5fb01684ea91b68b9","37.47.196.61","Mozilla/5.0 (Windows NT 10.0; Win64; x64) AppleWebKit/537.36 (KHTML, like Gecko) Chrome/137.0.0.0 Safari/537.36","WebKit","Chrome","137.0.0.0","Windows","10.0","https://app.prolific.com/","en-GB,en-US;q=0.9,en;q=0.8","661fcd42e06a76702b43ba20","683db6dfa200031b80f2a654","68650751c9c9934f8b48aa4b","661fcd42e06a76702b43ba20","2025-07-02T11:19:50.747Z","","","","","","AttribQ","","","","","","","","","","","","","","","","","","","","","","","","","","","","","","","","","","","","","","50"
"2390","","<div style=""width:500px;"">
  <p>How much control did you have over the ball?</p>
  </div>","84","html-slider-response","40","445871","0.0-10.0-2.0","225","1","2025-07-02 11:12:24","80fe4187154257d5fb01684ea91b68b9","37.47.196.61","Mozilla/5.0 (Windows NT 10.0; Win64; x64) AppleWebKit/537.36 (KHTML, like Gecko) Chrome/137.0.0.0 Safari/537.36","WebKit","Chrome","137.0.0.0","Windows","10.0","https://app.prolific.com/","en-GB,en-US;q=0.9,en;q=0.8","661fcd42e06a76702b43ba20","683db6dfa200031b80f2a654","68650751c9c9934f8b48aa4b","661fcd42e06a76702b43ba20","2025-07-02T11:19:53.137Z","","","","","","ControlQ","","","","","","","","","","","","","","","","","","","","","","","","","","","","","","","","","","","","","","50"
"2495","","<div style=""width:500px;"">
  <p>How would you describe your current emotional state?</p>
  </div>","21","html-slider-response","41","448367","0.0-10.0-3.0","225","1","2025-07-02 11:12:24","80fe4187154257d5fb01684ea91b68b9","37.47.196.61","Mozilla/5.0 (Windows NT 10.0; Win64; x64) AppleWebKit/537.36 (KHTML, like Gecko) Chrome/137.0.0.0 Safari/537.36","WebKit","Chrome","137.0.0.0","Windows","10.0","https://app.prolific.com/","en-GB,en-US;q=0.9,en;q=0.8","661fcd42e06a76702b43ba20","683db6dfa200031b80f2a654","68650751c9c9934f8b48aa4b","661fcd42e06a76702b43ba20","2025-07-02T11:19:55.633Z","","","","","","StressQ","","","","","","","","","","","","","","","","","","","","","","","","","","","","","","","","","","","","","","50"
"2021","","<div style=""width:500px;"">
  <p>What best describes how you currently feel?</p>
  </div>","90","html-slider-response","42","450388","0.0-10.0-4.0","225","1","2025-07-02 11:12:24","80fe4187154257d5fb01684ea91b68b9","37.47.196.61","Mozilla/5.0 (Windows NT 10.0; Win64; x64) AppleWebKit/537.36 (KHTML, like Gecko) Chrome/137.0.0.0 Safari/537.36","WebKit","Chrome","137.0.0.0","Windows","10.0","https://app.prolific.com/","en-GB,en-US;q=0.9,en;q=0.8","661fcd42e06a76702b43ba20","683db6dfa200031b80f2a654","68650751c9c9934f8b48aa4b","661fcd42e06a76702b43ba20","2025-07-02T11:19:57.654Z","","","","","","MotivationQ","","","","","","","","","","","","","","","","","","","","","","","","","","","","","","","","","","","","","","50"
"","","","","ctl-task-cpt","43","478107","0.0-10.0-0.1","225","1","2025-07-02 11:12:24","80fe4187154257d5fb01684ea91b68b9","37.47.196.61","Mozilla/5.0 (Windows NT 10.0; Win64; x64) AppleWebKit/537.36 (KHTML, like Gecko) Chrome/137.0.0.0 Safari/537.36","WebKit","Chrome","137.0.0.0","Windows","10.0","https://app.prolific.com/","en-GB,en-US;q=0.9,en;q=0.8","661fcd42e06a76702b43ba20","683db6dfa200031b80f2a654","68650751c9c9934f8b48aa4b","661fcd42e06a76702b43ba20","2025-07-02T11:20:25.373Z","","","","","","","","","","","","","","","","win-only","0","g1:NW,g2:SE","0.9","2","0","453963.1","716.2","5721.2","24701.1","1","4","4","6","2","4","4","12","8","0.09090909090909091","1651.2","3000","920","[""down"",""right""]","{""num_key_presses"":6,""num_perfect"":5,""num_errors"":0,""num_randdir"":1,""num_randdir_good_moves"":1,""num_whilered"":0,""num_whileblue"":0,""num_blue"":1,""num_good_moves"":6}","[557.4285714285714,556.3348214285714,0.1,557.4285714285714,556.3348214285714,104.2,557.4285714285714,556.3348214285714,204.6,560.4285714285714,568.3348214285714,311,560.4285714285714,568.3348214285714,414.1,560.4285714285714,566.3348214285714,514.2,558.4285714285714,551.3348214285714,614.6,558.4285714285714,551.3348214285714,714.6,558.4285714285714,551.3348214285714,820.5,558.4285714285714,551.3348214285714,924,558.4285714285714,551.3348214285714,1024.5,558.4285714285714,551.3348214285714,1124.8,557.4285714285714,571.3348214285714,1224.9,755.4285714285714,903.3348214285714,1329.3,981.4285714285714,1014.3348214285714,1429.3,972.4285714285714,1012.3348214285714,1535.5,979.4285714285714,1010.3348214285714,1635.8,982.4285714285714,1009.3348214285714,1740.5,982.4285714285714,1009.3348214285714,1840.5,963.4285714285714,994.3348214285714,1944.3,900.4285714285714,796.3348214285714,2049.8,900.4285714285714,796.3348214285714,2154.2,900.4285714285714,796.3348214285714,2254.7,905.4285714285714,791.3348214285714,2354.7,905.4285714285714,790.3348214285714,2460,906.4285714285714,790.3348214285714,2560.9,906.4285714285714,790.3348214285714,2664.7,906.4285714285714,790.3348214285714,2769.7,906.4285714285714,790.3348214285714,2875,906.4285714285714,790.3348214285714,2980.5,906.4285714285714,790.3348214285714,3084,906.4285714285714,790.3348214285714,3184.3,906.4285714285714,790.3348214285714,3290.3,906.4285714285714,790.3348214285714,3395.7,906.4285714285714,790.3348214285714,3500,906.4285714285714,790.3348214285714,3600.7,906.4285714285714,790.3348214285714,3705,906.4285714285714,790.3348214285714,3809.3,906.4285714285714,790.3348214285714,3909.9,906.4285714285714,790.3348214285714,4009.9,906.4285714285714,790.3348214285714,4110.4,906.4285714285714,790.3348214285714,4215.4,906.4285714285714,790.3348214285714,4319,906.4285714285714,790.3348214285714,4420.1,906.4285714285714,790.3348214285714,4525.5,906.4285714285714,790.3348214285714,4629.7,906.4285714285714,790.3348214285714,4729.7,906.4285714285714,790.3348214285714,4834,906.4285714285714,790.3348214285714,4934.1]","[4837.4,4837.4,2445.7,2004.5,387.2,""smooth"",""right"",""right"",""good_move"",8039.5,3201.8,2845.4,4837.7,356.4,""smooth"",""down"",""down"",""good_move"",10557.3,2517.7,2204,8039.6,313.7,""smooth"",""right"",""right"",""good_move"",12635.4,2078,1711.5,10557.4,366.5,""smooth"",""down"",""down"",""good_move"",15643.9,3008.5,2701.9,12635.4,306.6,""oops"",""down"",""down"",""good_move"",18890.3,3246.2,2875.4,15644.1,370.8,""smooth"",""right"",""right"",""good_move""]","",""
"1963","","<div style=""width:500px;"">
  <p>What determined the result of this run?</p>
  </div>","75","html-slider-response","44","480071","0.0-10.0-1.1","225","1","2025-07-02 11:12:24","80fe4187154257d5fb01684ea91b68b9","37.47.196.61","Mozilla/5.0 (Windows NT 10.0; Win64; x64) AppleWebKit/537.36 (KHTML, like Gecko) Chrome/137.0.0.0 Safari/537.36","WebKit","Chrome","137.0.0.0","Windows","10.0","https://app.prolific.com/","en-GB,en-US;q=0.9,en;q=0.8","661fcd42e06a76702b43ba20","683db6dfa200031b80f2a654","68650751c9c9934f8b48aa4b","661fcd42e06a76702b43ba20","2025-07-02T11:20:27.337Z","","","","","","AttribQ","","","","","","","","","","","","","","","","","","","","","","","","","","","","","","","","","","","","","","50"
"2180","","<div style=""width:500px;"">
  <p>How much control did you have over the ball?</p>
  </div>","100","html-slider-response","45","482252","0.0-10.0-2.1","225","1","2025-07-02 11:12:24","80fe4187154257d5fb01684ea91b68b9","37.47.196.61","Mozilla/5.0 (Windows NT 10.0; Win64; x64) AppleWebKit/537.36 (KHTML, like Gecko) Chrome/137.0.0.0 Safari/537.36","WebKit","Chrome","137.0.0.0","Windows","10.0","https://app.prolific.com/","en-GB,en-US;q=0.9,en;q=0.8","661fcd42e06a76702b43ba20","683db6dfa200031b80f2a654","68650751c9c9934f8b48aa4b","661fcd42e06a76702b43ba20","2025-07-02T11:20:29.518Z","","","","","","ControlQ","","","","","","","","","","","","","","","","","","","","","","","","","","","","","","","","","","","","","","50"
"1716","","<div style=""width:500px;"">
  <p>How would you describe your current emotional state?</p>
  </div>","0","html-slider-response","46","483968","0.0-10.0-3.1","225","1","2025-07-02 11:12:24","80fe4187154257d5fb01684ea91b68b9","37.47.196.61","Mozilla/5.0 (Windows NT 10.0; Win64; x64) AppleWebKit/537.36 (KHTML, like Gecko) Chrome/137.0.0.0 Safari/537.36","WebKit","Chrome","137.0.0.0","Windows","10.0","https://app.prolific.com/","en-GB,en-US;q=0.9,en;q=0.8","661fcd42e06a76702b43ba20","683db6dfa200031b80f2a654","68650751c9c9934f8b48aa4b","661fcd42e06a76702b43ba20","2025-07-02T11:20:31.234Z","","","","","","StressQ","","","","","","","","","","","","","","","","","","","","","","","","","","","","","","","","","","","","","","50"
"1271","","<div style=""width:500px;"">
  <p>What best describes how you currently feel?</p>
  </div>","100","html-slider-response","47","485239","0.0-10.0-4.1","225","1","2025-07-02 11:12:24","80fe4187154257d5fb01684ea91b68b9","37.47.196.61","Mozilla/5.0 (Windows NT 10.0; Win64; x64) AppleWebKit/537.36 (KHTML, like Gecko) Chrome/137.0.0.0 Safari/537.36","WebKit","Chrome","137.0.0.0","Windows","10.0","https://app.prolific.com/","en-GB,en-US;q=0.9,en;q=0.8","661fcd42e06a76702b43ba20","683db6dfa200031b80f2a654","68650751c9c9934f8b48aa4b","661fcd42e06a76702b43ba20","2025-07-02T11:20:32.505Z","","","","","","MotivationQ","","","","","","","","","","","","","","","","","","","","","","","","","","","","","","","","","","","","","","50"
"","","","","ctl-task-cpt","48","508682","0.0-10.0-0.2","225","1","2025-07-02 11:12:24","80fe4187154257d5fb01684ea91b68b9","37.47.196.61","Mozilla/5.0 (Windows NT 10.0; Win64; x64) AppleWebKit/537.36 (KHTML, like Gecko) Chrome/137.0.0.0 Safari/537.36","WebKit","Chrome","137.0.0.0","Windows","10.0","https://app.prolific.com/","en-GB,en-US;q=0.9,en;q=0.8","661fcd42e06a76702b43ba20","683db6dfa200031b80f2a654","68650751c9c9934f8b48aa4b","661fcd42e06a76702b43ba20","2025-07-02T11:20:55.948Z","","","","","","","","","","","","","","","","win-only","1","g1:NE,g2:SW","0.8","3","0","488814","740.2","5741.9","20425.3","1","4","4","6","2","4","4","16","12","0.12121212121212122","1575.6","3000","1275","[""down"",""left""]","{""num_key_presses"":6,""num_perfect"":6,""num_errors"":0,""num_randdir"":0,""num_randdir_good_moves"":0,""num_whilered"":0,""num_whileblue"":0,""num_blue"":0,""num_good_moves"":6}","[561.4285714285714,552.3348214285714,0.1,561.4285714285714,552.3348214285714,100.2,561.4285714285714,552.3348214285714,200.4,561.4285714285714,554.3348214285714,300.5,561.4285714285714,557.3348214285714,400.9,561.4285714285714,557.3348214285714,505.4,563.4285714285714,540.3348214285714,610.8,563.4285714285714,540.3348214285714,715.6,563.4285714285714,540.3348214285714,820.1,563.4285714285714,540.3348214285714,921.5,539.4285714285714,575.3348214285714,1025.1,301.42857142857144,834.3348214285714,1125.1,333.42857142857144,864.3348214285714,1225.1,147.42857142857144,954.3348214285714,1325.5,203.42857142857144,944.3348214285714,1430.5,138.42857142857144,984.3348214285714,1531,115.42857142857143,997.3348214285714,1635.1,159.42857142857144,974.3348214285714,1736.2,529.4285714285714,764.3348214285714,1841.1,544.4285714285714,753.3348214285714,1945.4,618.4285714285714,822.3348214285714,2050.6,828.4285714285714,813.3348214285714,2150.8,828.4285714285714,813.3348214285714,2250.9,792.4285714285714,797.3348214285714,2356.8,777.4285714285714,784.3348214285714,2460.1,777.4285714285714,784.3348214285714,2561,777.4285714285714,784.3348214285714,2665.2,777.4285714285714,784.3348214285714,2765.8,777.4285714285714,784.3348214285714,2870.1,806.4285714285714,821.3348214285714,2975.5,872.4285714285714,760.3348214285714,3081.4,868.4285714285714,793.3348214285714,3185,865.4285714285714,822.3348214285714,3286,865.4285714285714,822.3348214285714,3390.6,865.4285714285714,822.3348214285714,3490.9,865.4285714285714,822.3348214285714,3595.2,865.4285714285714,822.3348214285714,3701.1,865.4285714285714,822.3348214285714,3806,865.4285714285714,822.3348214285714,3910.4,865.4285714285714,822.3348214285714,4011.3,865.4285714285714,822.3348214285714,4115.3,865.4285714285714,822.3348214285714,4220.3,865.4285714285714,822.3348214285714,4325.7,865.4285714285714,822.3348214285714,4430.1,865.4285714285714,822.3348214285714,4530.4,865.4285714285714,822.3348214285714,4630.8,865.4285714285714,822.3348214285714,4731,865.4285714285714,822.3348214285714,4835,865.4285714285714,822.3348214285714,4935.2]","[1401.9,1401.9,1000,0,401.9,""smooth"",""left"",""left"",""good_move"",4163.6,2761.4,2432.2,1402.2,329.2,""smooth"",""down"",""down"",""good_move"",6104,1940.3,1670.7,4163.7,269.6,""smooth"",""left"",""left"",""good_move"",9255.7,3151.6,2875.8,6104.1,275.8,""smooth"",""down"",""down"",""good_move"",11679.8,2423.9,2175.9,9255.9,248,""smooth"",""down"",""down"",""good_move"",14598.7,2918.7,2687.4,11680,231.3,""smooth"",""left"",""left"",""good_move""]","",""
"1573","","<div style=""width:500px;"">
  <p>What determined the result of this run?</p>
  </div>","100","html-slider-response","49","510256","0.0-10.0-1.2","225","1","2025-07-02 11:12:24","80fe4187154257d5fb01684ea91b68b9","37.47.196.61","Mozilla/5.0 (Windows NT 10.0; Win64; x64) AppleWebKit/537.36 (KHTML, like Gecko) Chrome/137.0.0.0 Safari/537.36","WebKit","Chrome","137.0.0.0","Windows","10.0","https://app.prolific.com/","en-GB,en-US;q=0.9,en;q=0.8","661fcd42e06a76702b43ba20","683db6dfa200031b80f2a654","68650751c9c9934f8b48aa4b","661fcd42e06a76702b43ba20","2025-07-02T11:20:57.522Z","","","","","","AttribQ","","","","","","","","","","","","","","","","","","","","","","","","","","","","","","","","","","","","","","50"
"2092","","<div style=""width:500px;"">
  <p>How much control did you have over the ball?</p>
  </div>","100","html-slider-response","50","512348","0.0-10.0-2.2","225","1","2025-07-02 11:12:24","80fe4187154257d5fb01684ea91b68b9","37.47.196.61","Mozilla/5.0 (Windows NT 10.0; Win64; x64) AppleWebKit/537.36 (KHTML, like Gecko) Chrome/137.0.0.0 Safari/537.36","WebKit","Chrome","137.0.0.0","Windows","10.0","https://app.prolific.com/","en-GB,en-US;q=0.9,en;q=0.8","661fcd42e06a76702b43ba20","683db6dfa200031b80f2a654","68650751c9c9934f8b48aa4b","661fcd42e06a76702b43ba20","2025-07-02T11:20:59.614Z","","","","","","ControlQ","","","","","","","","","","","","","","","","","","","","","","","","","","","","","","","","","","","","","","50"
"1638","","<div style=""width:500px;"">
  <p>How would you describe your current emotional state?</p>
  </div>","2","html-slider-response","51","513987","0.0-10.0-3.2","225","1","2025-07-02 11:12:24","80fe4187154257d5fb01684ea91b68b9","37.47.196.61","Mozilla/5.0 (Windows NT 10.0; Win64; x64) AppleWebKit/537.36 (KHTML, like Gecko) Chrome/137.0.0.0 Safari/537.36","WebKit","Chrome","137.0.0.0","Windows","10.0","https://app.prolific.com/","en-GB,en-US;q=0.9,en;q=0.8","661fcd42e06a76702b43ba20","683db6dfa200031b80f2a654","68650751c9c9934f8b48aa4b","661fcd42e06a76702b43ba20","2025-07-02T11:21:01.253Z","","","","","","StressQ","","","","","","","","","","","","","","","","","","","","","","","","","","","","","","","","","","","","","","50"
"1559","","<div style=""width:500px;"">
  <p>What best describes how you currently feel?</p>
  </div>","100","html-slider-response","52","515546","0.0-10.0-4.2","225","1","2025-07-02 11:12:24","80fe4187154257d5fb01684ea91b68b9","37.47.196.61","Mozilla/5.0 (Windows NT 10.0; Win64; x64) AppleWebKit/537.36 (KHTML, like Gecko) Chrome/137.0.0.0 Safari/537.36","WebKit","Chrome","137.0.0.0","Windows","10.0","https://app.prolific.com/","en-GB,en-US;q=0.9,en;q=0.8","661fcd42e06a76702b43ba20","683db6dfa200031b80f2a654","68650751c9c9934f8b48aa4b","661fcd42e06a76702b43ba20","2025-07-02T11:21:02.812Z","","","","","","MotivationQ","","","","","","","","","","","","","","","","","","","","","","","","","","","","","","","","","","","","","","50"
"","","","","ctl-task-cpt","53","556265","0.0-10.0-0.3","225","1","2025-07-02 11:12:24","80fe4187154257d5fb01684ea91b68b9","37.47.196.61","Mozilla/5.0 (Windows NT 10.0; Win64; x64) AppleWebKit/537.36 (KHTML, like Gecko) Chrome/137.0.0.0 Safari/537.36","WebKit","Chrome","137.0.0.0","Windows","10.0","https://app.prolific.com/","en-GB,en-US;q=0.9,en;q=0.8","661fcd42e06a76702b43ba20","683db6dfa200031b80f2a654","68650751c9c9934f8b48aa4b","661fcd42e06a76702b43ba20","2025-07-02T11:21:43.531Z","","","","","","","","","","","","","","","","win-only","1","g1:NE,g2:SW","0.7","4","0","519120.5","679.1","5680.8","37701.3","1","4","8","6","2","8","6","22","16","0.16666666666666666","1164.4","3000","845","[""down"",""left""]","{""num_key_presses"":9,""num_perfect"":4,""num_errors"":2,""num_randdir"":3,""num_randdir_good_moves"":2,""num_whilered"":0,""num_whileblue"":1,""num_blue"":4,""num_good_moves"":7}","[564.4285714285714,554.3348214285714,0.1,564.4285714285714,554.3348214285714,101.1,564.4285714285714,554.3348214285714,201.7,564.4285714285714,554.3348214285714,306.6,589.4285714285714,573.3348214285714,407.8,667.4285714285714,588.3348214285714,512.4,667.4285714285714,588.3348214285714,616.1,639.4285714285714,590.3348214285714,716.5,232.42857142857144,859.3348214285714,816.5,104.42857142857143,961.3348214285714,916.8,117.42857142857143,977.3348214285714,1017.4,120.42857142857143,990.3348214285714,1121.7,120.42857142857143,990.3348214285714,1221.7,120.42857142857143,990.3348214285714,1326.1,355.42857142857144,830.3348214285714,1426.1,644.4285714285714,602.3348214285714,1527.7,644.4285714285714,602.3348214285714,1631.8,644.4285714285714,602.3348214285714,1732.2,644.4285714285714,602.3348214285714,1832.2,644.4285714285714,602.3348214285714,1936.9,628.4285714285714,587.3348214285714,2042.1,628.4285714285714,587.3348214285714,2142.1,628.4285714285714,587.3348214285714,2246.1,642.4285714285714,522.3348214285714,2346.9,649.4285714285714,464.33482142857144,2452.2,649.4285714285714,464.33482142857144,2557,649.4285714285714,464.33482142857144,2657.4,649.4285714285714,464.33482142857144,2761.9,649.4285714285714,464.33482142857144,2867,649.4285714285714,460.33482142857144,2967.5,649.4285714285714,460.33482142857144,3072,649.4285714285714,460.33482142857144,3172,649.4285714285714,460.33482142857144,3276.7,648.4285714285714,462.33482142857144,3382.2,648.4285714285714,455.33482142857144,3487.2,648.4285714285714,445.33482142857144,3592.1,648.4285714285714,445.33482142857144,3696.2,646.4285714285714,447.33482142857144,3797.5,642.4285714285714,447.33482142857144,3901,642.4285714285714,447.33482142857144,4001.6,642.4285714285714,447.33482142857144,4101.7,642.4285714285714,447.33482142857144,4202.1,642.4285714285714,447.33482142857144,4307,642.4285714285714,447.33482142857144,4411.9,642.4285714285714,447.33482142857144,4512,642.4285714285714,447.33482142857144,4616.8,642.4285714285714,447.33482142857144,4722.5,642.4285714285714,447.33482142857144,4826.4,642.4285714285714,447.33482142857144,4932.2]","[1328.3,1328.3,1000,0,328.3,""smooth"",""left"",""left"",""good_move"",4223.6,2895,2565.4,1328.6,329.6,""oops"",""down"",""right"",""bad_move"",9547.4,5323.7,2545.6,6709.6,292.2,""oops"",""down"",""down"",""good_move"",12291.2,2743.6,2472.2,9547.6,271.4,""smooth"",""left"",""left"",""good_move"",15028.3,2736.9,2424,12291.4,312.9,""oops"",""down"",""down"",""good_move"",17168.5,2140.2,1791.4,15028.4,348.7,""while_blue"",""left"",""left"",""good_move"",23760.3,6591.6,3341.7,20124.6,294,""smooth"",""down"",""down"",""good_move"",27772.3,4011.8,2454.4,27659.6,-2341.7,""error"",""-"",""-"",""no_move"",31933.1,4160.7,2793.5,28774.5,365.1,""smooth"",""left"",""left"",""good_move""]","",""
"1840","","<div style=""width:500px;"">
  <p>What determined the result of this run?</p>
  </div>","81","html-slider-response","54","558105","0.0-10.0-1.3","225","1","2025-07-02 11:12:24","80fe4187154257d5fb01684ea91b68b9","37.47.196.61","Mozilla/5.0 (Windows NT 10.0; Win64; x64) AppleWebKit/537.36 (KHTML, like Gecko) Chrome/137.0.0.0 Safari/537.36","WebKit","Chrome","137.0.0.0","Windows","10.0","https://app.prolific.com/","en-GB,en-US;q=0.9,en;q=0.8","661fcd42e06a76702b43ba20","683db6dfa200031b80f2a654","68650751c9c9934f8b48aa4b","661fcd42e06a76702b43ba20","2025-07-02T11:21:45.371Z","","","","","","AttribQ","","","","","","","","","","","","","","","","","","","","","","","","","","","","","","","","","","","","","","50"
"2781","","<div style=""width:500px;"">
  <p>How much control did you have over the ball?</p>
  </div>","62","html-slider-response","55","560887","0.0-10.0-2.3","225","1","2025-07-02 11:12:24","80fe4187154257d5fb01684ea91b68b9","37.47.196.61","Mozilla/5.0 (Windows NT 10.0; Win64; x64) AppleWebKit/537.36 (KHTML, like Gecko) Chrome/137.0.0.0 Safari/537.36","WebKit","Chrome","137.0.0.0","Windows","10.0","https://app.prolific.com/","en-GB,en-US;q=0.9,en;q=0.8","661fcd42e06a76702b43ba20","683db6dfa200031b80f2a654","68650751c9c9934f8b48aa4b","661fcd42e06a76702b43ba20","2025-07-02T11:21:48.153Z","","","","","","ControlQ","","","","","","","","","","","","","","","","","","","","","","","","","","","","","","","","","","","","","","50"
"1719","","<div style=""width:500px;"">
  <p>How would you describe your current emotional state?</p>
  </div>","9","html-slider-response","56","562606","0.0-10.0-3.3","225","1","2025-07-02 11:12:24","80fe4187154257d5fb01684ea91b68b9","37.47.196.61","Mozilla/5.0 (Windows NT 10.0; Win64; x64) AppleWebKit/537.36 (KHTML, like Gecko) Chrome/137.0.0.0 Safari/537.36","WebKit","Chrome","137.0.0.0","Windows","10.0","https://app.prolific.com/","en-GB,en-US;q=0.9,en;q=0.8","661fcd42e06a76702b43ba20","683db6dfa200031b80f2a654","68650751c9c9934f8b48aa4b","661fcd42e06a76702b43ba20","2025-07-02T11:21:49.872Z","","","","","","StressQ","","","","","","","","","","","","","","","","","","","","","","","","","","","","","","","","","","","","","","50"
"1881","","<div style=""width:500px;"">
  <p>What best describes how you currently feel?</p>
  </div>","82","html-slider-response","57","564487","0.0-10.0-4.3","225","1","2025-07-02 11:12:24","80fe4187154257d5fb01684ea91b68b9","37.47.196.61","Mozilla/5.0 (Windows NT 10.0; Win64; x64) AppleWebKit/537.36 (KHTML, like Gecko) Chrome/137.0.0.0 Safari/537.36","WebKit","Chrome","137.0.0.0","Windows","10.0","https://app.prolific.com/","en-GB,en-US;q=0.9,en;q=0.8","661fcd42e06a76702b43ba20","683db6dfa200031b80f2a654","68650751c9c9934f8b48aa4b","661fcd42e06a76702b43ba20","2025-07-02T11:21:51.753Z","","","","","","MotivationQ","","","","","","","","","","","","","","","","","","","","","","","","","","","","","","","","","","","","","","50"
"","","","","ctl-task-cpt","58","612411","0.0-10.0-0.4","225","1","2025-07-02 11:12:24","80fe4187154257d5fb01684ea91b68b9","37.47.196.61","Mozilla/5.0 (Windows NT 10.0; Win64; x64) AppleWebKit/537.36 (KHTML, like Gecko) Chrome/137.0.0.0 Safari/537.36","WebKit","Chrome","137.0.0.0","Windows","10.0","https://app.prolific.com/","en-GB,en-US;q=0.9,en;q=0.8","661fcd42e06a76702b43ba20","683db6dfa200031b80f2a654","68650751c9c9934f8b48aa4b","661fcd42e06a76702b43ba20","2025-07-02T11:22:39.677Z","","","","","","","","","","","","","","","","win-only","1","g1:NE,g2:SW","0.6","5","0","568062","677","5680.4","44906.2","1","4","4","6","2","-4","-5","17","22","0.12878787878787878","1250.9","3000","-3015","[""down"",""left""]","{""num_key_presses"":9,""num_perfect"":5,""num_errors"":1,""num_randdir"":3,""num_randdir_good_moves"":1,""num_whilered"":0,""num_whileblue"":1,""num_blue"":4,""num_good_moves"":7}","[554.4285714285714,558.3348214285714,0.2,554.4285714285714,558.3348214285714,103.5,554.4285714285714,558.3348214285714,204,554.4285714285714,558.3348214285714,308.3,524.4285714285714,622.3348214285714,413.2,524.4285714285714,624.3348214285714,513.9,528.4285714285714,626.3348214285714,618.7,548.4285714285714,583.3348214285714,723.6,561.4285714285714,539.3348214285714,828.1,348.42857142857144,792.3348214285714,928.2,167.42857142857144,939.3348214285714,1028.7,156.42857142857144,946.3348214285714,1128.9,148.42857142857144,956.3348214285714,1229,146.42857142857144,958.3348214285714,1333.2,186.42857142857144,932.3348214285714,1433.3,1009.4285714285714,395.33482142857144,1533.3,1009.4285714285714,395.33482142857144,1633.3,1000.4285714285714,395.33482142857144,1733.5,789.4285714285714,471.33482142857144,1838.3,644.4285714285714,456.33482142857144,1944,651.4285714285714,461.33482142857144,2044.6,850.4285714285714,564.3348214285714,2149.2,973.4285714285714,518.3348214285714,2254.3,974.4285714285714,518.3348214285714,2358.7,1442.4285714285713,534.3348214285714,2463.5,1820.4285714285713,470.33482142857144,2564.4,1820.4285714285713,470.33482142857144,2669.3,1821.4285714285713,470.33482142857144,2774.6,1834.4285714285713,489.33482142857144,2878.3,1834.4285714285713,474.33482142857144,2978.5,1834.4285714285713,463.33482142857144,3078.8,1834.4285714285713,463.33482142857144,3179,1834.4285714285713,463.33482142857144,3279.4,1834.4285714285713,463.33482142857144,3383.8,1834.4285714285713,463.33482142857144,3483.8,1834.4285714285713,463.33482142857144,3584.1,1834.4285714285713,463.33482142857144,3688.1,1834.4285714285713,463.33482142857144,3788.2,1834.4285714285713,463.33482142857144,3889.6,1834.4285714285713,463.33482142857144,3994.1,1834.4285714285713,463.33482142857144,4094.7,1834.4285714285713,463.33482142857144,4198.6,1834.4285714285713,463.33482142857144,4299.6,1834.4285714285713,463.33482142857144,4404.1,1834.4285714285713,463.33482142857144,4504.2,1834.4285714285713,464.33482142857144,4604.7,1834.4285714285713,464.33482142857144,4709.1,1834.4285714285713,464.33482142857144,4813.2,1834.4285714285713,464.33482142857144,4918.8]","[4745.2,4745.2,2377.6,2005.4,362.2,""oops"",""left"",""right"",""bad_move"",11007,6261.4,1807.4,8810.8,388.8,""smooth"",""down"",""down"",""good_move"",14472.2,3465,3136.2,11007.2,328.8,""oops"",""left"",""right"",""bad_move"",18082.2,3609.9,3252.4,14472.3,357.5,""while_blue"",""down"",""left"",""good_move"",21647.6,3565.1,2934.5,18082.5,630.6,""smooth"",""left"",""left"",""good_move"",24698.1,3050.3,2715,21647.8,335.3,""smooth"",""left"",""left"",""good_move"",27819,3120.7,2766.6,24698.3,354.1,""smooth"",""down"",""down"",""good_move"",33858.2,6039,2197.9,31371.1,289.2,""oops"",""left"",""down"",""good_move"",36457.2,2598.9,2333.3,33858.3,265.6,""smooth"",""left"",""left"",""good_move""]","",""
"2851","","<div style=""width:500px;"">
  <p>What determined the result of this run?</p>
  </div>","30","html-slider-response","59","615262","0.0-10.0-1.4","225","1","2025-07-02 11:12:24","80fe4187154257d5fb01684ea91b68b9","37.47.196.61","Mozilla/5.0 (Windows NT 10.0; Win64; x64) AppleWebKit/537.36 (KHTML, like Gecko) Chrome/137.0.0.0 Safari/537.36","WebKit","Chrome","137.0.0.0","Windows","10.0","https://app.prolific.com/","en-GB,en-US;q=0.9,en;q=0.8","661fcd42e06a76702b43ba20","683db6dfa200031b80f2a654","68650751c9c9934f8b48aa4b","661fcd42e06a76702b43ba20","2025-07-02T11:22:42.528Z","","","","","","AttribQ","","","","","","","","","","","","","","","","","","","","","","","","","","","","","","","","","","","","","","50"
"1683","","<div style=""width:500px;"">
  <p>How much control did you have over the ball?</p>
  </div>","31","html-slider-response","60","616946","0.0-10.0-2.4","225","1","2025-07-02 11:12:24","80fe4187154257d5fb01684ea91b68b9","37.47.196.61","Mozilla/5.0 (Windows NT 10.0; Win64; x64) AppleWebKit/537.36 (KHTML, like Gecko) Chrome/137.0.0.0 Safari/537.36","WebKit","Chrome","137.0.0.0","Windows","10.0","https://app.prolific.com/","en-GB,en-US;q=0.9,en;q=0.8","661fcd42e06a76702b43ba20","683db6dfa200031b80f2a654","68650751c9c9934f8b48aa4b","661fcd42e06a76702b43ba20","2025-07-02T11:22:44.212Z","","","","","","ControlQ","","","","","","","","","","","","","","","","","","","","","","","","","","","","","","","","","","","","","","50"
"1681","","<div style=""width:500px;"">
  <p>How would you describe your current emotional state?</p>
  </div>","30","html-slider-response","61","618628","0.0-10.0-3.4","225","1","2025-07-02 11:12:24","80fe4187154257d5fb01684ea91b68b9","37.47.196.61","Mozilla/5.0 (Windows NT 10.0; Win64; x64) AppleWebKit/537.36 (KHTML, like Gecko) Chrome/137.0.0.0 Safari/537.36","WebKit","Chrome","137.0.0.0","Windows","10.0","https://app.prolific.com/","en-GB,en-US;q=0.9,en;q=0.8","661fcd42e06a76702b43ba20","683db6dfa200031b80f2a654","68650751c9c9934f8b48aa4b","661fcd42e06a76702b43ba20","2025-07-02T11:22:45.894Z","","","","","","StressQ","","","","","","","","","","","","","","","","","","","","","","","","","","","","","","","","","","","","","","50"
"1403","","<div style=""width:500px;"">
  <p>What best describes how you currently feel?</p>
  </div>","68","html-slider-response","62","620032","0.0-10.0-4.4","225","1","2025-07-02 11:12:24","80fe4187154257d5fb01684ea91b68b9","37.47.196.61","Mozilla/5.0 (Windows NT 10.0; Win64; x64) AppleWebKit/537.36 (KHTML, like Gecko) Chrome/137.0.0.0 Safari/537.36","WebKit","Chrome","137.0.0.0","Windows","10.0","https://app.prolific.com/","en-GB,en-US;q=0.9,en;q=0.8","661fcd42e06a76702b43ba20","683db6dfa200031b80f2a654","68650751c9c9934f8b48aa4b","661fcd42e06a76702b43ba20","2025-07-02T11:22:47.298Z","","","","","","MotivationQ","","","","","","","","","","","","","","","","","","","","","","","","","","","","","","","","","","","","","","50"
"","","","","ctl-task-cpt","63","647101","0.0-10.0-0.5","225","1","2025-07-02 11:12:24","80fe4187154257d5fb01684ea91b68b9","37.47.196.61","Mozilla/5.0 (Windows NT 10.0; Win64; x64) AppleWebKit/537.36 (KHTML, like Gecko) Chrome/137.0.0.0 Safari/537.36","WebKit","Chrome","137.0.0.0","Windows","10.0","https://app.prolific.com/","en-GB,en-US;q=0.9,en;q=0.8","661fcd42e06a76702b43ba20","683db6dfa200031b80f2a654","68650751c9c9934f8b48aa4b","661fcd42e06a76702b43ba20","2025-07-02T11:23:14.367Z","","","","","","","","","","","","","","","","win-only","2","g1:SE,g2:NW","0.5","6","0","623606.9","765.4","5770.3","24051.4","1","4","8","6","2","8","8","25","17","0.1893939393939394","1355.8","3000","925","[""left"",""up""]","{""num_key_presses"":6,""num_perfect"":4,""num_errors"":0,""num_randdir"":2,""num_randdir_good_moves"":2,""num_whilered"":0,""num_whileblue"":0,""num_blue"":1,""num_good_moves"":6}","[554.4285714285714,554.3348214285714,0.1,554.4285714285714,554.3348214285714,101.1,547.4285714285714,554.3348214285714,206,545.4285714285714,554.3348214285714,310.1,545.4285714285714,551.3348214285714,416.1,546.4285714285714,578.3348214285714,520.7,585.4285714285714,619.3348214285714,625.1,596.4285714285714,560.3348214285714,725.3,302.42857142857144,388.33482142857144,830.4,90.42857142857143,57.33482142857143,935.7,93.42857142857143,54.33482142857143,1040.7,92.42857142857143,74.33482142857143,1140.9,105.42857142857143,106.33482142857143,1244.9,106.42857142857143,107.33482142857143,1345,106.42857142857143,107.33482142857143,1449.9,166.42857142857144,385.33482142857144,1550,561.4285714285714,742.3348214285714,1650.4,652.4285714285714,702.3348214285714,1755.7,633.4285714285714,661.3348214285714,1860.8,633.4285714285714,655.3348214285714,1965.3,633.4285714285714,655.3348214285714,2065.9,633.4285714285714,645.3348214285714,2170.2,633.4285714285714,645.3348214285714,2270.2,633.4285714285714,645.3348214285714,2375.8,633.4285714285714,645.3348214285714,2475.8,633.4285714285714,645.3348214285714,2580.3,633.4285714285714,645.3348214285714,2685.1,633.4285714285714,645.3348214285714,2785.5,633.4285714285714,645.3348214285714,2886.3,633.4285714285714,645.3348214285714,2991.1,633.4285714285714,645.3348214285714,3095.9,633.4285714285714,645.3348214285714,3199.8,633.4285714285714,645.3348214285714,3299.8,633.4285714285714,645.3348214285714,3400,633.4285714285714,645.3348214285714,3500,633.4285714285714,645.3348214285714,3606,632.4285714285714,645.3348214285714,3710.1,632.4285714285714,645.3348214285714,3810.6,632.4285714285714,645.3348214285714,3910.6,632.4285714285714,645.3348214285714,4015.1,632.4285714285714,645.3348214285714,4115.5,632.4285714285714,645.3348214285714,4220.3,632.4285714285714,645.3348214285714,4320.3,632.4285714285714,645.3348214285714,4420.5,632.4285714285714,645.3348214285714,4524.9,632.4285714285714,645.3348214285714,4625.4,632.4285714285714,645.3348214285714,4729.8,632.4285714285714,645.3348214285714,4830.6,632.4285714285714,645.3348214285714,4931.3]","[1362.9,1362.9,1000,0,363,""smooth"",""up"",""up"",""good_move"",3885.2,2522,2171.5,1363.2,350.5,""smooth"",""left"",""left"",""good_move"",6825.3,2939.9,2563.4,3885.4,376.5,""oops"",""up"",""left"",""good_move"",9914.5,3089.2,2749.6,6825.4,339.6,""smooth"",""left"",""left"",""good_move"",15904.4,5989.7,2287.9,13285.6,330.9,""smooth"",""up"",""up"",""good_move"",18190.4,2285.7,1938.9,15904.7,346.8,""oops"",""up"",""up"",""good_move""]","",""
"2751","","<div style=""width:500px;"">
  <p>What determined the result of this run?</p>
  </div>","71","html-slider-response","64","649852","0.0-10.0-1.5","225","1","2025-07-02 11:12:24","80fe4187154257d5fb01684ea91b68b9","37.47.196.61","Mozilla/5.0 (Windows NT 10.0; Win64; x64) AppleWebKit/537.36 (KHTML, like Gecko) Chrome/137.0.0.0 Safari/537.36","WebKit","Chrome","137.0.0.0","Windows","10.0","https://app.prolific.com/","en-GB,en-US;q=0.9,en;q=0.8","661fcd42e06a76702b43ba20","683db6dfa200031b80f2a654","68650751c9c9934f8b48aa4b","661fcd42e06a76702b43ba20","2025-07-02T11:23:17.118Z","","","","","","AttribQ","","","","","","","","","","","","","","","","","","","","","","","","","","","","","","","","","","","","","","50"
"2605","","<div style=""width:500px;"">
  <p>How much control did you have over the ball?</p>
  </div>","89","html-slider-response","65","652457","0.0-10.0-2.5","225","1","2025-07-02 11:12:24","80fe4187154257d5fb01684ea91b68b9","37.47.196.61","Mozilla/5.0 (Windows NT 10.0; Win64; x64) AppleWebKit/537.36 (KHTML, like Gecko) Chrome/137.0.0.0 Safari/537.36","WebKit","Chrome","137.0.0.0","Windows","10.0","https://app.prolific.com/","en-GB,en-US;q=0.9,en;q=0.8","661fcd42e06a76702b43ba20","683db6dfa200031b80f2a654","68650751c9c9934f8b48aa4b","661fcd42e06a76702b43ba20","2025-07-02T11:23:19.723Z","","","","","","ControlQ","","","","","","","","","","","","","","","","","","","","","","","","","","","","","","","","","","","","","","50"
"2165","","<div style=""width:500px;"">
  <p>How would you describe your current emotional state?</p>
  </div>","14","html-slider-response","66","654623","0.0-10.0-3.5","225","1","2025-07-02 11:12:24","80fe4187154257d5fb01684ea91b68b9","37.47.196.61","Mozilla/5.0 (Windows NT 10.0; Win64; x64) AppleWebKit/537.36 (KHTML, like Gecko) Chrome/137.0.0.0 Safari/537.36","WebKit","Chrome","137.0.0.0","Windows","10.0","https://app.prolific.com/","en-GB,en-US;q=0.9,en;q=0.8","661fcd42e06a76702b43ba20","683db6dfa200031b80f2a654","68650751c9c9934f8b48aa4b","661fcd42e06a76702b43ba20","2025-07-02T11:23:21.889Z","","","","","","StressQ","","","","","","","","","","","","","","","","","","","","","","","","","","","","","","","","","","","","","","50"
"1755","","<div style=""width:500px;"">
  <p>What best describes how you currently feel?</p>
  </div>","82","html-slider-response","67","656379","0.0-10.0-4.5","225","1","2025-07-02 11:12:24","80fe4187154257d5fb01684ea91b68b9","37.47.196.61","Mozilla/5.0 (Windows NT 10.0; Win64; x64) AppleWebKit/537.36 (KHTML, like Gecko) Chrome/137.0.0.0 Safari/537.36","WebKit","Chrome","137.0.0.0","Windows","10.0","https://app.prolific.com/","en-GB,en-US;q=0.9,en;q=0.8","661fcd42e06a76702b43ba20","683db6dfa200031b80f2a654","68650751c9c9934f8b48aa4b","661fcd42e06a76702b43ba20","2025-07-02T11:23:23.645Z","","","","","","MotivationQ","","","","","","","","","","","","","","","","","","","","","","","","","","","","","","","","","","","","","","50"
"","","","","ctl-task-cpt","68","696242","0.0-10.0-0.6","225","1","2025-07-02 11:12:24","80fe4187154257d5fb01684ea91b68b9","37.47.196.61","Mozilla/5.0 (Windows NT 10.0; Win64; x64) AppleWebKit/537.36 (KHTML, like Gecko) Chrome/137.0.0.0 Safari/537.36","WebKit","Chrome","137.0.0.0","Windows","10.0","https://app.prolific.com/","en-GB,en-US;q=0.9,en;q=0.8","661fcd42e06a76702b43ba20","683db6dfa200031b80f2a654","68650751c9c9934f8b48aa4b","661fcd42e06a76702b43ba20","2025-07-02T11:24:03.508Z","","","","","","","","","","","","","","","","win-only","2","g1:SE,g2:NW","0.4","7","0","659953.6","721.3","5721.9","36845.9","1","4","8","6","2","8","8","33","25","0.25","1069.2","3000","115","[""left"",""up""]","{""num_key_presses"":8,""num_perfect"":3,""num_errors"":0,""num_randdir"":5,""num_randdir_good_moves"":4,""num_whilered"":0,""num_whileblue"":0,""num_blue"":3,""num_good_moves"":7}","[557.4285714285714,563.3348214285714,0.1,557.4285714285714,563.3348214285714,105,557.4285714285714,559.3348214285714,209.4,557.4285714285714,559.3348214285714,309.5,557.4285714285714,559.3348214285714,410.4,557.4285714285714,559.3348214285714,513.9,557.4285714285714,559.3348214285714,615.1,542.4285714285714,575.3348214285714,715.4,142.42857142857144,233.33482142857144,819.6,109.42857142857143,168.33482142857144,920.4,106.42857142857143,165.33482142857144,1024.8,106.42857142857143,165.33482142857144,1129.9,111.42857142857143,183.33482142857144,1230.5,197.42857142857144,240.33482142857144,1334.9,211.42857142857144,244.33482142857144,1439,211.42857142857144,244.33482142857144,1539.3,211.42857142857144,244.33482142857144,1645,211.42857142857144,244.33482142857144,1745.5,211.42857142857144,244.33482142857144,1850.3,211.42857142857144,244.33482142857144,1954.8,211.42857142857144,244.33482142857144,2059.3,211.42857142857144,244.33482142857144,2159.9,211.42857142857144,244.33482142857144,2260.3,211.42857142857144,244.33482142857144,2365.1,211.42857142857144,244.33482142857144,2470.2,211.42857142857144,244.33482142857144,2574.6,211.42857142857144,244.33482142857144,2679.9,211.42857142857144,244.33482142857144,2785.1,211.42857142857144,244.33482142857144,2890.1,211.42857142857144,244.33482142857144,2993.9,211.42857142857144,244.33482142857144,3095,211.42857142857144,244.33482142857144,3199.9,211.42857142857144,244.33482142857144,3304.3,211.42857142857144,244.33482142857144,3409.9,211.42857142857144,244.33482142857144,3514.7,211.42857142857144,244.33482142857144,3619.4,211.42857142857144,244.33482142857144,3724.9,211.42857142857144,244.33482142857144,3830.6,211.42857142857144,244.33482142857144,3934.8,211.42857142857144,244.33482142857144,4039.9,202.42857142857144,235.33482142857144,4145.1,202.42857142857144,235.33482142857144,4245.2,202.42857142857144,235.33482142857144,4350.2,200.42857142857144,243.33482142857144,4453.9,201.42857142857144,254.33482142857144,4554.7,201.42857142857144,254.33482142857144,4660,201.42857142857144,254.33482142857144,4764,201.42857142857144,254.33482142857144,4864.2,201.42857142857144,254.33482142857144,4964.5]","[1360.1,1360,1000,0.1,360.1,""oops"",""up"",""left"",""good_move"",7838.9,6478.6,2780.6,4679.7,378.6,""oops"",""left"",""left"",""good_move"",10771.3,2932.3,2377.8,7839.1,554.5,""smooth"",""left"",""left"",""good_move"",14087,3315.6,3005.4,10771.4,310.2,""oops"",""up"",""down"",""bad_move"",23530.1,9442.8,2682.9,20524.4,322.8,""oops"",""up"",""up"",""good_move"",26312.1,2781.8,2438.5,23530.3,343.3,""oops"",""up"",""up"",""good_move"",28596.1,2283.8,1944.2,26312.3,339.6,""smooth"",""up"",""up"",""good_move"",31038,2441.9,2119.8,28596.1,322.1,""smooth"",""up"",""up"",""good_move""]","",""
"1074","","<div style=""width:500px;"">
  <p>What determined the result of this run?</p>
  </div>","100","html-slider-response","69","697316","0.0-10.0-1.6","225","1","2025-07-02 11:12:24","80fe4187154257d5fb01684ea91b68b9","37.47.196.61","Mozilla/5.0 (Windows NT 10.0; Win64; x64) AppleWebKit/537.36 (KHTML, like Gecko) Chrome/137.0.0.0 Safari/537.36","WebKit","Chrome","137.0.0.0","Windows","10.0","https://app.prolific.com/","en-GB,en-US;q=0.9,en;q=0.8","661fcd42e06a76702b43ba20","683db6dfa200031b80f2a654","68650751c9c9934f8b48aa4b","661fcd42e06a76702b43ba20","2025-07-02T11:24:04.582Z","","","","","","AttribQ","","","","","","","","","","","","","","","","","","","","","","","","","","","","","","","","","","","","","","50"
"2049","","<div style=""width:500px;"">
  <p>How much control did you have over the ball?</p>
  </div>","59","html-slider-response","70","699365","0.0-10.0-2.6","225","1","2025-07-02 11:12:24","80fe4187154257d5fb01684ea91b68b9","37.47.196.61","Mozilla/5.0 (Windows NT 10.0; Win64; x64) AppleWebKit/537.36 (KHTML, like Gecko) Chrome/137.0.0.0 Safari/537.36","WebKit","Chrome","137.0.0.0","Windows","10.0","https://app.prolific.com/","en-GB,en-US;q=0.9,en;q=0.8","661fcd42e06a76702b43ba20","683db6dfa200031b80f2a654","68650751c9c9934f8b48aa4b","661fcd42e06a76702b43ba20","2025-07-02T11:24:06.631Z","","","","","","ControlQ","","","","","","","","","","","","","","","","","","","","","","","","","","","","","","","","","","","","","","50"
"2102","","<div style=""width:500px;"">
  <p>How would you describe your current emotional state?</p>
  </div>","16","html-slider-response","71","701467","0.0-10.0-3.6","225","1","2025-07-02 11:12:24","80fe4187154257d5fb01684ea91b68b9","37.47.196.61","Mozilla/5.0 (Windows NT 10.0; Win64; x64) AppleWebKit/537.36 (KHTML, like Gecko) Chrome/137.0.0.0 Safari/537.36","WebKit","Chrome","137.0.0.0","Windows","10.0","https://app.prolific.com/","en-GB,en-US;q=0.9,en;q=0.8","661fcd42e06a76702b43ba20","683db6dfa200031b80f2a654","68650751c9c9934f8b48aa4b","661fcd42e06a76702b43ba20","2025-07-02T11:24:08.733Z","","","","","","StressQ","","","","","","","","","","","","","","","","","","","","","","","","","","","","","","","","","","","","","","50"
"1268","","<div style=""width:500px;"">
  <p>What best describes how you currently feel?</p>
  </div>","79","html-slider-response","72","702736","0.0-10.0-4.6","225","1","2025-07-02 11:12:24","80fe4187154257d5fb01684ea91b68b9","37.47.196.61","Mozilla/5.0 (Windows NT 10.0; Win64; x64) AppleWebKit/537.36 (KHTML, like Gecko) Chrome/137.0.0.0 Safari/537.36","WebKit","Chrome","137.0.0.0","Windows","10.0","https://app.prolific.com/","en-GB,en-US;q=0.9,en;q=0.8","661fcd42e06a76702b43ba20","683db6dfa200031b80f2a654","68650751c9c9934f8b48aa4b","661fcd42e06a76702b43ba20","2025-07-02T11:24:10.002Z","","","","","","MotivationQ","","","","","","","","","","","","","","","","","","","","","","","","","","","","","","","","","","","","","","50"
"","","","","ctl-task-cpt","73","743885","0.0-10.0-0.7","225","1","2025-07-02 11:12:24","80fe4187154257d5fb01684ea91b68b9","37.47.196.61","Mozilla/5.0 (Windows NT 10.0; Win64; x64) AppleWebKit/537.36 (KHTML, like Gecko) Chrome/137.0.0.0 Safari/537.36","WebKit","Chrome","137.0.0.0","Windows","10.0","https://app.prolific.com/","en-GB,en-US;q=0.9,en;q=0.8","661fcd42e06a76702b43ba20","683db6dfa200031b80f2a654","68650751c9c9934f8b48aa4b","661fcd42e06a76702b43ba20","2025-07-02T11:24:51.151Z","","","","","","","","","","","","","","","","win-only","0","g1:NW,g2:SE","0.3","8","0","706311","635","5635.9","38130.3","1","4","4","6","2","-4","-4","29","33","0.2196969696969697","1050.2","3000","-3015","[""down"",""right""]","{""num_key_presses"":6,""num_perfect"":0,""num_errors"":0,""num_randdir"":6,""num_randdir_good_moves"":2,""num_whilered"":0,""num_whileblue"":0,""num_blue"":4,""num_good_moves"":2}","[556.4285714285714,550.3348214285714,0.1,556.4285714285714,550.3348214285714,100.8,556.4285714285714,550.3348214285714,201.3,556.4285714285714,550.3348214285714,301.3,556.4285714285714,550.3348214285714,405.7,556.4285714285714,550.3348214285714,506,548.4285714285714,557.3348214285714,606.1,532.4285714285714,530.3348214285714,710.7,743.4285714285714,854.3348214285714,815.3,1030.4285714285713,980.3348214285714,915.9,996.4285714285714,974.3348214285714,1020.1,998.4285714285714,975.3348214285714,1121.8,972.4285714285714,982.3348214285714,1225.2,956.4285714285714,976.3348214285714,1326.5,951.4285714285714,965.3348214285714,1430.9,951.4285714285714,965.3348214285714,1531.1,951.4285714285714,965.3348214285714,1636,951.4285714285714,965.3348214285714,1740.4,951.4285714285714,965.3348214285714,1840.6,951.4285714285714,965.3348214285714,1941.1,951.4285714285714,965.3348214285714,2045.4,951.4285714285714,965.3348214285714,2145.5,951.4285714285714,965.3348214285714,2251,951.4285714285714,965.3348214285714,2355.7,951.4285714285714,965.3348214285714,2456.5,951.4285714285714,965.3348214285714,2561.1,951.4285714285714,965.3348214285714,2666.4,951.4285714285714,965.3348214285714,2770.6,951.4285714285714,965.3348214285714,2870.8,951.4285714285714,965.3348214285714,2975.2,951.4285714285714,965.3348214285714,3081.2,951.4285714285714,965.3348214285714,3185.7,951.4285714285714,965.3348214285714,3286.2,951.4285714285714,965.3348214285714,3386.5,951.4285714285714,965.3348214285714,3491.7,951.4285714285714,965.3348214285714,3592.3,951.4285714285714,965.3348214285714,3696.1,951.4285714285714,965.3348214285714,3796.1,951.4285714285714,965.3348214285714,3900.7,951.4285714285714,965.3348214285714,4005.9,951.4285714285714,965.3348214285714,4106.3,951.4285714285714,965.3348214285714,4211.9,951.4285714285714,965.3348214285714,4315.1,951.4285714285714,965.3348214285714,4415.7,951.4285714285714,965.3348214285714,4516.3,951.4285714285714,965.3348214285714,4620.1,951.4285714285714,965.3348214285714,4720.9,951.4285714285714,965.3348214285714,4825.6,951.4285714285714,965.3348214285714,4931]","[1403.8,1403.8,1000,0,403.8,""oops"",""down"",""left"",""bad_move"",7857.5,6453.5,2148.5,5384.7,324.3,""oops"",""down"",""left"",""bad_move"",10130.7,2273,1949.5,7857.7,323.5,""oops"",""down"",""up"",""bad_move"",20226,10095.2,2882.3,16924.3,419.4,""oops"",""down"",""right"",""good_move"",26742.6,6516.4,2067.7,24324.5,350.4,""oops"",""right"",""right"",""good_move"",29216.5,2473.8,1969.6,26742.7,504.2,""oops"",""right"",""up"",""bad_move""]","",""
"1325","","<div style=""width:500px;"">
  <p>What determined the result of this run?</p>
  </div>","0","html-slider-response","74","745211","0.0-10.0-1.7","225","1","2025-07-02 11:12:24","80fe4187154257d5fb01684ea91b68b9","37.47.196.61","Mozilla/5.0 (Windows NT 10.0; Win64; x64) AppleWebKit/537.36 (KHTML, like Gecko) Chrome/137.0.0.0 Safari/537.36","WebKit","Chrome","137.0.0.0","Windows","10.0","https://app.prolific.com/","en-GB,en-US;q=0.9,en;q=0.8","661fcd42e06a76702b43ba20","683db6dfa200031b80f2a654","68650751c9c9934f8b48aa4b","661fcd42e06a76702b43ba20","2025-07-02T11:24:52.477Z","","","","","","AttribQ","","","","","","","","","","","","","","","","","","","","","","","","","","","","","","","","","","","","","","50"
"1568","","<div style=""width:500px;"">
  <p>How much control did you have over the ball?</p>
  </div>","0","html-slider-response","75","746779","0.0-10.0-2.7","225","1","2025-07-02 11:12:24","80fe4187154257d5fb01684ea91b68b9","37.47.196.61","Mozilla/5.0 (Windows NT 10.0; Win64; x64) AppleWebKit/537.36 (KHTML, like Gecko) Chrome/137.0.0.0 Safari/537.36","WebKit","Chrome","137.0.0.0","Windows","10.0","https://app.prolific.com/","en-GB,en-US;q=0.9,en;q=0.8","661fcd42e06a76702b43ba20","683db6dfa200031b80f2a654","68650751c9c9934f8b48aa4b","661fcd42e06a76702b43ba20","2025-07-02T11:24:54.045Z","","","","","","ControlQ","","","","","","","","","","","","","","","","","","","","","","","","","","","","","","","","","","","","","","50"
"1680","","<div style=""width:500px;"">
  <p>How would you describe your current emotional state?</p>
  </div>","25","html-slider-response","76","748460","0.0-10.0-3.7","225","1","2025-07-02 11:12:24","80fe4187154257d5fb01684ea91b68b9","37.47.196.61","Mozilla/5.0 (Windows NT 10.0; Win64; x64) AppleWebKit/537.36 (KHTML, like Gecko) Chrome/137.0.0.0 Safari/537.36","WebKit","Chrome","137.0.0.0","Windows","10.0","https://app.prolific.com/","en-GB,en-US;q=0.9,en;q=0.8","661fcd42e06a76702b43ba20","683db6dfa200031b80f2a654","68650751c9c9934f8b48aa4b","661fcd42e06a76702b43ba20","2025-07-02T11:24:55.726Z","","","","","","StressQ","","","","","","","","","","","","","","","","","","","","","","","","","","","","","","","","","","","","","","50"
"1889","","<div style=""width:500px;"">
  <p>What best describes how you currently feel?</p>
  </div>","77","html-slider-response","77","750349","0.0-10.0-4.7","225","1","2025-07-02 11:12:24","80fe4187154257d5fb01684ea91b68b9","37.47.196.61","Mozilla/5.0 (Windows NT 10.0; Win64; x64) AppleWebKit/537.36 (KHTML, like Gecko) Chrome/137.0.0.0 Safari/537.36","WebKit","Chrome","137.0.0.0","Windows","10.0","https://app.prolific.com/","en-GB,en-US;q=0.9,en;q=0.8","661fcd42e06a76702b43ba20","683db6dfa200031b80f2a654","68650751c9c9934f8b48aa4b","661fcd42e06a76702b43ba20","2025-07-02T11:24:57.615Z","","","","","","MotivationQ","","","","","","","","","","","","","","","","","","","","","","","","","","","","","","","","","","","","","","50"
"","","","","ctl-task-cpt","78","788168","0.0-10.0-0.8","225","1","2025-07-02 11:12:24","80fe4187154257d5fb01684ea91b68b9","37.47.196.61","Mozilla/5.0 (Windows NT 10.0; Win64; x64) AppleWebKit/537.36 (KHTML, like Gecko) Chrome/137.0.0.0 Safari/537.36","WebKit","Chrome","137.0.0.0","Windows","10.0","https://app.prolific.com/","en-GB,en-US;q=0.9,en;q=0.8","661fcd42e06a76702b43ba20","683db6dfa200031b80f2a654","68650751c9c9934f8b48aa4b","661fcd42e06a76702b43ba20","2025-07-02T11:25:35.434Z","","","","","","","","","","","","","","","","win-only","2","g1:SE,g2:NW","0.4","9","0","753923.8","769.3","5771.4","34801.3","1","4","8","6","2","-8","-8","21","29","0.1590909090909091","1016.8","3000","-3015","[""left"",""up""]","{""num_key_presses"":8,""num_perfect"":3,""num_errors"":0,""num_randdir"":5,""num_randdir_good_moves"":2,""num_whilered"":0,""num_whileblue"":0,""num_blue"":1,""num_good_moves"":5}","[550.4285714285714,569.3348214285714,0.1,550.4285714285714,569.3348214285714,101,550.4285714285714,569.3348214285714,206.4,550.4285714285714,569.3348214285714,307.2,550.4285714285714,569.3348214285714,412.1,550.4285714285714,569.3348214285714,516.3,550.4285714285714,569.3348214285714,616.9,368.42857142857144,376.33482142857144,717.4,218.42857142857144,165.33482142857144,821.1,152.42857142857144,110.33482142857143,921.6,145.42857142857144,104.33482142857143,1021.9,150.42857142857144,121.33482142857143,1122.2,270.42857142857144,327.33482142857144,1226.2,472.42857142857144,413.33482142857144,1332.5,472.42857142857144,413.33482142857144,1432.6,472.42857142857144,413.33482142857144,1536.6,472.42857142857144,413.33482142857144,1641.4,472.42857142857144,413.33482142857144,1741.7,472.42857142857144,413.33482142857144,1846.9,472.42857142857144,413.33482142857144,1946.9,472.42857142857144,413.33482142857144,2051.5,472.42857142857144,413.33482142857144,2156.9,472.42857142857144,413.33482142857144,2261.2,472.42857142857144,413.33482142857144,2362.1,472.42857142857144,413.33482142857144,2465.9,472.42857142857144,413.33482142857144,2567.4,472.42857142857144,413.33482142857144,2671.2,472.42857142857144,413.33482142857144,2776.2,472.42857142857144,413.33482142857144,2876.3,472.42857142857144,413.33482142857144,2976.5,472.42857142857144,413.33482142857144,3081.1,472.42857142857144,413.33482142857144,3181.4,472.42857142857144,413.33482142857144,3282.2,472.42857142857144,413.33482142857144,3386.9,472.42857142857144,413.33482142857144,3487.4,472.42857142857144,413.33482142857144,3592.1,472.42857142857144,413.33482142857144,3696.4,472.42857142857144,413.33482142857144,3802.1,472.42857142857144,413.33482142857144,3902.1,472.42857142857144,413.33482142857144,4006.3,472.42857142857144,413.33482142857144,4111.5,472.42857142857144,413.33482142857144,4211.5,472.42857142857144,413.33482142857144,4316.3,472.42857142857144,413.33482142857144,4416.3,472.42857142857144,413.33482142857144,4521.6,472.42857142857144,413.33482142857144,4621.6,472.42857142857144,413.33482142857144,4727.5,472.42857142857144,413.33482142857144,4831.1,472.42857142857144,413.33482142857144,4931.4]","[1354.3,1354.3,1000,0,354.3,""oops"",""left"",""down"",""bad_move"",4412.1,3057.6,2661.8,1354.5,395.8,""oops"",""up"",""down"",""bad_move"",7645.5,3233.2,2855.2,4412.3,378,""smooth"",""left"",""left"",""good_move"",10917.2,3271.6,2892.8,7645.6,378.8,""smooth"",""left"",""left"",""good_move"",13723.2,2805.8,2474.3,10917.4,331.5,""oops"",""left"",""up"",""good_move"",16611.5,2888.1,2569.9,13723.4,318.2,""smooth"",""up"",""up"",""good_move"",22901.2,6289.7,2048.2,20549.4,303.6,""oops"",""up"",""down"",""bad_move"",26410.5,3509.2,3231,22901.4,278.1,""oops"",""up"",""left"",""good_move""]","",""
"3138","","<div style=""width:500px;"">
  <p>What determined the result of this run?</p>
  </div>","0","html-slider-response","79","791307","0.0-10.0-1.8","225","1","2025-07-02 11:12:24","80fe4187154257d5fb01684ea91b68b9","37.47.196.61","Mozilla/5.0 (Windows NT 10.0; Win64; x64) AppleWebKit/537.36 (KHTML, like Gecko) Chrome/137.0.0.0 Safari/537.36","WebKit","Chrome","137.0.0.0","Windows","10.0","https://app.prolific.com/","en-GB,en-US;q=0.9,en;q=0.8","661fcd42e06a76702b43ba20","683db6dfa200031b80f2a654","68650751c9c9934f8b48aa4b","661fcd42e06a76702b43ba20","2025-07-02T11:25:38.573Z","","","","","","AttribQ","","","","","","","","","","","","","","","","","","","","","","","","","","","","","","","","","","","","","","50"
"1562","","<div style=""width:500px;"">
  <p>How much control did you have over the ball?</p>
  </div>","0","html-slider-response","80","792869","0.0-10.0-2.8","225","1","2025-07-02 11:12:24","80fe4187154257d5fb01684ea91b68b9","37.47.196.61","Mozilla/5.0 (Windows NT 10.0; Win64; x64) AppleWebKit/537.36 (KHTML, like Gecko) Chrome/137.0.0.0 Safari/537.36","WebKit","Chrome","137.0.0.0","Windows","10.0","https://app.prolific.com/","en-GB,en-US;q=0.9,en;q=0.8","661fcd42e06a76702b43ba20","683db6dfa200031b80f2a654","68650751c9c9934f8b48aa4b","661fcd42e06a76702b43ba20","2025-07-02T11:25:40.135Z","","","","","","ControlQ","","","","","","","","","","","","","","","","","","","","","","","","","","","","","","","","","","","","","","50"
"2903","","<div style=""width:500px;"">
  <p>How would you describe your current emotional state?</p>
  </div>","30","html-slider-response","81","795773","0.0-10.0-3.8","225","1","2025-07-02 11:12:24","80fe4187154257d5fb01684ea91b68b9","37.47.196.61","Mozilla/5.0 (Windows NT 10.0; Win64; x64) AppleWebKit/537.36 (KHTML, like Gecko) Chrome/137.0.0.0 Safari/537.36","WebKit","Chrome","137.0.0.0","Windows","10.0","https://app.prolific.com/","en-GB,en-US;q=0.9,en;q=0.8","661fcd42e06a76702b43ba20","683db6dfa200031b80f2a654","68650751c9c9934f8b48aa4b","661fcd42e06a76702b43ba20","2025-07-02T11:25:43.039Z","","","","","","StressQ","","","","","","","","","","","","","","","","","","","","","","","","","","","","","","","","","","","","","","50"
"1569","","<div style=""width:500px;"">
  <p>What best describes how you currently feel?</p>
  </div>","66","html-slider-response","82","797342","0.0-10.0-4.8","225","1","2025-07-02 11:12:24","80fe4187154257d5fb01684ea91b68b9","37.47.196.61","Mozilla/5.0 (Windows NT 10.0; Win64; x64) AppleWebKit/537.36 (KHTML, like Gecko) Chrome/137.0.0.0 Safari/537.36","WebKit","Chrome","137.0.0.0","Windows","10.0","https://app.prolific.com/","en-GB,en-US;q=0.9,en;q=0.8","661fcd42e06a76702b43ba20","683db6dfa200031b80f2a654","68650751c9c9934f8b48aa4b","661fcd42e06a76702b43ba20","2025-07-02T11:25:44.608Z","","","","","","MotivationQ","","","","","","","","","","","","","","","","","","","","","","","","","","","","","","","","","","","","","","50"
