"rt","response_timestamp","stimulus","response","trial_type","trial_index","time_elapsed","internal_node_id","run_id","condition","recorded_at","source_code_version","ip","user_agent","device","browser","browser_version","platform","platform_version","referer","accept_language","PROLIFIC_PID","STUDY_ID","SESSION_ID","prolific_id","realtime","view_history","question_order","consent","success","question_id","eventType","responses","item_order","radio_event_ids","radio_event_times","key_event_times","mouse_event_times","straightlining","zigzagging","honeypot","which_type","canvas_config","goals_layout","control_level","trial_number","tutorial_trial_number","trial_start_time","phase1_start_time","phase2_start_time","phase3_start_time","goal_1_value","goal_1_distance","goal_2_value","goal_2_distance","goal_selected","outcome","outcome_total","participant_final_score","participant_initial_score","participant_final_score_prop","goal_choice_rt","allocated_time","allocated_time_remaining","goal_direction","counts","mouse_movements","key_presses","correct","slider_start"
"8835","1751451549408","<p style='font-size:40px;line-height:1.25'><strong>Welcome to the experiment!</strong></p><p style='font-size:1.1em;line-height:1.25'>Thank you for your interest in our experiment! Before you begin, it is important that we obtain your informed consent to participate in the study.</p><p style='font-size:1.1em;line-height:1.25'>On the next screen will be an <strong>information sheet</strong> for you to read. To participate in the study we need you to read this information sheet and the following consent form carefully. If you agree with all the statements, please click the <strong>I agree</strong> button.</p><p style='font-size:1.1em;line-height:1.25'>Press <strong>Next</strong> to read the information sheet.</p>","0","custom-html-button-response","0","8837","0.0-0.0","65","1","2025-07-02 10:18:59","80fe4187154257d5fb01684ea91b68b9","86.1.242.218","Mozilla/5.0 (Macintosh; Intel Mac OS X 10_15_7) AppleWebKit/537.36 (KHTML, like Gecko) Chrome/137.0.0.0 Safari/537.36","Macintosh","Chrome","137.0.0.0","OS X","10_15_7","https://app.prolific.com/","en-GB,en-US;q=0.9,en;q=0.8","6620f5de5edae6e60f556986","683db6dfa200031b80f2a654","68650767e20c324fab2d7350","6620f5de5edae6e60f556986","2025-07-02T10:19:09.410Z","","","","","","","","","","","","","","","","","","","","","","","","","","","","","","","","","","","","","","","","","","","",""
"3396","","","","instructions","1","12235","0.0-1.0","65","1","2025-07-02 10:18:59","80fe4187154257d5fb01684ea91b68b9","86.1.242.218","Mozilla/5.0 (Macintosh; Intel Mac OS X 10_15_7) AppleWebKit/537.36 (KHTML, like Gecko) Chrome/137.0.0.0 Safari/537.36","Macintosh","Chrome","137.0.0.0","OS X","10_15_7","https://app.prolific.com/","en-GB,en-US;q=0.9,en;q=0.8","6620f5de5edae6e60f556986","683db6dfa200031b80f2a654","68650767e20c324fab2d7350","6620f5de5edae6e60f556986","","[{""page_index"":0,""viewing_time"":2596},{""page_index"":1,""viewing_time"":799}]","","","","","","","","","","","","","","","","","","","","","","","","","","","","","","","","","","","","","","","","","","",""
"2967","","","{""Q0"":"""",""Q1"":"""",""Q2"":"""",""Q3"":"""",""Q4"":"""",""Q5"":"""",""Q6"":""I agree""}","survey-multi-choice","2","15205","0.0-2.0","65","1","2025-07-02 10:18:59","80fe4187154257d5fb01684ea91b68b9","86.1.242.218","Mozilla/5.0 (Macintosh; Intel Mac OS X 10_15_7) AppleWebKit/537.36 (KHTML, like Gecko) Chrome/137.0.0.0 Safari/537.36","Macintosh","Chrome","137.0.0.0","OS X","10_15_7","https://app.prolific.com/","en-GB,en-US;q=0.9,en;q=0.8","6620f5de5edae6e60f556986","683db6dfa200031b80f2a654","68650767e20c324fab2d7350","6620f5de5edae6e60f556986","","","[0,1,2,3,4,5,6]","true","","","","","","","","","","","","","","","","","","","","","","","","","","","","","","","","","","","","","","","","",""
"4145","","","","fullscreen","3","20356","0.0-4.0","65","1","2025-07-02 10:18:59","80fe4187154257d5fb01684ea91b68b9","86.1.242.218","Mozilla/5.0 (Macintosh; Intel Mac OS X 10_15_7) AppleWebKit/537.36 (KHTML, like Gecko) Chrome/137.0.0.0 Safari/537.36","Macintosh","Chrome","137.0.0.0","OS X","10_15_7","https://app.prolific.com/","en-GB,en-US;q=0.9,en;q=0.8","6620f5de5edae6e60f556986","683db6dfa200031b80f2a654","68650767e20c324fab2d7350","6620f5de5edae6e60f556986","","","","","true","","","","","","","","","","","","","","","","","","","","","","","","","","","","","","","","","","","","","","","",""
"3628","1751451564558"," <p style='font-size:1.1em;line-height:1.25'>Thank you for completing the consent form and closing all other tabs.</p><p style='font-size:1.1em;line-height:1.25'>We will now invite you to fill in some demographic information and questionnaires, before starting the game.<br>This will take about 5 minutes.<br></p><p style='font-size:1.1em;line-height:1.25'>Press the <strong>Next</strong> button to continue.</p>","0","custom-html-button-response","4","23986","0.0-5.0","65","1","2025-07-02 10:18:59","80fe4187154257d5fb01684ea91b68b9","86.1.242.218","Mozilla/5.0 (Macintosh; Intel Mac OS X 10_15_7) AppleWebKit/537.36 (KHTML, like Gecko) Chrome/137.0.0.0 Safari/537.36","Macintosh","Chrome","137.0.0.0","OS X","10_15_7","https://app.prolific.com/","en-GB,en-US;q=0.9,en;q=0.8","6620f5de5edae6e60f556986","683db6dfa200031b80f2a654","68650767e20c324fab2d7350","6620f5de5edae6e60f556986","2025-07-02T10:19:24.559Z","","","","","","","","","","","","","","","","","","","","","","","","","","","","","","","","","","","","","","","","","","","",""
"2117","","","{""age"":""28""}","survey-text","5","26109","0.0-6.0-0.0","65","1","2025-07-02 10:18:59","80fe4187154257d5fb01684ea91b68b9","86.1.242.218","Mozilla/5.0 (Macintosh; Intel Mac OS X 10_15_7) AppleWebKit/537.36 (KHTML, like Gecko) Chrome/137.0.0.0 Safari/537.36","Macintosh","Chrome","137.0.0.0","OS X","10_15_7","https://app.prolific.com/","en-GB,en-US;q=0.9,en;q=0.8","6620f5de5edae6e60f556986","683db6dfa200031b80f2a654","68650767e20c324fab2d7350","6620f5de5edae6e60f556986","","","","","","0","demographics","","","","","","","","","","","","","","","","","","","","","","","","","","","","","","","","","","","","","",""
"1844","","","{""gender_identity"":""female/woman""}","survey-multi-choice","6","27955","0.0-6.0-1.0","65","1","2025-07-02 10:18:59","80fe4187154257d5fb01684ea91b68b9","86.1.242.218","Mozilla/5.0 (Macintosh; Intel Mac OS X 10_15_7) AppleWebKit/537.36 (KHTML, like Gecko) Chrome/137.0.0.0 Safari/537.36","Macintosh","Chrome","137.0.0.0","OS X","10_15_7","https://app.prolific.com/","en-GB,en-US;q=0.9,en;q=0.8","6620f5de5edae6e60f556986","683db6dfa200031b80f2a654","68650767e20c324fab2d7350","6620f5de5edae6e60f556986","","","[0]","","","1","demographics","","","","","","","","","","","","","","","","","","","","","","","","","","","","","","","","","","","","","",""
"1787","","","{""assigned_sex"":""female""}","survey-multi-choice","7","29744","0.0-6.0-2.0","65","1","2025-07-02 10:18:59","80fe4187154257d5fb01684ea91b68b9","86.1.242.218","Mozilla/5.0 (Macintosh; Intel Mac OS X 10_15_7) AppleWebKit/537.36 (KHTML, like Gecko) Chrome/137.0.0.0 Safari/537.36","Macintosh","Chrome","137.0.0.0","OS X","10_15_7","https://app.prolific.com/","en-GB,en-US;q=0.9,en;q=0.8","6620f5de5edae6e60f556986","683db6dfa200031b80f2a654","68650767e20c324fab2d7350","6620f5de5edae6e60f556986","","","[0]","","","2","demographics","","","","","","","","","","","","","","","","","","","","","","","","","","","","","","","","","","","","","",""
"1727","","","{""menstrual_cycle"":""Yes""}","survey-multi-choice","8","31473","0.0-6.0-3.0","65","1","2025-07-02 10:18:59","80fe4187154257d5fb01684ea91b68b9","86.1.242.218","Mozilla/5.0 (Macintosh; Intel Mac OS X 10_15_7) AppleWebKit/537.36 (KHTML, like Gecko) Chrome/137.0.0.0 Safari/537.36","Macintosh","Chrome","137.0.0.0","OS X","10_15_7","https://app.prolific.com/","en-GB,en-US;q=0.9,en;q=0.8","6620f5de5edae6e60f556986","683db6dfa200031b80f2a654","68650767e20c324fab2d7350","6620f5de5edae6e60f556986","","","[0]","","","4","demographics","","","","","","","","","","","","","","","","","","","","","","","","","","","","","","","","","","","","","",""
"2938","","","{""education"":""Master's Degree (e.g., MSc)""}","survey-multi-choice","9","34413","0.0-6.0-4.0","65","1","2025-07-02 10:18:59","80fe4187154257d5fb01684ea91b68b9","86.1.242.218","Mozilla/5.0 (Macintosh; Intel Mac OS X 10_15_7) AppleWebKit/537.36 (KHTML, like Gecko) Chrome/137.0.0.0 Safari/537.36","Macintosh","Chrome","137.0.0.0","OS X","10_15_7","https://app.prolific.com/","en-GB,en-US;q=0.9,en;q=0.8","6620f5de5edae6e60f556986","683db6dfa200031b80f2a654","68650767e20c324fab2d7350","6620f5de5edae6e60f556986","","","[0]","","","5","demographics","","","","","","","","","","","","","","","","","","","","","","","","","","","","","","","","","","","","","",""
"9728","","","{""education"":""Others""}","survey-multi-choice","10","44143","0.0-6.0-5.0","65","1","2025-07-02 10:18:59","80fe4187154257d5fb01684ea91b68b9","86.1.242.218","Mozilla/5.0 (Macintosh; Intel Mac OS X 10_15_7) AppleWebKit/537.36 (KHTML, like Gecko) Chrome/137.0.0.0 Safari/537.36","Macintosh","Chrome","137.0.0.0","OS X","10_15_7","https://app.prolific.com/","en-GB,en-US;q=0.9,en;q=0.8","6620f5de5edae6e60f556986","683db6dfa200031b80f2a654","68650767e20c324fab2d7350","6620f5de5edae6e60f556986","2025-07-02T10:19:44.716Z","","[0]","","","6","demographics","","","","","","","","","","","","","","","","","","","","","","","","","","","","","","","","","","","","","",""
"25176","","","{""mental_health_condition"":""No"",""mental_health_treatment"":""No"",""psychiatric_medication"":""None""}","survey-text","11","69322","0.0-7.0-0.0","65","1","2025-07-02 10:18:59","80fe4187154257d5fb01684ea91b68b9","86.1.242.218","Mozilla/5.0 (Macintosh; Intel Mac OS X 10_15_7) AppleWebKit/537.36 (KHTML, like Gecko) Chrome/137.0.0.0 Safari/537.36","Macintosh","Chrome","137.0.0.0","OS X","10_15_7","https://app.prolific.com/","en-GB,en-US;q=0.9,en;q=0.8","6620f5de5edae6e60f556986","683db6dfa200031b80f2a654","68650767e20c324fab2d7350","6620f5de5edae6e60f556986","2025-07-02T10:20:09.895Z","","","","","1","mental_health","","","","","","","","","","","","","","","","","","","","","","","","","","","","","","","","","","","","","",""
"24578","","","{""depression_history"":[""Yes""]}","survey-multi-select","12","93904","0.0-7.0-1.0","65","1","2025-07-02 10:18:59","80fe4187154257d5fb01684ea91b68b9","86.1.242.218","Mozilla/5.0 (Macintosh; Intel Mac OS X 10_15_7) AppleWebKit/537.36 (KHTML, like Gecko) Chrome/137.0.0.0 Safari/537.36","Macintosh","Chrome","137.0.0.0","OS X","10_15_7","https://app.prolific.com/","en-GB,en-US;q=0.9,en;q=0.8","6620f5de5edae6e60f556986","683db6dfa200031b80f2a654","68650767e20c324fab2d7350","6620f5de5edae6e60f556986","","","[0]","","","","mental_health","","","","","","","","","","","","","","","","","","","","","","","","","","","","","","","","","","","","","",""
"6198","","","{""depression_episodes"":""more than 5"",""depression_recent"":""More than 1 year ago""}","survey-multi-choice","13","100104","0.0-7.0-2.0-0.0","65","1","2025-07-02 10:18:59","80fe4187154257d5fb01684ea91b68b9","86.1.242.218","Mozilla/5.0 (Macintosh; Intel Mac OS X 10_15_7) AppleWebKit/537.36 (KHTML, like Gecko) Chrome/137.0.0.0 Safari/537.36","Macintosh","Chrome","137.0.0.0","OS X","10_15_7","https://app.prolific.com/","en-GB,en-US;q=0.9,en;q=0.8","6620f5de5edae6e60f556986","683db6dfa200031b80f2a654","68650767e20c324fab2d7350","6620f5de5edae6e60f556986","2025-07-02T10:20:40.677Z","","[0,1]","","","3","mental_health","","","","","","","","","","","","","","","","","","","","","","","","","","","","","","","","","","","","","",""
"35063.29999998212","","","","survey-template","14","135172","0.0-7.0-3.0","65","1","2025-07-02 10:18:59","80fe4187154257d5fb01684ea91b68b9","86.1.242.218","Mozilla/5.0 (Macintosh; Intel Mac OS X 10_15_7) AppleWebKit/537.36 (KHTML, like Gecko) Chrome/137.0.0.0 Safari/537.36","Macintosh","Chrome","137.0.0.0","OS X","10_15_7","https://app.prolific.com/","en-GB,en-US;q=0.9,en;q=0.8","6620f5de5edae6e60f556986","683db6dfa200031b80f2a654","68650767e20c324fab2d7350","6620f5de5edae6e60f556986","2025-07-02T10:21:15.746Z","","","","","","ius","{""Q01"":""3"",""Q02"":""3"",""Q03"":""2"",""Q04"":""2"",""Q05"":""3"",""Q06"":""3"",""Q07"":""3"",""Q08"":""0"",""Q09"":""1"",""Q10"":""2"",""Q11"":""2"",""Q12"":""2"",""Q13"":""2""}","[0,1,2,3,4,5,6,7,8,9,10,11,12]","[""Q01"",""Q02"",""Q03"",""Q04"",""Q05"",""Q06"",""Q07"",""Q08"",""Q09"",""Q10"",""Q11"",""Q12"",""Q13""]","[2593.4000000059605,4877.299999982119,6093.5999999940395,8260.699999988079,11276.90000000596,13010.299999982119,15494.299999982119,22794.29999998212,25310.5,27727.69999998808,30660.09999999404,32427.90000000596,34327.09999999404]","[]","[2593.4000000059605,4877.299999982119,6093.5999999940395,8260.699999988079,11276.90000000596,13010.299999982119,15494.299999982119,22794.29999998212,25310.5,26911.40000000596,27727.69999998808,30660.09999999404,32427.90000000596,33510.40000000596,34327.09999999404,35060.40000000596]","0.46153846153846156","0.3333333333333333","0","","","","","","","","","","","","","","","","","","","","","","","","","","","","",""
"3461","1751451679208","<p style='font-size:1.1em;line-height:1.25'>In the following, we will ask you a few questions relating to your experiences over the past month.<br></p><p style='font-size:1.1em;line-height:1.25'>Press the <strong>Next</strong> button to continue.</p>","0","custom-html-button-response","15","138636","0.0-7.0-4.0","65","1","2025-07-02 10:18:59","80fe4187154257d5fb01684ea91b68b9","86.1.242.218","Mozilla/5.0 (Macintosh; Intel Mac OS X 10_15_7) AppleWebKit/537.36 (KHTML, like Gecko) Chrome/137.0.0.0 Safari/537.36","Macintosh","Chrome","137.0.0.0","OS X","10_15_7","https://app.prolific.com/","en-GB,en-US;q=0.9,en;q=0.8","6620f5de5edae6e60f556986","683db6dfa200031b80f2a654","68650767e20c324fab2d7350","6620f5de5edae6e60f556986","2025-07-02T10:21:19.209Z","","","","","","","","","","","","","","","","","","","","","","","","","","","","","","","","","","","","","","","","","","","",""
"39350","","","","survey-template","16","177988","0.0-7.0-5.0","65","1","2025-07-02 10:18:59","80fe4187154257d5fb01684ea91b68b9","86.1.242.218","Mozilla/5.0 (Macintosh; Intel Mac OS X 10_15_7) AppleWebKit/537.36 (KHTML, like Gecko) Chrome/137.0.0.0 Safari/537.36","Macintosh","Chrome","137.0.0.0","OS X","10_15_7","https://app.prolific.com/","en-GB,en-US;q=0.9,en;q=0.8","6620f5de5edae6e60f556986","683db6dfa200031b80f2a654","68650767e20c324fab2d7350","6620f5de5edae6e60f556986","2025-07-02T10:21:58.561Z","","","","","","pss","{""Q01"":""2"",""Q02"":""2"",""Q03"":""4"",""Q04"":""2"",""Q05"":""2"",""Q06"":""2"",""Q07"":""1"",""Q08"":""2"",""Q09"":""1"",""Q10"":""2""}","[0,1,2,3,4,5,6,7,8,9]","[""Q01"",""Q02"",""Q03"",""Q03"",""Q04"",""Q04"",""Q05"",""Q06"",""Q07"",""Q08"",""Q09"",""Q10""]","[2847,5696.699999988079,7296.5,8330.90000000596,11314.09999999404,12514.09999999404,16147.699999988079,25363.5,27931.5,29897.19999998808,34531.09999999404,38564.40000000596]","[]","[0.19999998807907104,2847,5696.699999988079,7296.5,8330.90000000596,11314.09999999404,12514.09999999404,14930.699999988079,16147.699999988079,25363.5,27931.5,29897.19999998808,34531.09999999404,35080.90000000596,37447.40000000596,38031.69999998808,38564.40000000596,39347.80000001192]","0.7","0.4444444444444444","0","","","","","","","","","","","","","","","","","","","","","","","","","","","","",""
"4995","1751451723557","<p style='font-size:1.1em;line-height:1.25'>Thank you for your answers! Now we will ask you a few more questions relating to your feelings in the last 24 hours.<br></p><p style='font-size:1.1em;line-height:1.25'>Press the <strong>Next</strong> button to continue.</p>","0","custom-html-button-response","17","182985","0.0-7.0-6.0","65","1","2025-07-02 10:18:59","80fe4187154257d5fb01684ea91b68b9","86.1.242.218","Mozilla/5.0 (Macintosh; Intel Mac OS X 10_15_7) AppleWebKit/537.36 (KHTML, like Gecko) Chrome/137.0.0.0 Safari/537.36","Macintosh","Chrome","137.0.0.0","OS X","10_15_7","https://app.prolific.com/","en-GB,en-US;q=0.9,en;q=0.8","6620f5de5edae6e60f556986","683db6dfa200031b80f2a654","68650767e20c324fab2d7350","6620f5de5edae6e60f556986","2025-07-02T10:22:03.559Z","","","","","","","","","","","","","","","","","","","","","","","","","","","","","","","","","","","","","","","","","","","",""
"37669.09999999404","","","","survey-template","18","220658","0.0-7.0-7.0","65","1","2025-07-02 10:18:59","80fe4187154257d5fb01684ea91b68b9","86.1.242.218","Mozilla/5.0 (Macintosh; Intel Mac OS X 10_15_7) AppleWebKit/537.36 (KHTML, like Gecko) Chrome/137.0.0.0 Safari/537.36","Macintosh","Chrome","137.0.0.0","OS X","10_15_7","https://app.prolific.com/","en-GB,en-US;q=0.9,en;q=0.8","6620f5de5edae6e60f556986","683db6dfa200031b80f2a654","68650767e20c324fab2d7350","6620f5de5edae6e60f556986","2025-07-02T10:22:41.232Z","","","","","","drsp","{""Q01"":""0"",""Q02"":""0"",""Q03"":""1"",""Q04"":""3"",""Q05"":""2"",""Q06"":""2"",""Q07"":""3"",""Q08"":""0"",""Q09"":""1"",""Q10"":""2"",""Q11"":""3"",""Q12"":""1"",""Q13"":""1"",""Q14"":""2"",""Q15"":""2"",""Q16"":""3"",""Q17"":""1"",""Q18"":""3"",""Q19"":""2"",""Q20"":""2"",""Q21"":""2""}","[0,1,2,3,4,5,6,7,8,9,10,11,12,13,14,15,16,17,18,19,20]","[""Q01"",""Q02"",""Q03"",""Q04"",""Q05"",""Q06"",""Q07"",""Q08"",""Q09"",""Q10"",""Q11"",""Q12"",""Q13"",""Q14"",""Q15"",""Q16"",""Q17"",""Q18"",""Q19"",""Q20"",""Q21""]","[1761.5999999940395,3963.199999988079,5195.9000000059605,6446.5999999940395,7996.4000000059605,9345.799999982119,10630.5,12162.59999999404,13646.5,17880.19999998808,18863.29999998212,20479.90000000596,21279.40000000596,22781,24597,25813.09999999404,26680.19999998808,29046.29999998212,32262.79999998212,34579.90000000596,36380.29999998212]","[]","[0.19999998807907104,1761.5999999940395,3963.199999988079,5195.9000000059605,6446.5999999940395,7996.4000000059605,9345.799999982119,10630.5,12162.59999999404,13646.5,15330.09999999404,16679.40000000596,17880.19999998808,18863.29999998212,20479.90000000596,21279.40000000596,22781,24597,25813.09999999404,26680.19999998808,29046.29999998212,32262.79999998212,34579.90000000596,36380.29999998212,37664.19999998808]","0.38095238095238093","0.45","0","","","","","","","","","","","","","","","","","","","","","","","","","","","","",""
"6859.5","","","","survey-template","19","227520","0.0-7.0-8.0","65","1","2025-07-02 10:18:59","80fe4187154257d5fb01684ea91b68b9","86.1.242.218","Mozilla/5.0 (Macintosh; Intel Mac OS X 10_15_7) AppleWebKit/537.36 (KHTML, like Gecko) Chrome/137.0.0.0 Safari/537.36","Macintosh","Chrome","137.0.0.0","OS X","10_15_7","https://app.prolific.com/","en-GB,en-US;q=0.9,en;q=0.8","6620f5de5edae6e60f556986","683db6dfa200031b80f2a654","68650767e20c324fab2d7350","6620f5de5edae6e60f556986","2025-07-02T10:22:48.093Z","","","","","","stress","{""Q01"":""2"",""Q02"":""4"",""Q03"":""1""}","[0,1,2]","[""Q01"",""Q02"",""Q03""]","[2057.5999999940395,3140.5999999940395,6191.199999988079]","[]","[2057.5999999940395,3140.5999999940395,4690.899999976158,6191.199999988079,6858.199999988079]","0.6666666666666666","0.5","0","","","","","","","","","","","","","","","","","","","","","","","","","","","","",""
"31331","","","","instructions","20","258851","0.0-8.0-0.0","65","1","2025-07-02 10:18:59","80fe4187154257d5fb01684ea91b68b9","86.1.242.218","Mozilla/5.0 (Macintosh; Intel Mac OS X 10_15_7) AppleWebKit/537.36 (KHTML, like Gecko) Chrome/137.0.0.0 Safari/537.36","Macintosh","Chrome","137.0.0.0","OS X","10_15_7","https://app.prolific.com/","en-GB,en-US;q=0.9,en;q=0.8","6620f5de5edae6e60f556986","683db6dfa200031b80f2a654","68650767e20c324fab2d7350","6620f5de5edae6e60f556986","","[{""page_index"":0,""viewing_time"":10764},{""page_index"":1,""viewing_time"":7750},{""page_index"":2,""viewing_time"":2800},{""page_index"":3,""viewing_time"":10016}]","","","","","","","","","","","","","","","","","","","","","","","","","","","","","","","","","","","","","","","","","","",""
"","","","","ctl-task-cpt","21","285914","0.0-8.0-1.0","65","1","2025-07-02 10:18:59","80fe4187154257d5fb01684ea91b68b9","86.1.242.218","Mozilla/5.0 (Macintosh; Intel Mac OS X 10_15_7) AppleWebKit/537.36 (KHTML, like Gecko) Chrome/137.0.0.0 Safari/537.36","Macintosh","Chrome","137.0.0.0","OS X","10_15_7","https://app.prolific.com/","en-GB,en-US;q=0.9,en;q=0.8","6620f5de5edae6e60f556986","683db6dfa200031b80f2a654","68650767e20c324fab2d7350","6620f5de5edae6e60f556986","","","","","","","","","","","","","","","","","win-only","1","g1:NE,g2:SW","1","0","1","260419.1","1863.6","5866","24051.6","2","4","4","6","1","2","0","0","0","0","1497.2","4000","2525","[""up"",""right""]","{""num_key_presses"":6,""num_perfect"":4,""num_errors"":2,""num_randdir"":0,""num_randdir_good_moves"":0,""num_whilered"":0,""num_whileblue"":0,""num_blue"":1,""num_good_moves"":4}","[808,815.796875,0.3,808,815.796875,102.1,808,815.796875,207.2,808,815.796875,307.9,808,815.796875,412.4,808,815.796875,513.4,808,815.796875,617.3,808,815.796875,722.1,808,815.796875,822.3,808,815.796875,928.3,808,815.796875,1032.1,808,815.796875,1132.2,1216,403.796875,1232.7,1494,179.796875,1333.1,1528,129.796875,1437.8,1530,127.796875,1543,1530,127.796875,1647.4,1530,127.796875,1747.8,1530,127.796875,1852.4,1530,127.796875,1953.2,1530,127.796875,2057.4,1530,127.796875,2157.9,1530,127.796875,2262.3,1530,127.796875,2362.4,1530,127.796875,2462.5,1530,127.796875,2562.8,1530,127.796875,2663.2,1530,127.796875,2767,1530,127.796875,2873,1530,127.796875,2977.5,1530,127.796875,3077.7,1530,127.796875,3182.4,1530,127.796875,3282.9,1530,127.796875,3383.8,1530,127.796875,3487.1,1530,127.796875,3592.9,1530,127.796875,3697.6,1530,127.796875,3797.6,1530,127.796875,3902.3]","[268.3,268.2,1000,0.1,-731.8,""error"",""-"",""-"",""no_move"",4249.2,3980.5,2614.2,1269.9,365.1,""smooth"",""right"",""right"",""good_move"",4869.9,620.3,2724.5,4249.7,-2104.3,""error"",""-"",""-"",""no_move"",8899.1,4029,2635.1,5875.9,388.2,""smooth"",""right"",""right"",""good_move"",11450.7,2551.3,2163.1,8899.4,388.2,""smooth"",""up"",""up"",""good_move"",18086.5,6635.4,2815.3,14910.8,360.4,""smooth"",""up"",""up"",""good_move""]","",""
"5737","","","","instructions","22","291652","0.0-8.0-2.0","65","1","2025-07-02 10:18:59","80fe4187154257d5fb01684ea91b68b9","86.1.242.218","Mozilla/5.0 (Macintosh; Intel Mac OS X 10_15_7) AppleWebKit/537.36 (KHTML, like Gecko) Chrome/137.0.0.0 Safari/537.36","Macintosh","Chrome","137.0.0.0","OS X","10_15_7","https://app.prolific.com/","en-GB,en-US;q=0.9,en;q=0.8","6620f5de5edae6e60f556986","683db6dfa200031b80f2a654","68650767e20c324fab2d7350","6620f5de5edae6e60f556986","","[{""page_index"":0,""viewing_time"":5736}]","","","","","","","","","","","","","","","","","","","","","","","","","","","","","","","","","","","","","","","","","","",""
"","","","","ctl-task-cpt","23","337082","0.0-8.0-3.0","65","1","2025-07-02 10:18:59","80fe4187154257d5fb01684ea91b68b9","86.1.242.218","Mozilla/5.0 (Macintosh; Intel Mac OS X 10_15_7) AppleWebKit/537.36 (KHTML, like Gecko) Chrome/137.0.0.0 Safari/537.36","Macintosh","Chrome","137.0.0.0","OS X","10_15_7","https://app.prolific.com/","en-GB,en-US;q=0.9,en;q=0.8","6620f5de5edae6e60f556986","683db6dfa200031b80f2a654","68650767e20c324fab2d7350","6620f5de5edae6e60f556986","","","","","","","","","","","","","","","","","win-only","1","g1:NE,g2:SW","0.35","0","3","293216.5","1198.9","5203","42420.5","2","4","8","6","2","-8","-8","0","0","0","1915.7","4000","-2980","[""down"",""left""]","{""num_key_presses"":10,""num_perfect"":4,""num_errors"":0,""num_randdir"":6,""num_randdir_good_moves"":2,""num_whilered"":0,""num_whileblue"":0,""num_blue"":3,""num_good_moves"":6}","[818,815.796875,0,818,815.796875,101.6,818,815.796875,204.8,818,815.796875,307.5,818,815.796875,411.5,818,815.796875,511.8,734,937.796875,612.7,508,1181.796875,717,488,1199.796875,820.7,488,1199.796875,922.4,394,1267.796875,1027,328,1337.796875,1127.4,284,1383.796875,1231.7,222,1423.796875,1331.7,192,1443.796875,1431.8,176,1451.796875,1537.3,174,1451.796875,1638.2,172,1451.796875,1741.7,172,1451.796875,1842.6,170,1451.796875,1946.7,170,1451.796875,2046.9,170,1451.796875,2147.3,170,1451.796875,2254.2,170,1451.796875,2356.8,170,1451.796875,2457,650,1199.796875,2558.7,650,1199.796875,2661.6,650,1199.796875,2762.1,650,1199.796875,2862.4,650,1199.796875,2962.4,650,1199.796875,3067.5,650,1199.796875,3169.1,650,1199.796875,3271.8,650,1199.796875,3377,650,1199.796875,3481.8,650,1199.796875,3582,650,1199.796875,3682.5,650,1199.796875,3782.6,650,1199.796875,3882.7,650,1199.796875,3987.2]","[4552.2,4552.2,2197,2003.4,351.8,""smooth"",""down"",""down"",""good_move"",10467.9,5915.5,2432.5,7657.8,377.6,""oops"",""down"",""up"",""bad_move"",12998.4,2530.2,2087.2,10468.2,443,""oops"",""down"",""right"",""bad_move"",18469.3,5470.6,1834.1,16227.7,407.5,""oops"",""left"",""down"",""good_move"",21664.3,3194.8,2673.6,18469.5,521.2,""oops"",""left"",""left"",""good_move"",24473.1,2808.4,2329.3,21664.7,479.1,""smooth"",""left"",""left"",""good_move"",26787.2,2313.9,1809.9,24473.3,504,""smooth"",""left"",""left"",""good_move"",29852.7,3065.2,2747.1,26787.5,318.1,""smooth"",""down"",""down"",""good_move"",32418.3,2565.4,2250.2,29852.9,315.3,""oops"",""down"",""up"",""bad_move"",34688.2,2269.7,2042.5,32418.5,227.2,""oops"",""down"",""right"",""bad_move""]","",""
"18186","","","","instructions","24","355267","0.0-8.0-4.0","65","1","2025-07-02 10:18:59","80fe4187154257d5fb01684ea91b68b9","86.1.242.218","Mozilla/5.0 (Macintosh; Intel Mac OS X 10_15_7) AppleWebKit/537.36 (KHTML, like Gecko) Chrome/137.0.0.0 Safari/537.36","Macintosh","Chrome","137.0.0.0","OS X","10_15_7","https://app.prolific.com/","en-GB,en-US;q=0.9,en;q=0.8","6620f5de5edae6e60f556986","683db6dfa200031b80f2a654","68650767e20c324fab2d7350","6620f5de5edae6e60f556986","","[{""page_index"":0,""viewing_time"":16002},{""page_index"":1,""viewing_time"":2184}]","","","","","","","","","","","","","","","","","","","","","","","","","","","","","","","","","","","","","","","","","","",""
"6782","","","{""green_ball"":[""Ball sometimes shakes and moves in a random direction""]}","survey-multi-select","25","362052","0.0-8.0-5.0-0.0","65","1","2025-07-02 10:18:59","80fe4187154257d5fb01684ea91b68b9","86.1.242.218","Mozilla/5.0 (Macintosh; Intel Mac OS X 10_15_7) AppleWebKit/537.36 (KHTML, like Gecko) Chrome/137.0.0.0 Safari/537.36","Macintosh","Chrome","137.0.0.0","OS X","10_15_7","https://app.prolific.com/","en-GB,en-US;q=0.9,en;q=0.8","6620f5de5edae6e60f556986","683db6dfa200031b80f2a654","68650767e20c324fab2d7350","6620f5de5edae6e60f556986","","","[0]","","","","quiz","","","","","","","","","","","","","","","","","","","","","","","","","","","","","","","","","","","","","true",""
"1014","","<p align='center'><b>CORRECT!</b> Indeed, the green ball may sometimes shake and move in a random direction.</p>","0","html-button-response","26","363068","0.0-8.0-5.0-1.0","65","1","2025-07-02 10:18:59","80fe4187154257d5fb01684ea91b68b9","86.1.242.218","Mozilla/5.0 (Macintosh; Intel Mac OS X 10_15_7) AppleWebKit/537.36 (KHTML, like Gecko) Chrome/137.0.0.0 Safari/537.36","Macintosh","Chrome","137.0.0.0","OS X","10_15_7","https://app.prolific.com/","en-GB,en-US;q=0.9,en;q=0.8","6620f5de5edae6e60f556986","683db6dfa200031b80f2a654","68650767e20c324fab2d7350","6620f5de5edae6e60f556986","","","","","","","","","","","","","","","","","","","","","","","","","","","","","","","","","","","","","","","","","","","","",""
"3449","","","{""yellow_ball"":[""Ball doesn‘t move and I get -1 penalty point""]}","survey-multi-select","27","366518","0.0-8.0-6.0-0.0","65","1","2025-07-02 10:18:59","80fe4187154257d5fb01684ea91b68b9","86.1.242.218","Mozilla/5.0 (Macintosh; Intel Mac OS X 10_15_7) AppleWebKit/537.36 (KHTML, like Gecko) Chrome/137.0.0.0 Safari/537.36","Macintosh","Chrome","137.0.0.0","OS X","10_15_7","https://app.prolific.com/","en-GB,en-US;q=0.9,en;q=0.8","6620f5de5edae6e60f556986","683db6dfa200031b80f2a654","68650767e20c324fab2d7350","6620f5de5edae6e60f556986","","","[0]","","","","quiz","","","","","","","","","","","","","","","","","","","","","","","","","","","","","","","","","","","","","true",""
"848","","<p align='center'><b>CORRECT!</b> Indeed, the yellow ball never moves and you receive a penalty.</p>","0","html-button-response","28","367366","0.0-8.0-6.0-1.0","65","1","2025-07-02 10:18:59","80fe4187154257d5fb01684ea91b68b9","86.1.242.218","Mozilla/5.0 (Macintosh; Intel Mac OS X 10_15_7) AppleWebKit/537.36 (KHTML, like Gecko) Chrome/137.0.0.0 Safari/537.36","Macintosh","Chrome","137.0.0.0","OS X","10_15_7","https://app.prolific.com/","en-GB,en-US;q=0.9,en;q=0.8","6620f5de5edae6e60f556986","683db6dfa200031b80f2a654","68650767e20c324fab2d7350","6620f5de5edae6e60f556986","","","","","","","","","","","","","","","","","","","","","","","","","","","","","","","","","","","","","","","","","","","","",""
"11867","","","{""blue_ball"":[""Ball always shakes and moves in a random direction""]}","survey-multi-select","29","379234","0.0-8.0-7.0-0.0","65","1","2025-07-02 10:18:59","80fe4187154257d5fb01684ea91b68b9","86.1.242.218","Mozilla/5.0 (Macintosh; Intel Mac OS X 10_15_7) AppleWebKit/537.36 (KHTML, like Gecko) Chrome/137.0.0.0 Safari/537.36","Macintosh","Chrome","137.0.0.0","OS X","10_15_7","https://app.prolific.com/","en-GB,en-US;q=0.9,en;q=0.8","6620f5de5edae6e60f556986","683db6dfa200031b80f2a654","68650767e20c324fab2d7350","6620f5de5edae6e60f556986","","","[0]","","","","quiz","","","","","","","","","","","","","","","","","","","","","","","","","","","","","","","","","","","","","true",""
"949","","<p align='center'><b>CORRECT!</b> Indeed, the blue ball always shakes and moves in a random direction. Also there is a penalty of -1 point.</p>","0","html-button-response","30","380184","0.0-8.0-7.0-1.0","65","1","2025-07-02 10:18:59","80fe4187154257d5fb01684ea91b68b9","86.1.242.218","Mozilla/5.0 (Macintosh; Intel Mac OS X 10_15_7) AppleWebKit/537.36 (KHTML, like Gecko) Chrome/137.0.0.0 Safari/537.36","Macintosh","Chrome","137.0.0.0","OS X","10_15_7","https://app.prolific.com/","en-GB,en-US;q=0.9,en;q=0.8","6620f5de5edae6e60f556986","683db6dfa200031b80f2a654","68650767e20c324fab2d7350","6620f5de5edae6e60f556986","","","","","","","","","","","","","","","","","","","","","","","","","","","","","","","","","","","","","","","","","","","","",""
"3748","","","{""bonus"":[""When I reach 80% of points""]}","survey-multi-select","31","383934","0.0-8.0-8.0-0.0","65","1","2025-07-02 10:18:59","80fe4187154257d5fb01684ea91b68b9","86.1.242.218","Mozilla/5.0 (Macintosh; Intel Mac OS X 10_15_7) AppleWebKit/537.36 (KHTML, like Gecko) Chrome/137.0.0.0 Safari/537.36","Macintosh","Chrome","137.0.0.0","OS X","10_15_7","https://app.prolific.com/","en-GB,en-US;q=0.9,en;q=0.8","6620f5de5edae6e60f556986","683db6dfa200031b80f2a654","68650767e20c324fab2d7350","6620f5de5edae6e60f556986","","","[0]","","","","quiz","","","","","","","","","","","","","","","","","","","","","","","","","","","","","","","","","","","","","false",""
"1465","","<p align='center'><b>INCORRECT.</b> You receive 2 pounds extra when you reach 50% of points </p>","0","html-button-response","32","385400","0.0-8.0-8.0-1.0","65","1","2025-07-02 10:18:59","80fe4187154257d5fb01684ea91b68b9","86.1.242.218","Mozilla/5.0 (Macintosh; Intel Mac OS X 10_15_7) AppleWebKit/537.36 (KHTML, like Gecko) Chrome/137.0.0.0 Safari/537.36","Macintosh","Chrome","137.0.0.0","OS X","10_15_7","https://app.prolific.com/","en-GB,en-US;q=0.9,en;q=0.8","6620f5de5edae6e60f556986","683db6dfa200031b80f2a654","68650767e20c324fab2d7350","6620f5de5edae6e60f556986","","","","","","","","","","","","","","","","","","","","","","","","","","","","","","","","","","","","","","","","","","","","",""
"3016","","","{""bonus"":[""When I reach 50% of points""]}","survey-multi-select","33","388418","0.0-8.0-8.1-0.1","65","1","2025-07-02 10:18:59","80fe4187154257d5fb01684ea91b68b9","86.1.242.218","Mozilla/5.0 (Macintosh; Intel Mac OS X 10_15_7) AppleWebKit/537.36 (KHTML, like Gecko) Chrome/137.0.0.0 Safari/537.36","Macintosh","Chrome","137.0.0.0","OS X","10_15_7","https://app.prolific.com/","en-GB,en-US;q=0.9,en;q=0.8","6620f5de5edae6e60f556986","683db6dfa200031b80f2a654","68650767e20c324fab2d7350","6620f5de5edae6e60f556986","","","[0]","","","","quiz","","","","","","","","","","","","","","","","","","","","","","","","","","","","","","","","","","","","","true",""
"1248","","<p align='center'><b>CORRECT!</b> Indeed, you receive 2 pounds extra when you reach 50% of points.</p>","0","html-button-response","34","389667","0.0-8.0-8.1-1.1","65","1","2025-07-02 10:18:59","80fe4187154257d5fb01684ea91b68b9","86.1.242.218","Mozilla/5.0 (Macintosh; Intel Mac OS X 10_15_7) AppleWebKit/537.36 (KHTML, like Gecko) Chrome/137.0.0.0 Safari/537.36","Macintosh","Chrome","137.0.0.0","OS X","10_15_7","https://app.prolific.com/","en-GB,en-US;q=0.9,en;q=0.8","6620f5de5edae6e60f556986","683db6dfa200031b80f2a654","68650767e20c324fab2d7350","6620f5de5edae6e60f556986","","","","","","","","","","","","","","","","","","","","","","","","","","","","","","","","","","","","","","","","","","","","",""
"1449","","","","instructions","35","391117","0.0-8.0-9.0","65","1","2025-07-02 10:18:59","80fe4187154257d5fb01684ea91b68b9","86.1.242.218","Mozilla/5.0 (Macintosh; Intel Mac OS X 10_15_7) AppleWebKit/537.36 (KHTML, like Gecko) Chrome/137.0.0.0 Safari/537.36","Macintosh","Chrome","137.0.0.0","OS X","10_15_7","https://app.prolific.com/","en-GB,en-US;q=0.9,en;q=0.8","6620f5de5edae6e60f556986","683db6dfa200031b80f2a654","68650767e20c324fab2d7350","6620f5de5edae6e60f556986","","[{""page_index"":0,""viewing_time"":1449}]","","","","","","","","","","","","","","","","","","","","","","","","","","","","","","","","","","","","","","","","","","",""
"3667","","<p>Before you start with this game please answer the following three questions yourself. </p>
  <p>Through this game, we measure several aspects of your cognitive performance, such as reaction times, multi-tasking capabilities </p>
  <p>and the ability to assess the situation you are in.</p>
  <p></p>
  <p><b>How good do you usually are in such tasks?</b></p>","27","html-slider-response","36","394785","0.0-9.0-0.0","65","1","2025-07-02 10:18:59","80fe4187154257d5fb01684ea91b68b9","86.1.242.218","Mozilla/5.0 (Macintosh; Intel Mac OS X 10_15_7) AppleWebKit/537.36 (KHTML, like Gecko) Chrome/137.0.0.0 Safari/537.36","Macintosh","Chrome","137.0.0.0","OS X","10_15_7","https://app.prolific.com/","en-GB,en-US;q=0.9,en;q=0.8","6620f5de5edae6e60f556986","683db6dfa200031b80f2a654","68650767e20c324fab2d7350","6620f5de5edae6e60f556986","2025-07-02T10:25:35.358Z","","","","","","PreSkillQ","","","","","","","","","","","","","","","","","","","","","","","","","","","","","","","","","","","","","","50"
"2531","","<div style=""width:500px;"">
  <p>How well do you think you will perform in this task compared to other participants?</p>
  </div>","39","html-slider-response","37","397317","0.0-9.0-1.0","65","1","2025-07-02 10:18:59","80fe4187154257d5fb01684ea91b68b9","86.1.242.218","Mozilla/5.0 (Macintosh; Intel Mac OS X 10_15_7) AppleWebKit/537.36 (KHTML, like Gecko) Chrome/137.0.0.0 Safari/537.36","Macintosh","Chrome","137.0.0.0","OS X","10_15_7","https://app.prolific.com/","en-GB,en-US;q=0.9,en;q=0.8","6620f5de5edae6e60f556986","683db6dfa200031b80f2a654","68650767e20c324fab2d7350","6620f5de5edae6e60f556986","2025-07-02T10:25:37.890Z","","","","","","PrePerfQ","","","","","","","","","","","","","","","","","","","","","","","","","","","","","","","","","","","","","","50"
"3117","","<div style=""width:500px;"">
  <p>What best describes how you currently feel?</p>
  </div>","21","html-slider-response","38","400435","0.0-9.0-2.0","65","1","2025-07-02 10:18:59","80fe4187154257d5fb01684ea91b68b9","86.1.242.218","Mozilla/5.0 (Macintosh; Intel Mac OS X 10_15_7) AppleWebKit/537.36 (KHTML, like Gecko) Chrome/137.0.0.0 Safari/537.36","Macintosh","Chrome","137.0.0.0","OS X","10_15_7","https://app.prolific.com/","en-GB,en-US;q=0.9,en;q=0.8","6620f5de5edae6e60f556986","683db6dfa200031b80f2a654","68650767e20c324fab2d7350","6620f5de5edae6e60f556986","2025-07-02T10:25:41.008Z","","","","","","PreMotivationQ","","","","","","","","","","","","","","","","","","","","","","","","","","","","","","","","","","","","","","50"
"","","","","ctl-task-cpt","39","421564","0.0-10.0-0.0","65","1","2025-07-02 10:18:59","80fe4187154257d5fb01684ea91b68b9","86.1.242.218","Mozilla/5.0 (Macintosh; Intel Mac OS X 10_15_7) AppleWebKit/537.36 (KHTML, like Gecko) Chrome/137.0.0.0 Safari/537.36","Macintosh","Chrome","137.0.0.0","OS X","10_15_7","https://app.prolific.com/","en-GB,en-US;q=0.9,en;q=0.8","6620f5de5edae6e60f556986","683db6dfa200031b80f2a654","68650767e20c324fab2d7350","6620f5de5edae6e60f556986","2025-07-02T10:26:02.137Z","","","","","","","","","","","","","","","","win-only","1","g1:NE,g2:SW","1","1","0","402002","1979.9","6981.3","18121.5","1","4","8","6","1","1","1","1","0","0.007575757575757576","2571","3000","1660","[""up"",""right""]","{""num_key_presses"":4,""num_perfect"":4,""num_errors"":0,""num_randdir"":0,""num_randdir_good_moves"":0,""num_whilered"":0,""num_whileblue"":0,""num_blue"":0,""num_good_moves"":4}","[800,799.796875,0.2,800,799.796875,101.3,800,799.796875,206.2,800,799.796875,311,800,799.796875,416.3,800,799.796875,519.1,834,831.796875,622.5,1162,575.796875,728.4,1310,379.796875,830.7,1310,377.796875,931,1314,377.796875,1031.4,1424,303.796875,1133.1,1430,297.796875,1236.6,1430,297.796875,1338.9,1430,297.796875,1439.4,1194,679.796875,1541.2,1164,719.796875,1646.2,1164,719.796875,1746.2,1360,363.796875,1847.5,1538,181.796875,1951.5,1544,179.796875,2058.7,1544,179.796875,2160.9,1544,179.796875,2266.4,1544,181.796875,2373.1,1544,181.796875,2474,1544,181.796875,2574.1,1544,181.796875,2676.8,1544,181.796875,2780.5,1544,181.796875,2881.5,1544,181.796875,2989.8,1544,181.796875,3094.8,1544,181.796875,3197.4,1544,181.796875,3301.8,1544,181.796875,3406.3,1544,181.796875,3510.8,1544,181.796875,3610.9,1544,181.796875,3716.5,1544,181.796875,3817.1,1544,181.796875,3923.2,1544,181.796875,4026.3,1544,181.796875,4126.4,1544,181.796875,4230.7,1544,181.796875,4332.2,1544,181.796875,4439.7,1544,181.796875,4541.6,1544,181.796875,4645.1,1544,181.796875,4746.3,1544,181.796875,4846.5,1544,181.796875,4948.1]","[1394.8,1394.8,1000,0,394.9,""smooth"",""right"",""right"",""good_move"",4539.9,3144.9,2776.6,1395,368.3,""smooth"",""right"",""right"",""good_move"",8145.5,3605.5,3286.7,4540,318.8,""smooth"",""up"",""up"",""good_move"",11052.1,2906.5,2530.6,8145.7,375.8,""smooth"",""up"",""up"",""good_move""]","",""
"3135","","<div style=""width:500px;"">
  <p>What determined the result of this run?</p>
  </div>","88","html-slider-response","40","424700","0.0-10.0-1.0","65","1","2025-07-02 10:18:59","80fe4187154257d5fb01684ea91b68b9","86.1.242.218","Mozilla/5.0 (Macintosh; Intel Mac OS X 10_15_7) AppleWebKit/537.36 (KHTML, like Gecko) Chrome/137.0.0.0 Safari/537.36","Macintosh","Chrome","137.0.0.0","OS X","10_15_7","https://app.prolific.com/","en-GB,en-US;q=0.9,en;q=0.8","6620f5de5edae6e60f556986","683db6dfa200031b80f2a654","68650767e20c324fab2d7350","6620f5de5edae6e60f556986","2025-07-02T10:26:05.273Z","","","","","","AttribQ","","","","","","","","","","","","","","","","","","","","","","","","","","","","","","","","","","","","","","50"
"2915","","<div style=""width:500px;"">
  <p>How much control did you have over the ball?</p>
  </div>","94","html-slider-response","41","427616","0.0-10.0-2.0","65","1","2025-07-02 10:18:59","80fe4187154257d5fb01684ea91b68b9","86.1.242.218","Mozilla/5.0 (Macintosh; Intel Mac OS X 10_15_7) AppleWebKit/537.36 (KHTML, like Gecko) Chrome/137.0.0.0 Safari/537.36","Macintosh","Chrome","137.0.0.0","OS X","10_15_7","https://app.prolific.com/","en-GB,en-US;q=0.9,en;q=0.8","6620f5de5edae6e60f556986","683db6dfa200031b80f2a654","68650767e20c324fab2d7350","6620f5de5edae6e60f556986","2025-07-02T10:26:08.189Z","","","","","","ControlQ","","","","","","","","","","","","","","","","","","","","","","","","","","","","","","","","","","","","","","50"
"3134","","<div style=""width:500px;"">
  <p>How would you describe your current emotional state?</p>
  </div>","55","html-slider-response","42","430750","0.0-10.0-3.0","65","1","2025-07-02 10:18:59","80fe4187154257d5fb01684ea91b68b9","86.1.242.218","Mozilla/5.0 (Macintosh; Intel Mac OS X 10_15_7) AppleWebKit/537.36 (KHTML, like Gecko) Chrome/137.0.0.0 Safari/537.36","Macintosh","Chrome","137.0.0.0","OS X","10_15_7","https://app.prolific.com/","en-GB,en-US;q=0.9,en;q=0.8","6620f5de5edae6e60f556986","683db6dfa200031b80f2a654","68650767e20c324fab2d7350","6620f5de5edae6e60f556986","2025-07-02T10:26:11.323Z","","","","","","StressQ","","","","","","","","","","","","","","","","","","","","","","","","","","","","","","","","","","","","","","50"
"3048","","<div style=""width:500px;"">
  <p>What best describes how you currently feel?</p>
  </div>","43","html-slider-response","43","433799","0.0-10.0-4.0","65","1","2025-07-02 10:18:59","80fe4187154257d5fb01684ea91b68b9","86.1.242.218","Mozilla/5.0 (Macintosh; Intel Mac OS X 10_15_7) AppleWebKit/537.36 (KHTML, like Gecko) Chrome/137.0.0.0 Safari/537.36","Macintosh","Chrome","137.0.0.0","OS X","10_15_7","https://app.prolific.com/","en-GB,en-US;q=0.9,en;q=0.8","6620f5de5edae6e60f556986","683db6dfa200031b80f2a654","68650767e20c324fab2d7350","6620f5de5edae6e60f556986","2025-07-02T10:26:14.372Z","","","","","","MotivationQ","","","","","","","","","","","","","","","","","","","","","","","","","","","","","","","","","","","","","","50"
"","","","","ctl-task-cpt","44","459714","0.0-10.0-0.1","65","1","2025-07-02 10:18:59","80fe4187154257d5fb01684ea91b68b9","86.1.242.218","Mozilla/5.0 (Macintosh; Intel Mac OS X 10_15_7) AppleWebKit/537.36 (KHTML, like Gecko) Chrome/137.0.0.0 Safari/537.36","Macintosh","Chrome","137.0.0.0","OS X","10_15_7","https://app.prolific.com/","en-GB,en-US;q=0.9,en;q=0.8","6620f5de5edae6e60f556986","683db6dfa200031b80f2a654","68650767e20c324fab2d7350","6620f5de5edae6e60f556986","2025-07-02T10:26:40.287Z","","","","","","","","","","","","","","","","win-only","1","g1:NE,g2:SW","0.9","2","0","435366.4","1399.2","6400.7","22906.6","1","4","4","6","2","4","4","5","1","0.03787878787878788","2050.6","3000","1230","[""down"",""left""]","{""num_key_presses"":6,""num_perfect"":6,""num_errors"":0,""num_randdir"":0,""num_randdir_good_moves"":0,""num_whilered"":0,""num_whileblue"":0,""num_blue"":0,""num_good_moves"":6}","[812,811.796875,0,812,809.796875,104.9,812,809.796875,206.4,812,809.796875,307.6,690,981.796875,408.2,440,1313.796875,511.5,434,1317.796875,611.5,434,1317.796875,716.5,270,1435.796875,817,222,1447.796875,921.2,222,1447.796875,1026,222,1447.796875,1127,222,1447.796875,1231.3,202,1457.796875,1336.3,184,1465.796875,1436.7,180,1467.796875,1538.6,180,1467.796875,1639.8,180,1467.796875,1741.6,180,1467.796875,1845.8,180,1467.796875,1946.5,180,1467.796875,2053.3,180,1467.796875,2158,180,1467.796875,2261.7,180,1467.796875,2366.8,180,1467.796875,2474.1,180,1467.796875,2576.6,180,1467.796875,2676.6,180,1467.796875,2781.6,180,1467.796875,2889.6,180,1467.796875,2991.2,180,1467.796875,3094.4,180,1467.796875,3196.3,180,1467.796875,3296.3,180,1467.796875,3401.5,180,1467.796875,3506,180,1467.796875,3607.5,180,1467.796875,3709,180,1467.796875,3811.3,180,1467.796875,3911.4,180,1467.796875,4016.9,180,1467.796875,4125.4,180,1467.796875,4226.4,180,1467.796875,4331.8,180,1467.796875,4440.9,180,1467.796875,4541.7,180,1467.796875,4646.5,180,1467.796875,4746.5,180,1467.796875,4847.4,180,1467.796875,4951.1]","[1405.9,1405.9,1000,0,405.9,""smooth"",""left"",""left"",""good_move"",4156.1,2749.9,2404.2,1406.2,345.7,""smooth"",""left"",""left"",""good_move"",7106.2,2949.9,2675.5,4156.3,274.4,""smooth"",""left"",""left"",""good_move"",10026.9,2920.5,2650.1,7106.5,270.3,""smooth"",""down"",""down"",""good_move"",13320.1,3293,2983.7,10027.1,309.3,""smooth"",""down"",""down"",""good_move"",16419.1,3099,2813.6,13320.1,285.4,""smooth"",""down"",""down"",""good_move""]","",""
"1968","","<div style=""width:500px;"">
  <p>What determined the result of this run?</p>
  </div>","93","html-slider-response","45","461682","0.0-10.0-1.1","65","1","2025-07-02 10:18:59","80fe4187154257d5fb01684ea91b68b9","86.1.242.218","Mozilla/5.0 (Macintosh; Intel Mac OS X 10_15_7) AppleWebKit/537.36 (KHTML, like Gecko) Chrome/137.0.0.0 Safari/537.36","Macintosh","Chrome","137.0.0.0","OS X","10_15_7","https://app.prolific.com/","en-GB,en-US;q=0.9,en;q=0.8","6620f5de5edae6e60f556986","683db6dfa200031b80f2a654","68650767e20c324fab2d7350","6620f5de5edae6e60f556986","2025-07-02T10:26:42.255Z","","","","","","AttribQ","","","","","","","","","","","","","","","","","","","","","","","","","","","","","","","","","","","","","","50"
"2516","","<div style=""width:500px;"">
  <p>How much control did you have over the ball?</p>
  </div>","89","html-slider-response","46","464199","0.0-10.0-2.1","65","1","2025-07-02 10:18:59","80fe4187154257d5fb01684ea91b68b9","86.1.242.218","Mozilla/5.0 (Macintosh; Intel Mac OS X 10_15_7) AppleWebKit/537.36 (KHTML, like Gecko) Chrome/137.0.0.0 Safari/537.36","Macintosh","Chrome","137.0.0.0","OS X","10_15_7","https://app.prolific.com/","en-GB,en-US;q=0.9,en;q=0.8","6620f5de5edae6e60f556986","683db6dfa200031b80f2a654","68650767e20c324fab2d7350","6620f5de5edae6e60f556986","2025-07-02T10:26:44.772Z","","","","","","ControlQ","","","","","","","","","","","","","","","","","","","","","","","","","","","","","","","","","","","","","","50"
"2134","","<div style=""width:500px;"">
  <p>How would you describe your current emotional state?</p>
  </div>","61","html-slider-response","47","466333","0.0-10.0-3.1","65","1","2025-07-02 10:18:59","80fe4187154257d5fb01684ea91b68b9","86.1.242.218","Mozilla/5.0 (Macintosh; Intel Mac OS X 10_15_7) AppleWebKit/537.36 (KHTML, like Gecko) Chrome/137.0.0.0 Safari/537.36","Macintosh","Chrome","137.0.0.0","OS X","10_15_7","https://app.prolific.com/","en-GB,en-US;q=0.9,en;q=0.8","6620f5de5edae6e60f556986","683db6dfa200031b80f2a654","68650767e20c324fab2d7350","6620f5de5edae6e60f556986","2025-07-02T10:26:46.906Z","","","","","","StressQ","","","","","","","","","","","","","","","","","","","","","","","","","","","","","","","","","","","","","","50"
"3433","","<div style=""width:500px;"">
  <p>What best describes how you currently feel?</p>
  </div>","52","html-slider-response","48","469766","0.0-10.0-4.1","65","1","2025-07-02 10:18:59","80fe4187154257d5fb01684ea91b68b9","86.1.242.218","Mozilla/5.0 (Macintosh; Intel Mac OS X 10_15_7) AppleWebKit/537.36 (KHTML, like Gecko) Chrome/137.0.0.0 Safari/537.36","Macintosh","Chrome","137.0.0.0","OS X","10_15_7","https://app.prolific.com/","en-GB,en-US;q=0.9,en;q=0.8","6620f5de5edae6e60f556986","683db6dfa200031b80f2a654","68650767e20c324fab2d7350","6620f5de5edae6e60f556986","2025-07-02T10:26:50.340Z","","","","","","MotivationQ","","","","","","","","","","","","","","","","","","","","","","","","","","","","","","","","","","","","","","50"
"","","","","ctl-task-cpt","49","499765","0.0-10.0-0.2","65","1","2025-07-02 10:18:59","80fe4187154257d5fb01684ea91b68b9","86.1.242.218","Mozilla/5.0 (Macintosh; Intel Mac OS X 10_15_7) AppleWebKit/537.36 (KHTML, like Gecko) Chrome/137.0.0.0 Safari/537.36","Macintosh","Chrome","137.0.0.0","OS X","10_15_7","https://app.prolific.com/","en-GB,en-US;q=0.9,en;q=0.8","6620f5de5edae6e60f556986","683db6dfa200031b80f2a654","68650767e20c324fab2d7350","6620f5de5edae6e60f556986","2025-07-02T10:27:20.338Z","","","","","","","","","","","","","","","","win-only","3","g1:SW,g2:NE","0.8","3","0","471334.6","1215.7","6217.3","26986","1","4","4","6","2","4","4","9","5","0.06818181818181818","1999.2","3000","875","[""up"",""right""]","{""num_key_presses"":8,""num_perfect"":7,""num_errors"":0,""num_randdir"":1,""num_randdir_good_moves"":0,""num_whilered"":0,""num_whileblue"":0,""num_blue"":0,""num_good_moves"":7}","[820,799.796875,0.1,820,799.796875,101,820,799.796875,205.1,820,799.796875,309.5,820,799.796875,410.5,820,799.796875,510.7,858,739.796875,611.9,1270,241.796875,715.5,1300,227.796875,819.5,1320,227.796875,927.1,1414,227.796875,1029.6,1420,223.796875,1133.1,1420,223.796875,1236.1,1458,195.796875,1336.4,1478,185.796875,1440.9,1478,185.796875,1545.3,1478,185.796875,1645.3,1478,185.796875,1747.1,1478,185.796875,1850.2,1478,185.796875,1950.8,1478,185.796875,2054.7,1478,185.796875,2155.1,1478,185.796875,2260.8,1478,185.796875,2364.3,1478,185.796875,2465.7,1478,185.796875,2565.8,1478,185.796875,2669.5,1478,185.796875,2769.5,1478,185.796875,2869.7,1478,185.796875,2973.3,1478,185.796875,3080.5,1478,185.796875,3180.8,1478,185.796875,3288.8,1478,185.796875,3390.4,1478,185.796875,3494.4,1478,185.796875,3599.2,1478,185.796875,3700.9,1478,185.796875,3805.8,1478,185.796875,3907.5,1478,185.796875,4009.8,1478,185.796875,4110.3,1478,185.796875,4214.5,1478,185.796875,4316.1,1478,185.796875,4425.6,1478,185.796875,4529.7,1478,185.796875,4630,1478,185.796875,4734.9,1478,185.796875,4843.8,1478,185.796875,4945.6]","[1436.1,1436.1,1000,0,436.1,""smooth"",""up"",""up"",""good_move"",4220.1,2783.8,2443.9,1436.3,339.9,""oops"",""up"",""down"",""bad_move"",7054.1,2833.8,2505.4,4220.3,328.4,""smooth"",""up"",""up"",""good_move"",9941,2886.7,2627.7,7054.3,259,""smooth"",""right"",""right"",""good_move"",12815.1,2873.8,2619.5,9941.3,254.4,""smooth"",""up"",""up"",""good_move"",15823.3,3008.1,2786.2,12815.2,221.9,""smooth"",""right"",""right"",""good_move"",18644.6,2821.3,2577.8,15823.3,243.5,""smooth"",""up"",""up"",""good_move"",20675,2030.2,1699.2,18644.8,331,""smooth"",""right"",""right"",""good_move""]","",""
"2567","","<div style=""width:500px;"">
  <p>What determined the result of this run?</p>
  </div>","57","html-slider-response","50","502332","0.0-10.0-1.2","65","1","2025-07-02 10:18:59","80fe4187154257d5fb01684ea91b68b9","86.1.242.218","Mozilla/5.0 (Macintosh; Intel Mac OS X 10_15_7) AppleWebKit/537.36 (KHTML, like Gecko) Chrome/137.0.0.0 Safari/537.36","Macintosh","Chrome","137.0.0.0","OS X","10_15_7","https://app.prolific.com/","en-GB,en-US;q=0.9,en;q=0.8","6620f5de5edae6e60f556986","683db6dfa200031b80f2a654","68650767e20c324fab2d7350","6620f5de5edae6e60f556986","2025-07-02T10:27:22.905Z","","","","","","AttribQ","","","","","","","","","","","","","","","","","","","","","","","","","","","","","","","","","","","","","","50"
"2150","","<div style=""width:500px;"">
  <p>How much control did you have over the ball?</p>
  </div>","57","html-slider-response","51","504482","0.0-10.0-2.2","65","1","2025-07-02 10:18:59","80fe4187154257d5fb01684ea91b68b9","86.1.242.218","Mozilla/5.0 (Macintosh; Intel Mac OS X 10_15_7) AppleWebKit/537.36 (KHTML, like Gecko) Chrome/137.0.0.0 Safari/537.36","Macintosh","Chrome","137.0.0.0","OS X","10_15_7","https://app.prolific.com/","en-GB,en-US;q=0.9,en;q=0.8","6620f5de5edae6e60f556986","683db6dfa200031b80f2a654","68650767e20c324fab2d7350","6620f5de5edae6e60f556986","2025-07-02T10:27:25.055Z","","","","","","ControlQ","","","","","","","","","","","","","","","","","","","","","","","","","","","","","","","","","","","","","","50"
"1917","","<div style=""width:500px;"">
  <p>How would you describe your current emotional state?</p>
  </div>","65","html-slider-response","52","506400","0.0-10.0-3.2","65","1","2025-07-02 10:18:59","80fe4187154257d5fb01684ea91b68b9","86.1.242.218","Mozilla/5.0 (Macintosh; Intel Mac OS X 10_15_7) AppleWebKit/537.36 (KHTML, like Gecko) Chrome/137.0.0.0 Safari/537.36","Macintosh","Chrome","137.0.0.0","OS X","10_15_7","https://app.prolific.com/","en-GB,en-US;q=0.9,en;q=0.8","6620f5de5edae6e60f556986","683db6dfa200031b80f2a654","68650767e20c324fab2d7350","6620f5de5edae6e60f556986","2025-07-02T10:27:26.973Z","","","","","","StressQ","","","","","","","","","","","","","","","","","","","","","","","","","","","","","","","","","","","","","","50"
"3164","","<div style=""width:500px;"">
  <p>What best describes how you currently feel?</p>
  </div>","53","html-slider-response","53","509565","0.0-10.0-4.2","65","1","2025-07-02 10:18:59","80fe4187154257d5fb01684ea91b68b9","86.1.242.218","Mozilla/5.0 (Macintosh; Intel Mac OS X 10_15_7) AppleWebKit/537.36 (KHTML, like Gecko) Chrome/137.0.0.0 Safari/537.36","Macintosh","Chrome","137.0.0.0","OS X","10_15_7","https://app.prolific.com/","en-GB,en-US;q=0.9,en;q=0.8","6620f5de5edae6e60f556986","683db6dfa200031b80f2a654","68650767e20c324fab2d7350","6620f5de5edae6e60f556986","2025-07-02T10:27:30.138Z","","","","","","MotivationQ","","","","","","","","","","","","","","","","","","","","","","","","","","","","","","","","","","","","","","50"
"","","","","ctl-task-cpt","54","538520","0.0-10.0-0.3","65","1","2025-07-02 10:18:59","80fe4187154257d5fb01684ea91b68b9","86.1.242.218","Mozilla/5.0 (Macintosh; Intel Mac OS X 10_15_7) AppleWebKit/537.36 (KHTML, like Gecko) Chrome/137.0.0.0 Safari/537.36","Macintosh","Chrome","137.0.0.0","OS X","10_15_7","https://app.prolific.com/","en-GB,en-US;q=0.9,en;q=0.8","6620f5de5edae6e60f556986","683db6dfa200031b80f2a654","68650767e20c324fab2d7350","6620f5de5edae6e60f556986","2025-07-02T10:27:59.093Z","","","","","","","","","","","","","","","","win-only","0","g1:NW,g2:SE","0.7","4","0","511134.6","1033","6039.9","25939.7","1","4","8","6","1","1","0","9","9","0.06818181818181818","2754.1","3000","1735","[""left"",""up""]","{""num_key_presses"":5,""num_perfect"":4,""num_errors"":1,""num_randdir"":0,""num_randdir_good_moves"":0,""num_whilered"":0,""num_whileblue"":0,""num_blue"":2,""num_good_moves"":4}","[810,813.796875,0.1,810,813.796875,103.1,810,813.796875,206.7,810,813.796875,308.1,810,813.796875,408.4,716,773.796875,510.9,682,749.796875,612,682,749.796875,713.3,682,749.796875,818.3,326,549.796875,925.4,212,413.796875,1030.8,212,413.796875,1136.5,426,623.796875,1240.6,1034,1153.796875,1343,1034,1153.796875,1448,1076,1187.796875,1548.9,1462,1435.796875,1653.5,1476,1451.796875,1760,1474,1455.796875,1861.2,1474,1457.796875,1961.3,1474,1457.796875,2063.3,1472,1457.796875,2163.3,622,803.796875,2277.8,198,269.796875,2386.6,198,269.796875,2486.8,164,231.796875,2587.3,138,183.796875,2691.1,138,183.796875,2792.9,138,183.796875,2900,138,183.796875,3001.1,138,183.796875,3101.6,138,183.796875,3205.7,138,183.796875,3307.2,138,183.796875,3407.4,138,183.796875,3507.5,138,183.796875,3611.7,138,183.796875,3715.9,138,183.796875,3816.3,138,183.796875,3921.7,138,183.796875,4026.6,138,183.796875,4127.9,138,183.796875,4229.2,138,183.796875,4333.6,138,183.796875,4435.3,138,183.796875,4538.3,138,183.796875,4643,138,183.796875,4747.8,138,183.796875,4851.6,138,183.796875,4954.1]","[376.1,376.1,1000,0,-623.9,""error"",""-"",""-"",""no_move"",7766.2,7390,2537.5,4832.4,396.3,""smooth"",""up"",""up"",""good_move"",14491.1,6724.7,2883,11229.2,378.9,""smooth"",""left"",""left"",""good_move"",17253.7,2762.5,2280.1,14491.2,482.4,""smooth"",""up"",""up"",""good_move"",19785.5,2531.5,2210.1,17254,321.4,""smooth"",""left"",""left"",""good_move""]","",""
"1512","","<div style=""width:500px;"">
  <p>What determined the result of this run?</p>
  </div>","76","html-slider-response","55","540032","0.0-10.0-1.3","65","1","2025-07-02 10:18:59","80fe4187154257d5fb01684ea91b68b9","86.1.242.218","Mozilla/5.0 (Macintosh; Intel Mac OS X 10_15_7) AppleWebKit/537.36 (KHTML, like Gecko) Chrome/137.0.0.0 Safari/537.36","Macintosh","Chrome","137.0.0.0","OS X","10_15_7","https://app.prolific.com/","en-GB,en-US;q=0.9,en;q=0.8","6620f5de5edae6e60f556986","683db6dfa200031b80f2a654","68650767e20c324fab2d7350","6620f5de5edae6e60f556986","2025-07-02T10:28:00.605Z","","","","","","AttribQ","","","","","","","","","","","","","","","","","","","","","","","","","","","","","","","","","","","","","","50"
"1833","","<div style=""width:500px;"">
  <p>How much control did you have over the ball?</p>
  </div>","68","html-slider-response","56","541865","0.0-10.0-2.3","65","1","2025-07-02 10:18:59","80fe4187154257d5fb01684ea91b68b9","86.1.242.218","Mozilla/5.0 (Macintosh; Intel Mac OS X 10_15_7) AppleWebKit/537.36 (KHTML, like Gecko) Chrome/137.0.0.0 Safari/537.36","Macintosh","Chrome","137.0.0.0","OS X","10_15_7","https://app.prolific.com/","en-GB,en-US;q=0.9,en;q=0.8","6620f5de5edae6e60f556986","683db6dfa200031b80f2a654","68650767e20c324fab2d7350","6620f5de5edae6e60f556986","2025-07-02T10:28:02.439Z","","","","","","ControlQ","","","","","","","","","","","","","","","","","","","","","","","","","","","","","","","","","","","","","","50"
"1449","","<div style=""width:500px;"">
  <p>How would you describe your current emotional state?</p>
  </div>","68","html-slider-response","57","543315","0.0-10.0-3.3","65","1","2025-07-02 10:18:59","80fe4187154257d5fb01684ea91b68b9","86.1.242.218","Mozilla/5.0 (Macintosh; Intel Mac OS X 10_15_7) AppleWebKit/537.36 (KHTML, like Gecko) Chrome/137.0.0.0 Safari/537.36","Macintosh","Chrome","137.0.0.0","OS X","10_15_7","https://app.prolific.com/","en-GB,en-US;q=0.9,en;q=0.8","6620f5de5edae6e60f556986","683db6dfa200031b80f2a654","68650767e20c324fab2d7350","6620f5de5edae6e60f556986","2025-07-02T10:28:03.889Z","","","","","","StressQ","","","","","","","","","","","","","","","","","","","","","","","","","","","","","","","","","","","","","","50"
"1866","","<div style=""width:500px;"">
  <p>What best describes how you currently feel?</p>
  </div>","47","html-slider-response","58","545182","0.0-10.0-4.3","65","1","2025-07-02 10:18:59","80fe4187154257d5fb01684ea91b68b9","86.1.242.218","Mozilla/5.0 (Macintosh; Intel Mac OS X 10_15_7) AppleWebKit/537.36 (KHTML, like Gecko) Chrome/137.0.0.0 Safari/537.36","Macintosh","Chrome","137.0.0.0","OS X","10_15_7","https://app.prolific.com/","en-GB,en-US;q=0.9,en;q=0.8","6620f5de5edae6e60f556986","683db6dfa200031b80f2a654","68650767e20c324fab2d7350","6620f5de5edae6e60f556986","2025-07-02T10:28:05.755Z","","","","","","MotivationQ","","","","","","","","","","","","","","","","","","","","","","","","","","","","","","","","","","","","","","50"
"","","","","ctl-task-cpt","59","571346","0.0-10.0-0.4","65","1","2025-07-02 10:18:59","80fe4187154257d5fb01684ea91b68b9","86.1.242.218","Mozilla/5.0 (Macintosh; Intel Mac OS X 10_15_7) AppleWebKit/537.36 (KHTML, like Gecko) Chrome/137.0.0.0 Safari/537.36","Macintosh","Chrome","137.0.0.0","OS X","10_15_7","https://app.prolific.com/","en-GB,en-US;q=0.9,en;q=0.8","6620f5de5edae6e60f556986","683db6dfa200031b80f2a654","68650767e20c324fab2d7350","6620f5de5edae6e60f556986","2025-07-02T10:28:31.919Z","","","","","","","","","","","","","","","","win-only","1","g1:NE,g2:SW","0.6","5","0","546751.8","1265.7","6270.2","23146.4","1","4","4","6","2","4","4","13","9","0.09848484848484848","1250.9","3000","1505","[""down"",""left""]","{""num_key_presses"":6,""num_perfect"":4,""num_errors"":0,""num_randdir"":2,""num_randdir_good_moves"":2,""num_whilered"":0,""num_whileblue"":0,""num_blue"":0,""num_good_moves"":6}","[818,825.796875,0.2,818,825.796875,104.1,818,825.796875,209.3,818,825.796875,309.7,818,825.796875,414,818,847.796875,517.2,676,1253.796875,624.1,660,1267.796875,724.4,640,1283.796875,825.3,74,1591.796875,930,-14,1593.796875,1032.8,-12,1543.796875,1135.2,40,1487.796875,1237.9,42,1487.796875,1343.1,42,1487.796875,1444.8,42,1487.796875,1544.8,42,1487.796875,1646.2,42,1487.796875,1752.5,42,1487.796875,1857.2,42,1487.796875,1959.2,42,1487.796875,2059.7,42,1487.796875,2164.8,42,1487.796875,2268.4,42,1487.796875,2368.6,42,1487.796875,2473.2,42,1487.796875,2578.1,42,1487.796875,2681,42,1487.796875,2785.9,42,1487.796875,2886.7,42,1487.796875,2988.7,42,1487.796875,3094.3,42,1487.796875,3194.8,42,1487.796875,3294.9,42,1487.796875,3400.6,42,1487.796875,3503.6,42,1487.796875,3609.5,42,1487.796875,3713.7,42,1487.796875,3815.3,42,1487.796875,3923,42,1487.796875,4033.6,42,1487.796875,4139.2,42,1487.796875,4244.3,42,1487.796875,4344.4,42,1487.796875,4445.6,42,1487.796875,4553.5,42,1487.796875,4658.2,42,1487.796875,4767.9,42,1487.796875,4868.3,42,1487.796875,4973]","[1441.3,1441.3,1000,0,441.3,""smooth"",""left"",""left"",""good_move"",3905.9,2464.2,2127.7,1441.7,336.5,""oops"",""left"",""left"",""good_move"",7138.9,3232.9,2898,3906,334.9,""smooth"",""down"",""down"",""good_move"",10047.2,2908,2622,7139.2,286,""smooth"",""left"",""left"",""good_move"",13354.8,3307.5,3036,10047.3,271.5,""oops"",""down"",""down"",""good_move"",16745.3,3390.3,3082.4,13355,307.9,""smooth"",""down"",""down"",""good_move""]","",""
"1868","","<div style=""width:500px;"">
  <p>What determined the result of this run?</p>
  </div>","86","html-slider-response","60","573215","0.0-10.0-1.4","65","1","2025-07-02 10:18:59","80fe4187154257d5fb01684ea91b68b9","86.1.242.218","Mozilla/5.0 (Macintosh; Intel Mac OS X 10_15_7) AppleWebKit/537.36 (KHTML, like Gecko) Chrome/137.0.0.0 Safari/537.36","Macintosh","Chrome","137.0.0.0","OS X","10_15_7","https://app.prolific.com/","en-GB,en-US;q=0.9,en;q=0.8","6620f5de5edae6e60f556986","683db6dfa200031b80f2a654","68650767e20c324fab2d7350","6620f5de5edae6e60f556986","2025-07-02T10:28:33.788Z","","","","","","AttribQ","","","","","","","","","","","","","","","","","","","","","","","","","","","","","","","","","","","","","","50"
"2433","","<div style=""width:500px;"">
  <p>How much control did you have over the ball?</p>
  </div>","83","html-slider-response","61","575648","0.0-10.0-2.4","65","1","2025-07-02 10:18:59","80fe4187154257d5fb01684ea91b68b9","86.1.242.218","Mozilla/5.0 (Macintosh; Intel Mac OS X 10_15_7) AppleWebKit/537.36 (KHTML, like Gecko) Chrome/137.0.0.0 Safari/537.36","Macintosh","Chrome","137.0.0.0","OS X","10_15_7","https://app.prolific.com/","en-GB,en-US;q=0.9,en;q=0.8","6620f5de5edae6e60f556986","683db6dfa200031b80f2a654","68650767e20c324fab2d7350","6620f5de5edae6e60f556986","2025-07-02T10:28:36.221Z","","","","","","ControlQ","","","","","","","","","","","","","","","","","","","","","","","","","","","","","","","","","","","","","","50"
"1599","","<div style=""width:500px;"">
  <p>How would you describe your current emotional state?</p>
  </div>","66","html-slider-response","62","577248","0.0-10.0-3.4","65","1","2025-07-02 10:18:59","80fe4187154257d5fb01684ea91b68b9","86.1.242.218","Mozilla/5.0 (Macintosh; Intel Mac OS X 10_15_7) AppleWebKit/537.36 (KHTML, like Gecko) Chrome/137.0.0.0 Safari/537.36","Macintosh","Chrome","137.0.0.0","OS X","10_15_7","https://app.prolific.com/","en-GB,en-US;q=0.9,en;q=0.8","6620f5de5edae6e60f556986","683db6dfa200031b80f2a654","68650767e20c324fab2d7350","6620f5de5edae6e60f556986","2025-07-02T10:28:37.821Z","","","","","","StressQ","","","","","","","","","","","","","","","","","","","","","","","","","","","","","","","","","","","","","","50"
"1884","","<div style=""width:500px;"">
  <p>What best describes how you currently feel?</p>
  </div>","55","html-slider-response","63","579132","0.0-10.0-4.4","65","1","2025-07-02 10:18:59","80fe4187154257d5fb01684ea91b68b9","86.1.242.218","Mozilla/5.0 (Macintosh; Intel Mac OS X 10_15_7) AppleWebKit/537.36 (KHTML, like Gecko) Chrome/137.0.0.0 Safari/537.36","Macintosh","Chrome","137.0.0.0","OS X","10_15_7","https://app.prolific.com/","en-GB,en-US;q=0.9,en;q=0.8","6620f5de5edae6e60f556986","683db6dfa200031b80f2a654","68650767e20c324fab2d7350","6620f5de5edae6e60f556986","2025-07-02T10:28:39.705Z","","","","","","MotivationQ","","","","","","","","","","","","","","","","","","","","","","","","","","","","","","","","","","","","","","50"
"","","","","ctl-task-cpt","64","618631","0.0-10.0-0.5","65","1","2025-07-02 10:18:59","80fe4187154257d5fb01684ea91b68b9","86.1.242.218","Mozilla/5.0 (Macintosh; Intel Mac OS X 10_15_7) AppleWebKit/537.36 (KHTML, like Gecko) Chrome/137.0.0.0 Safari/537.36","Macintosh","Chrome","137.0.0.0","OS X","10_15_7","https://app.prolific.com/","en-GB,en-US;q=0.9,en;q=0.8","6620f5de5edae6e60f556986","683db6dfa200031b80f2a654","68650767e20c324fab2d7350","6620f5de5edae6e60f556986","2025-07-02T10:29:19.204Z","","","","","","","","","","","","","","","","win-only","2","g1:SE,g2:NW","0.5","6","0","580703.2","1015.3","6021","36488.2","1","4","8","6","2","8","8","21","13","0.1590909090909091","1134.2","3000","500","[""left"",""up""]","{""num_key_presses"":10,""num_perfect"":5,""num_errors"":0,""num_randdir"":5,""num_randdir_good_moves"":3,""num_whilered"":0,""num_whileblue"":0,""num_blue"":1,""num_good_moves"":8}","[818,799.796875,0.2,816,799.796875,106.4,816,799.796875,208.6,816,799.796875,310,846,843.796875,410.7,1094,1165.796875,515,420,543.796875,615.3,348,457.796875,718,342,447.796875,823,204,263.796875,924,170,217.796875,1028.3,166,205.796875,1130.1,166,205.796875,1235.7,166,205.796875,1341.5,166,205.796875,1444.7,166,205.796875,1545.7,166,205.796875,1645.9,166,205.796875,1751,166,205.796875,1855.6,166,205.796875,1958.3,166,205.796875,2063.1,166,205.796875,2165.2,166,205.796875,2265.8,166,205.796875,2369.9,166,205.796875,2472.1,166,205.796875,2574,166,205.796875,2675.7,166,205.796875,2778.6,166,205.796875,2880.7,166,205.796875,2984.8,166,205.796875,3085.9,166,205.796875,3187.5,166,205.796875,3288.8,166,205.796875,3389.3,166,205.796875,3490.7,166,205.796875,3592.2,166,205.796875,3694.6,166,205.796875,3797.6,166,205.796875,3900.5,166,205.796875,4008.6,166,205.796875,4109.8,166,205.796875,4210.8,166,205.796875,4315.6,166,205.796875,4424.2,166,205.796875,4530.4,166,205.796875,4634,166,205.796875,4735.4,166,205.796875,4835.4,166,205.796875,4935.8]","[1367,1367,1000,0,367,""smooth"",""left"",""left"",""good_move"",4714.3,3347.1,3070.9,1367.2,276.2,""oops"",""up"",""left"",""good_move"",7286.7,2572.4,2238.9,4714.4,333.4,""smooth"",""left"",""left"",""good_move"",13263.4,5976.6,2032,10892.5,338.9,""oops"",""up"",""down"",""bad_move"",16404.6,3141,2781.9,13263.6,359.1,""oops"",""up"",""up"",""good_move"",19301.5,2896.5,2583.8,16405,312.7,""smooth"",""up"",""up"",""good_move"",22498.1,3196.4,2881.9,19301.7,314.6,""smooth"",""up"",""up"",""good_move"",25219.5,2721.1,2440.2,22498.4,280.9,""oops"",""up"",""down"",""bad_move"",27830.2,2610.5,2296.5,25219.7,314,""oops"",""up"",""up"",""good_move"",30344,2513.7,2209.1,27830.3,304.6,""smooth"",""up"",""up"",""good_move""]","",""
"3266","","<div style=""width:500px;"">
  <p>What determined the result of this run?</p>
  </div>","41","html-slider-response","65","621898","0.0-10.0-1.5","65","1","2025-07-02 10:18:59","80fe4187154257d5fb01684ea91b68b9","86.1.242.218","Mozilla/5.0 (Macintosh; Intel Mac OS X 10_15_7) AppleWebKit/537.36 (KHTML, like Gecko) Chrome/137.0.0.0 Safari/537.36","Macintosh","Chrome","137.0.0.0","OS X","10_15_7","https://app.prolific.com/","en-GB,en-US;q=0.9,en;q=0.8","6620f5de5edae6e60f556986","683db6dfa200031b80f2a654","68650767e20c324fab2d7350","6620f5de5edae6e60f556986","2025-07-02T10:29:22.471Z","","","","","","AttribQ","","","","","","","","","","","","","","","","","","","","","","","","","","","","","","","","","","","","","","50"
"1750","","<div style=""width:500px;"">
  <p>How much control did you have over the ball?</p>
  </div>","44","html-slider-response","66","623649","0.0-10.0-2.5","65","1","2025-07-02 10:18:59","80fe4187154257d5fb01684ea91b68b9","86.1.242.218","Mozilla/5.0 (Macintosh; Intel Mac OS X 10_15_7) AppleWebKit/537.36 (KHTML, like Gecko) Chrome/137.0.0.0 Safari/537.36","Macintosh","Chrome","137.0.0.0","OS X","10_15_7","https://app.prolific.com/","en-GB,en-US;q=0.9,en;q=0.8","6620f5de5edae6e60f556986","683db6dfa200031b80f2a654","68650767e20c324fab2d7350","6620f5de5edae6e60f556986","2025-07-02T10:29:24.222Z","","","","","","ControlQ","","","","","","","","","","","","","","","","","","","","","","","","","","","","","","","","","","","","","","50"
"1798","","<div style=""width:500px;"">
  <p>How would you describe your current emotional state?</p>
  </div>","70","html-slider-response","67","625447","0.0-10.0-3.5","65","1","2025-07-02 10:18:59","80fe4187154257d5fb01684ea91b68b9","86.1.242.218","Mozilla/5.0 (Macintosh; Intel Mac OS X 10_15_7) AppleWebKit/537.36 (KHTML, like Gecko) Chrome/137.0.0.0 Safari/537.36","Macintosh","Chrome","137.0.0.0","OS X","10_15_7","https://app.prolific.com/","en-GB,en-US;q=0.9,en;q=0.8","6620f5de5edae6e60f556986","683db6dfa200031b80f2a654","68650767e20c324fab2d7350","6620f5de5edae6e60f556986","2025-07-02T10:29:26.020Z","","","","","","StressQ","","","","","","","","","","","","","","","","","","","","","","","","","","","","","","","","","","","","","","50"
"3116","","<div style=""width:500px;"">
  <p>What best describes how you currently feel?</p>
  </div>","58","html-slider-response","68","628564","0.0-10.0-4.5","65","1","2025-07-02 10:18:59","80fe4187154257d5fb01684ea91b68b9","86.1.242.218","Mozilla/5.0 (Macintosh; Intel Mac OS X 10_15_7) AppleWebKit/537.36 (KHTML, like Gecko) Chrome/137.0.0.0 Safari/537.36","Macintosh","Chrome","137.0.0.0","OS X","10_15_7","https://app.prolific.com/","en-GB,en-US;q=0.9,en;q=0.8","6620f5de5edae6e60f556986","683db6dfa200031b80f2a654","68650767e20c324fab2d7350","6620f5de5edae6e60f556986","2025-07-02T10:29:29.137Z","","","","","","MotivationQ","","","","","","","","","","","","","","","","","","","","","","","","","","","","","","","","","","","","","","50"
"","","","","ctl-task-cpt","69","686013","0.0-10.0-0.6","65","1","2025-07-02 10:18:59","80fe4187154257d5fb01684ea91b68b9","86.1.242.218","Mozilla/5.0 (Macintosh; Intel Mac OS X 10_15_7) AppleWebKit/537.36 (KHTML, like Gecko) Chrome/137.0.0.0 Safari/537.36","Macintosh","Chrome","137.0.0.0","OS X","10_15_7","https://app.prolific.com/","en-GB,en-US;q=0.9,en;q=0.8","6620f5de5edae6e60f556986","683db6dfa200031b80f2a654","68650767e20c324fab2d7350","6620f5de5edae6e60f556986","2025-07-02T10:30:26.586Z","","","","","","","","","","","","","","","","win-only","2","g1:SE,g2:NW","0.4","7","0","630135.6","1349.8","6350.1","54441","1","4","8","6","1","-1","-2","19","21","0.14393939393939395","983.7","3000","-2245","[""down"",""right""]","{""num_key_presses"":11,""num_perfect"":4,""num_errors"":1,""num_randdir"":6,""num_randdir_good_moves"":2,""num_whilered"":0,""num_whileblue"":1,""num_blue"":6,""num_good_moves"":6}","[814,803.796875,0.2,814,803.796875,108,814,803.796875,208.4,814,803.796875,310.8,814,803.796875,411.1,814,803.796875,512.5,974,949.796875,620.2,1462,1443.796875,726.3,1462,1443.796875,826.4,1462,1443.796875,930.8,1462,1443.796875,1039,1462,1443.796875,1145.6,1462,1443.796875,1253.4,1462,1443.796875,1362.1,1462,1443.796875,1466.1,1462,1443.796875,1570.9,1462,1443.796875,1673,1462,1443.796875,1781.3,1462,1443.796875,1884.7,1462,1443.796875,1991.2,1462,1443.796875,2094.5,1462,1443.796875,2196,1462,1443.796875,2296.4,1462,1443.796875,2397.4,1462,1443.796875,2503.4,1462,1443.796875,2607.8,1462,1443.796875,2710.1,1462,1443.796875,2810.5,1462,1443.796875,2915.4,1462,1443.796875,3016.6,1462,1443.796875,3121.1,1462,1443.796875,3227.3,1462,1443.796875,3331.4,1462,1443.796875,3435.9,1462,1443.796875,3535.9,1462,1443.796875,3645.1,1462,1443.796875,3746.1,1462,1443.796875,3853.9,1462,1443.796875,3955.7,1462,1443.796875,4055.8,1462,1443.796875,4161.1,1462,1443.796875,4266,1462,1443.796875,4368.1,1462,1443.796875,4475.2,1462,1443.796875,4575.8,1462,1443.796875,4681.2,1462,1443.796875,4785.6,1462,1443.796875,4887.7,1462,1443.796875,4991.5]","[7817.4,7817.4,1952.6,5465.2,399.6,""oops"",""right"",""down"",""good_move"",10125.1,2307.3,1901.3,7817.8,406.1,""oops"",""right"",""up"",""bad_move"",16136.6,6011.1,2612.8,13142.7,381.1,""oops"",""down"",""up"",""bad_move"",19299.2,3162.3,2809.9,16136.9,352.4,""oops"",""right"",""down"",""good_move"",25666.5,6367.1,2427.1,22900,339.4,""oops"",""right"",""up"",""bad_move"",29061.1,3394.3,2894.9,25666.8,499.4,""oops"",""left"",""left"",""bad_move"",31413.1,2351.8,1977.5,29061.4,374.2,""smooth"",""down"",""down"",""good_move"",34853.2,3439.8,3091.7,31413.4,348.1,""smooth"",""down"",""down"",""good_move"",41060,6206.6,2075.3,38570.6,414.1,""smooth"",""down"",""down"",""good_move"",43226.5,2166.4,1815,41060.1,351.4,""smooth"",""right"",""right"",""good_move"",45460.7,2233.9,1773.9,43226.8,460,""while_blue"",""right"",""left"",""bad_move""]","",""
"3315","","<div style=""width:500px;"">
  <p>What determined the result of this run?</p>
  </div>","0","html-slider-response","70","689329","0.0-10.0-1.6","65","1","2025-07-02 10:18:59","80fe4187154257d5fb01684ea91b68b9","86.1.242.218","Mozilla/5.0 (Macintosh; Intel Mac OS X 10_15_7) AppleWebKit/537.36 (KHTML, like Gecko) Chrome/137.0.0.0 Safari/537.36","Macintosh","Chrome","137.0.0.0","OS X","10_15_7","https://app.prolific.com/","en-GB,en-US;q=0.9,en;q=0.8","6620f5de5edae6e60f556986","683db6dfa200031b80f2a654","68650767e20c324fab2d7350","6620f5de5edae6e60f556986","2025-07-02T10:30:29.902Z","","","","","","AttribQ","","","","","","","","","","","","","","","","","","","","","","","","","","","","","","","","","","","","","","50"
"3017","","<div style=""width:500px;"">
  <p>How much control did you have over the ball?</p>
  </div>","4","html-slider-response","71","692347","0.0-10.0-2.6","65","1","2025-07-02 10:18:59","80fe4187154257d5fb01684ea91b68b9","86.1.242.218","Mozilla/5.0 (Macintosh; Intel Mac OS X 10_15_7) AppleWebKit/537.36 (KHTML, like Gecko) Chrome/137.0.0.0 Safari/537.36","Macintosh","Chrome","137.0.0.0","OS X","10_15_7","https://app.prolific.com/","en-GB,en-US;q=0.9,en;q=0.8","6620f5de5edae6e60f556986","683db6dfa200031b80f2a654","68650767e20c324fab2d7350","6620f5de5edae6e60f556986","2025-07-02T10:30:32.920Z","","","","","","ControlQ","","","","","","","","","","","","","","","","","","","","","","","","","","","","","","","","","","","","","","50"
"2315","","<div style=""width:500px;"">
  <p>How would you describe your current emotional state?</p>
  </div>","90","html-slider-response","72","694663","0.0-10.0-3.6","65","1","2025-07-02 10:18:59","80fe4187154257d5fb01684ea91b68b9","86.1.242.218","Mozilla/5.0 (Macintosh; Intel Mac OS X 10_15_7) AppleWebKit/537.36 (KHTML, like Gecko) Chrome/137.0.0.0 Safari/537.36","Macintosh","Chrome","137.0.0.0","OS X","10_15_7","https://app.prolific.com/","en-GB,en-US;q=0.9,en;q=0.8","6620f5de5edae6e60f556986","683db6dfa200031b80f2a654","68650767e20c324fab2d7350","6620f5de5edae6e60f556986","2025-07-02T10:30:35.236Z","","","","","","StressQ","","","","","","","","","","","","","","","","","","","","","","","","","","","","","","","","","","","","","","50"
"1782","","<div style=""width:500px;"">
  <p>What best describes how you currently feel?</p>
  </div>","24","html-slider-response","73","696446","0.0-10.0-4.6","65","1","2025-07-02 10:18:59","80fe4187154257d5fb01684ea91b68b9","86.1.242.218","Mozilla/5.0 (Macintosh; Intel Mac OS X 10_15_7) AppleWebKit/537.36 (KHTML, like Gecko) Chrome/137.0.0.0 Safari/537.36","Macintosh","Chrome","137.0.0.0","OS X","10_15_7","https://app.prolific.com/","en-GB,en-US;q=0.9,en;q=0.8","6620f5de5edae6e60f556986","683db6dfa200031b80f2a654","68650767e20c324fab2d7350","6620f5de5edae6e60f556986","2025-07-02T10:30:37.019Z","","","","","","MotivationQ","","","","","","","","","","","","","","","","","","","","","","","","","","","","","","","","","","","","","","50"
"","","","","ctl-task-cpt","74","734714","0.0-10.0-0.7","65","1","2025-07-02 10:18:59","80fe4187154257d5fb01684ea91b68b9","86.1.242.218","Mozilla/5.0 (Macintosh; Intel Mac OS X 10_15_7) AppleWebKit/537.36 (KHTML, like Gecko) Chrome/137.0.0.0 Safari/537.36","Macintosh","Chrome","137.0.0.0","OS X","10_15_7","https://app.prolific.com/","en-GB,en-US;q=0.9,en;q=0.8","6620f5de5edae6e60f556986","683db6dfa200031b80f2a654","68650767e20c324fab2d7350","6620f5de5edae6e60f556986","2025-07-02T10:31:15.287Z","","","","","","","","","","","","","","","","win-only","1","g1:NE,g2:SW","0.3","8","0","698019.5","1015.4","6016.3","35257.3","1","4","4","6","2","4","4","23","19","0.17424242424242425","1433.8","3000","1285","[""down"",""left""]","{""num_key_presses"":6,""num_perfect"":2,""num_errors"":0,""num_randdir"":4,""num_randdir_good_moves"":4,""num_whilered"":0,""num_whileblue"":0,""num_blue"":3,""num_good_moves"":6}","[814,797.796875,0.1,814,797.796875,105.4,814,797.796875,207.5,814,797.796875,310.2,814,797.796875,410.4,814,797.796875,510.6,814,805.796875,614.9,398,1301.796875,715,348,1351.796875,815.9,348,1351.796875,923.5,302,1411.796875,1031.7,252,1447.796875,1135.2,240,1455.796875,1235.2,216,1461.796875,1335.6,204,1465.796875,1446.3,202,1465.796875,1547.1,202,1465.796875,1650.1,202,1465.796875,1756.8,202,1465.796875,1860.7,202,1465.796875,1965.2,202,1465.796875,2072.6,202,1465.796875,2183.5,202,1465.796875,2289.8,202,1465.796875,2390.1,202,1465.796875,2490.4,202,1465.796875,2594.9,202,1465.796875,2703.6,202,1465.796875,2810,202,1465.796875,2914.4,202,1465.796875,3016.4,202,1465.796875,3120.1,202,1465.796875,3220.3,202,1465.796875,3323.4,202,1465.796875,3427.4,202,1465.796875,3533.2,202,1465.796875,3635.4,202,1465.796875,3735.9,202,1465.796875,3841.1,202,1465.796875,3949.3,202,1465.796875,4053.7,202,1465.796875,4156.4,202,1465.796875,4260.7,202,1465.796875,4365.9,202,1465.796875,4474.2,202,1465.796875,4580.4,202,1465.796875,4681.8,202,1465.796875,4785.2,202,1465.796875,4885.4,202,1465.796875,4985.4]","[1441.6,1441.6,1000,0,441.6,""oops"",""left"",""down"",""good_move"",8564.5,7122.7,2980.4,5241.3,342.8,""oops"",""left"",""left"",""good_move"",11889.3,3324.7,2931.8,8564.6,392.9,""smooth"",""down"",""down"",""good_move"",18856,6966.7,2921,15491.4,443.7,""oops"",""left"",""down"",""good_move"",25656.6,6800.4,3155.3,22100,401.3,""oops"",""left"",""left"",""good_move"",29085.1,3428.3,3023.8,25656.8,404.5,""smooth"",""left"",""left"",""good_move""]","",""
"1764","","<div style=""width:500px;"">
  <p>What determined the result of this run?</p>
  </div>","28","html-slider-response","75","736478","0.0-10.0-1.7","65","1","2025-07-02 10:18:59","80fe4187154257d5fb01684ea91b68b9","86.1.242.218","Mozilla/5.0 (Macintosh; Intel Mac OS X 10_15_7) AppleWebKit/537.36 (KHTML, like Gecko) Chrome/137.0.0.0 Safari/537.36","Macintosh","Chrome","137.0.0.0","OS X","10_15_7","https://app.prolific.com/","en-GB,en-US;q=0.9,en;q=0.8","6620f5de5edae6e60f556986","683db6dfa200031b80f2a654","68650767e20c324fab2d7350","6620f5de5edae6e60f556986","2025-07-02T10:31:17.052Z","","","","","","AttribQ","","","","","","","","","","","","","","","","","","","","","","","","","","","","","","","","","","","","","","50"
"2350","","<div style=""width:500px;"">
  <p>How much control did you have over the ball?</p>
  </div>","41","html-slider-response","76","738829","0.0-10.0-2.7","65","1","2025-07-02 10:18:59","80fe4187154257d5fb01684ea91b68b9","86.1.242.218","Mozilla/5.0 (Macintosh; Intel Mac OS X 10_15_7) AppleWebKit/537.36 (KHTML, like Gecko) Chrome/137.0.0.0 Safari/537.36","Macintosh","Chrome","137.0.0.0","OS X","10_15_7","https://app.prolific.com/","en-GB,en-US;q=0.9,en;q=0.8","6620f5de5edae6e60f556986","683db6dfa200031b80f2a654","68650767e20c324fab2d7350","6620f5de5edae6e60f556986","2025-07-02T10:31:19.402Z","","","","","","ControlQ","","","","","","","","","","","","","","","","","","","","","","","","","","","","","","","","","","","","","","50"
"2048","","<div style=""width:500px;"">
  <p>How would you describe your current emotional state?</p>
  </div>","85","html-slider-response","77","740878","0.0-10.0-3.7","65","1","2025-07-02 10:18:59","80fe4187154257d5fb01684ea91b68b9","86.1.242.218","Mozilla/5.0 (Macintosh; Intel Mac OS X 10_15_7) AppleWebKit/537.36 (KHTML, like Gecko) Chrome/137.0.0.0 Safari/537.36","Macintosh","Chrome","137.0.0.0","OS X","10_15_7","https://app.prolific.com/","en-GB,en-US;q=0.9,en;q=0.8","6620f5de5edae6e60f556986","683db6dfa200031b80f2a654","68650767e20c324fab2d7350","6620f5de5edae6e60f556986","2025-07-02T10:31:21.451Z","","","","","","StressQ","","","","","","","","","","","","","","","","","","","","","","","","","","","","","","","","","","","","","","50"
"1450","","<div style=""width:500px;"">
  <p>What best describes how you currently feel?</p>
  </div>","43","html-slider-response","78","742328","0.0-10.0-4.7","65","1","2025-07-02 10:18:59","80fe4187154257d5fb01684ea91b68b9","86.1.242.218","Mozilla/5.0 (Macintosh; Intel Mac OS X 10_15_7) AppleWebKit/537.36 (KHTML, like Gecko) Chrome/137.0.0.0 Safari/537.36","Macintosh","Chrome","137.0.0.0","OS X","10_15_7","https://app.prolific.com/","en-GB,en-US;q=0.9,en;q=0.8","6620f5de5edae6e60f556986","683db6dfa200031b80f2a654","68650767e20c324fab2d7350","6620f5de5edae6e60f556986","2025-07-02T10:31:22.901Z","","","","","","MotivationQ","","","","","","","","","","","","","","","","","","","","","","","","","","","","","","","","","","","","","","50"
"","","","","ctl-task-cpt","79","793503","0.0-10.0-0.8","65","1","2025-07-02 10:18:59","80fe4187154257d5fb01684ea91b68b9","86.1.242.218","Mozilla/5.0 (Macintosh; Intel Mac OS X 10_15_7) AppleWebKit/537.36 (KHTML, like Gecko) Chrome/137.0.0.0 Safari/537.36","Macintosh","Chrome","137.0.0.0","OS X","10_15_7","https://app.prolific.com/","en-GB,en-US;q=0.9,en;q=0.8","6620f5de5edae6e60f556986","683db6dfa200031b80f2a654","68650767e20c324fab2d7350","6620f5de5edae6e60f556986","2025-07-02T10:32:14.076Z","","","","","","","","","","","","","","","","win-only","3","g1:SW,g2:NE","0.4","9","0","743903.3","1832.2","6839.1","48166.2","1","4","4","6","1","-1","-1","22","23","0.16666666666666666","2966.3","3000","-2120","[""down"",""left""]","{""num_key_presses"":10,""num_perfect"":4,""num_errors"":0,""num_randdir"":6,""num_randdir_good_moves"":2,""num_whilered"":0,""num_whileblue"":0,""num_blue"":3,""num_good_moves"":6}","[820,797.796875,0.1,820,797.796875,106,820,797.796875,215.1,820,797.796875,318.8,820,797.796875,423.7,820,797.796875,523.8,820,797.796875,623.8,820,797.796875,726.1,946,655.796875,835.2,1376,279.796875,938.7,1376,279.796875,1041.3,1376,279.796875,1143.6,1420,215.796875,1248,1452,189.796875,1348.4,1474,149.796875,1452.7,1480,141.796875,1553.8,1480,141.796875,1658.6,1480,141.796875,1758.6,1480,141.796875,1869.3,1480,141.796875,1975.7,1480,141.796875,2079.8,1480,141.796875,2184,1478,141.796875,2289.1,42,1289.796875,2389.2,-124,1525.796875,2501.1,-116,1525.796875,2608.7,4,1505.796875,2710.3,40,1495.796875,2814.1,72,1493.796875,2919.2,82,1493.796875,3023.2,82,1493.796875,3135.3,82,1493.796875,3245.8,82,1493.796875,3346.8,82,1493.796875,3448.7,82,1493.796875,3553.7,82,1493.796875,3659.3,82,1493.796875,3765.1,82,1493.796875,3867.9,82,1493.796875,3977.3,82,1493.796875,4078.6,82,1493.796875,4178.7,82,1493.796875,4278.7,82,1493.796875,4385,82,1493.796875,4494.5,82,1493.796875,4601.1,82,1493.796875,4703.3,82,1493.796875,4803.3,82,1493.796875,4903.5]","[1615.7,1615.7,1000,0,615.7,""oops"",""down"",""up"",""bad_move"",5787.9,4171.9,3562.2,1616,609.7,""oops"",""left"",""right"",""bad_move"",8550.4,2762.2,2381.7,5788.2,380.5,""smooth"",""down"",""down"",""good_move"",11799.4,3248.7,2862.2,8550.7,386.5,""smooth"",""down"",""down"",""good_move"",25470,13670.4,2590.7,22442.2,437.1,""oops"",""down"",""left"",""good_move"",28351.8,2881.7,2497.4,25470.1,384.3,""smooth"",""down"",""down"",""good_move"",31054.5,2702.6,2400,28352,302.6,""smooth"",""left"",""left"",""good_move"",33804.2,2749.5,2399.5,31054.7,350,""oops"",""left"",""up"",""bad_move"",36517.5,2713,2353.1,33804.5,359.9,""oops"",""left"",""down"",""good_move"",39057.9,2540.2,2245,36517.7,295.2,""oops"",""left"",""up"",""bad_move""]","",""
"2123","","<div style=""width:500px;"">
  <p>What determined the result of this run?</p>
  </div>","1","html-slider-response","80","795627","0.0-10.0-1.8","65","1","2025-07-02 10:18:59","80fe4187154257d5fb01684ea91b68b9","86.1.242.218","Mozilla/5.0 (Macintosh; Intel Mac OS X 10_15_7) AppleWebKit/537.36 (KHTML, like Gecko) Chrome/137.0.0.0 Safari/537.36","Macintosh","Chrome","137.0.0.0","OS X","10_15_7","https://app.prolific.com/","en-GB,en-US;q=0.9,en;q=0.8","6620f5de5edae6e60f556986","683db6dfa200031b80f2a654","68650767e20c324fab2d7350","6620f5de5edae6e60f556986","2025-07-02T10:32:16.200Z","","","","","","AttribQ","","","","","","","","","","","","","","","","","","","","","","","","","","","","","","","","","","","","","","50"
"1666","","<div style=""width:500px;"">
  <p>How much control did you have over the ball?</p>
  </div>","1","html-slider-response","81","797293","0.0-10.0-2.8","65","1","2025-07-02 10:18:59","80fe4187154257d5fb01684ea91b68b9","86.1.242.218","Mozilla/5.0 (Macintosh; Intel Mac OS X 10_15_7) AppleWebKit/537.36 (KHTML, like Gecko) Chrome/137.0.0.0 Safari/537.36","Macintosh","Chrome","137.0.0.0","OS X","10_15_7","https://app.prolific.com/","en-GB,en-US;q=0.9,en;q=0.8","6620f5de5edae6e60f556986","683db6dfa200031b80f2a654","68650767e20c324fab2d7350","6620f5de5edae6e60f556986","2025-07-02T10:32:17.866Z","","","","","","ControlQ","","","","","","","","","","","","","","","","","","","","","","","","","","","","","","","","","","","","","","50"
"1617","","<div style=""width:500px;"">
  <p>How would you describe your current emotional state?</p>
  </div>","96","html-slider-response","82","798911","0.0-10.0-3.8","65","1","2025-07-02 10:18:59","80fe4187154257d5fb01684ea91b68b9","86.1.242.218","Mozilla/5.0 (Macintosh; Intel Mac OS X 10_15_7) AppleWebKit/537.36 (KHTML, like Gecko) Chrome/137.0.0.0 Safari/537.36","Macintosh","Chrome","137.0.0.0","OS X","10_15_7","https://app.prolific.com/","en-GB,en-US;q=0.9,en;q=0.8","6620f5de5edae6e60f556986","683db6dfa200031b80f2a654","68650767e20c324fab2d7350","6620f5de5edae6e60f556986","2025-07-02T10:32:19.484Z","","","","","","StressQ","","","","","","","","","","","","","","","","","","","","","","","","","","","","","","","","","","","","","","50"
"2332","","<div style=""width:500px;"">
  <p>What best describes how you currently feel?</p>
  </div>","40","html-slider-response","83","801244","0.0-10.0-4.8","65","1","2025-07-02 10:18:59","80fe4187154257d5fb01684ea91b68b9","86.1.242.218","Mozilla/5.0 (Macintosh; Intel Mac OS X 10_15_7) AppleWebKit/537.36 (KHTML, like Gecko) Chrome/137.0.0.0 Safari/537.36","Macintosh","Chrome","137.0.0.0","OS X","10_15_7","https://app.prolific.com/","en-GB,en-US;q=0.9,en;q=0.8","6620f5de5edae6e60f556986","683db6dfa200031b80f2a654","68650767e20c324fab2d7350","6620f5de5edae6e60f556986","2025-07-02T10:32:21.817Z","","","","","","MotivationQ","","","","","","","","","","","","","","","","","","","","","","","","","","","","","","","","","","","","","","50"
"","","","","ctl-task-cpt","84","861141","0.0-10.0-0.9","65","1","2025-07-02 10:18:59","80fe4187154257d5fb01684ea91b68b9","86.1.242.218","Mozilla/5.0 (Macintosh; Intel Mac OS X 10_15_7) AppleWebKit/537.36 (KHTML, like Gecko) Chrome/137.0.0.0 Safari/537.36","Macintosh","Chrome","137.0.0.0","OS X","10_15_7","https://app.prolific.com/","en-GB,en-US;q=0.9,en;q=0.8","6620f5de5edae6e60f556986","683db6dfa200031b80f2a654","68650767e20c324fab2d7350","6620f5de5edae6e60f556986","2025-07-02T10:33:21.714Z","","","","","","","","","","","","","","","","win-only","3","g1:SW,g2:NE","0.5","10","0","802820.6","1181","6186.1","56878.9","1","4","8","6","2","8","8","30","22","0.22727272727272727","916.6","3000","580","[""up"",""right""]","{""num_key_presses"":10,""num_perfect"":5,""num_errors"":0,""num_randdir"":5,""num_randdir_good_moves"":3,""num_whilered"":0,""num_whileblue"":0,""num_blue"":7,""num_good_moves"":8}","[810,807.796875,0.2,810,807.796875,101.6,810,807.796875,206.5,810,807.796875,315.9,810,807.796875,419.7,1198,487.796875,524.2,1430,257.796875,625.2,1430,257.796875,737.2,1494,213.796875,837.5,1516,203.796875,943.6,1516,203.796875,1045,1516,203.796875,1149.5,1516,203.796875,1255.5,1516,203.796875,1357.6,1516,203.796875,1463,1516,203.796875,1568.6,1516,203.796875,1669.2,1516,203.796875,1769.4,1516,203.796875,1869.7,1516,203.796875,1970.1,1516,203.796875,2070.6,1516,203.796875,2176.6,1516,203.796875,2278.7,1516,203.796875,2379.9,1516,203.796875,2487.1,1516,203.796875,2590.2,1516,203.796875,2700.9,1516,203.796875,2808.4,1516,203.796875,2908.7,1516,203.796875,3009.8,1516,203.796875,3114.5,1516,203.796875,3215.1,1516,203.796875,3318,1516,203.796875,3429.1,1516,203.796875,3530.3,1516,203.796875,3634.5,1516,203.796875,3735.1,1516,203.796875,3839.5,1516,203.796875,3943.1,1516,203.796875,4045.1,1516,203.796875,4146.9,1516,203.796875,4249.8,1516,203.796875,4357.7,1516,203.796875,4460,1516,203.796875,4563,1516,203.796875,4671.5,1516,203.796875,4773.6,1516,203.796875,4875.1,1516,203.796875,4979.5]","[4969.5,4969.5,2607.6,2018.6,343.3,""oops"",""right"",""left"",""bad_move"",7955.2,2985.3,2576.4,4969.9,408.9,""smooth"",""up"",""up"",""good_move"",14000.4,6045,2104.2,11510.6,385.6,""oops"",""up"",""up"",""good_move"",16631.4,2630.9,2262.1,14000.5,368.8,""smooth"",""up"",""up"",""good_move"",22797.8,6166.3,1769.8,20694.3,333.7,""oops"",""right"",""right"",""good_move"",24986.3,2188.4,1828.7,22798,359.7,""smooth"",""right"",""right"",""good_move"",27762.3,2775.7,2414.9,24986.6,360.8,""oops"",""right"",""left"",""bad_move"",44996.3,17233.8,2559,42109.9,327.4,""smooth"",""right"",""right"",""good_move"",48202,3205.6,2860.9,44996.4,344.7,""smooth"",""right"",""right"",""good_move"",50504.9,2302.8,2017.2,48202.1,285.6,""oops"",""right"",""right"",""good_move""]","",""
"1599","","<div style=""width:500px;"">
  <p>What determined the result of this run?</p>
  </div>","20","html-slider-response","85","862741","0.0-10.0-1.9","65","1","2025-07-02 10:18:59","80fe4187154257d5fb01684ea91b68b9","86.1.242.218","Mozilla/5.0 (Macintosh; Intel Mac OS X 10_15_7) AppleWebKit/537.36 (KHTML, like Gecko) Chrome/137.0.0.0 Safari/537.36","Macintosh","Chrome","137.0.0.0","OS X","10_15_7","https://app.prolific.com/","en-GB,en-US;q=0.9,en;q=0.8","6620f5de5edae6e60f556986","683db6dfa200031b80f2a654","68650767e20c324fab2d7350","6620f5de5edae6e60f556986","2025-07-02T10:33:23.314Z","","","","","","AttribQ","","","","","","","","","","","","","","","","","","","","","","","","","","","","","","","","","","","","","","50"
"1499","","<div style=""width:500px;"">
  <p>How much control did you have over the ball?</p>
  </div>","20","html-slider-response","86","864241","0.0-10.0-2.9","65","1","2025-07-02 10:18:59","80fe4187154257d5fb01684ea91b68b9","86.1.242.218","Mozilla/5.0 (Macintosh; Intel Mac OS X 10_15_7) AppleWebKit/537.36 (KHTML, like Gecko) Chrome/137.0.0.0 Safari/537.36","Macintosh","Chrome","137.0.0.0","OS X","10_15_7","https://app.prolific.com/","en-GB,en-US;q=0.9,en;q=0.8","6620f5de5edae6e60f556986","683db6dfa200031b80f2a654","68650767e20c324fab2d7350","6620f5de5edae6e60f556986","2025-07-02T10:33:24.814Z","","","","","","ControlQ","","","","","","","","","","","","","","","","","","","","","","","","","","","","","","","","","","","","","","50"
"2266","","<div style=""width:500px;"">
  <p>How would you describe your current emotional state?</p>
  </div>","91","html-slider-response","87","866507","0.0-10.0-3.9","65","1","2025-07-02 10:18:59","80fe4187154257d5fb01684ea91b68b9","86.1.242.218","Mozilla/5.0 (Macintosh; Intel Mac OS X 10_15_7) AppleWebKit/537.36 (KHTML, like Gecko) Chrome/137.0.0.0 Safari/537.36","Macintosh","Chrome","137.0.0.0","OS X","10_15_7","https://app.prolific.com/","en-GB,en-US;q=0.9,en;q=0.8","6620f5de5edae6e60f556986","683db6dfa200031b80f2a654","68650767e20c324fab2d7350","6620f5de5edae6e60f556986","2025-07-02T10:33:27.080Z","","","","","","StressQ","","","","","","","","","","","","","","","","","","","","","","","","","","","","","","","","","","","","","","50"
"1699","","<div style=""width:500px;"">
  <p>What best describes how you currently feel?</p>
  </div>","41","html-slider-response","88","868207","0.0-10.0-4.9","65","1","2025-07-02 10:18:59","80fe4187154257d5fb01684ea91b68b9","86.1.242.218","Mozilla/5.0 (Macintosh; Intel Mac OS X 10_15_7) AppleWebKit/537.36 (KHTML, like Gecko) Chrome/137.0.0.0 Safari/537.36","Macintosh","Chrome","137.0.0.0","OS X","10_15_7","https://app.prolific.com/","en-GB,en-US;q=0.9,en;q=0.8","6620f5de5edae6e60f556986","683db6dfa200031b80f2a654","68650767e20c324fab2d7350","6620f5de5edae6e60f556986","2025-07-02T10:33:28.780Z","","","","","","MotivationQ","","","","","","","","","","","","","","","","","","","","","","","","","","","","","","","","","","","","","","50"
"","","","","ctl-task-cpt","89","887414","0.0-10.0-0.10","65","1","2025-07-02 10:18:59","80fe4187154257d5fb01684ea91b68b9","86.1.242.218","Mozilla/5.0 (Macintosh; Intel Mac OS X 10_15_7) AppleWebKit/537.36 (KHTML, like Gecko) Chrome/137.0.0.0 Safari/537.36","Macintosh","Chrome","137.0.0.0","OS X","10_15_7","https://app.prolific.com/","en-GB,en-US;q=0.9,en;q=0.8","6620f5de5edae6e60f556986","683db6dfa200031b80f2a654","68650767e20c324fab2d7350","6620f5de5edae6e60f556986","2025-07-02T10:33:47.987Z","","","","","","","","","","","","","","","","win-only","0","g1:NW,g2:SE","0.6","11","0","869784.8","1049.1","6063.4","16190.3","1","4","8","6","1","1","1","31","30","0.23484848484848486","1283.4","3000","1990","[""left"",""up""]","{""num_key_presses"":4,""num_perfect"":4,""num_errors"":0,""num_randdir"":0,""num_randdir_good_moves"":0,""num_whilered"":0,""num_whileblue"":0,""num_blue"":0,""num_good_moves"":4}","[814,815.796875,0.1,814,815.796875,109.5,814,815.796875,212.1,814,815.796875,316.1,814,815.796875,417,814,815.796875,530.3,954,1033.796875,633.8,830,1001.796875,735.2,324,341.796875,842.5,324,341.796875,947.2,310,331.796875,1052,158,187.796875,1160.2,124,153.796875,1265.2,122,153.796875,1370.8,122,153.796875,1472.6,122,153.796875,1577.3,122,153.796875,1682.4,122,153.796875,1792.2,122,153.796875,1896.6,122,153.796875,1999,122,153.796875,2101.6,122,153.796875,2207.4,122,153.796875,2311.3,122,153.796875,2415.4,122,153.796875,2516,122,153.796875,2620.3,122,153.796875,2721.4,122,153.796875,2821.7,122,153.796875,2922.6,122,153.796875,3032.7,122,153.796875,3134.8,122,153.796875,3234.8,122,153.796875,3344.5,122,153.796875,3446.8,122,153.796875,3547.5,122,153.796875,3650.7,122,153.796875,3751.4,122,153.796875,3855.1,122,153.796875,3957.1,122,153.796875,4061.7,122,153.796875,4162.3,122,153.796875,4272.2,122,153.796875,4372.6,122,153.796875,4474.8,122,153.796875,4576.9,122,153.796875,4682.3,122,153.796875,4782.3,122,153.796875,4884.8,122,153.796875,4985]","[1421.8,1421.8,1000,0,421.8,""smooth"",""up"",""up"",""good_move"",4074.6,2652.6,2334.9,1422,317.7,""smooth"",""left"",""left"",""good_move"",6729.6,2654.8,2319.9,4074.8,334.9,""smooth"",""up"",""up"",""good_move"",9910.5,3180.7,2855.9,6729.8,324.8,""smooth"",""left"",""left"",""good_move""]","",""
"1808","","<div style=""width:500px;"">
  <p>What determined the result of this run?</p>
  </div>","93","html-slider-response","90","889223","0.0-10.0-1.10","65","1","2025-07-02 10:18:59","80fe4187154257d5fb01684ea91b68b9","86.1.242.218","Mozilla/5.0 (Macintosh; Intel Mac OS X 10_15_7) AppleWebKit/537.36 (KHTML, like Gecko) Chrome/137.0.0.0 Safari/537.36","Macintosh","Chrome","137.0.0.0","OS X","10_15_7","https://app.prolific.com/","en-GB,en-US;q=0.9,en;q=0.8","6620f5de5edae6e60f556986","683db6dfa200031b80f2a654","68650767e20c324fab2d7350","6620f5de5edae6e60f556986","2025-07-02T10:33:49.796Z","","","","","","AttribQ","","","","","","","","","","","","","","","","","","","","","","","","","","","","","","","","","","","","","","50"
"1649","","<div style=""width:500px;"">
  <p>How much control did you have over the ball?</p>
  </div>","94","html-slider-response","91","890873","0.0-10.0-2.10","65","1","2025-07-02 10:18:59","80fe4187154257d5fb01684ea91b68b9","86.1.242.218","Mozilla/5.0 (Macintosh; Intel Mac OS X 10_15_7) AppleWebKit/537.36 (KHTML, like Gecko) Chrome/137.0.0.0 Safari/537.36","Macintosh","Chrome","137.0.0.0","OS X","10_15_7","https://app.prolific.com/","en-GB,en-US;q=0.9,en;q=0.8","6620f5de5edae6e60f556986","683db6dfa200031b80f2a654","68650767e20c324fab2d7350","6620f5de5edae6e60f556986","2025-07-02T10:33:51.446Z","","","","","","ControlQ","","","","","","","","","","","","","","","","","","","","","","","","","","","","","","","","","","","","","","50"
"1282","","<div style=""width:500px;"">
  <p>How would you describe your current emotional state?</p>
  </div>","77","html-slider-response","92","892156","0.0-10.0-3.10","65","1","2025-07-02 10:18:59","80fe4187154257d5fb01684ea91b68b9","86.1.242.218","Mozilla/5.0 (Macintosh; Intel Mac OS X 10_15_7) AppleWebKit/537.36 (KHTML, like Gecko) Chrome/137.0.0.0 Safari/537.36","Macintosh","Chrome","137.0.0.0","OS X","10_15_7","https://app.prolific.com/","en-GB,en-US;q=0.9,en;q=0.8","6620f5de5edae6e60f556986","683db6dfa200031b80f2a654","68650767e20c324fab2d7350","6620f5de5edae6e60f556986","2025-07-02T10:33:52.729Z","","","","","","StressQ","","","","","","","","","","","","","","","","","","","","","","","","","","","","","","","","","","","","","","50"
"1750","","<div style=""width:500px;"">
  <p>What best describes how you currently feel?</p>
  </div>","50","html-slider-response","93","893907","0.0-10.0-4.10","65","1","2025-07-02 10:18:59","80fe4187154257d5fb01684ea91b68b9","86.1.242.218","Mozilla/5.0 (Macintosh; Intel Mac OS X 10_15_7) AppleWebKit/537.36 (KHTML, like Gecko) Chrome/137.0.0.0 Safari/537.36","Macintosh","Chrome","137.0.0.0","OS X","10_15_7","https://app.prolific.com/","en-GB,en-US;q=0.9,en;q=0.8","6620f5de5edae6e60f556986","683db6dfa200031b80f2a654","68650767e20c324fab2d7350","6620f5de5edae6e60f556986","2025-07-02T10:33:54.480Z","","","","","","MotivationQ","","","","","","","","","","","","","","","","","","","","","","","","","","","","","","","","","","","","","","50"
"","","","","ctl-task-cpt","94","914029","0.0-10.0-0.11","65","1","2025-07-02 10:18:59","80fe4187154257d5fb01684ea91b68b9","86.1.242.218","Mozilla/5.0 (Macintosh; Intel Mac OS X 10_15_7) AppleWebKit/537.36 (KHTML, like Gecko) Chrome/137.0.0.0 Safari/537.36","Macintosh","Chrome","137.0.0.0","OS X","10_15_7","https://app.prolific.com/","en-GB,en-US;q=0.9,en;q=0.8","6620f5de5edae6e60f556986","683db6dfa200031b80f2a654","68650767e20c324fab2d7350","6620f5de5edae6e60f556986","2025-07-02T10:34:14.602Z","","","","","","","","","","","","","","","","win-only","1","g1:NE,g2:SW","0.7","12","0","895484.6","1015.7","6026.1","17100.6","1","4","4","6","1","1","1","32","31","0.24242424242424243","1766.7","3000","2120","[""up"",""right""]","{""num_key_presses"":4,""num_perfect"":3,""num_errors"":0,""num_randdir"":1,""num_randdir_good_moves"":1,""num_whilered"":0,""num_whileblue"":0,""num_blue"":0,""num_good_moves"":4}","[830,807.796875,0.2,830,807.796875,104.1,830,807.796875,209.5,830,807.796875,311.4,830,807.796875,415.1,830,807.796875,515.1,828,823.796875,618.9,354,1213.796875,730.1,300,1247.796875,835.2,336,1217.796875,935.6,1502,247.796875,1045.3,1502,247.796875,1150.9,1502,247.796875,1252.4,1508,241.796875,1363.7,1504,237.796875,1468.8,1504,235.796875,1570.5,1504,229.796875,1675.6,1502,227.796875,1780.5,1502,227.796875,1884.4,1502,227.796875,1993.4,1502,227.796875,2097.1,1502,227.796875,2200.6,1502,227.796875,2305.7,1502,227.796875,2405.9,1502,227.796875,2517.4,1502,227.796875,2623.3,1502,227.796875,2725.5,1502,227.796875,2825.8,1502,227.796875,2930.2,1502,227.796875,3035.5,1502,227.796875,3137,1502,227.796875,3244.9,1502,227.796875,3356.8,1502,227.796875,3459.9,1502,227.796875,3564.5,1502,227.796875,3664.6,1502,227.796875,3769.7,1502,227.796875,3878.2,1502,227.796875,3983,1502,227.796875,4084.9,1502,227.796875,4185.5,1502,227.796875,4291.1,1502,227.796875,4403.7,1502,227.796875,4508.4,1502,227.796875,4610.9,1502,227.796875,4715.3,1502,227.796875,4819.7,1502,227.796875,4920.2]","[1541.3,1541.3,1000,0,541.3,""smooth"",""up"",""up"",""good_move"",4430.1,2888.4,2588.6,1541.7,299.8,""smooth"",""right"",""right"",""good_move"",7895.8,3465.6,3162,4430.2,303.6,""oops"",""up"",""up"",""good_move"",10984.2,3088.2,2780.9,7896,307.3,""smooth"",""right"",""right"",""good_move""]","",""
"1892","","<div style=""width:500px;"">
  <p>What determined the result of this run?</p>
