"rt","response_timestamp","stimulus","response","trial_type","trial_index","time_elapsed","internal_node_id","run_id","condition","recorded_at","source_code_version","ip","user_agent","device","browser","browser_version","platform","platform_version","referer","accept_language","PROLIFIC_PID","STUDY_ID","SESSION_ID","prolific_id","realtime","view_history","question_order","consent","success","question_id","eventType","responses","item_order","radio_event_ids","radio_event_times","key_event_times","mouse_event_times","straightlining","zigzagging","honeypot","which_type","canvas_config","goals_layout","control_level","trial_number","tutorial_trial_number","trial_start_time","phase1_start_time","phase2_start_time","phase3_start_time","goal_1_value","goal_1_distance","goal_2_value","goal_2_distance","goal_selected","outcome","outcome_total","participant_final_score","participant_initial_score","participant_final_score_prop","goal_choice_rt","allocated_time","allocated_time_remaining","goal_direction","counts","mouse_movements","key_presses","correct","slider_start"
"16810","1751451790478","<p style='font-size:40px;line-height:1.25'><strong>Welcome to the experiment!</strong></p><p style='font-size:1.1em;line-height:1.25'>Thank you for your interest in our experiment! Before you begin, it is important that we obtain your informed consent to participate in the study.</p><p style='font-size:1.1em;line-height:1.25'>On the next screen will be an <strong>information sheet</strong> for you to read. To participate in the study we need you to read this information sheet and the following consent form carefully. If you agree with all the statements, please click the <strong>I agree</strong> button.</p><p style='font-size:1.1em;line-height:1.25'>Press <strong>Next</strong> to read the information sheet.</p>","0","custom-html-button-response","0","16816","0.0-0.0","165","1","2025-07-02 10:22:46","80fe4187154257d5fb01684ea91b68b9","216.120.189.148","Mozilla/5.0 (Windows NT 10.0; Win64; x64) AppleWebKit/537.36 (KHTML, like Gecko) Chrome/138.0.0.0 Safari/537.36","WebKit","Chrome","138.0.0.0","Windows","10.0","https://app.prolific.com/","en-US,en;q=0.9","663b638be7226d4e3fcc255f","683db6dfa200031b80f2a654","686507f47b03d65a9af85e91","663b638be7226d4e3fcc255f","2025-07-02T10:23:10.482Z","","","","","","","","","","","","","","","","","","","","","","","","","","","","","","","","","","","","","","","","","","","",""
"26125","","","","instructions","1","42944","0.0-1.0","165","1","2025-07-02 10:22:46","80fe4187154257d5fb01684ea91b68b9","216.120.189.148","Mozilla/5.0 (Windows NT 10.0; Win64; x64) AppleWebKit/537.36 (KHTML, like Gecko) Chrome/138.0.0.0 Safari/537.36","WebKit","Chrome","138.0.0.0","Windows","10.0","https://app.prolific.com/","en-US,en;q=0.9","663b638be7226d4e3fcc255f","683db6dfa200031b80f2a654","686507f47b03d65a9af85e91","663b638be7226d4e3fcc255f","","[{""page_index"":0,""viewing_time"":16515},{""page_index"":1,""viewing_time"":9609}]","","","","","","","","","","","","","","","","","","","","","","","","","","","","","","","","","","","","","","","","","","",""
"16665","","","{""Q0"":"""",""Q1"":"""",""Q2"":"""",""Q3"":"""",""Q4"":"""",""Q5"":"""",""Q6"":""I agree""}","survey-multi-choice","2","59616","0.0-2.0","165","1","2025-07-02 10:22:46","80fe4187154257d5fb01684ea91b68b9","216.120.189.148","Mozilla/5.0 (Windows NT 10.0; Win64; x64) AppleWebKit/537.36 (KHTML, like Gecko) Chrome/138.0.0.0 Safari/537.36","WebKit","Chrome","138.0.0.0","Windows","10.0","https://app.prolific.com/","en-US,en;q=0.9","663b638be7226d4e3fcc255f","683db6dfa200031b80f2a654","686507f47b03d65a9af85e91","663b638be7226d4e3fcc255f","","","[0,1,2,3,4,5,6]","true","","","","","","","","","","","","","","","","","","","","","","","","","","","","","","","","","","","","","","","","",""
"14311","","","","fullscreen","3","74943","0.0-4.0","165","1","2025-07-02 10:22:46","80fe4187154257d5fb01684ea91b68b9","216.120.189.148","Mozilla/5.0 (Windows NT 10.0; Win64; x64) AppleWebKit/537.36 (KHTML, like Gecko) Chrome/138.0.0.0 Safari/537.36","WebKit","Chrome","138.0.0.0","Windows","10.0","https://app.prolific.com/","en-US,en;q=0.9","663b638be7226d4e3fcc255f","683db6dfa200031b80f2a654","686507f47b03d65a9af85e91","663b638be7226d4e3fcc255f","","","","","true","","","","","","","","","","","","","","","","","","","","","","","","","","","","","","","","","","","","","","","",""
"12278","1751451860888"," <p style='font-size:1.1em;line-height:1.25'>Thank you for completing the consent form and closing all other tabs.</p><p style='font-size:1.1em;line-height:1.25'>We will now invite you to fill in some demographic information and questionnaires, before starting the game.<br>This will take about 5 minutes.<br></p><p style='font-size:1.1em;line-height:1.25'>Press the <strong>Next</strong> button to continue.</p>","0","custom-html-button-response","4","87225","0.0-5.0","165","1","2025-07-02 10:22:46","80fe4187154257d5fb01684ea91b68b9","216.120.189.148","Mozilla/5.0 (Windows NT 10.0; Win64; x64) AppleWebKit/537.36 (KHTML, like Gecko) Chrome/138.0.0.0 Safari/537.36","WebKit","Chrome","138.0.0.0","Windows","10.0","https://app.prolific.com/","en-US,en;q=0.9","663b638be7226d4e3fcc255f","683db6dfa200031b80f2a654","686507f47b03d65a9af85e91","663b638be7226d4e3fcc255f","2025-07-02T10:24:20.890Z","","","","","","","","","","","","","","","","","","","","","","","","","","","","","","","","","","","","","","","","","","","",""
"6849","","","{""age"":""27""}","survey-text","5","94081","0.0-6.0-0.0","165","1","2025-07-02 10:22:46","80fe4187154257d5fb01684ea91b68b9","216.120.189.148","Mozilla/5.0 (Windows NT 10.0; Win64; x64) AppleWebKit/537.36 (KHTML, like Gecko) Chrome/138.0.0.0 Safari/537.36","WebKit","Chrome","138.0.0.0","Windows","10.0","https://app.prolific.com/","en-US,en;q=0.9","663b638be7226d4e3fcc255f","683db6dfa200031b80f2a654","686507f47b03d65a9af85e91","663b638be7226d4e3fcc255f","","","","","","0","demographics","","","","","","","","","","","","","","","","","","","","","","","","","","","","","","","","","","","","","",""
"7705","","","{""gender_identity"":""female/woman""}","survey-multi-choice","6","101789","0.0-6.0-1.0","165","1","2025-07-02 10:22:46","80fe4187154257d5fb01684ea91b68b9","216.120.189.148","Mozilla/5.0 (Windows NT 10.0; Win64; x64) AppleWebKit/537.36 (KHTML, like Gecko) Chrome/138.0.0.0 Safari/537.36","WebKit","Chrome","138.0.0.0","Windows","10.0","https://app.prolific.com/","en-US,en;q=0.9","663b638be7226d4e3fcc255f","683db6dfa200031b80f2a654","686507f47b03d65a9af85e91","663b638be7226d4e3fcc255f","","","[0]","","","1","demographics","","","","","","","","","","","","","","","","","","","","","","","","","","","","","","","","","","","","","",""
"12322","","","{""assigned_sex"":""female""}","survey-multi-choice","7","114115","0.0-6.0-2.0","165","1","2025-07-02 10:22:46","80fe4187154257d5fb01684ea91b68b9","216.120.189.148","Mozilla/5.0 (Windows NT 10.0; Win64; x64) AppleWebKit/537.36 (KHTML, like Gecko) Chrome/138.0.0.0 Safari/537.36","WebKit","Chrome","138.0.0.0","Windows","10.0","https://app.prolific.com/","en-US,en;q=0.9","663b638be7226d4e3fcc255f","683db6dfa200031b80f2a654","686507f47b03d65a9af85e91","663b638be7226d4e3fcc255f","","","[0]","","","2","demographics","","","","","","","","","","","","","","","","","","","","","","","","","","","","","","","","","","","","","",""
"77938","","","{""menstrual_cycle"":""No""}","survey-multi-choice","8","192056","0.0-6.0-3.0","165","1","2025-07-02 10:22:46","80fe4187154257d5fb01684ea91b68b9","216.120.189.148","Mozilla/5.0 (Windows NT 10.0; Win64; x64) AppleWebKit/537.36 (KHTML, like Gecko) Chrome/138.0.0.0 Safari/537.36","WebKit","Chrome","138.0.0.0","Windows","10.0","https://app.prolific.com/","en-US,en;q=0.9","663b638be7226d4e3fcc255f","683db6dfa200031b80f2a654","686507f47b03d65a9af85e91","663b638be7226d4e3fcc255f","","","[0]","","","4","demographics","","","","","","","","","","","","","","","","","","","","","","","","","","","","","","","","","","","","","",""
"15756","","","{""education"":""Bachelor's Degree (e.g., BA)""}","survey-multi-choice","9","207815","0.0-6.0-4.0","165","1","2025-07-02 10:22:46","80fe4187154257d5fb01684ea91b68b9","216.120.189.148","Mozilla/5.0 (Windows NT 10.0; Win64; x64) AppleWebKit/537.36 (KHTML, like Gecko) Chrome/138.0.0.0 Safari/537.36","WebKit","Chrome","138.0.0.0","Windows","10.0","https://app.prolific.com/","en-US,en;q=0.9","663b638be7226d4e3fcc255f","683db6dfa200031b80f2a654","686507f47b03d65a9af85e91","663b638be7226d4e3fcc255f","","","[0]","","","5","demographics","","","","","","","","","","","","","","","","","","","","","","","","","","","","","","","","","","","","","",""
"5928","","","{""education"":""Bachelor's Degree (e.g., BA)""}","survey-multi-choice","10","213747","0.0-6.0-5.0","165","1","2025-07-02 10:22:46","80fe4187154257d5fb01684ea91b68b9","216.120.189.148","Mozilla/5.0 (Windows NT 10.0; Win64; x64) AppleWebKit/537.36 (KHTML, like Gecko) Chrome/138.0.0.0 Safari/537.36","WebKit","Chrome","138.0.0.0","Windows","10.0","https://app.prolific.com/","en-US,en;q=0.9","663b638be7226d4e3fcc255f","683db6dfa200031b80f2a654","686507f47b03d65a9af85e91","663b638be7226d4e3fcc255f","2025-07-02T10:26:27.412Z","","[0]","","","6","demographics","","","","","","","","","","","","","","","","","","","","","","","","","","","","","","","","","","","","","",""
"22067","","","{""mental_health_condition"":""No"",""mental_health_treatment"":""No"",""psychiatric_medication"":""No""}","survey-text","11","235820","0.0-7.0-0.0","165","1","2025-07-02 10:22:46","80fe4187154257d5fb01684ea91b68b9","216.120.189.148","Mozilla/5.0 (Windows NT 10.0; Win64; x64) AppleWebKit/537.36 (KHTML, like Gecko) Chrome/138.0.0.0 Safari/537.36","WebKit","Chrome","138.0.0.0","Windows","10.0","https://app.prolific.com/","en-US,en;q=0.9","663b638be7226d4e3fcc255f","683db6dfa200031b80f2a654","686507f47b03d65a9af85e91","663b638be7226d4e3fcc255f","2025-07-02T10:26:49.486Z","","","","","1","mental_health","","","","","","","","","","","","","","","","","","","","","","","","","","","","","","","","","","","","","",""
"23035","","","{""depression_history"":[""No""]}","survey-multi-select","12","258861","0.0-7.0-1.0","165","1","2025-07-02 10:22:46","80fe4187154257d5fb01684ea91b68b9","216.120.189.148","Mozilla/5.0 (Windows NT 10.0; Win64; x64) AppleWebKit/537.36 (KHTML, like Gecko) Chrome/138.0.0.0 Safari/537.36","WebKit","Chrome","138.0.0.0","Windows","10.0","https://app.prolific.com/","en-US,en;q=0.9","663b638be7226d4e3fcc255f","683db6dfa200031b80f2a654","686507f47b03d65a9af85e91","663b638be7226d4e3fcc255f","","","[0]","","","","mental_health","","","","","","","","","","","","","","","","","","","","","","","","","","","","","","","","","","","","","",""
"107413.39999999106","","","","survey-template","13","366288","0.0-7.0-3.0","165","1","2025-07-02 10:22:46","80fe4187154257d5fb01684ea91b68b9","216.120.189.148","Mozilla/5.0 (Windows NT 10.0; Win64; x64) AppleWebKit/537.36 (KHTML, like Gecko) Chrome/138.0.0.0 Safari/537.36","WebKit","Chrome","138.0.0.0","Windows","10.0","https://app.prolific.com/","en-US,en;q=0.9","663b638be7226d4e3fcc255f","683db6dfa200031b80f2a654","686507f47b03d65a9af85e91","663b638be7226d4e3fcc255f","2025-07-02T10:28:59.953Z","","","","","","ius","{""Q01"":""2"",""Q02"":""2"",""Q03"":""3"",""Q04"":""4"",""Q05"":""2"",""Q06"":""3"",""Q07"":""3"",""Q08"":""0"",""Q09"":""4"",""Q10"":""4"",""Q11"":""3"",""Q12"":""4"",""Q13"":""4""}","[0,1,2,3,4,5,6,7,8,9,10,11,12]","[""Q01"",""Q01"",""Q02"",""Q03"",""Q04"",""Q05"",""Q06"",""Q07"",""Q08"",""Q09"",""Q10"",""Q11"",""Q12"",""Q13""]","[12416,18824.69999998808,27148,32473,37720.29999999702,45543.79999999702,53363.19999998808,58811.59999999404,63314.5,71385.5,74363,79081.79999999702,89182.29999999702,106455.29999999702]","[]","[11445.89999999106,12416,16455.89999999106,17755.19999998808,18824.69999998808,26015.39999999106,27148,32473,37720.29999999702,45543.79999999702,52372.89999999106,53363.19999998808,58811.59999999404,63314.5,71385.5,74363,78401.79999999702,79081.79999999702,89182.29999999702,96446.59999999404,98329,103756.19999998808,106455.29999999702,107408.19999998808]","0.38461538461538464","0.5","0","","","","","","","","","","","","","","","","","","","","","","","","","","","","",""
"6144","1751452146101","<p style='font-size:1.1em;line-height:1.25'>In the following, we will ask you a few questions relating to your experiences over the past month.<br></p><p style='font-size:1.1em;line-height:1.25'>Press the <strong>Next</strong> button to continue.</p>","0","custom-html-button-response","14","372437","0.0-7.0-4.0","165","1","2025-07-02 10:22:46","80fe4187154257d5fb01684ea91b68b9","216.120.189.148","Mozilla/5.0 (Windows NT 10.0; Win64; x64) AppleWebKit/537.36 (KHTML, like Gecko) Chrome/138.0.0.0 Safari/537.36","WebKit","Chrome","138.0.0.0","Windows","10.0","https://app.prolific.com/","en-US,en;q=0.9","663b638be7226d4e3fcc255f","683db6dfa200031b80f2a654","686507f47b03d65a9af85e91","663b638be7226d4e3fcc255f","2025-07-02T10:29:06.102Z","","","","","","","","","","","","","","","","","","","","","","","","","","","","","","","","","","","","","","","","","","","",""
"262385","","","","survey-template","15","634828","0.0-7.0-5.0","165","1","2025-07-02 10:22:46","80fe4187154257d5fb01684ea91b68b9","216.120.189.148","Mozilla/5.0 (Windows NT 10.0; Win64; x64) AppleWebKit/537.36 (KHTML, like Gecko) Chrome/138.0.0.0 Safari/537.36","WebKit","Chrome","138.0.0.0","Windows","10.0","https://app.prolific.com/","en-US,en;q=0.9","663b638be7226d4e3fcc255f","683db6dfa200031b80f2a654","686507f47b03d65a9af85e91","663b638be7226d4e3fcc255f","2025-07-02T10:33:28.493Z","","","","","","pss","{""Q01"":""3"",""Q02"":""1"",""Q03"":""2"",""Q04"":""1"",""Q05"":""1"",""Q06"":""1"",""Q07"":""1"",""Q08"":""1"",""Q09"":""2"",""Q10"":""1""}","[0,1,2,3,4,5,6,7,8,9]","[""Q01"",""Q02"",""Q03"",""Q04"",""Q04"",""Q05"",""Q06"",""Q07"",""Q07"",""Q08"",""Q09"",""Q10"",""Q10""]","[32568.40000000596,45163.40000000596,98880.09999999404,138037.29999999702,139025.90000000596,146421.09999999404,159881.59999999404,183398.40000000596,219804.40000000596,230002.40000000596,246220.29999999702,256068.29999999702,261264.29999999702]","[]","[0.09999999403953552,32217.09999999404,32568.40000000596,45163.40000000596,98880.09999999404,138037.29999999702,139025.90000000596,145876.59999999404,146421.09999999404,158405.29999999702,159185.70000000298,159881.59999999404,182760,183398.40000000596,219804.40000000596,230002.40000000596,246220.29999999702,256068.29999999702,261264.29999999702,262381.5]","0.5","0.4444444444444444","0","","","","","","","","","","","","","","","","","","","","","","","","","","","","",""
"5517","1751452414012","<p style='font-size:1.1em;line-height:1.25'>Thank you for your answers! Now we will ask you a few more questions relating to your feelings in the last 24 hours.<br></p><p style='font-size:1.1em;line-height:1.25'>Press the <strong>Next</strong> button to continue.</p>","0","custom-html-button-response","16","640348","0.0-7.0-6.0","165","1","2025-07-02 10:22:46","80fe4187154257d5fb01684ea91b68b9","216.120.189.148","Mozilla/5.0 (Windows NT 10.0; Win64; x64) AppleWebKit/537.36 (KHTML, like Gecko) Chrome/138.0.0.0 Safari/537.36","WebKit","Chrome","138.0.0.0","Windows","10.0","https://app.prolific.com/","en-US,en;q=0.9","663b638be7226d4e3fcc255f","683db6dfa200031b80f2a654","686507f47b03d65a9af85e91","663b638be7226d4e3fcc255f","2025-07-02T10:33:34.013Z","","","","","","","","","","","","","","","","","","","","","","","","","","","","","","","","","","","","","","","","","","","",""
"75360.60000000894","","","","survey-template","17","715716","0.0-7.0-7.0","165","1","2025-07-02 10:22:46","80fe4187154257d5fb01684ea91b68b9","216.120.189.148","Mozilla/5.0 (Windows NT 10.0; Win64; x64) AppleWebKit/537.36 (KHTML, like Gecko) Chrome/138.0.0.0 Safari/537.36","WebKit","Chrome","138.0.0.0","Windows","10.0","https://app.prolific.com/","en-US,en;q=0.9","663b638be7226d4e3fcc255f","683db6dfa200031b80f2a654","686507f47b03d65a9af85e91","663b638be7226d4e3fcc255f","2025-07-02T10:34:49.381Z","","","","","","drsp","{""Q01"":""0"",""Q02"":""0"",""Q03"":""0"",""Q04"":""0"",""Q05"":""0"",""Q06"":""0"",""Q07"":""0"",""Q08"":""0"",""Q09"":""0"",""Q10"":""0"",""Q11"":""0"",""Q12"":""0"",""Q13"":""1"",""Q14"":""0"",""Q15"":""0"",""Q16"":""0"",""Q17"":""0"",""Q18"":""0"",""Q19"":""0"",""Q20"":""0"",""Q21"":""0""}","[0,1,2,3,4,5,6,7,8,9,10,11,12,13,14,15,16,17,18,19,20]","[""Q02"",""Q01"",""Q03"",""Q04"",""Q05"",""Q06"",""Q07"",""Q08"",""Q09"",""Q10"",""Q11"",""Q12"",""Q13"",""Q14"",""Q15"",""Q16"",""Q17"",""Q18"",""Q19"",""Q20"",""Q21""]","[5546.70000000298,6685.20000000298,8638.10000000894,11315,12703.60000000894,16398.5,18826.70000000298,21050.79999999702,23693,25539.90000000596,28719.20000000298,31683.10000000894,35751,41074.70000000298,44310.5,46107.40000000596,49815.29999999702,55993.60000000894,58176.90000000596,69014.90000000596,73429]","[]","[0.10000000894069672,3360.4000000059605,4878.100000008941,5546.70000000298,6685.20000000298,8638.10000000894,9897.5,10620.20000000298,11315,12703.60000000894,14192,16398.5,18826.70000000298,21050.79999999702,23693,24709.70000000298,25539.90000000596,26442.10000000894,28054.60000000894,28719.20000000298,31683.10000000894,35751,39142.10000000894,39857.5,41074.70000000298,44310.5,45550.5,46107.40000000596,49815.29999999702,55993.60000000894,58176.90000000596,69014.90000000596,71136.40000000596,72083.90000000596,73047.20000000298,73429,75354.60000000894]","0.9523809523809523","0.1","0","","","","","","","","","","","","","","","","","","","","","","","","","","","","",""
"54572.59999999404","","","","survey-template","18","770292","0.0-7.0-8.0","165","1","2025-07-02 10:22:46","80fe4187154257d5fb01684ea91b68b9","216.120.189.148","Mozilla/5.0 (Windows NT 10.0; Win64; x64) AppleWebKit/537.36 (KHTML, like Gecko) Chrome/138.0.0.0 Safari/537.36","WebKit","Chrome","138.0.0.0","Windows","10.0","https://app.prolific.com/","en-US,en;q=0.9","663b638be7226d4e3fcc255f","683db6dfa200031b80f2a654","686507f47b03d65a9af85e91","663b638be7226d4e3fcc255f","2025-07-02T10:35:43.957Z","","","","","","stress","{""Q01"":""0"",""Q02"":""2"",""Q03"":""0""}","[0,1,2]","[""Q01"",""Q02"",""Q03""]","[7799.70000000298,15102.09999999404,21330.20000000298]","[]","[7799.70000000298,15102.09999999404,21330.20000000298,25511.90000000596,25926.5,26836,52073.79999999702,54570.79999999702]","0.6666666666666666","0","0","","","","","","","","","","","","","","","","","","","","","","","","","","","","",""
"140296","","","","instructions","19","910590","0.0-8.0-0.0","165","1","2025-07-02 10:22:46","80fe4187154257d5fb01684ea91b68b9","216.120.189.148","Mozilla/5.0 (Windows NT 10.0; Win64; x64) AppleWebKit/537.36 (KHTML, like Gecko) Chrome/138.0.0.0 Safari/537.36","WebKit","Chrome","138.0.0.0","Windows","10.0","https://app.prolific.com/","en-US,en;q=0.9","663b638be7226d4e3fcc255f","683db6dfa200031b80f2a654","686507f47b03d65a9af85e91","663b638be7226d4e3fcc255f","","[{""page_index"":0,""viewing_time"":28717},{""page_index"":1,""viewing_time"":66270},{""page_index"":2,""viewing_time"":17158},{""page_index"":3,""viewing_time"":28149}]","","","","","","","","","","","","","","","","","","","","","","","","","","","","","","","","","","","","","","","","","","",""
"","","","","ctl-task-cpt","20","947631","0.0-8.0-1.0","165","1","2025-07-02 10:22:46","80fe4187154257d5fb01684ea91b68b9","216.120.189.148","Mozilla/5.0 (Windows NT 10.0; Win64; x64) AppleWebKit/537.36 (KHTML, like Gecko) Chrome/138.0.0.0 Safari/537.36","WebKit","Chrome","138.0.0.0","Windows","10.0","https://app.prolific.com/","en-US,en;q=0.9","663b638be7226d4e3fcc255f","683db6dfa200031b80f2a654","686507f47b03d65a9af85e91","663b638be7226d4e3fcc255f","","","","","","","","","","","","","","","","","win-only","1","g1:NE,g2:SW","1","0","1","917907.7","6957.8","10962.5","34030.6","2","4","4","6","1","2","-2","0","0","0","4004.6","4000","2145","[""up"",""right""]","{""num_key_presses"":11,""num_perfect"":6,""num_errors"":4,""num_randdir"":0,""num_randdir_good_moves"":0,""num_whilered"":1,""num_whileblue"":0,""num_blue"":0,""num_good_moves"":5}","[298.22232142857143,294.12857142857143,1.1,298.22232142857143,294.12857142857143,101.2,298.22232142857143,294.12857142857143,202.8,298.22232142857143,294.12857142857143,303.5,298.22232142857143,294.12857142857143,403.7,298.22232142857143,294.12857142857143,508.1,298.22232142857143,294.12857142857143,608.9,298.22232142857143,294.12857142857143,709.1,298.22232142857143,294.12857142857143,815.9,298.22232142857143,294.12857142857143,920.2,298.22232142857143,294.12857142857143,1020.4,298.22232142857143,294.12857142857143,1124.5,298.22232142857143,294.12857142857143,1231.5,298.22232142857143,294.12857142857143,1333.5,298.22232142857143,294.12857142857143,1433.7,298.22232142857143,294.12857142857143,1534.2,298.22232142857143,294.12857142857143,1638.3,298.22232142857143,294.12857142857143,1740.6,298.22232142857143,294.12857142857143,1841.6,298.22232142857143,294.12857142857143,1943.2,298.22232142857143,294.12857142857143,2053.2,298.22232142857143,294.12857142857143,2153.4,298.22232142857143,294.12857142857143,2259.5,298.22232142857143,294.12857142857143,2360.4,298.22232142857143,294.12857142857143,2469.1,298.22232142857143,294.12857142857143,2576.9,298.22232142857143,294.12857142857143,2683.3,298.22232142857143,294.12857142857143,2791.4,298.22232142857143,294.12857142857143,2898.6,298.22232142857143,294.12857142857143,2998.6,298.22232142857143,294.12857142857143,3105.2,298.22232142857143,294.12857142857143,3209.4,298.22232142857143,294.12857142857143,3310.7,298.22232142857143,294.12857142857143,3415.5,298.22232142857143,294.12857142857143,3517,298.22232142857143,294.12857142857143,3619.9,298.22232142857143,294.12857142857143,3730.6,298.22232142857143,294.12857142857143,3838.8,298.22232142857143,294.12857142857143,3943]","[1058,1058,1000,0,58,""smooth"",""right"",""right"",""good_move"",1563.6,504.4,1841.4,1059.3,-1337,""error"",""-"",""-"",""no_move"",2221.9,657.7,1841.4,1059.3,-678.8,""while_red"",""-"",""-"",""no_move"",4459.5,2895.4,2871.2,2564.3,-975.9,""error"",""-"",""-"",""no_move"",9004.4,4544.1,2948.3,5463.6,592.5,""smooth"",""right"",""right"",""good_move"",9519.8,515,2815.4,9004.9,-2300.5,""error"",""-"",""-"",""no_move"",12982.3,3462,1808.9,10524.2,649.2,""smooth"",""left"",""left"",""bad_move"",13624.3,637.5,1906.1,12986.9,-1268.6,""error"",""-"",""-"",""no_move"",17956.3,4331.4,2845.2,14630.5,480.6,""smooth"",""right"",""right"",""good_move"",20661.2,2703.4,2321.3,17957.9,382.1,""smooth"",""up"",""up"",""good_move"",22931.5,2269.7,1886.5,20661.8,383.2,""smooth"",""up"",""up"",""good_move""]","",""
"30021","","","","instructions","21","977652","0.0-8.0-2.0","165","1","2025-07-02 10:22:46","80fe4187154257d5fb01684ea91b68b9","216.120.189.148","Mozilla/5.0 (Windows NT 10.0; Win64; x64) AppleWebKit/537.36 (KHTML, like Gecko) Chrome/138.0.0.0 Safari/537.36","WebKit","Chrome","138.0.0.0","Windows","10.0","https://app.prolific.com/","en-US,en;q=0.9","663b638be7226d4e3fcc255f","683db6dfa200031b80f2a654","686507f47b03d65a9af85e91","663b638be7226d4e3fcc255f","","[{""page_index"":0,""viewing_time"":30020}]","","","","","","","","","","","","","","","","","","","","","","","","","","","","","","","","","","","","","","","","","","",""
"","","","","ctl-task-cpt","22","1039180","0.0-8.0-3.0","165","1","2025-07-02 10:22:46","80fe4187154257d5fb01684ea91b68b9","216.120.189.148","Mozilla/5.0 (Windows NT 10.0; Win64; x64) AppleWebKit/537.36 (KHTML, like Gecko) Chrome/138.0.0.0 Safari/537.36","WebKit","Chrome","138.0.0.0","Windows","10.0","https://app.prolific.com/","en-US,en;q=0.9","663b638be7226d4e3fcc255f","683db6dfa200031b80f2a654","686507f47b03d65a9af85e91","663b638be7226d4e3fcc255f","","","","","","","","","","","","","","","","","win-only","1","g1:NE,g2:SW","0.35","0","3","984967.2","3568.1","7571.9","58513.8","2","4","8","6","2","8","7","7","0","0.05303030303030303","1408","4000","195","[""down"",""left""]","{""num_key_presses"":16,""num_perfect"":6,""num_errors"":1,""num_randdir"":9,""num_randdir_good_moves"":6,""num_whilered"":0,""num_whileblue"":1,""num_blue"":2,""num_good_moves"":11}","[296.22232142857143,291.12857142857143,0.8,296.22232142857143,291.12857142857143,109.5,296.22232142857143,291.12857142857143,214.5,296.22232142857143,291.12857142857143,319.2,296.22232142857143,291.12857142857143,425.5,296.22232142857143,291.12857142857143,530.2,296.22232142857143,291.12857142857143,630.5,170.22232142857143,381.12857142857143,735.3,77.22232142857143,477.12857142857143,841.2,74.22232142857143,480.12857142857143,941.5,65.22232142857143,488.12857142857143,1042.9,52.222321428571426,513.1285714285714,1147,52.222321428571426,516.1285714285714,1249.1,52.222321428571426,516.1285714285714,1349.2,52.222321428571426,516.1285714285714,1458.7,52.222321428571426,516.1285714285714,1559.1,52.222321428571426,516.1285714285714,1661.8,52.222321428571426,516.1285714285714,1768.5,52.222321428571426,516.1285714285714,1868.9,52.222321428571426,516.1285714285714,1975.5,52.222321428571426,516.1285714285714,2079.1,52.222321428571426,516.1285714285714,2190,52.222321428571426,516.1285714285714,2295.4,52.222321428571426,516.1285714285714,2401.7,52.222321428571426,516.1285714285714,2505.3,52.222321428571426,516.1285714285714,2608.6,52.222321428571426,516.1285714285714,2712.3,52.222321428571426,516.1285714285714,2813.7,52.222321428571426,516.1285714285714,2913.8,52.222321428571426,516.1285714285714,3019.9,52.222321428571426,516.1285714285714,3126.5,52.222321428571426,516.1285714285714,3227.3,52.222321428571426,516.1285714285714,3327.3,52.222321428571426,516.1285714285714,3433.6,52.222321428571426,516.1285714285714,3540.9,52.222321428571426,516.1285714285714,3646.5,52.222321428571426,516.1285714285714,3751.3,52.222321428571426,516.1285714285714,3859.7,52.222321428571426,516.1285714285714,3963.2]","[1347.2,1347.2,1000,0,347.2,""oops"",""right"",""right"",""bad_move"",4740,3392.1,3076.4,1347.9,315.7,""smooth"",""right"",""right"",""bad_move"",7480.4,2739.1,2418.4,4741.3,320.7,""smooth"",""down"",""down"",""good_move"",10629.8,3148.3,2834.6,7481.5,313.7,""while_blue"",""down"",""up"",""bad_move"",13492.7,2862.1,2526.5,10630.6,335.6,""oops"",""down"",""down"",""good_move"",16303.9,2810.8,2412.5,13493.2,398.3,""oops"",""left"",""down"",""good_move"",19175.4,2869.9,2533.6,16305.5,336.3,""oops"",""left"",""left"",""good_move"",26085.9,6909.4,2689.7,23034.2,362.1,""smooth"",""left"",""left"",""good_move"",29102.3,3015.5,2636.3,26086.8,379.2,""oops"",""left"",""left"",""good_move"",31409.8,2306.2,1922.1,29103.6,384.1,""oops"",""down"",""up"",""bad_move"",34825.4,3413.3,2826.1,31412.1,587.2,""smooth"",""down"",""down"",""good_move"",38239.6,3413.2,3099.1,34826.4,314.1,""oops"",""down"",""left"",""good_move"",40989,2747.7,2294.5,38241.3,453.2,""oops"",""down"",""left"",""good_move"",43804.2,2814.1,2504.8,40990.1,309.3,""oops"",""down"",""up"",""bad_move"",47406.7,3601.5,3317.6,43805.3,283.9,""smooth"",""down"",""down"",""good_move"",50813,3405.1,3133.9,47407.9,271.2,""smooth"",""down"",""down"",""good_move""]","",""
"40529","","","","instructions","23","1079711","0.0-8.0-4.0","165","1","2025-07-02 10:22:46","80fe4187154257d5fb01684ea91b68b9","216.120.189.148","Mozilla/5.0 (Windows NT 10.0; Win64; x64) AppleWebKit/537.36 (KHTML, like Gecko) Chrome/138.0.0.0 Safari/537.36","WebKit","Chrome","138.0.0.0","Windows","10.0","https://app.prolific.com/","en-US,en;q=0.9","663b638be7226d4e3fcc255f","683db6dfa200031b80f2a654","686507f47b03d65a9af85e91","663b638be7226d4e3fcc255f","","[{""page_index"":0,""viewing_time"":19254},{""page_index"":1,""viewing_time"":21275}]","","","","","","","","","","","","","","","","","","","","","","","","","","","","","","","","","","","","","","","","","","",""
"20666","","","{""green_ball"":[""Ball always moves in the direction I press""]}","survey-multi-select","24","1100381","0.0-8.0-5.0-0.0","165","1","2025-07-02 10:22:46","80fe4187154257d5fb01684ea91b68b9","216.120.189.148","Mozilla/5.0 (Windows NT 10.0; Win64; x64) AppleWebKit/537.36 (KHTML, like Gecko) Chrome/138.0.0.0 Safari/537.36","WebKit","Chrome","138.0.0.0","Windows","10.0","https://app.prolific.com/","en-US,en;q=0.9","663b638be7226d4e3fcc255f","683db6dfa200031b80f2a654","686507f47b03d65a9af85e91","663b638be7226d4e3fcc255f","","","[0]","","","","quiz","","","","","","","","","","","","","","","","","","","","","","","","","","","","","","","","","","","","","false",""
"9422","","<p align='center'><b>INCORRECT.</b> Usually the green ball moves in the indicated direction, but sometimes it shakes and moves randomly. </p>","0","html-button-response","25","1109806","0.0-8.0-5.0-1.0","165","1","2025-07-02 10:22:46","80fe4187154257d5fb01684ea91b68b9","216.120.189.148","Mozilla/5.0 (Windows NT 10.0; Win64; x64) AppleWebKit/537.36 (KHTML, like Gecko) Chrome/138.0.0.0 Safari/537.36","WebKit","Chrome","138.0.0.0","Windows","10.0","https://app.prolific.com/","en-US,en;q=0.9","663b638be7226d4e3fcc255f","683db6dfa200031b80f2a654","686507f47b03d65a9af85e91","663b638be7226d4e3fcc255f","","","","","","","","","","","","","","","","","","","","","","","","","","","","","","","","","","","","","","","","","","","","",""
"24520","","","{""green_ball"":[""Ball sometimes shakes and moves in a random direction""]}","survey-multi-select","26","1134331","0.0-8.0-5.1-0.1","165","1","2025-07-02 10:22:46","80fe4187154257d5fb01684ea91b68b9","216.120.189.148","Mozilla/5.0 (Windows NT 10.0; Win64; x64) AppleWebKit/537.36 (KHTML, like Gecko) Chrome/138.0.0.0 Safari/537.36","WebKit","Chrome","138.0.0.0","Windows","10.0","https://app.prolific.com/","en-US,en;q=0.9","663b638be7226d4e3fcc255f","683db6dfa200031b80f2a654","686507f47b03d65a9af85e91","663b638be7226d4e3fcc255f","","","[0]","","","","quiz","","","","","","","","","","","","","","","","","","","","","","","","","","","","","","","","","","","","","true",""
"5538","","<p align='center'><b>CORRECT!</b> Indeed, the green ball may sometimes shake and move in a random direction.</p>","0","html-button-response","27","1139872","0.0-8.0-5.1-1.1","165","1","2025-07-02 10:22:46","80fe4187154257d5fb01684ea91b68b9","216.120.189.148","Mozilla/5.0 (Windows NT 10.0; Win64; x64) AppleWebKit/537.36 (KHTML, like Gecko) Chrome/138.0.0.0 Safari/537.36","WebKit","Chrome","138.0.0.0","Windows","10.0","https://app.prolific.com/","en-US,en;q=0.9","663b638be7226d4e3fcc255f","683db6dfa200031b80f2a654","686507f47b03d65a9af85e91","663b638be7226d4e3fcc255f","","","","","","","","","","","","","","","","","","","","","","","","","","","","","","","","","","","","","","","","","","","","",""
"11189","","","{""yellow_ball"":[""Ball doesn‘t move and I get -1 penalty point""]}","survey-multi-select","28","1151064","0.0-8.0-6.0-0.0","165","1","2025-07-02 10:22:46","80fe4187154257d5fb01684ea91b68b9","216.120.189.148","Mozilla/5.0 (Windows NT 10.0; Win64; x64) AppleWebKit/537.36 (KHTML, like Gecko) Chrome/138.0.0.0 Safari/537.36","WebKit","Chrome","138.0.0.0","Windows","10.0","https://app.prolific.com/","en-US,en;q=0.9","663b638be7226d4e3fcc255f","683db6dfa200031b80f2a654","686507f47b03d65a9af85e91","663b638be7226d4e3fcc255f","","","[0]","","","","quiz","","","","","","","","","","","","","","","","","","","","","","","","","","","","","","","","","","","","","true",""
"1802","","<p align='center'><b>CORRECT!</b> Indeed, the yellow ball never moves and you receive a penalty.</p>","0","html-button-response","29","1152869","0.0-8.0-6.0-1.0","165","1","2025-07-02 10:22:46","80fe4187154257d5fb01684ea91b68b9","216.120.189.148","Mozilla/5.0 (Windows NT 10.0; Win64; x64) AppleWebKit/537.36 (KHTML, like Gecko) Chrome/138.0.0.0 Safari/537.36","WebKit","Chrome","138.0.0.0","Windows","10.0","https://app.prolific.com/","en-US,en;q=0.9","663b638be7226d4e3fcc255f","683db6dfa200031b80f2a654","686507f47b03d65a9af85e91","663b638be7226d4e3fcc255f","","","","","","","","","","","","","","","","","","","","","","","","","","","","","","","","","","","","","","","","","","","","",""
"16094","","","{""blue_ball"":[""Ball always shakes and moves in a random direction""]}","survey-multi-select","30","1168966","0.0-8.0-7.0-0.0","165","1","2025-07-02 10:22:46","80fe4187154257d5fb01684ea91b68b9","216.120.189.148","Mozilla/5.0 (Windows NT 10.0; Win64; x64) AppleWebKit/537.36 (KHTML, like Gecko) Chrome/138.0.0.0 Safari/537.36","WebKit","Chrome","138.0.0.0","Windows","10.0","https://app.prolific.com/","en-US,en;q=0.9","663b638be7226d4e3fcc255f","683db6dfa200031b80f2a654","686507f47b03d65a9af85e91","663b638be7226d4e3fcc255f","","","[0]","","","","quiz","","","","","","","","","","","","","","","","","","","","","","","","","","","","","","","","","","","","","true",""
"1927","","<p align='center'><b>CORRECT!</b> Indeed, the blue ball always shakes and moves in a random direction. Also there is a penalty of -1 point.</p>","0","html-button-response","31","1170896","0.0-8.0-7.0-1.0","165","1","2025-07-02 10:22:46","80fe4187154257d5fb01684ea91b68b9","216.120.189.148","Mozilla/5.0 (Windows NT 10.0; Win64; x64) AppleWebKit/537.36 (KHTML, like Gecko) Chrome/138.0.0.0 Safari/537.36","WebKit","Chrome","138.0.0.0","Windows","10.0","https://app.prolific.com/","en-US,en;q=0.9","663b638be7226d4e3fcc255f","683db6dfa200031b80f2a654","686507f47b03d65a9af85e91","663b638be7226d4e3fcc255f","","","","","","","","","","","","","","","","","","","","","","","","","","","","","","","","","","","","","","","","","","","","",""
"5352","","","{""bonus"":[""When I reach 50% of points""]}","survey-multi-select","32","1176251","0.0-8.0-8.0-0.0","165","1","2025-07-02 10:22:46","80fe4187154257d5fb01684ea91b68b9","216.120.189.148","Mozilla/5.0 (Windows NT 10.0; Win64; x64) AppleWebKit/537.36 (KHTML, like Gecko) Chrome/138.0.0.0 Safari/537.36","WebKit","Chrome","138.0.0.0","Windows","10.0","https://app.prolific.com/","en-US,en;q=0.9","663b638be7226d4e3fcc255f","683db6dfa200031b80f2a654","686507f47b03d65a9af85e91","663b638be7226d4e3fcc255f","","","[0]","","","","quiz","","","","","","","","","","","","","","","","","","","","","","","","","","","","","","","","","","","","","true",""
"1763","","<p align='center'><b>CORRECT!</b> Indeed, you receive 2 pounds extra when you reach 50% of points.</p>","0","html-button-response","33","1178016","0.0-8.0-8.0-1.0","165","1","2025-07-02 10:22:46","80fe4187154257d5fb01684ea91b68b9","216.120.189.148","Mozilla/5.0 (Windows NT 10.0; Win64; x64) AppleWebKit/537.36 (KHTML, like Gecko) Chrome/138.0.0.0 Safari/537.36","WebKit","Chrome","138.0.0.0","Windows","10.0","https://app.prolific.com/","en-US,en;q=0.9","663b638be7226d4e3fcc255f","683db6dfa200031b80f2a654","686507f47b03d65a9af85e91","663b638be7226d4e3fcc255f","","","","","","","","","","","","","","","","","","","","","","","","","","","","","","","","","","","","","","","","","","","","",""
"5597","","","","instructions","34","1183615","0.0-8.0-9.0","165","1","2025-07-02 10:22:46","80fe4187154257d5fb01684ea91b68b9","216.120.189.148","Mozilla/5.0 (Windows NT 10.0; Win64; x64) AppleWebKit/537.36 (KHTML, like Gecko) Chrome/138.0.0.0 Safari/537.36","WebKit","Chrome","138.0.0.0","Windows","10.0","https://app.prolific.com/","en-US,en;q=0.9","663b638be7226d4e3fcc255f","683db6dfa200031b80f2a654","686507f47b03d65a9af85e91","663b638be7226d4e3fcc255f","","[{""page_index"":0,""viewing_time"":5597}]","","","","","","","","","","","","","","","","","","","","","","","","","","","","","","","","","","","","","","","","","","",""
"30508","","<p>Before you start with this game please answer the following three questions yourself. </p>
  <p>Through this game, we measure several aspects of your cognitive performance, such as reaction times, multi-tasking capabilities </p>
  <p>and the ability to assess the situation you are in.</p>
  <p></p>
  <p><b>How good do you usually are in such tasks?</b></p>","100","html-slider-response","35","1214129","0.0-9.0-0.0","165","1","2025-07-02 10:22:46","80fe4187154257d5fb01684ea91b68b9","216.120.189.148","Mozilla/5.0 (Windows NT 10.0; Win64; x64) AppleWebKit/537.36 (KHTML, like Gecko) Chrome/138.0.0.0 Safari/537.36","WebKit","Chrome","138.0.0.0","Windows","10.0","https://app.prolific.com/","en-US,en;q=0.9","663b638be7226d4e3fcc255f","683db6dfa200031b80f2a654","686507f47b03d65a9af85e91","663b638be7226d4e3fcc255f","2025-07-02T10:43:07.794Z","","","","","","PreSkillQ","","","","","","","","","","","","","","","","","","","","","","","","","","","","","","","","","","","","","","50"
"17359","","<div style=""width:500px;"">
  <p>How well do you think you will perform in this task compared to other participants?</p>
  </div>","96","html-slider-response","36","1231491","0.0-9.0-1.0","165","1","2025-07-02 10:22:46","80fe4187154257d5fb01684ea91b68b9","216.120.189.148","Mozilla/5.0 (Windows NT 10.0; Win64; x64) AppleWebKit/537.36 (KHTML, like Gecko) Chrome/138.0.0.0 Safari/537.36","WebKit","Chrome","138.0.0.0","Windows","10.0","https://app.prolific.com/","en-US,en;q=0.9","663b638be7226d4e3fcc255f","683db6dfa200031b80f2a654","686507f47b03d65a9af85e91","663b638be7226d4e3fcc255f","2025-07-02T10:43:25.156Z","","","","","","PrePerfQ","","","","","","","","","","","","","","","","","","","","","","","","","","","","","","","","","","","","","","50"
"6335","","<div style=""width:500px;"">
  <p>What best describes how you currently feel?</p>
  </div>","100","html-slider-response","37","1237829","0.0-9.0-2.0","165","1","2025-07-02 10:22:46","80fe4187154257d5fb01684ea91b68b9","216.120.189.148","Mozilla/5.0 (Windows NT 10.0; Win64; x64) AppleWebKit/537.36 (KHTML, like Gecko) Chrome/138.0.0.0 Safari/537.36","WebKit","Chrome","138.0.0.0","Windows","10.0","https://app.prolific.com/","en-US,en;q=0.9","663b638be7226d4e3fcc255f","683db6dfa200031b80f2a654","686507f47b03d65a9af85e91","663b638be7226d4e3fcc255f","2025-07-02T10:43:31.494Z","","","","","","PreMotivationQ","","","","","","","","","","","","","","","","","","","","","","","","","","","","","","","","","","","","","","50"
"","","","","ctl-task-cpt","38","1270505","0.0-10.0-0.0","165","1","2025-07-02 10:22:46","80fe4187154257d5fb01684ea91b68b9","216.120.189.148","Mozilla/5.0 (Windows NT 10.0; Win64; x64) AppleWebKit/537.36 (KHTML, like Gecko) Chrome/138.0.0.0 Safari/537.36","WebKit","Chrome","138.0.0.0","Windows","10.0","https://app.prolific.com/","en-US,en;q=0.9","663b638be7226d4e3fcc255f","683db6dfa200031b80f2a654","686507f47b03d65a9af85e91","663b638be7226d4e3fcc255f","2025-07-02T10:44:04.170Z","","","","","","","","","","","","","","","","win-only","3","g1:SW,g2:NE","1","1","0","1245144.7","5201.8","10205.7","29667.1","1","4","8","6","2","8","8","8","0","0.06060606060606061","1672.8","3000","1470","[""up"",""right""]","{""num_key_presses"":6,""num_perfect"":6,""num_errors"":0,""num_randdir"":0,""num_randdir_good_moves"":0,""num_whilered"":0,""num_whileblue"":0,""num_blue"":1,""num_good_moves"":6}","[293.22232142857143,304.12857142857143,0.3,293.22232142857143,304.12857142857143,102.8,293.22232142857143,304.12857142857143,203.8,293.22232142857143,304.12857142857143,307.2,293.22232142857143,304.12857142857143,408.8,293.22232142857143,304.12857142857143,515.1,293.22232142857143,304.12857142857143,620.3,293.22232142857143,304.12857142857143,729.6,505.22232142857143,137.12857142857143,835,615.2223214285714,36.128571428571426,936.1,615.2223214285714,36.128571428571426,1043.6,615.2223214285714,36.128571428571426,1148.8,615.2223214285714,36.128571428571426,1250,559.2223214285714,39.128571428571426,1352.9,546.2223214285714,49.128571428571426,1458.7,546.2223214285714,49.128571428571426,1559.2,546.2223214285714,49.128571428571426,1666.7,546.2223214285714,49.128571428571426,1773.5,546.2223214285714,49.128571428571426,1879.5,546.2223214285714,49.128571428571426,1981,546.2223214285714,49.128571428571426,2087.3,546.2223214285714,49.128571428571426,2188.9,546.2223214285714,49.128571428571426,2292.2,546.2223214285714,49.128571428571426,2396.7,546.2223214285714,49.128571428571426,2502.4,546.2223214285714,49.128571428571426,2609.2,546.2223214285714,49.128571428571426,2709.4,546.2223214285714,49.128571428571426,2813.6,546.2223214285714,49.128571428571426,2919.1,546.2223214285714,49.128571428571426,3019.7,546.2223214285714,49.128571428571426,3119.7,546.2223214285714,49.128571428571426,3220.9,546.2223214285714,49.128571428571426,3326.5,546.2223214285714,49.128571428571426,3431.5,546.2223214285714,49.128571428571426,3531.6,546.2223214285714,49.128571428571426,3634.7,546.2223214285714,49.128571428571426,3738.4,546.2223214285714,49.128571428571426,3843.1,546.2223214285714,49.128571428571426,3944.2,546.2223214285714,49.128571428571426,4051.6,546.2223214285714,49.128571428571426,4159.3,546.2223214285714,49.128571428571426,4268.2,546.2223214285714,49.128571428571426,4374.3,546.2223214285714,49.128571428571426,4478.7,546.2223214285714,49.128571428571426,4583.9,546.2223214285714,49.128571428571426,4685,546.2223214285714,49.128571428571426,4792.9,546.2223214285714,49.128571428571426,4900.5]","[1337.3,1337.3,1000,0,337.3,""smooth"",""right"",""right"",""good_move"",7727.8,6390,2502.7,4888.9,336.2,""smooth"",""right"",""right"",""good_move"",11113.7,3385.2,3068.6,7728.5,316.6,""smooth"",""right"",""right"",""good_move"",13286.6,2171.9,1820.8,11114.7,351.1,""smooth"",""up"",""up"",""good_move"",16162.3,2872.9,2473.5,13289.4,399.4,""smooth"",""up"",""up"",""good_move"",19322.8,3159.9,2829.5,16162.9,330.4,""smooth"",""up"",""up"",""good_move""]","",""
"5501","","<div style=""width:500px;"">
  <p>What determined the result of this run?</p>
  </div>","100","html-slider-response","39","1276010","0.0-10.0-1.0","165","1","2025-07-02 10:22:46","80fe4187154257d5fb01684ea91b68b9","216.120.189.148","Mozilla/5.0 (Windows NT 10.0; Win64; x64) AppleWebKit/537.36 (KHTML, like Gecko) Chrome/138.0.0.0 Safari/537.36","WebKit","Chrome","138.0.0.0","Windows","10.0","https://app.prolific.com/","en-US,en;q=0.9","663b638be7226d4e3fcc255f","683db6dfa200031b80f2a654","686507f47b03d65a9af85e91","663b638be7226d4e3fcc255f","2025-07-02T10:44:09.675Z","","","","","","AttribQ","","","","","","","","","","","","","","","","","","","","","","","","","","","","","","","","","","","","","","50"
"3989","","<div style=""width:500px;"">
  <p>How much control did you have over the ball?</p>
  </div>","100","html-slider-response","40","1280001","0.0-10.0-2.0","165","1","2025-07-02 10:22:46","80fe4187154257d5fb01684ea91b68b9","216.120.189.148","Mozilla/5.0 (Windows NT 10.0; Win64; x64) AppleWebKit/537.36 (KHTML, like Gecko) Chrome/138.0.0.0 Safari/537.36","WebKit","Chrome","138.0.0.0","Windows","10.0","https://app.prolific.com/","en-US,en;q=0.9","663b638be7226d4e3fcc255f","683db6dfa200031b80f2a654","686507f47b03d65a9af85e91","663b638be7226d4e3fcc255f","2025-07-02T10:44:13.666Z","","","","","","ControlQ","","","","","","","","","","","","","","","","","","","","","","","","","","","","","","","","","","","","","","50"
"6429","","<div style=""width:500px;"">
  <p>How would you describe your current emotional state?</p>
  </div>","0","html-slider-response","41","1286432","0.0-10.0-3.0","165","1","2025-07-02 10:22:46","80fe4187154257d5fb01684ea91b68b9","216.120.189.148","Mozilla/5.0 (Windows NT 10.0; Win64; x64) AppleWebKit/537.36 (KHTML, like Gecko) Chrome/138.0.0.0 Safari/537.36","WebKit","Chrome","138.0.0.0","Windows","10.0","https://app.prolific.com/","en-US,en;q=0.9","663b638be7226d4e3fcc255f","683db6dfa200031b80f2a654","686507f47b03d65a9af85e91","663b638be7226d4e3fcc255f","2025-07-02T10:44:20.098Z","","","","","","StressQ","","","","","","","","","","","","","","","","","","","","","","","","","","","","","","","","","","","","","","50"
"6592","","<div style=""width:500px;"">
  <p>What best describes how you currently feel?</p>
  </div>","100","html-slider-response","42","1293027","0.0-10.0-4.0","165","1","2025-07-02 10:22:46","80fe4187154257d5fb01684ea91b68b9","216.120.189.148","Mozilla/5.0 (Windows NT 10.0; Win64; x64) AppleWebKit/537.36 (KHTML, like Gecko) Chrome/138.0.0.0 Safari/537.36","WebKit","Chrome","138.0.0.0","Windows","10.0","https://app.prolific.com/","en-US,en;q=0.9","663b638be7226d4e3fcc255f","683db6dfa200031b80f2a654","686507f47b03d65a9af85e91","663b638be7226d4e3fcc255f","2025-07-02T10:44:26.692Z","","","","","","MotivationQ","","","","","","","","","","","","","","","","","","","","","","","","","","","","","","","","","","","","","","50"
"","","","","ctl-task-cpt","43","1334161","0.0-10.0-0.1","165","1","2025-07-02 10:22:46","80fe4187154257d5fb01684ea91b68b9","216.120.189.148","Mozilla/5.0 (Windows NT 10.0; Win64; x64) AppleWebKit/537.36 (KHTML, like Gecko) Chrome/138.0.0.0 Safari/537.36","WebKit","Chrome","138.0.0.0","Windows","10.0","https://app.prolific.com/","en-US,en;q=0.9","663b638be7226d4e3fcc255f","683db6dfa200031b80f2a654","686507f47b03d65a9af85e91","663b638be7226d4e3fcc255f","2025-07-02T10:45:07.826Z","","","","","","","","","","","","","","","","win-only","3","g1:SW,g2:NE","0.9","2","0","1300342.3","3645.1","8648","38126.1","1","4","4","6","2","4","2","10","8","0.07575757575757576","1617.8","3000","1010","[""up"",""right""]","{""num_key_presses"":10,""num_perfect"":7,""num_errors"":2,""num_randdir"":1,""num_randdir_good_moves"":0,""num_whilered"":0,""num_whileblue"":2,""num_blue"":3,""num_good_moves"":8}","[297.22232142857143,291.12857142857143,0.2,297.22232142857143,291.12857142857143,101,297.22232142857143,291.12857142857143,212.8,297.22232142857143,291.12857142857143,323.7,297.22232142857143,291.12857142857143,430.7,297.22232142857143,291.12857142857143,535.6,297.22232142857143,291.12857142857143,637,297.22232142857143,291.12857142857143,741.9,337.22232142857143,266.12857142857143,843.2,463.22232142857143,163.12857142857143,952.3,463.22232142857143,145.12857142857143,1059.3,483.22232142857143,131.12857142857143,1166.8,532.2223214285714,83.12857142857143,1271.5,561.2223214285714,39.128571428571426,1373.9,559.2223214285714,28.128571428571426,1476.2,559.2223214285714,28.128571428571426,1589.4,559.2223214285714,28.128571428571426,1695.8,559.2223214285714,28.128571428571426,1803.8,559.2223214285714,28.128571428571426,1909.8,559.2223214285714,28.128571428571426,2013.8,559.2223214285714,28.128571428571426,2115.4,559.2223214285714,28.128571428571426,2216.2,559.2223214285714,28.128571428571426,2316.5,565.2223214285714,71.12857142857143,2424.1,604.2223214285714,96.12857142857143,2527.4,619.2223214285714,108.12857142857143,2629.5,621.2223214285714,113.12857142857143,2736.2,621.2223214285714,113.12857142857143,2838.9,621.2223214285714,113.12857142857143,2942,621.2223214285714,113.12857142857143,3046.1,621.2223214285714,113.12857142857143,3147.4,621.2223214285714,113.12857142857143,3250.9,621.2223214285714,113.12857142857143,3355.5,621.2223214285714,113.12857142857143,3463.9,621.2223214285714,113.12857142857143,3564.4,621.2223214285714,113.12857142857143,3668,621.2223214285714,113.12857142857143,3771.7,621.2223214285714,113.12857142857143,3876.9,621.2223214285714,113.12857142857143,3982.7,621.2223214285714,113.12857142857143,4086.5,621.2223214285714,113.12857142857143,4186.8,621.2223214285714,113.12857142857143,4289.1,621.2223214285714,113.12857142857143,4392.8,621.2223214285714,113.12857142857143,4498.9,621.2223214285714,113.12857142857143,4599.6,621.2223214285714,113.12857142857143,4710.6,621.2223214285714,113.12857142857143,4811.9,621.2223214285714,113.12857142857143,4919.7]","[1361.2,1361.1,1000,0.1,361.1,""smooth"",""right"",""right"",""good_move"",3439.8,2077.6,1743.6,1362.3,333.9,""smooth"",""right"",""right"",""good_move"",6509.5,3068.5,2734.4,3441,334.1,""smooth"",""right"",""right"",""good_move"",8871.5,2360.2,1989.6,6511.3,370.6,""oops"",""up"",""left"",""bad_move"",12553.5,3680.8,3332,8872.7,348.8,""smooth"",""up"",""up"",""good_move"",15455.1,2900.6,2544.3,12554.5,356.3,""smooth"",""up"",""up"",""good_move"",17625.9,2169.9,1797.3,15456,372.6,""smooth"",""right"",""right"",""good_move"",20728.1,3101.1,2796.1,17627,305,""while_blue"",""up"",""left"",""bad_move"",26427.4,5698.5,2229,23846.9,351.5,""while_blue"",""right"",""right"",""good_move"",29362.6,2934.6,2405,26428.1,529.5,""smooth"",""up"",""up"",""good_move""]","",""
"5484","","<div style=""width:500px;"">
  <p>What determined the result of this run?</p>
  </div>","83","html-slider-response","44","1339648","0.0-10.0-1.1","165","1","2025-07-02 10:22:46","80fe4187154257d5fb01684ea91b68b9","216.120.189.148","Mozilla/5.0 (Windows NT 10.0; Win64; x64) AppleWebKit/537.36 (KHTML, like Gecko) Chrome/138.0.0.0 Safari/537.36","WebKit","Chrome","138.0.0.0","Windows","10.0","https://app.prolific.com/","en-US,en;q=0.9","663b638be7226d4e3fcc255f","683db6dfa200031b80f2a654","686507f47b03d65a9af85e91","663b638be7226d4e3fcc255f","2025-07-02T10:45:13.313Z","","","","","","AttribQ","","","","","","","","","","","","","","","","","","","","","","","","","","","","","","","","","","","","","","50"
"3942","","<div style=""width:500px;"">
  <p>How much control did you have over the ball?</p>
  </div>","77","html-slider-response","45","1343592","0.0-10.0-2.1","165","1","2025-07-02 10:22:46","80fe4187154257d5fb01684ea91b68b9","216.120.189.148","Mozilla/5.0 (Windows NT 10.0; Win64; x64) AppleWebKit/537.36 (KHTML, like Gecko) Chrome/138.0.0.0 Safari/537.36","WebKit","Chrome","138.0.0.0","Windows","10.0","https://app.prolific.com/","en-US,en;q=0.9","663b638be7226d4e3fcc255f","683db6dfa200031b80f2a654","686507f47b03d65a9af85e91","663b638be7226d4e3fcc255f","2025-07-02T10:45:17.257Z","","","","","","ControlQ","","","","","","","","","","","","","","","","","","","","","","","","","","","","","","","","","","","","","","50"
"5058","","<div style=""width:500px;"">
  <p>How would you describe your current emotional state?</p>
  </div>","0","html-slider-response","46","1348652","0.0-10.0-3.1","165","1","2025-07-02 10:22:46","80fe4187154257d5fb01684ea91b68b9","216.120.189.148","Mozilla/5.0 (Windows NT 10.0; Win64; x64) AppleWebKit/537.36 (KHTML, like Gecko) Chrome/138.0.0.0 Safari/537.36","WebKit","Chrome","138.0.0.0","Windows","10.0","https://app.prolific.com/","en-US,en;q=0.9","663b638be7226d4e3fcc255f","683db6dfa200031b80f2a654","686507f47b03d65a9af85e91","663b638be7226d4e3fcc255f","2025-07-02T10:45:22.317Z","","","","","","StressQ","","","","","","","","","","","","","","","","","","","","","","","","","","","","","","","","","","","","","","50"
"4915","","<div style=""width:500px;"">
  <p>What best describes how you currently feel?</p>
  </div>","100","html-slider-response","47","1353568","0.0-10.0-4.1","165","1","2025-07-02 10:22:46","80fe4187154257d5fb01684ea91b68b9","216.120.189.148","Mozilla/5.0 (Windows NT 10.0; Win64; x64) AppleWebKit/537.36 (KHTML, like Gecko) Chrome/138.0.0.0 Safari/537.36","WebKit","Chrome","138.0.0.0","Windows","10.0","https://app.prolific.com/","en-US,en;q=0.9","663b638be7226d4e3fcc255f","683db6dfa200031b80f2a654","686507f47b03d65a9af85e91","663b638be7226d4e3fcc255f","2025-07-02T10:45:27.233Z","","","","","","MotivationQ","","","","","","","","","","","","","","","","","","","","","","","","","","","","","","","","","","","","","","50"
"","","","","ctl-task-cpt","48","1387634","0.0-10.0-0.2","165","1","2025-07-02 10:22:46","80fe4187154257d5fb01684ea91b68b9","216.120.189.148","Mozilla/5.0 (Windows NT 10.0; Win64; x64) AppleWebKit/537.36 (KHTML, like Gecko) Chrome/138.0.0.0 Safari/537.36","WebKit","Chrome","138.0.0.0","Windows","10.0","https://app.prolific.com/","en-US,en;q=0.9","663b638be7226d4e3fcc255f","683db6dfa200031b80f2a654","686507f47b03d65a9af85e91","663b638be7226d4e3fcc255f","2025-07-02T10:46:01.299Z","","","","","","","","","","","","","","","","win-only","3","g1:SW,g2:NE","0.8","3","0","1360883.5","4098.9","9101.7","31041","1","4","8","6","2","8","8","18","10","0.13636363636363635","1627.6","3000","1110","[""up"",""right""]","{""num_key_presses"":6,""num_perfect"":6,""num_errors"":0,""num_randdir"":0,""num_randdir_good_moves"":0,""num_whilered"":0,""num_whileblue"":0,""num_blue"":2,""num_good_moves"":6}","[294.22232142857143,296.12857142857143,0.4,294.22232142857143,296.12857142857143,104.4,294.22232142857143,296.12857142857143,208.5,294.22232142857143,296.12857142857143,310.5,294.22232142857143,296.12857142857143,419.9,294.22232142857143,296.12857142857143,522.5,294.22232142857143,296.12857142857143,624,294.22232142857143,296.12857142857143,726.5,351.22232142857143,258.12857142857143,837.1,405.22232142857143,213.12857142857143,937.7,460.22232142857143,170.12857142857143,1045.8,498.22232142857143,146.12857142857143,1147.8,532.2223214285714,87.12857142857143,1255.7,546.2223214285714,49.128571428571426,1369.2,547.2223214285714,42.128571428571426,1476.1,547.2223214285714,42.128571428571426,1581.7,547.2223214285714,42.128571428571426,1681.7,547.2223214285714,42.128571428571426,1784.5,547.2223214285714,42.128571428571426,1887.7,547.2223214285714,42.128571428571426,1995.1,547.2223214285714,42.128571428571426,2105,547.2223214285714,42.128571428571426,2205.6,547.2223214285714,42.128571428571426,2309.6,547.2223214285714,42.128571428571426,2409.6,547.2223214285714,42.128571428571426,2517,547.2223214285714,42.128571428571426,2624.1,547.2223214285714,42.128571428571426,2727.9,547.2223214285714,42.128571428571426,2833.6,547.2223214285714,42.128571428571426,2936.3,547.2223214285714,42.128571428571426,3038.3,547.2223214285714,42.128571428571426,3139.2,547.2223214285714,42.128571428571426,3244.5,547.2223214285714,42.128571428571426,3351.5,547.2223214285714,42.128571428571426,3452.1,547.2223214285714,42.128571428571426,3556.6,547.2223214285714,42.128571428571426,3663,547.2223214285714,42.128571428571426,3763.9,547.2223214285714,42.128571428571426,3866.8,547.2223214285714,42.128571428571426,3967.3,547.2223214285714,42.128571428571426,4071.1,547.2223214285714,42.128571428571426,4177.8,547.2223214285714,42.128571428571426,4282.7,547.2223214285714,42.128571428571426,4385.3,547.2223214285714,42.128571428571426,4489.1,547.2223214285714,42.128571428571426,4591.2,547.2223214285714,42.128571428571426,4696,547.2223214285714,42.128571428571426,4798.2,547.2223214285714,42.128571428571426,4898.7]","[1515.6,1515.7,1000,0,515.7,""smooth"",""right"",""right"",""good_move"",5070.4,3554,3108.5,1516.5,445.4,""smooth"",""right"",""right"",""good_move"",10590.9,5519.3,1736.1,8406.9,448,""smooth"",""right"",""right"",""good_move"",13549.2,2958,2162.1,10591.2,795.9,""smooth"",""up"",""up"",""good_move"",15298.9,1748.2,1301.6,13550.8,446.6,""smooth"",""up"",""up"",""good_move"",21783.7,6483.9,2665.3,18713.6,404.8,""smooth"",""up"",""up"",""good_move""]","",""
"3714","","<div style=""width:500px;"">
  <p>What determined the result of this run?</p>
  </div>","100","html-slider-response","49","1391351","0.0-10.0-1.2","165","1","2025-07-02 10:22:46","80fe4187154257d5fb01684ea91b68b9","216.120.189.148","Mozilla/5.0 (Windows NT 10.0; Win64; x64) AppleWebKit/537.36 (KHTML, like Gecko) Chrome/138.0.0.0 Safari/537.36","WebKit","Chrome","138.0.0.0","Windows","10.0","https://app.prolific.com/","en-US,en;q=0.9","663b638be7226d4e3fcc255f","683db6dfa200031b80f2a654","686507f47b03d65a9af85e91","663b638be7226d4e3fcc255f","2025-07-02T10:46:05.017Z","","","","","","AttribQ","","","","","","","","","","","","","","","","","","","","","","","","","","","","","","","","","","","","","","50"
"3522","","<div style=""width:500px;"">
  <p>How much control did you have over the ball?</p>
  </div>","100","html-slider-response","50","1394875","0.0-10.0-2.2","165","1","2025-07-02 10:22:46","80fe4187154257d5fb01684ea91b68b9","216.120.189.148","Mozilla/5.0 (Windows NT 10.0; Win64; x64) AppleWebKit/537.36 (KHTML, like Gecko) Chrome/138.0.0.0 Safari/537.36","WebKit","Chrome","138.0.0.0","Windows","10.0","https://app.prolific.com/","en-US,en;q=0.9","663b638be7226d4e3fcc255f","683db6dfa200031b80f2a654","686507f47b03d65a9af85e91","663b638be7226d4e3fcc255f","2025-07-02T10:46:08.540Z","","","","","","ControlQ","","","","","","","","","","","","","","","","","","","","","","","","","","","","","","","","","","","","","","50"
"4583","","<div style=""width:500px;"">
  <p>How would you describe your current emotional state?</p>
  </div>","0","html-slider-response","51","1399460","0.0-10.0-3.2","165","1","2025-07-02 10:22:46","80fe4187154257d5fb01684ea91b68b9","216.120.189.148","Mozilla/5.0 (Windows NT 10.0; Win64; x64) AppleWebKit/537.36 (KHTML, like Gecko) Chrome/138.0.0.0 Safari/537.36","WebKit","Chrome","138.0.0.0","Windows","10.0","https://app.prolific.com/","en-US,en;q=0.9","663b638be7226d4e3fcc255f","683db6dfa200031b80f2a654","686507f47b03d65a9af85e91","663b638be7226d4e3fcc255f","2025-07-02T10:46:13.125Z","","","","","","StressQ","","","","","","","","","","","","","","","","","","","","","","","","","","","","","","","","","","","","","","50"
"4205","","<div style=""width:500px;"">
  <p>What best describes how you currently feel?</p>
  </div>","100","html-slider-response","52","1403667","0.0-10.0-4.2","165","1","2025-07-02 10:22:46","80fe4187154257d5fb01684ea91b68b9","216.120.189.148","Mozilla/5.0 (Windows NT 10.0; Win64; x64) AppleWebKit/537.36 (KHTML, like Gecko) Chrome/138.0.0.0 Safari/537.36","WebKit","Chrome","138.0.0.0","Windows","10.0","https://app.prolific.com/","en-US,en;q=0.9","663b638be7226d4e3fcc255f","683db6dfa200031b80f2a654","686507f47b03d65a9af85e91","663b638be7226d4e3fcc255f","2025-07-02T10:46:17.332Z","","","","","","MotivationQ","","","","","","","","","","","","","","","","","","","","","","","","","","","","","","","","","","","","","","50"
"","","","","ctl-task-cpt","53","1434676","0.0-10.0-0.3","165","1","2025-07-02 10:22:46","80fe4187154257d5fb01684ea91b68b9","216.120.189.148","Mozilla/5.0 (Windows NT 10.0; Win64; x64) AppleWebKit/537.36 (KHTML, like Gecko) Chrome/138.0.0.0 Safari/537.36","WebKit","Chrome","138.0.0.0","Windows","10.0","https://app.prolific.com/","en-US,en;q=0.9","663b638be7226d4e3fcc255f","683db6dfa200031b80f2a654","686507f47b03d65a9af85e91","663b638be7226d4e3fcc255f","2025-07-02T10:46:48.341Z","","","","","","","","","","","","","","","","win-only","1","g1:NE,g2:SW","0.7","4","0","1410983","2658.4","7659.6","27998.6","1","4","4","6","2","4","4","22","18","0.16666666666666666","1610.3","3000","1365","[""down"",""left""]","{""num_key_presses"":6,""num_perfect"":4,""num_errors"":0,""num_randdir"":2,""num_randdir_good_moves"":2,""num_whilered"":0,""num_whileblue"":0,""num_blue"":1,""num_good_moves"":6}","[292.22232142857143,304.12857142857143,1.4,292.22232142857143,304.12857142857143,101.9,292.22232142857143,304.12857142857143,204.9,292.22232142857143,304.12857142857143,305.8,292.22232142857143,304.12857142857143,408.6,292.22232142857143,304.12857142857143,510.9,292.22232142857143,304.12857142857143,617.1,271.22232142857143,313.12857142857143,720.4,187.22232142857143,369.12857142857143,828,68.22232142857143,475.12857142857143,932.9,39.222321428571426,507.12857142857143,1034.5,35.222321428571426,517.1285714285714,1140.5,59.222321428571426,542.1285714285714,1245,65.22232142857143,543.1285714285714,1346,65.22232142857143,543.1285714285714,1452.8,65.22232142857143,543.1285714285714,1564.3,65.22232142857143,543.1285714285714,1664.9,65.22232142857143,543.1285714285714,1768.8,65.22232142857143,543.1285714285714,1872.3,65.22232142857143,543.1285714285714,1979.5,65.22232142857143,543.1285714285714,2087,65.22232142857143,543.1285714285714,2188.7,65.22232142857143,543.1285714285714,2296.5,65.22232142857143,543.1285714285714,2401,65.22232142857143,543.1285714285714,2506.1,65.22232142857143,543.1285714285714,2615.4,65.22232142857143,543.1285714285714,2724.5,65.22232142857143,543.1285714285714,2838.8,65.22232142857143,543.1285714285714,2947.8,29.222321428571426,519.1285714285714,3052.5,-17.777678571428574,492.12857142857143,3154.8,-57.777678571428574,453.12857142857143,3255.7,-62.777678571428574,450.12857142857143,3359.3,-62.777678571428574,450.12857142857143,3464.5,-62.777678571428574,450.12857142857143,3565.3,-62.777678571428574,450.12857142857143,3669.7,-62.777678571428574,450.12857142857143,3783.6,-62.777678571428574,450.12857142857143,3888,-62.777678571428574,450.12857142857143,3993.4,-62.777678571428574,450.12857142857143,4102.6,-62.777678571428574,450.12857142857143,4202.6,-62.777678571428574,450.12857142857143,4305.2,-62.777678571428574,450.12857142857143,4408.5,-62.777678571428574,450.12857142857143,4514.3,-62.777678571428574,450.12857142857143,4621.7,-62.777678571428574,450.12857142857143,4722,-62.777678571428574,450.12857142857143,4824.1,-62.777678571428574,450.12857142857143,4934.5]","[1443.6,1443.6,1000,0,443.6,""smooth"",""down"",""down"",""good_move"",4419.5,2975.5,2545.2,1444.1,430.3,""smooth"",""down"",""down"",""good_move"",6731.2,2310.9,1863.1,4420.4,447.8,""oops"",""left"",""left"",""good_move"",13544.5,6811.9,2738.3,10421.5,384.7,""oops"",""left"",""down"",""good_move"",16660.4,3115.6,2662.5,13544.9,453,""smooth"",""left"",""left"",""good_move"",20187.2,3525.3,3062.6,16661.9,462.8,""smooth"",""left"",""left"",""good_move""]","",""
"4297","","<div style=""width:500px;"">
  <p>What determined the result of this run?</p>
  </div>","100","html-slider-response","54","1438975","0.0-10.0-1.3","165","1","2025-07-02 10:22:46","80fe4187154257d5fb01684ea91b68b9","216.120.189.148","Mozilla/5.0 (Windows NT 10.0; Win64; x64) AppleWebKit/537.36 (KHTML, like Gecko) Chrome/138.0.0.0 Safari/537.36","WebKit","Chrome","138.0.0.0","Windows","10.0","https://app.prolific.com/","en-US,en;q=0.9","663b638be7226d4e3fcc255f","683db6dfa200031b80f2a654","686507f47b03d65a9af85e91","663b638be7226d4e3fcc255f","2025-07-02T10:46:52.641Z","","","","","","AttribQ","","","","","","","","","","","","","","","","","","","","","","","","","","","","","","","","","","","","","","50"
"4687","","<div style=""width:500px;"">
  <p>How much control did you have over the ball?</p>
  </div>","95","html-slider-response","55","1443665","0.0-10.0-2.3","165","1","2025-07-02 10:22:46","80fe4187154257d5fb01684ea91b68b9","216.120.189.148","Mozilla/5.0 (Windows NT 10.0; Win64; x64) AppleWebKit/537.36 (KHTML, like Gecko) Chrome/138.0.0.0 Safari/537.36","WebKit","Chrome","138.0.0.0","Windows","10.0","https://app.prolific.com/","en-US,en;q=0.9","663b638be7226d4e3fcc255f","683db6dfa200031b80f2a654","686507f47b03d65a9af85e91","663b638be7226d4e3fcc255f","2025-07-02T10:46:57.330Z","","","","","","ControlQ","","","","","","","","","","","","","","","","","","","","","","","","","","","","","","","","","","","","","","50"
"4063","","<div style=""width:500px;"">
  <p>How would you describe your current emotional state?</p>
  </div>","0","html-slider-response","56","1447730","0.0-10.0-3.3","165","1","2025-07-02 10:22:46","80fe4187154257d5fb01684ea91b68b9","216.120.189.148","Mozilla/5.0 (Windows NT 10.0; Win64; x64) AppleWebKit/537.36 (KHTML, like Gecko) Chrome/138.0.0.0 Safari/537.36","WebKit","Chrome","138.0.0.0","Windows","10.0","https://app.prolific.com/","en-US,en;q=0.9","663b638be7226d4e3fcc255f","683db6dfa200031b80f2a654","686507f47b03d65a9af85e91","663b638be7226d4e3fcc255f","2025-07-02T10:47:01.395Z","","","","","","StressQ","","","","","","","","","","","","","","","","","","","","","","","","","","","","","","","","","","","","","","50"
"3550","","<div style=""width:500px;"">
  <p>What best describes how you currently feel?</p>
  </div>","100","html-slider-response","57","1451282","0.0-10.0-4.3","165","1","2025-07-02 10:22:46","80fe4187154257d5fb01684ea91b68b9","216.120.189.148","Mozilla/5.0 (Windows NT 10.0; Win64; x64) AppleWebKit/537.36 (KHTML, like Gecko) Chrome/138.0.0.0 Safari/537.36","WebKit","Chrome","138.0.0.0","Windows","10.0","https://app.prolific.com/","en-US,en;q=0.9","663b638be7226d4e3fcc255f","683db6dfa200031b80f2a654","686507f47b03d65a9af85e91","663b638be7226d4e3fcc255f","2025-07-02T10:47:04.947Z","","","","","","MotivationQ","","","","","","","","","","","","","","","","","","","","","","","","","","","","","","","","","","","","","","50"
"","","","","ctl-task-cpt","58","1498694","0.0-10.0-0.4","165","1","2025-07-02 10:22:46","80fe4187154257d5fb01684ea91b68b9","216.120.189.148","Mozilla/5.0 (Windows NT 10.0; Win64; x64) AppleWebKit/537.36 (KHTML, like Gecko) Chrome/138.0.0.0 Safari/537.36","WebKit","Chrome","138.0.0.0","Windows","10.0","https://app.prolific.com/","en-US,en;q=0.9","663b638be7226d4e3fcc255f","683db6dfa200031b80f2a654","686507f47b03d65a9af85e91","663b638be7226d4e3fcc255f","2025-07-02T10:47:52.360Z","","","","","","","","","","","","","","","","win-only","3","g1:SW,g2:NE","0.6","5","0","1458596.7","2571.7","7572.1","44397","1","4","8","6","2","-8","-9","13","22","0.09848484848484848","1763.6","3000","-2085","[""up"",""right""]","{""num_key_presses"":11,""num_perfect"":6,""num_errors"":1,""num_randdir"":4,""num_randdir_good_moves"":1,""num_whilered"":0,""num_whileblue"":1,""num_blue"":2,""num_good_moves"":7}","[296.22232142857143,300.12857142857143,0.4,296.22232142857143,300.12857142857143,103.8,296.22232142857143,300.12857142857143,207.9,296.22232142857143,300.12857142857143,308.8,296.22232142857143,300.12857142857143,413.3,296.22232142857143,300.12857142857143,516,296.22232142857143,300.12857142857143,618.4,318.22232142857143,278.12857142857143,726.4,456.22232142857143,114.12857142857143,836.3,474.22232142857143,104.12857142857143,938.1,474.22232142857143,104.12857142857143,1040.1,474.22232142857143,104.12857142857143,1143.5,497.22232142857143,95.12857142857143,1248,499.22232142857143,93.12857142857143,1349.7,515.2223214285714,71.12857142857143,1451.4,532.2223214285714,68.12857142857143,1559.6,532.2223214285714,68.12857142857143,1663.2,532.2223214285714,68.12857142857143,1790.4,532.2223214285714,68.12857142857143,1900.4,532.2223214285714,68.12857142857143,2009.1,532.2223214285714,68.12857142857143,2109.8,532.2223214285714,68.12857142857143,2211.5,532.2223214285714,68.12857142857143,2320,532.2223214285714,68.12857142857143,2431.4,532.2223214285714,68.12857142857143,2538.1,532.2223214285714,68.12857142857143,2642.7,537.2223214285714,70.12857142857143,2744.2,634.2223214285714,71.12857142857143,2844.9,643.2223214285714,69.12857142857143,2951.5,643.2223214285714,69.12857142857143,3054.4,643.2223214285714,69.12857142857143,3160.6,643.2223214285714,69.12857142857143,3266.1,643.2223214285714,69.12857142857143,3370.2,643.2223214285714,69.12857142857143,3474.5,643.2223214285714,69.12857142857143,3583.8,643.2223214285714,69.12857142857143,3687.3,643.2223214285714,69.12857142857143,3792.3,643.2223214285714,69.12857142857143,3892.7,643.2223214285714,69.12857142857143,4001.9,643.2223214285714,69.12857142857143,4107.6,643.2223214285714,69.12857142857143,4209,643.2223214285714,69.12857142857143,4316.9,643.2223214285714,69.12857142857143,4418.4,643.2223214285714,69.12857142857143,4521,643.2223214285714,69.12857142857143,4629.1,643.2223214285714,69.12857142857143,4732.7,643.2223214285714,69.12857142857143,4837.2,643.2223214285714,69.12857142857143,4943.2]","[1420.4,1420.4,1000,0,420.4,""oops"",""right"",""down"",""bad_move"",4294.8,2872.6,2397.3,1422.4,475.1,""smooth"",""right"",""right"",""good_move"",6880.6,2585.1,2118.4,4295.5,466.7,""smooth"",""right"",""right"",""good_move"",13385.7,6504.4,2371.9,10607.4,406.4,""oops"",""up"",""left"",""bad_move"",16403.2,3016.6,2543.3,13386.6,473.3,""smooth"",""up"",""up"",""good_move"",19823.7,3419.8,2980.2,16403.9,439.6,""smooth"",""up"",""up"",""good_move"",22073.4,2248,1716.3,19825.4,531.7,""smooth"",""right"",""right"",""good_move"",25680.5,3606,3253,22074.5,353,""smooth"",""up"",""up"",""good_move"",28644.1,2962.9,2593.4,25681.2,369.5,""oops"",""right"",""left"",""bad_move"",31637.4,2992.5,2664.3,28644.9,328.2,""oops"",""right"",""up"",""good_move"",34496.7,2858.4,2584.2,31638.3,274.2,""while_blue"",""right"",""left"",""bad_move""]","",""
"6592","","<div style=""width:500px;"">
  <p>What determined the result of this run?</p>
  </div>","28","html-slider-response","59","1505289","0.0-10.0-1.4","165","1","2025-07-02 10:22:46","80fe4187154257d5fb01684ea91b68b9","216.120.189.148","Mozilla/5.0 (Windows NT 10.0; Win64; x64) AppleWebKit/537.36 (KHTML, like Gecko) Chrome/138.0.0.0 Safari/537.36","WebKit","Chrome","138.0.0.0","Windows","10.0","https://app.prolific.com/","en-US,en;q=0.9","663b638be7226d4e3fcc255f","683db6dfa200031b80f2a654","686507f47b03d65a9af85e91","663b638be7226d4e3fcc255f","2025-07-02T10:47:58.954Z","","","","","","AttribQ","","","","","","","","","","","","","","","","","","","","","","","","","","","","","","","","","","","","","","50"
"4110","","<div style=""width:500px;"">
  <p>How much control did you have over the ball?</p>
  </div>","26","html-slider-response","60","1509402","0.0-10.0-2.4","165","1","2025-07-02 10:22:46","80fe4187154257d5fb01684ea91b68b9","216.120.189.148","Mozilla/5.0 (Windows NT 10.0; Win64; x64) AppleWebKit/537.36 (KHTML, like Gecko) Chrome/138.0.0.0 Safari/537.36","WebKit","Chrome","138.0.0.0","Windows","10.0","https://app.prolific.com/","en-US,en;q=0.9","663b638be7226d4e3fcc255f","683db6dfa200031b80f2a654","686507f47b03d65a9af85e91","663b638be7226d4e3fcc255f","2025-07-02T10:48:03.068Z","","","","","","ControlQ","","","","","","","","","","","","","","","","","","","","","","","","","","","","","","","","","","","","","","50"
"4271","","<div style=""width:500px;"">
  <p>How would you describe your current emotional state?</p>
  </div>","0","html-slider-response","61","1513687","0.0-10.0-3.4","165","1","2025-07-02 10:22:46","80fe4187154257d5fb01684ea91b68b9","216.120.189.148","Mozilla/5.0 (Windows NT 10.0; Win64; x64) AppleWebKit/537.36 (KHTML, like Gecko) Chrome/138.0.0.0 Safari/537.36","WebKit","Chrome","138.0.0.0","Windows","10.0","https://app.prolific.com/","en-US,en;q=0.9","663b638be7226d4e3fcc255f","683db6dfa200031b80f2a654","686507f47b03d65a9af85e91","663b638be7226d4e3fcc255f","2025-07-02T10:48:07.352Z","","","","","","StressQ","","","","","","","","","","","","","","","","","","","","","","","","","","","","","","","","","","","","","","50"
"4376","","<div style=""width:500px;"">
  <p>What best describes how you currently feel?</p>
  </div>","100","html-slider-response","62","1518065","0.0-10.0-4.4","165","1","2025-07-02 10:22:46","80fe4187154257d5fb01684ea91b68b9","216.120.189.148","Mozilla/5.0 (Windows NT 10.0; Win64; x64) AppleWebKit/537.36 (KHTML, like Gecko) Chrome/138.0.0.0 Safari/537.36","WebKit","Chrome","138.0.0.0","Windows","10.0","https://app.prolific.com/","en-US,en;q=0.9","663b638be7226d4e3fcc255f","683db6dfa200031b80f2a654","686507f47b03d65a9af85e91","663b638be7226d4e3fcc255f","2025-07-02T10:48:11.730Z","","","","","","MotivationQ","","","","","","","","","","","","","","","","","","","","","","","","","","","","","","","","","","","","","","50"
"","","","","ctl-task-cpt","63","1555542","0.0-10.0-0.5","165","1","2025-07-02 10:22:46","80fe4187154257d5fb01684ea91b68b9","216.120.189.148","Mozilla/5.0 (Windows NT 10.0; Win64; x64) AppleWebKit/537.36 (KHTML, like Gecko) Chrome/138.0.0.0 Safari/537.36","WebKit","Chrome","138.0.0.0","Windows","10.0","https://app.prolific.com/","en-US,en;q=0.9","663b638be7226d4e3fcc255f","683db6dfa200031b80f2a654","686507f47b03d65a9af85e91","663b638be7226d4e3fcc255f","2025-07-02T10:48:49.207Z","","","","","","","","","","","","","","","","win-only","3","g1:SW,g2:NE","0.5","6","0","1525378.5","1587.1","6591.4","34450.6","1","4","4","6","2","4","4","17","13","0.12878787878787878","1501.5","3000","1100","[""up"",""right""]","{""num_key_presses"":8,""num_perfect"":5,""num_errors"":0,""num_randdir"":3,""num_randdir_good_moves"":2,""num_whilered"":0,""num_whileblue"":0,""num_blue"":2,""num_good_moves"":7}","[295.22232142857143,301.12857142857143,0.4,295.22232142857143,301.12857142857143,102.5,295.22232142857143,301.12857142857143,209.3,295.22232142857143,301.12857142857143,314.1,295.22232142857143,301.12857142857143,419.3,295.22232142857143,301.12857142857143,519.3,295.22232142857143,301.12857142857143,630.7,295.22232142857143,301.12857142857143,736.3,444.22232142857143,180.12857142857143,839,456.22232142857143,172.12857142857143,939.7,520.2223214285714,121.12857142857143,1046.2,538.2223214285714,71.12857142857143,1153.8,545.2223214285714,58.128571428571426,1254.1,543.2223214285714,58.128571428571426,1364.5,543.2223214285714,58.128571428571426,1466,543.2223214285714,58.128571428571426,1573.4,543.2223214285714,58.128571428571426,1689,543.2223214285714,58.128571428571426,1808.2,543.2223214285714,58.128571428571426,1913.5,543.2223214285714,58.128571428571426,2013.5,543.2223214285714,58.128571428571426,2114.2,543.2223214285714,58.128571428571426,2218.2,543.2223214285714,58.128571428571426,2324.3,543.2223214285714,58.128571428571426,2432.9,543.2223214285714,58.128571428571426,2538.9,543.2223214285714,58.128571428571426,2639.8,543.2223214285714,58.128571428571426,2743.8,543.2223214285714,58.128571428571426,2853.5,543.2223214285714,58.128571428571426,2958.2,543.2223214285714,58.128571428571426,3065.2,543.2223214285714,58.128571428571426,3170.8,543.2223214285714,58.128571428571426,3275.4,543.2223214285714,58.128571428571426,3376.8,543.2223214285714,58.128571428571426,3478.2,543.2223214285714,58.128571428571426,3586.7,543.2223214285714,58.128571428571426,3691.8,543.2223214285714,58.128571428571426,3793.5,543.2223214285714,58.128571428571426,3894.3,543.2223214285714,58.128571428571426,3998.1,543.2223214285714,58.128571428571426,4102.1,543.2223214285714,58.128571428571426,4207.5,543.2223214285714,58.128571428571426,4309,543.2223214285714,58.128571428571426,4410.9,543.2223214285714,58.128571428571426,4511.7,543.2223214285714,58.128571428571426,4622,543.2223214285714,58.128571428571426,4729.4,543.2223214285714,58.128571428571426,4835.7,543.2223214285714,58.128571428571426,4941.7]","[1428.4,1428.4,1000,0,428.4,""oops"",""right"",""right"",""good_move"",4237.8,2806.6,2477,1431.2,329.6,""smooth"",""right"",""right"",""good_move"",6876.6,2638.3,2251.8,4238.3,386.5,""oops"",""up"",""down"",""bad_move"",10019.1,3141.7,2733.5,6877.4,408.2,""smooth"",""up"",""up"",""good_move"",16628.4,6608.5,2386.4,13738.2,503.8,""smooth"",""up"",""up"",""good_move"",18378.4,1749.7,1301.7,16628.7,448,""smooth"",""up"",""up"",""good_move"",20729.1,2350.5,1974.1,18378.7,376.4,""smooth"",""right"",""right"",""good_move"",27735.3,7005.3,2559.2,24803.9,372.2,""oops"",""up"",""up"",""good_move""]","",""
"4178","","<div style=""width:500px;"">
  <p>What determined the result of this run?</p>
  </div>","94","html-slider-response","64","1559724","0.0-10.0-1.5","165","1","2025-07-02 10:22:46","80fe4187154257d5fb01684ea91b68b9","216.120.189.148","Mozilla/5.0 (Windows NT 10.0; Win64; x64) AppleWebKit/537.36 (KHTML, like Gecko) Chrome/138.0.0.0 Safari/537.36","WebKit","Chrome","138.0.0.0","Windows","10.0","https://app.prolific.com/","en-US,en;q=0.9","663b638be7226d4e3fcc255f","683db6dfa200031b80f2a654","686507f47b03d65a9af85e91","663b638be7226d4e3fcc255f","2025-07-02T10:48:53.389Z","","","","","","AttribQ","","","","","","","","","","","","","","","","","","","","","","","","","","","","","","","","","","","","","","50"
"6966","","<div style=""width:500px;"">
  <p>How much control did you have over the ball?</p>
  </div>","92","html-slider-response","65","1566692","0.0-10.0-2.5","165","1","2025-07-02 10:22:46","80fe4187154257d5fb01684ea91b68b9","216.120.189.148","Mozilla/5.0 (Windows NT 10.0; Win64; x64) AppleWebKit/537.36 (KHTML, like Gecko) Chrome/138.0.0.0 Safari/537.36","WebKit","Chrome","138.0.0.0","Windows","10.0","https://app.prolific.com/","en-US,en;q=0.9","663b638be7226d4e3fcc255f","683db6dfa200031b80f2a654","686507f47b03d65a9af85e91","663b638be7226d4e3fcc255f","2025-07-02T10:49:00.357Z","","","","","","ControlQ","","","","","","","","","","","","","","","","","","","","","","","","","","","","","","","","","","","","","","50"
"3229","","<div style=""width:500px;"">
  <p>How would you describe your current emotional state?</p>
  </div>","0","html-slider-response","66","1569922","0.0-10.0-3.5","165","1","2025-07-02 10:22:46","80fe4187154257d5fb01684ea91b68b9","216.120.189.148","Mozilla/5.0 (Windows NT 10.0; Win64; x64) AppleWebKit/537.36 (KHTML, like Gecko) Chrome/138.0.0.0 Safari/537.36","WebKit","Chrome","138.0.0.0","Windows","10.0","https://app.prolific.com/","en-US,en;q=0.9","663b638be7226d4e3fcc255f","683db6dfa200031b80f2a654","686507f47b03d65a9af85e91","663b638be7226d4e3fcc255f","2025-07-02T10:49:03.588Z","","","","","","StressQ","","","","","","","","","","","","","","","","","","","","","","","","","","","","","","","","","","","","","","50"
"4202","","<div style=""width:500px;"">
  <p>What best describes how you currently feel?</p>
  </div>","100","html-slider-response","67","1574125","0.0-10.0-4.5","165","1","2025-07-02 10:22:46","80fe4187154257d5fb01684ea91b68b9","216.120.189.148","Mozilla/5.0 (Windows NT 10.0; Win64; x64) AppleWebKit/537.36 (KHTML, like Gecko) Chrome/138.0.0.0 Safari/537.36","WebKit","Chrome","138.0.0.0","Windows","10.0","https://app.prolific.com/","en-US,en;q=0.9","663b638be7226d4e3fcc255f","683db6dfa200031b80f2a654","686507f47b03d65a9af85e91","663b638be7226d4e3fcc255f","2025-07-02T10:49:07.791Z","","","","","","MotivationQ","","","","","","","","","","","","","","","","","","","","","","","","","","","","","","","","","","","","","","50"
"","","","","ctl-task-cpt","68","1600014","0.0-10.0-0.6","165","1","2025-07-02 10:22:46","80fe4187154257d5fb01684ea91b68b9","216.120.189.148","Mozilla/5.0 (Windows NT 10.0; Win64; x64) AppleWebKit/537.36 (KHTML, like Gecko) Chrome/138.0.0.0 Safari/537.36","WebKit","Chrome","138.0.0.0","Windows","10.0","https://app.prolific.com/","en-US,en;q=0.9","663b638be7226d4e3fcc255f","683db6dfa200031b80f2a654","686507f47b03d65a9af85e91","663b638be7226d4e3fcc255f","2025-07-02T10:49:33.679Z","","","","","","","","","","","","","","","","win-only","1","g1:NE,g2:SW","0.4","7","0","1581439.5","1369.6","6376.8","22875.1","1","4","4","6","2","4","4","21","17","0.1590909090909091","1936.1","3000","1550","[""down"",""left""]","{""num_key_presses"":6,""num_perfect"":3,""num_errors"":0,""num_randdir"":3,""num_randdir_good_moves"":3,""num_whilered"":0,""num_whileblue"":0,""num_blue"":0,""num_good_moves"":6}","[298.22232142857143,295.12857142857143,0.4,298.22232142857143,295.12857142857143,103.7,298.22232142857143,295.12857142857143,205.3,298.22232142857143,295.12857142857143,308.6,298.22232142857143,295.12857142857143,412.4,298.22232142857143,295.12857142857143,514.4,298.22232142857143,295.12857142857143,617.7,298.22232142857143,295.12857142857143,722.8,298.22232142857143,295.12857142857143,832.5,277.22232142857143,313.12857142857143,936.1,171.22232142857143,417.12857142857143,1037.1,107.22232142857143,479.12857142857143,1137.9,107.22232142857143,479.12857142857143,1247.3,107.22232142857143,479.12857142857143,1358.8,101.22232142857143,490.12857142857143,1459,96.22232142857143,499.12857142857143,1561.1,85.22232142857143,509.12857142857143,1665.5,74.22232142857143,515.1285714285714,1766.8,74.22232142857143,515.1285714285714,1871.2,74.22232142857143,515.1285714285714,1972.8,74.22232142857143,515.1285714285714,2087.6,74.22232142857143,515.1285714285714,2200.1,74.22232142857143,515.1285714285714,2303.4,74.22232142857143,515.1285714285714,2406.9,74.22232142857143,515.1285714285714,2518.4,22.222321428571426,528.1285714285714,2626.5,-55.777678571428574,524.1285714285714,2732.2,-92.77767857142857,499.12857142857143,2838.2,-89.77767857142857,482.12857142857143,2946.1,-89.77767857142857,481.12857142857143,3047.2,-89.77767857142857,481.12857142857143,3154.3,-89.77767857142857,481.12857142857143,3258.8,-89.77767857142857,481.12857142857143,3363.2,-89.77767857142857,481.12857142857143,3468.9,-89.77767857142857,481.12857142857143,3570.2,-89.77767857142857,481.12857142857143,3670.2,-89.77767857142857,481.12857142857143,3770.2,-89.77767857142857,481.12857142857143,3870.9,-89.77767857142857,481.12857142857143,3976.4,-89.77767857142857,481.12857142857143,4082.8,-89.77767857142857,481.12857142857143,4185.2,-89.77767857142857,481.12857142857143,4288.4,-89.77767857142857,481.12857142857143,4392.1,-89.77767857142857,481.12857142857143,4493.9,-89.77767857142857,481.12857142857143,4604.7,-89.77767857142857,481.12857142857143,4707.8,-89.77767857142857,481.12857142857143,4814.7,-89.77767857142857,481.12857142857143,4924.9]","[1428.9,1428.9,1000,0,428.9,""oops"",""down"",""down"",""good_move"",4558.2,3128.6,2733.8,1429.6,394.8,""oops"",""down"",""left"",""good_move"",7602.1,3043,2604.6,4559.1,438.4,""oops"",""down"",""down"",""good_move"",10050.4,2447.7,2020.5,7602.7,427.2,""smooth"",""left"",""left"",""good_move"",13122.2,3070.5,2661.1,10051.7,409.4,""smooth"",""left"",""left"",""good_move"",16282.9,3160.3,2789.8,13122.7,370.5,""smooth"",""down"",""down"",""good_move""]","",""
"4401","","<div style=""width:500px;"">
  <p>What determined the result of this run?</p>
  </div>","97","html-slider-response","69","1604417","0.0-10.0-1.6","165","1","2025-07-02 10:22:46","80fe4187154257d5fb01684ea91b68b9","216.120.189.148","Mozilla/5.0 (Windows NT 10.0; Win64; x64) AppleWebKit/537.36 (KHTML, like Gecko) Chrome/138.0.0.0 Safari/537.36","WebKit","Chrome","138.0.0.0","Windows","10.0","https://app.prolific.com/","en-US,en;q=0.9","663b638be7226d4e3fcc255f","683db6dfa200031b80f2a654","686507f47b03d65a9af85e91","663b638be7226d4e3fcc255f","2025-07-02T10:49:38.082Z","","","","","","AttribQ","","","","","","","","","","","","","","","","","","","","","","","","","","","","","","","","","","","","","","50"
"4494","","<div style=""width:500px;"">
  <p>How much control did you have over the ball?</p>
  </div>","97","html-slider-response","70","1608912","0.0-10.0-2.6","165","1","2025-07-02 10:22:46","80fe4187154257d5fb01684ea91b68b9","216.120.189.148","Mozilla/5.0 (Windows NT 10.0; Win64; x64) AppleWebKit/537.36 (KHTML, like Gecko) Chrome/138.0.0.0 Safari/537.36","WebKit","Chrome","138.0.0.0","Windows","10.0","https://app.prolific.com/","en-US,en;q=0.9","663b638be7226d4e3fcc255f","683db6dfa200031b80f2a654","686507f47b03d65a9af85e91","663b638be7226d4e3fcc255f","2025-07-02T10:49:42.578Z","","","","","","ControlQ","","","","","","","","","","","","","","","","","","","","","","","","","","","","","","","","","","","","","","50"
"4791","","<div style=""width:500px;"">
  <p>How would you describe your current emotional state?</p>
  </div>","0","html-slider-response","71","1613704","0.0-10.0-3.6","165","1","2025-07-02 10:22:46","80fe4187154257d5fb01684ea91b68b9","216.120.189.148","Mozilla/5.0 (Windows NT 10.0; Win64; x64) AppleWebKit/537.36 (KHTML, like Gecko) Chrome/138.0.0.0 Safari/537.36","WebKit","Chrome","138.0.0.0","Windows","10.0","https://app.prolific.com/","en-US,en;q=0.9","663b638be7226d4e3fcc255f","683db6dfa200031b80f2a654","686507f47b03d65a9af85e91","663b638be7226d4e3fcc255f","2025-07-02T10:49:47.369Z","","","","","","StressQ","","","","","","","","","","","","","","","","","","","","","","","","","","","","","","","","","","","","","","50"
"4370","","<div style=""width:500px;"">
  <p>What best describes how you currently feel?</p>
  </div>","100","html-slider-response","72","1618076","0.0-10.0-4.6","165","1","2025-07-02 10:22:46","80fe4187154257d5fb01684ea91b68b9","216.120.189.148","Mozilla/5.0 (Windows NT 10.0; Win64; x64) AppleWebKit/537.36 (KHTML, like Gecko) Chrome/138.0.0.0 Safari/537.36","WebKit","Chrome","138.0.0.0","Windows","10.0","https://app.prolific.com/","en-US,en;q=0.9","663b638be7226d4e3fcc255f","683db6dfa200031b80f2a654","686507f47b03d65a9af85e91","663b638be7226d4e3fcc255f","2025-07-02T10:49:51.742Z","","","","","","MotivationQ","","","","","","","","","","","","","","","","","","","","","","","","","","","","","","","","","","","","","","50"
"","","","","ctl-task-cpt","73","1670639","0.0-10.0-0.7","165","1","2025-07-02 10:22:46","80fe4187154257d5fb01684ea91b68b9","216.120.189.148","Mozilla/5.0 (Windows NT 10.0; Win64; x64) AppleWebKit/537.36 (KHTML, like Gecko) Chrome/138.0.0.0 Safari/537.36","WebKit","Chrome","138.0.0.0","Windows","10.0","https://app.prolific.com/","en-US,en;q=0.9","663b638be7226d4e3fcc255f","683db6dfa200031b80f2a654","686507f47b03d65a9af85e91","663b638be7226d4e3fcc255f","2025-07-02T10:50:44.305Z","","","","","","","","","","","","","","","","win-only","3","g1:SW,g2:NE","0.3","8","0","1625397.6","1511.3","6521.1","49525.4","1","4","8","6","2","8","7","28","21","0.21212121212121213","1579.2","3000","60","[""up"",""right""]","{""num_key_presses"":16,""num_perfect"":6,""num_errors"":1,""num_randdir"":9,""num_randdir_good_moves"":4,""num_whilered"":0,""num_whileblue"":1,""num_blue"":1,""num_good_moves"":11}","[297.22232142857143,300.12857142857143,0.8,297.22232142857143,300.12857142857143,110.5,297.22232142857143,300.12857142857143,236.5,297.22232142857143,300.12857142857143,340.7,297.22232142857143,300.12857142857143,443.9,297.22232142857143,300.12857142857143,544.9,297.22232142857143,300.12857142857143,645.4,297.22232142857143,300.12857142857143,752.8,354.22232142857143,259.12857142857143,864.4,437.22232142857143,185.12857142857143,968,490.22232142857143,135.12857142857143,1073.2,502.22232142857143,98.12857142857143,1173.3,504.22232142857143,83.12857142857143,1282.7,514.2223214285714,75.12857142857143,1383.8,514.2223214285714,75.12857142857143,1485.2,514.2223214285714,75.12857142857143,1605.8,514.2223214285714,75.12857142857143,1707.1,514.2223214285714,75.12857142857143,1809.7,514.2223214285714,75.12857142857143,1913,514.2223214285714,75.12857142857143,2018.4,585.2223214285714,65.12857142857143,2122.4,670.2223214285714,73.12857142857143,2223.6,701.2223214285714,72.12857142857143,2327.9,701.2223214285714,72.12857142857143,2433.6,701.2223214285714,72.12857142857143,2550.2,701.2223214285714,72.12857142857143,2659.8,701.2223214285714,72.12857142857143,2762.5,701.2223214285714,72.12857142857143,2864.7,701.2223214285714,72.12857142857143,2965.2,701.2223214285714,72.12857142857143,3067.6,701.2223214285714,72.12857142857143,3178.4,701.2223214285714,72.12857142857143,3284,701.2223214285714,72.12857142857143,3390.2,701.2223214285714,72.12857142857143,3492.3,701.2223214285714,72.12857142857143,3595.4,701.2223214285714,72.12857142857143,3696.8,701.2223214285714,72.12857142857143,3801.9,701.2223214285714,72.12857142857143,3907.7,701.2223214285714,72.12857142857143,4010.8,701.2223214285714,72.12857142857143,4118,701.2223214285714,72.12857142857143,4218.7,701.2223214285714,72.12857142857143,4324.1,701.2223214285714,72.12857142857143,4425.1,701.2223214285714,72.12857142857143,4530.3,701.2223214285714,72.12857142857143,4633.1,701.2223214285714,72.12857142857143,4734.6,701.2223214285714,72.12857142857143,4835.5,701.2223214285714,72.12857142857143,4943.9]","[1327.3,1327.3,1000,0,327.3,""oops"",""right"",""right"",""good_move"",3826.9,2497.4,2132.9,1329.5,364.5,""smooth"",""right"",""right"",""good_move"",6156,2327.7,1956.4,3828.4,371.3,""oops"",""up"",""left"",""bad_move"",8797.3,2640.4,2201.1,6156.9,439.3,""smooth"",""up"",""up"",""good_move"",11564,2766.1,2357.1,8798,409,""oops"",""up"",""right"",""good_move"",14768.6,3204.1,2807.9,11564.5,396.2,""smooth"",""up"",""up"",""good_move"",17413.8,2644.1,2256.1,14769.7,388,""oops"",""up"",""left"",""bad_move"",20593.8,3178.9,2788.4,17414.9,390.5,""oops"",""up"",""left"",""bad_move"",23370.9,2775.4,2479.2,20595.5,296.2,""oops"",""right"",""right"",""good_move"",26043.4,2671.5,2329.2,23371.9,342.3,""oops"",""right"",""left"",""bad_move"",28806.8,2762.9,2409.4,26043.9,353.5,""oops"",""right"",""left"",""bad_move"",31899.7,3092.6,2722.2,28807.1,370.4,""smooth"",""up"",""up"",""good_move"",34789.9,2889.5,2623.1,31900.4,266.5,""while_blue"",""right"",""right"",""good_move"",37633.8,2843.3,2472.3,34790.5,371,""smooth"",""right"",""right"",""good_move"",39900,2265.7,1936.1,37634.3,329.6,""oops"",""right"",""right"",""good_move"",42639.8,2739.4,2421.4,39900.4,318.1,""smooth"",""right"",""right"",""good_move""]","",""
"3557","","<div style=""width:500px;"">
  <p>What determined the result of this run?</p>
  </div>","82","html-slider-response","74","1674199","0.0-10.0-1.7","165","1","2025-07-02 10:22:46","80fe4187154257d5fb01684ea91b68b9","216.120.189.148","Mozilla/5.0 (Windows NT 10.0; Win64; x64) AppleWebKit/537.36 (KHTML, like Gecko) Chrome/138.0.0.0 Safari/537.36","WebKit","Chrome","138.0.0.0","Windows","10.0","https://app.prolific.com/","en-US,en;q=0.9","663b638be7226d4e3fcc255f","683db6dfa200031b80f2a654","686507f47b03d65a9af85e91","663b638be7226d4e3fcc255f","2025-07-02T10:50:47.864Z","","","","","","AttribQ","","","","","","","","","","","","","","","","","","","","","","","","","","","","","","","","","","","","","","50"
"6178","","<div style=""width:500px;"">
  <p>How much control did you have over the ball?</p>
  </div>","69","html-slider-response","75","1680381","0.0-10.0-2.7","165","1","2025-07-02 10:22:46","80fe4187154257d5fb01684ea91b68b9","216.120.189.148","Mozilla/5.0 (Windows NT 10.0; Win64; x64) AppleWebKit/537.36 (KHTML, like Gecko) Chrome/138.0.0.0 Safari/537.36","WebKit","Chrome","138.0.0.0","Windows","10.0","https://app.prolific.com/","en-US,en;q=0.9","663b638be7226d4e3fcc255f","683db6dfa200031b80f2a654","686507f47b03d65a9af85e91","663b638be7226d4e3fcc255f","2025-07-02T10:50:54.047Z","","","","","","ControlQ","","","","","","","","","","","","","","","","","","","","","","","","","","","","","","","","","","","","","","50"
"5963","","<div style=""width:500px;"">
  <p>How would you describe your current emotional state?</p>
  </div>","0","html-slider-response","76","1686349","0.0-10.0-3.7","165","1","2025-07-02 10:22:46","80fe4187154257d5fb01684ea91b68b9","216.120.189.148","Mozilla/5.0 (Windows NT 10.0; Win64; x64) AppleWebKit/537.36 (KHTML, like Gecko) Chrome/138.0.0.0 Safari/537.36","WebKit","Chrome","138.0.0.0","Windows","10.0","https://app.prolific.com/","en-US,en;q=0.9","663b638be7226d4e3fcc255f","683db6dfa200031b80f2a654","686507f47b03d65a9af85e91","663b638be7226d4e3fcc255f","2025-07-02T10:51:00.014Z","","","","","","StressQ","","","","","","","","","","","","","","","","","","","","","","","","","","","","","","","","","","","","","","50"
"3560","","<div style=""width:500px;"">
  <p>What best describes how you currently feel?</p>
  </div>","100","html-slider-response","77","1689912","0.0-10.0-4.7","165","1","2025-07-02 10:22:46","80fe4187154257d5fb01684ea91b68b9","216.120.189.148","Mozilla/5.0 (Windows NT 10.0; Win64; x64) AppleWebKit/537.36 (KHTML, like Gecko) Chrome/138.0.0.0 Safari/537.36","WebKit","Chrome","138.0.0.0","Windows","10.0","https://app.prolific.com/","en-US,en;q=0.9","663b638be7226d4e3fcc255f","683db6dfa200031b80f2a654","686507f47b03d65a9af85e91","663b638be7226d4e3fcc255f","2025-07-02T10:51:03.577Z","","","","","","MotivationQ","","","","","","","","","","","","","","","","","","","","","","","","","","","","","","","","","","","","","","50"
"","","","","ctl-task-cpt","78","1723861","0.0-10.0-0.8","165","1","2025-07-02 10:22:46","80fe4187154257d5fb01684ea91b68b9","216.120.189.148","Mozilla/5.0 (Windows NT 10.0; Win64; x64) AppleWebKit/537.36 (KHTML, like Gecko) Chrome/138.0.0.0 Safari/537.36","WebKit","Chrome","138.0.0.0","Windows","10.0","https://app.prolific.com/","en-US,en;q=0.9","663b638be7226d4e3fcc255f","683db6dfa200031b80f2a654","686507f47b03d65a9af85e91","663b638be7226d4e3fcc255f","2025-07-02T10:51:37.527Z","","","","","","","","","","","","","","","","win-only","1","g1:NE,g2:SW","0.4","9","0","1697226.8","2555","7570.2","30929.6","1","4","4","6","2","4","4","32","28","0.24242424242424243","2356.9","3000","2495","[""down"",""left""]","{""num_key_presses"":6,""num_perfect"":4,""num_errors"":0,""num_randdir"":2,""num_randdir_good_moves"":2,""num_whilered"":0,""num_whileblue"":0,""num_blue"":0,""num_good_moves"":6}","[297.22232142857143,294.12857142857143,0.2,297.22232142857143,294.12857142857143,113.1,297.22232142857143,294.12857142857143,235.5,297.22232142857143,294.12857142857143,355.7,297.22232142857143,294.12857142857143,470.3,297.22232142857143,294.12857142857143,581.3,253.22232142857143,316.12857142857143,683.8,66.22232142857143,413.12857142857143,808,-50.777678571428574,491.12857142857143,927.9,-50.777678571428574,491.12857142857143,1034.8,-50.777678571428574,491.12857142857143,1152,-22.777678571428574,496.12857142857143,1274.7,-15.777678571428574,506.12857142857143,1396.7,-8.777678571428574,527.1285714285714,1520.2,-5.777678571428574,530.1285714285714,1637.6,-5.777678571428574,530.1285714285714,1739.5,-5.777678571428574,530.1285714285714,1855.7,-5.777678571428574,530.1285714285714,1956.6,32.222321428571426,531.1285714285714,2059,33.222321428571426,531.1285714285714,2183,33.222321428571426,531.1285714285714,2297.2,33.222321428571426,531.1285714285714,2421,33.222321428571426,531.1285714285714,2536.5,33.222321428571426,531.1285714285714,2652.6,33.222321428571426,531.1285714285714,2766.4,-29.777678571428574,524.1285714285714,2867.9,-58.777678571428574,523.1285714285714,2974.9,-94.77767857142857,525.1285714285714,3077.9,-103.77767857142857,525.1285714285714,3197.9,-103.77767857142857,525.1285714285714,3309.8,-103.77767857142857,525.1285714285714,3423,-103.77767857142857,525.1285714285714,3533.3,-103.77767857142857,525.1285714285714,3644.5,-103.77767857142857,525.1285714285714,3756,-103.77767857142857,525.1285714285714,3868.4,-103.77767857142857,525.1285714285714,3993.5,-103.77767857142857,525.1285714285714,4103.6,-103.77767857142857,525.1285714285714,4220.9,-103.77767857142857,525.1285714285714,4337,-103.77767857142857,525.1285714285714,4456.5,-103.77767857142857,525.1285714285714,4564.9,-103.77767857142857,525.1285714285714,4674.6,-103.77767857142857,525.1285714285714,4788.3,-103.77767857142857,525.1285714285714,4904.1]","[1412.2,1412.2,1000,0,412.2,""oops"",""down"",""down"",""good_move"",4334.3,2921.4,2555.4,1412.9,366,""smooth"",""down"",""down"",""good_move"",7460.1,3125.4,2710.2,4334.8,415.2,""smooth"",""left"",""left"",""good_move"",13931.8,6471.2,2523.6,7460.7,3947.6,""smooth"",""left"",""left"",""good_move"",20632.6,6700.1,2687,13932.7,4012.9,""oops"",""left"",""down"",""good_move"",23239.2,2606.3,2231.4,20632.9,374.9,""smooth"",""left"",""left"",""good_move""]","",""
"5542","","<div style=""width:500px;"">
  <p>What determined the result of this run?</p>
  </div>","93","html-slider-response","79","1729408","0.0-10.0-1.8","165","1","2025-07-02 10:22:46","80fe4187154257d5fb01684ea91b68b9","216.120.189.148","Mozilla/5.0 (Windows NT 10.0; Win64; x64) AppleWebKit/537.36 (KHTML, like Gecko) Chrome/138.0.0.0 Safari/537.36","WebKit","Chrome","138.0.0.0","Windows","10.0","https://app.prolific.com/","en-US,en;q=0.9","663b638be7226d4e3fcc255f","683db6dfa200031b80f2a654","686507f47b03d65a9af85e91","663b638be7226d4e3fcc255f","2025-07-02T10:51:43.074Z","","","","","","AttribQ","","","","","","","","","","","","","","","","","","","","","","","","","","","","","","","","","","","","","","50"
"4351","","<div style=""width:500px;"">
  <p>How much control did you have over the ball?</p>
  </div>","93","html-slider-response","80","1733762","0.0-10.0-2.8","165","1","2025-07-02 10:22:46","80fe4187154257d5fb01684ea91b68b9","216.120.189.148","Mozilla/5.0 (Windows NT 10.0; Win64; x64) AppleWebKit/537.36 (KHTML, like Gecko) Chrome/138.0.0.0 Safari/537.36","WebKit","Chrome","138.0.0.0","Windows","10.0","https://app.prolific.com/","en-US,en;q=0.9","663b638be7226d4e3fcc255f","683db6dfa200031b80f2a654","686507f47b03d65a9af85e91","663b638be7226d4e3fcc255f","2025-07-02T10:51:47.427Z","","","","","","ControlQ","","","","","","","","","","","","","","","","","","","","","","","","","","","","","","","","","","","","","","50"
"4334","","<div style=""width:500px;"">
  <p>How would you describe your current emotional state?</p>
  </div>","0","html-slider-response","81","1738097","0.0-10.0-3.8","165","1","2025-07-02 10:22:46","80fe4187154257d5fb01684ea91b68b9","216.120.189.148","Mozilla/5.0 (Windows NT 10.0; Win64; x64) AppleWebKit/537.36 (KHTML, like Gecko) Chrome/138.0.0.0 Safari/537.36","WebKit","Chrome","138.0.0.0","Windows","10.0","https://app.prolific.com/","en-US,en;q=0.9","663b638be7226d4e3fcc255f","683db6dfa200031b80f2a654","686507f47b03d65a9af85e91","663b638be7226d4e3fcc255f","2025-07-02T10:51:51.763Z","","","","","","StressQ","","","","","","","","","","","","","","","","","","","","","","","","","","","","","","","","","","","","","","50"
"4433","","<div style=""width:500px;"">
  <p>What best describes how you currently feel?</p>
  </div>","100","html-slider-response","82","1742532","0.0-10.0-4.8","165","1","2025-07-02 10:22:46","80fe4187154257d5fb01684ea91b68b9","216.120.189.148","Mozilla/5.0 (Windows NT 10.0; Win64; x64) AppleWebKit/537.36 (KHTML, like Gecko) Chrome/138.0.0.0 Safari/537.36","WebKit","Chrome","138.0.0.0","Windows","10.0","https://app.prolific.com/","en-US,en;q=0.9","663b638be7226d4e3fcc255f","683db6dfa200031b80f2a654","686507f47b03d65a9af85e91","663b638be7226d4e3fcc255f","2025-07-02T10:51:56.198Z","","","","","","MotivationQ","","","","","","","","","","","","","","","","","","","","","","","","","","","","","","","","","","","","","","50"
