"rt","response_timestamp","stimulus","response","trial_type","trial_index","time_elapsed","internal_node_id","run_id","condition","recorded_at","source_code_version","ip","user_agent","device","browser","browser_version","platform","platform_version","referer","accept_language","PROLIFIC_PID","STUDY_ID","SESSION_ID","prolific_id","realtime","view_history","question_order","consent","success","question_id","eventType","responses","item_order","radio_event_ids","radio_event_times","key_event_times","mouse_event_times","straightlining","zigzagging","honeypot","which_type","canvas_config","goals_layout","control_level","trial_number","tutorial_trial_number","trial_start_time","phase1_start_time","phase2_start_time","phase3_start_time","goal_1_value","goal_1_distance","goal_2_value","goal_2_distance","goal_selected","outcome","outcome_total","participant_final_score","participant_initial_score","participant_final_score_prop","goal_choice_rt","allocated_time","allocated_time_remaining","goal_direction","counts","mouse_movements","key_presses","correct","slider_start"
"21967","1751451524788","<p style='font-size:40px;line-height:1.25'><strong>Welcome to the experiment!</strong></p><p style='font-size:1.1em;line-height:1.25'>Thank you for your interest in our experiment! Before you begin, it is important that we obtain your informed consent to participate in the study.</p><p style='font-size:1.1em;line-height:1.25'>On the next screen will be an <strong>information sheet</strong> for you to read. To participate in the study we need you to read this information sheet and the following consent form carefully. If you agree with all the statements, please click the <strong>I agree</strong> button.</p><p style='font-size:1.1em;line-height:1.25'>Press <strong>Next</strong> to read the information sheet.</p>","0","custom-html-button-response","0","21968","0.0-0.0","10","1","2025-07-02 10:18:21","80fe4187154257d5fb01684ea91b68b9","2.217.27.245","Mozilla/5.0 (Macintosh; Intel Mac OS X 10_15_7) AppleWebKit/537.36 (KHTML, like Gecko) Chrome/137.0.0.0 Safari/537.36","Macintosh","Chrome","137.0.0.0","OS X","10_15_7","https://app.prolific.com/","en-GB,en-US;q=0.9,en;q=0.8","663ba5be68b9831a7ee50cfc","683db6dfa200031b80f2a654","6865075745da4c7fde57a47a","663ba5be68b9831a7ee50cfc","2025-07-02T10:18:44.790Z","","","","","","","","","","","","","","","","","","","","","","","","","","","","","","","","","","","","","","","","","","","",""
"107643","","","","instructions","1","129614","0.0-1.0","10","1","2025-07-02 10:18:21","80fe4187154257d5fb01684ea91b68b9","2.217.27.245","Mozilla/5.0 (Macintosh; Intel Mac OS X 10_15_7) AppleWebKit/537.36 (KHTML, like Gecko) Chrome/137.0.0.0 Safari/537.36","Macintosh","Chrome","137.0.0.0","OS X","10_15_7","https://app.prolific.com/","en-GB,en-US;q=0.9,en;q=0.8","663ba5be68b9831a7ee50cfc","683db6dfa200031b80f2a654","6865075745da4c7fde57a47a","663ba5be68b9831a7ee50cfc","","[{""page_index"":0,""viewing_time"":104084},{""page_index"":1,""viewing_time"":3558}]","","","","","","","","","","","","","","","","","","","","","","","","","","","","","","","","","","","","","","","","","","",""
"4678","","","{""Q0"":"""",""Q1"":"""",""Q2"":"""",""Q3"":"""",""Q4"":"""",""Q5"":"""",""Q6"":""I agree""}","survey-multi-choice","2","134295","0.0-2.0","10","1","2025-07-02 10:18:21","80fe4187154257d5fb01684ea91b68b9","2.217.27.245","Mozilla/5.0 (Macintosh; Intel Mac OS X 10_15_7) AppleWebKit/537.36 (KHTML, like Gecko) Chrome/137.0.0.0 Safari/537.36","Macintosh","Chrome","137.0.0.0","OS X","10_15_7","https://app.prolific.com/","en-GB,en-US;q=0.9,en;q=0.8","663ba5be68b9831a7ee50cfc","683db6dfa200031b80f2a654","6865075745da4c7fde57a47a","663ba5be68b9831a7ee50cfc","","","[0,1,2,3,4,5,6]","true","","","","","","","","","","","","","","","","","","","","","","","","","","","","","","","","","","","","","","","","",""
"17889","","","","fullscreen","3","153188","0.0-4.0","10","1","2025-07-02 10:18:21","80fe4187154257d5fb01684ea91b68b9","2.217.27.245","Mozilla/5.0 (Macintosh; Intel Mac OS X 10_15_7) AppleWebKit/537.36 (KHTML, like Gecko) Chrome/137.0.0.0 Safari/537.36","Macintosh","Chrome","137.0.0.0","OS X","10_15_7","https://app.prolific.com/","en-GB,en-US;q=0.9,en;q=0.8","663ba5be68b9831a7ee50cfc","683db6dfa200031b80f2a654","6865075745da4c7fde57a47a","663ba5be68b9831a7ee50cfc","","","","","true","","","","","","","","","","","","","","","","","","","","","","","","","","","","","","","","","","","","","","","",""
"4331","1751451660342"," <p style='font-size:1.1em;line-height:1.25'>Thank you for completing the consent form and closing all other tabs.</p><p style='font-size:1.1em;line-height:1.25'>We will now invite you to fill in some demographic information and questionnaires, before starting the game.<br>This will take about 5 minutes.<br></p><p style='font-size:1.1em;line-height:1.25'>Press the <strong>Next</strong> button to continue.</p>","0","custom-html-button-response","4","157521","0.0-5.0","10","1","2025-07-02 10:18:21","80fe4187154257d5fb01684ea91b68b9","2.217.27.245","Mozilla/5.0 (Macintosh; Intel Mac OS X 10_15_7) AppleWebKit/537.36 (KHTML, like Gecko) Chrome/137.0.0.0 Safari/537.36","Macintosh","Chrome","137.0.0.0","OS X","10_15_7","https://app.prolific.com/","en-GB,en-US;q=0.9,en;q=0.8","663ba5be68b9831a7ee50cfc","683db6dfa200031b80f2a654","6865075745da4c7fde57a47a","663ba5be68b9831a7ee50cfc","2025-07-02T10:21:00.343Z","","","","","","","","","","","","","","","","","","","","","","","","","","","","","","","","","","","","","","","","","","","",""
"3167","","","{""age"":""35""}","survey-text","5","160692","0.0-6.0-0.0","10","1","2025-07-02 10:18:21","80fe4187154257d5fb01684ea91b68b9","2.217.27.245","Mozilla/5.0 (Macintosh; Intel Mac OS X 10_15_7) AppleWebKit/537.36 (KHTML, like Gecko) Chrome/137.0.0.0 Safari/537.36","Macintosh","Chrome","137.0.0.0","OS X","10_15_7","https://app.prolific.com/","en-GB,en-US;q=0.9,en;q=0.8","663ba5be68b9831a7ee50cfc","683db6dfa200031b80f2a654","6865075745da4c7fde57a47a","663ba5be68b9831a7ee50cfc","","","","","","0","demographics","","","","","","","","","","","","","","","","","","","","","","","","","","","","","","","","","","","","","",""
"2465","","","{""gender_identity"":""female/woman""}","survey-multi-choice","6","163158","0.0-6.0-1.0","10","1","2025-07-02 10:18:21","80fe4187154257d5fb01684ea91b68b9","2.217.27.245","Mozilla/5.0 (Macintosh; Intel Mac OS X 10_15_7) AppleWebKit/537.36 (KHTML, like Gecko) Chrome/137.0.0.0 Safari/537.36","Macintosh","Chrome","137.0.0.0","OS X","10_15_7","https://app.prolific.com/","en-GB,en-US;q=0.9,en;q=0.8","663ba5be68b9831a7ee50cfc","683db6dfa200031b80f2a654","6865075745da4c7fde57a47a","663ba5be68b9831a7ee50cfc","","","[0]","","","1","demographics","","","","","","","","","","","","","","","","","","","","","","","","","","","","","","","","","","","","","",""
"2919","","","{""assigned_sex"":""female""}","survey-multi-choice","7","166078","0.0-6.0-2.0","10","1","2025-07-02 10:18:21","80fe4187154257d5fb01684ea91b68b9","2.217.27.245","Mozilla/5.0 (Macintosh; Intel Mac OS X 10_15_7) AppleWebKit/537.36 (KHTML, like Gecko) Chrome/137.0.0.0 Safari/537.36","Macintosh","Chrome","137.0.0.0","OS X","10_15_7","https://app.prolific.com/","en-GB,en-US;q=0.9,en;q=0.8","663ba5be68b9831a7ee50cfc","683db6dfa200031b80f2a654","6865075745da4c7fde57a47a","663ba5be68b9831a7ee50cfc","","","[0]","","","2","demographics","","","","","","","","","","","","","","","","","","","","","","","","","","","","","","","","","","","","","",""
"2415","","","{""menstrual_cycle"":""Yes""}","survey-multi-choice","8","168494","0.0-6.0-3.0","10","1","2025-07-02 10:18:21","80fe4187154257d5fb01684ea91b68b9","2.217.27.245","Mozilla/5.0 (Macintosh; Intel Mac OS X 10_15_7) AppleWebKit/537.36 (KHTML, like Gecko) Chrome/137.0.0.0 Safari/537.36","Macintosh","Chrome","137.0.0.0","OS X","10_15_7","https://app.prolific.com/","en-GB,en-US;q=0.9,en;q=0.8","663ba5be68b9831a7ee50cfc","683db6dfa200031b80f2a654","6865075745da4c7fde57a47a","663ba5be68b9831a7ee50cfc","","","[0]","","","4","demographics","","","","","","","","","","","","","","","","","","","","","","","","","","","","","","","","","","","","","",""
"10876","","","{""education"":""A-level/National Diploma/Highers""}","survey-multi-choice","9","179370","0.0-6.0-4.0","10","1","2025-07-02 10:18:21","80fe4187154257d5fb01684ea91b68b9","2.217.27.245","Mozilla/5.0 (Macintosh; Intel Mac OS X 10_15_7) AppleWebKit/537.36 (KHTML, like Gecko) Chrome/137.0.0.0 Safari/537.36","Macintosh","Chrome","137.0.0.0","OS X","10_15_7","https://app.prolific.com/","en-GB,en-US;q=0.9,en;q=0.8","663ba5be68b9831a7ee50cfc","683db6dfa200031b80f2a654","6865075745da4c7fde57a47a","663ba5be68b9831a7ee50cfc","","","[0]","","","5","demographics","","","","","","","","","","","","","","","","","","","","","","","","","","","","","","","","","","","","","",""
"4478","","","{""education"":""Bachelor's Degree (e.g., BA)""}","survey-multi-choice","10","183849","0.0-6.0-5.0","10","1","2025-07-02 10:18:21","80fe4187154257d5fb01684ea91b68b9","2.217.27.245","Mozilla/5.0 (Macintosh; Intel Mac OS X 10_15_7) AppleWebKit/537.36 (KHTML, like Gecko) Chrome/137.0.0.0 Safari/537.36","Macintosh","Chrome","137.0.0.0","OS X","10_15_7","https://app.prolific.com/","en-GB,en-US;q=0.9,en;q=0.8","663ba5be68b9831a7ee50cfc","683db6dfa200031b80f2a654","6865075745da4c7fde57a47a","663ba5be68b9831a7ee50cfc","2025-07-02T10:21:26.671Z","","[0]","","","6","demographics","","","","","","","","","","","","","","","","","","","","","","","","","","","","","","","","","","","","","",""
"57261","","","{""mental_health_condition"":""ADHD (and autism if that counts?)"",""mental_health_treatment"":""lisdexamfetamine for ADHD"",""psychiatric_medication"":""lisdexamfetamine 70mg daily""}","survey-text","11","241113","0.0-7.0-0.0","10","1","2025-07-02 10:18:21","80fe4187154257d5fb01684ea91b68b9","2.217.27.245","Mozilla/5.0 (Macintosh; Intel Mac OS X 10_15_7) AppleWebKit/537.36 (KHTML, like Gecko) Chrome/137.0.0.0 Safari/537.36","Macintosh","Chrome","137.0.0.0","OS X","10_15_7","https://app.prolific.com/","en-GB,en-US;q=0.9,en;q=0.8","663ba5be68b9831a7ee50cfc","683db6dfa200031b80f2a654","6865075745da4c7fde57a47a","663ba5be68b9831a7ee50cfc","2025-07-02T10:22:23.934Z","","","","","1","mental_health","","","","","","","","","","","","","","","","","","","","","","","","","","","","","","","","","","","","","",""
"5455","","","{""depression_history"":[""Yes""]}","survey-multi-select","12","246571","0.0-7.0-1.0","10","1","2025-07-02 10:18:21","80fe4187154257d5fb01684ea91b68b9","2.217.27.245","Mozilla/5.0 (Macintosh; Intel Mac OS X 10_15_7) AppleWebKit/537.36 (KHTML, like Gecko) Chrome/137.0.0.0 Safari/537.36","Macintosh","Chrome","137.0.0.0","OS X","10_15_7","https://app.prolific.com/","en-GB,en-US;q=0.9,en;q=0.8","663ba5be68b9831a7ee50cfc","683db6dfa200031b80f2a654","6865075745da4c7fde57a47a","663ba5be68b9831a7ee50cfc","","","[0]","","","","mental_health","","","","","","","","","","","","","","","","","","","","","","","","","","","","","","","","","","","","","",""
"13574","","","{""depression_episodes"":""3-5"",""depression_recent"":""Within the past year""}","survey-multi-choice","13","260147","0.0-7.0-2.0-0.0","10","1","2025-07-02 10:18:21","80fe4187154257d5fb01684ea91b68b9","2.217.27.245","Mozilla/5.0 (Macintosh; Intel Mac OS X 10_15_7) AppleWebKit/537.36 (KHTML, like Gecko) Chrome/137.0.0.0 Safari/537.36","Macintosh","Chrome","137.0.0.0","OS X","10_15_7","https://app.prolific.com/","en-GB,en-US;q=0.9,en;q=0.8","663ba5be68b9831a7ee50cfc","683db6dfa200031b80f2a654","6865075745da4c7fde57a47a","663ba5be68b9831a7ee50cfc","2025-07-02T10:22:42.968Z","","[0,1]","","","3","mental_health","","","","","","","","","","","","","","","","","","","","","","","","","","","","","","","","","","","","","",""
"52791.80000001192","","","","survey-template","14","312943","0.0-7.0-3.0","10","1","2025-07-02 10:18:21","80fe4187154257d5fb01684ea91b68b9","2.217.27.245","Mozilla/5.0 (Macintosh; Intel Mac OS X 10_15_7) AppleWebKit/537.36 (KHTML, like Gecko) Chrome/137.0.0.0 Safari/537.36","Macintosh","Chrome","137.0.0.0","OS X","10_15_7","https://app.prolific.com/","en-GB,en-US;q=0.9,en;q=0.8","663ba5be68b9831a7ee50cfc","683db6dfa200031b80f2a654","6865075745da4c7fde57a47a","663ba5be68b9831a7ee50cfc","2025-07-02T10:23:35.764Z","","","","","","ius","{""Q01"":""2"",""Q02"":""4"",""Q03"":""2"",""Q04"":""3"",""Q05"":""2"",""Q06"":""3"",""Q07"":""4"",""Q08"":""0"",""Q09"":""4"",""Q10"":""2"",""Q11"":""4"",""Q12"":""3"",""Q13"":""2""}","[0,1,2,3,4,5,6,7,8,9,10,11,12]","[""Q01"",""Q02"",""Q03"",""Q04"",""Q05"",""Q06"",""Q07"",""Q08"",""Q09"",""Q10"",""Q11"",""Q12"",""Q13""]","[9481.200000017881,13587.300000011921,18082.40000000596,21963.09999999404,26475.70000001788,29894.40000000596,32845.40000000596,36240.90000000596,39467.09999999404,42182,45481.40000000596,48861,51965.80000001192]","[]","[9481.200000017881,13587.300000011921,18082.40000000596,21963.09999999404,26475.70000001788,29894.40000000596,32845.40000000596,36240.90000000596,39467.09999999404,42182,45481.40000000596,48861,51965.80000001192,52790]","0.38461538461538464","0.6666666666666666","0","","","","","","","","","","","","","","","","","","","","","","","","","","","","",""
"1986","1751451817750","<p style='font-size:1.1em;line-height:1.25'>In the following, we will ask you a few questions relating to your experiences over the past month.<br></p><p style='font-size:1.1em;line-height:1.25'>Press the <strong>Next</strong> button to continue.</p>","0","custom-html-button-response","15","314929","0.0-7.0-4.0","10","1","2025-07-02 10:18:21","80fe4187154257d5fb01684ea91b68b9","2.217.27.245","Mozilla/5.0 (Macintosh; Intel Mac OS X 10_15_7) AppleWebKit/537.36 (KHTML, like Gecko) Chrome/137.0.0.0 Safari/537.36","Macintosh","Chrome","137.0.0.0","OS X","10_15_7","https://app.prolific.com/","en-GB,en-US;q=0.9,en;q=0.8","663ba5be68b9831a7ee50cfc","683db6dfa200031b80f2a654","6865075745da4c7fde57a47a","663ba5be68b9831a7ee50cfc","2025-07-02T10:23:37.751Z","","","","","","","","","","","","","","","","","","","","","","","","","","","","","","","","","","","","","","","","","","","",""
"56018.90000000596","","","","survey-template","16","370951","0.0-7.0-5.0","10","1","2025-07-02 10:18:21","80fe4187154257d5fb01684ea91b68b9","2.217.27.245","Mozilla/5.0 (Macintosh; Intel Mac OS X 10_15_7) AppleWebKit/537.36 (KHTML, like Gecko) Chrome/137.0.0.0 Safari/537.36","Macintosh","Chrome","137.0.0.0","OS X","10_15_7","https://app.prolific.com/","en-GB,en-US;q=0.9,en;q=0.8","663ba5be68b9831a7ee50cfc","683db6dfa200031b80f2a654","6865075745da4c7fde57a47a","663ba5be68b9831a7ee50cfc","2025-07-02T10:24:33.772Z","","","","","","pss","{""Q01"":""2"",""Q02"":""1"",""Q03"":""2"",""Q04"":""2"",""Q05"":""2"",""Q06"":""3"",""Q07"":""1"",""Q08"":""2"",""Q09"":""2"",""Q10"":""1""}","[0,1,2,3,4,5,6,7,8,9]","[""Q01"",""Q02"",""Q03"",""Q03"",""Q04"",""Q05"",""Q06"",""Q07"",""Q08"",""Q09"",""Q10""]","[6619.0999999940395,16469.69999998808,19525.80000001192,21328.5,25039.30000001192,30469.5,33978.90000000596,39734.90000000596,45677.19999998808,50819.90000000596,55225.09999999404]","[]","[0,6619.0999999940395,16469.69999998808,19525.80000001192,21328.5,25039.30000001192,30469.5,33978.90000000596,39734.90000000596,45677.19999998808,50819.90000000596,55225.09999999404,56017.5]","0.6","0.5555555555555556","0","","","","","","","","","","","","","","","","","","","","","","","","","","","","",""
"2009","1751451875783","<p style='font-size:1.1em;line-height:1.25'>Thank you for your answers! Now we will ask you a few more questions relating to your feelings in the last 24 hours.<br></p><p style='font-size:1.1em;line-height:1.25'>Press the <strong>Next</strong> button to continue.</p>","0","custom-html-button-response","17","372962","0.0-7.0-6.0","10","1","2025-07-02 10:18:21","80fe4187154257d5fb01684ea91b68b9","2.217.27.245","Mozilla/5.0 (Macintosh; Intel Mac OS X 10_15_7) AppleWebKit/537.36 (KHTML, like Gecko) Chrome/137.0.0.0 Safari/537.36","Macintosh","Chrome","137.0.0.0","OS X","10_15_7","https://app.prolific.com/","en-GB,en-US;q=0.9,en;q=0.8","663ba5be68b9831a7ee50cfc","683db6dfa200031b80f2a654","6865075745da4c7fde57a47a","663ba5be68b9831a7ee50cfc","2025-07-02T10:24:35.783Z","","","","","","","","","","","","","","","","","","","","","","","","","","","","","","","","","","","","","","","","","","","",""
"77879","","","","survey-template","18","450844","0.0-7.0-7.0","10","1","2025-07-02 10:18:21","80fe4187154257d5fb01684ea91b68b9","2.217.27.245","Mozilla/5.0 (Macintosh; Intel Mac OS X 10_15_7) AppleWebKit/537.36 (KHTML, like Gecko) Chrome/137.0.0.0 Safari/537.36","Macintosh","Chrome","137.0.0.0","OS X","10_15_7","https://app.prolific.com/","en-GB,en-US;q=0.9,en;q=0.8","663ba5be68b9831a7ee50cfc","683db6dfa200031b80f2a654","6865075745da4c7fde57a47a","663ba5be68b9831a7ee50cfc","2025-07-02T10:25:53.666Z","","","","","","drsp","{""Q01"":""0"",""Q02"":""0"",""Q03"":""0"",""Q04"":""3"",""Q05"":""1"",""Q06"":""2"",""Q07"":""2"",""Q08"":""1"",""Q09"":""0"",""Q10"":""0"",""Q11"":""2"",""Q12"":""3"",""Q13"":""3"",""Q14"":""3"",""Q15"":""0"",""Q16"":""3"",""Q17"":""0"",""Q18"":""2"",""Q19"":""1"",""Q20"":""1"",""Q21"":""1""}","[0,1,2,3,4,5,6,7,8,9,10,11,12,13,14,15,16,17,18,19,20]","[""Q01"",""Q02"",""Q03"",""Q04"",""Q05"",""Q06"",""Q07"",""Q07"",""Q08"",""Q09"",""Q10"",""Q11"",""Q12"",""Q13"",""Q14"",""Q14"",""Q15"",""Q16"",""Q17"",""Q18"",""Q19"",""Q20"",""Q20"",""Q21""]","[4000.300000011921,5495.700000017881,6360.700000017881,9384.300000011921,12504.90000000596,17905.100000023842,20549,22935.40000000596,26402.5,28464.20000001788,30461,32829.90000000596,35093.80000001192,37495.20000001788,40340.70000001788,43744.80000001192,48126.70000001788,52791.60000002384,55006.80000001192,61562.30000001192,69710.90000000596,72492.30000001192,73770.60000002384,76898]","[]","[0,4000.300000011921,5495.700000017881,6360.700000017881,9384.300000011921,12504.90000000596,17905.100000023842,20549,22935.40000000596,26402.5,28464.20000001788,30461,32829.90000000596,35093.80000001192,37495.20000001788,40340.70000001788,43744.80000001192,48126.70000001788,52791.60000002384,55006.80000001192,61562.30000001192,69710.90000000596,72492.30000001192,73770.60000002384,76898,77876.40000000596]","0.3333333333333333","0.25","0","","","","","","","","","","","","","","","","","","","","","","","","","","","","",""
"12380.299999982119","","","","survey-template","19","463226","0.0-7.0-8.0","10","1","2025-07-02 10:18:21","80fe4187154257d5fb01684ea91b68b9","2.217.27.245","Mozilla/5.0 (Macintosh; Intel Mac OS X 10_15_7) AppleWebKit/537.36 (KHTML, like Gecko) Chrome/137.0.0.0 Safari/537.36","Macintosh","Chrome","137.0.0.0","OS X","10_15_7","https://app.prolific.com/","en-GB,en-US;q=0.9,en;q=0.8","663ba5be68b9831a7ee50cfc","683db6dfa200031b80f2a654","6865075745da4c7fde57a47a","663ba5be68b9831a7ee50cfc","2025-07-02T10:26:06.047Z","","","","","","stress","{""Q01"":""3"",""Q02"":""2"",""Q03"":""3""}","[0,1,2]","[""Q01"",""Q02"",""Q03""]","[2437.0999999940395,8394.299999982119,11297.09999999404]","[]","[2437.0999999940395,8394.299999982119,11297.09999999404,12379.699999988079]","1","0","0","","","","","","","","","","","","","","","","","","","","","","","","","","","","",""
"59830","","","","instructions","20","523058","0.0-8.0-0.0","10","1","2025-07-02 10:18:21","80fe4187154257d5fb01684ea91b68b9","2.217.27.245","Mozilla/5.0 (Macintosh; Intel Mac OS X 10_15_7) AppleWebKit/537.36 (KHTML, like Gecko) Chrome/137.0.0.0 Safari/537.36","Macintosh","Chrome","137.0.0.0","OS X","10_15_7","https://app.prolific.com/","en-GB,en-US;q=0.9,en;q=0.8","663ba5be68b9831a7ee50cfc","683db6dfa200031b80f2a654","6865075745da4c7fde57a47a","663ba5be68b9831a7ee50cfc","","[{""page_index"":0,""viewing_time"":13077},{""page_index"":1,""viewing_time"":25469},{""page_index"":2,""viewing_time"":6339},{""page_index"":3,""viewing_time"":14945}]","","","","","","","","","","","","","","","","","","","","","","","","","","","","","","","","","","","","","","","","","","",""
"","","","","ctl-task-cpt","21","545904","0.0-8.0-1.0","10","1","2025-07-02 10:18:21","80fe4187154257d5fb01684ea91b68b9","2.217.27.245","Mozilla/5.0 (Macintosh; Intel Mac OS X 10_15_7) AppleWebKit/537.36 (KHTML, like Gecko) Chrome/137.0.0.0 Safari/537.36","Macintosh","Chrome","137.0.0.0","OS X","10_15_7","https://app.prolific.com/","en-GB,en-US;q=0.9,en;q=0.8","663ba5be68b9831a7ee50cfc","683db6dfa200031b80f2a654","6865075745da4c7fde57a47a","663ba5be68b9831a7ee50cfc","","","","","","","","","","","","","","","","","win-only","3","g1:SW,g2:NE","1","0","1","524319.8","1499.9","5501.1","19836.4","2","4","4","6","1","2","-1","0","0","0","2440.6","4000","2110","[""down"",""left""]","{""num_key_presses"":12,""num_perfect"":4,""num_errors"":3,""num_randdir"":0,""num_randdir_good_moves"":0,""num_whilered"":5,""num_whileblue"":0,""num_blue"":0,""num_good_moves"":4}","[692.2857142857143,702.0825892857143,0.3,692.2857142857143,702.0825892857143,100.3,692.2857142857143,702.0825892857143,200.3,692.2857142857143,702.0825892857143,300.5,692.2857142857143,702.0825892857143,406.7,1026.2857142857142,632.0825892857143,511,1612.2857142857142,794.0825892857143,616.5,1640.2857142857142,810.0825892857143,721,1640.2857142857142,810.0825892857143,826.6,1640.2857142857142,810.0825892857143,932.1,1640.2857142857142,810.0825892857143,1036.5,1640.2857142857142,810.0825892857143,1141.7,1640.2857142857142,810.0825892857143,1246.1,1640.2857142857142,810.0825892857143,1347.1,1640.2857142857142,810.0825892857143,1450.3,1640.2857142857142,810.0825892857143,1550.8,1640.2857142857142,810.0825892857143,1656.4,1640.2857142857142,810.0825892857143,1756.8,1542.2857142857142,830.0825892857143,1861.6,406.2857142857143,1220.0825892857142,1965.5,-79.71428571428571,1392.0825892857142,2066,-79.71428571428571,1392.0825892857142,2171.5,38.28571428571429,1342.0825892857142,2276.1,118.28571428571429,1330.0825892857142,2376.5,118.28571428571429,1328.0825892857142,2476.7,118.28571428571429,1328.0825892857142,2581.9,118.28571428571429,1328.0825892857142,2686.5,118.28571428571429,1328.0825892857142,2791.5,-149.71428571428572,1406.0825892857142,2896.8,-427.7142857142857,1506.0825892857142,2997,-427.7142857142857,1506.0825892857142,3100.9,-427.7142857142857,1506.0825892857142,3200.9,-427.7142857142857,1506.0825892857142,3306,-427.7142857142857,1506.0825892857142,3406.9,-427.7142857142857,1506.0825892857142,3511.5,-427.7142857142857,1506.0825892857142,3616.3,-427.7142857142857,1506.0825892857142,3721.4,-427.7142857142857,1506.0825892857142,3821.5,-427.7142857142857,1506.0825892857142,3926.4]","[262.3,262.3,1000,0,-737.7,""error"",""-"",""-"",""no_move"",476.4,213.9,1000,0,-523.6,""while_red"",""-"",""-"",""no_move"",640,377.5,1000,0,-360,""while_red"",""-"",""-"",""no_move"",4333.9,4071.4,2569.3,1265.3,499.3,""smooth"",""down"",""down"",""good_move"",4550.5,216.1,3234.3,4334.4,-3018.2,""error"",""-"",""-"",""no_move"",4731.9,181.1,3234.3,4334.4,-2836.8,""while_red"",""-"",""-"",""no_move"",4933.6,382.8,3234.3,4334.4,-2635.1,""while_red"",""-"",""-"",""no_move"",5190.9,640.1,3234.3,4334.4,-2377.8,""while_red"",""-"",""-"",""no_move"",8365.8,3815,2369.1,5554.7,442,""smooth"",""down"",""down"",""good_move"",8916.2,550.1,2963.7,8366.1,-2413.6,""error"",""-"",""-"",""no_move"",12208.1,3291.7,1860.6,9919.8,427.7,""smooth"",""left"",""left"",""good_move"",14236,2027.4,1467.5,12208.6,559.9,""smooth"",""left"",""left"",""good_move""]","",""
"8421","","","","instructions","22","554327","0.0-8.0-2.0","10","1","2025-07-02 10:18:21","80fe4187154257d5fb01684ea91b68b9","2.217.27.245","Mozilla/5.0 (Macintosh; Intel Mac OS X 10_15_7) AppleWebKit/537.36 (KHTML, like Gecko) Chrome/137.0.0.0 Safari/537.36","Macintosh","Chrome","137.0.0.0","OS X","10_15_7","https://app.prolific.com/","en-GB,en-US;q=0.9,en;q=0.8","663ba5be68b9831a7ee50cfc","683db6dfa200031b80f2a654","6865075745da4c7fde57a47a","663ba5be68b9831a7ee50cfc","","[{""page_index"":0,""viewing_time"":8421}]","","","","","","","","","","","","","","","","","","","","","","","","","","","","","","","","","","","","","","","","","","",""
"","","","","ctl-task-cpt","23","591705","0.0-8.0-3.0","10","1","2025-07-02 10:18:21","80fe4187154257d5fb01684ea91b68b9","2.217.27.245","Mozilla/5.0 (Macintosh; Intel Mac OS X 10_15_7) AppleWebKit/537.36 (KHTML, like Gecko) Chrome/137.0.0.0 Safari/537.36","Macintosh","Chrome","137.0.0.0","OS X","10_15_7","https://app.prolific.com/","en-GB,en-US;q=0.9,en;q=0.8","663ba5be68b9831a7ee50cfc","683db6dfa200031b80f2a654","6865075745da4c7fde57a47a","663ba5be68b9831a7ee50cfc","","","","","","","","","","","","","","","","","win-only","3","g1:SW,g2:NE","0.35","0","3","555585.4","1748.9","5751.2","34371.4","2","4","8","6","1","2","1","1","0","0.007575757575757576","2251.9","4000","390","[""down"",""left""]","{""num_key_presses"":11,""num_perfect"":4,""num_errors"":1,""num_randdir"":6,""num_randdir_good_moves"":3,""num_whilered"":0,""num_whileblue"":0,""num_blue"":0,""num_good_moves"":7}","[692.2857142857143,686.0825892857143,0.3,692.2857142857143,686.0825892857143,101.4,692.2857142857143,686.0825892857143,202.2,1210.2857142857142,668.0825892857143,307.3,1824.2857142857142,802.0825892857143,412.2,1844.2857142857142,810.0825892857143,517.5,1844.2857142857142,810.0825892857143,617.6,1844.2857142857142,810.0825892857143,721.8,1844.2857142857142,810.0825892857143,827.3,1844.2857142857142,810.0825892857143,932.5,1746.2857142857142,822.0825892857143,1036.2,1152.2857142857142,796.0825892857143,1136.6,1064.2857142857142,734.0825892857143,1242.1,1064.2857142857142,734.0825892857143,1342.5,1106.2857142857142,432.0825892857143,1447.3,1166.2857142857142,248.08258928571428,1551.4,1156.2857142857142,276.0825892857143,1652.2,310.2857142857143,894.0825892857143,1757.3,192.28571428571428,1076.0825892857142,1861.5,192.28571428571428,1076.0825892857142,1961.8,162.28571428571428,1188.0825892857142,2061.8,138.28571428571428,1290.0825892857142,2162.1,132.28571428571428,1294.0825892857142,2267.2,132.28571428571428,1294.0825892857142,2372.1,132.28571428571428,1294.0825892857142,2472.3,106.28571428571429,1294.0825892857142,2577.2,-225.71428571428572,1116.0825892857142,2681.9,-225.71428571428572,1116.0825892857142,2783,-225.71428571428572,1116.0825892857142,2887.8,-225.71428571428572,1116.0825892857142,2992.4,-225.71428571428572,1116.0825892857142,3092.5,-225.71428571428572,1116.0825892857142,3192.5,-225.71428571428572,1116.0825892857142,3292.9,-225.71428571428572,1116.0825892857142,3396.9,-225.71428571428572,1116.0825892857142,3497.5,-225.71428571428572,1116.0825892857142,3601.6,-225.71428571428572,1116.0825892857142,3702.1,-225.71428571428572,1116.0825892857142,3802.1,-225.71428571428572,1116.0825892857142,3906.7]","[1440,1440,1000,0,440,""oops"",""down"",""right"",""bad_move"",2541.1,1100.7,3017.6,1440.4,-1916.9,""error"",""-"",""-"",""no_move"",6618.4,4077.1,2616.1,3545.1,457.2,""oops"",""down"",""left"",""good_move"",9618.3,2999.9,2417.9,6618.5,581.9,""smooth"",""down"",""down"",""good_move"",12649.8,3031.3,2667.6,9618.5,363.7,""oops"",""down"",""right"",""bad_move"",15418.8,2768.9,2431.8,12649.9,337.1,""smooth"",""down"",""down"",""good_move"",17901.7,2482.8,2201.9,15418.9,280.9,""smooth"",""left"",""left"",""good_move"",20514.8,2613,2301.1,17901.8,311.9,""oops"",""left"",""left"",""good_move"",23236,2720.9,2415,20515.1,305.9,""oops"",""left"",""right"",""bad_move"",26059.6,2823.3,2502.6,23236.3,320.7,""smooth"",""left"",""left"",""good_move"",28530.9,2471.1,2203.1,26059.8,268,""oops"",""left"",""left"",""good_move""]","",""
"25460","","","","instructions","24","617166","0.0-8.0-4.0","10","1","2025-07-02 10:18:21","80fe4187154257d5fb01684ea91b68b9","2.217.27.245","Mozilla/5.0 (Macintosh; Intel Mac OS X 10_15_7) AppleWebKit/537.36 (KHTML, like Gecko) Chrome/137.0.0.0 Safari/537.36","Macintosh","Chrome","137.0.0.0","OS X","10_15_7","https://app.prolific.com/","en-GB,en-US;q=0.9,en;q=0.8","663ba5be68b9831a7ee50cfc","683db6dfa200031b80f2a654","6865075745da4c7fde57a47a","663ba5be68b9831a7ee50cfc","","[{""page_index"":0,""viewing_time"":6696},{""page_index"":1,""viewing_time"":18764}]","","","","","","","","","","","","","","","","","","","","","","","","","","","","","","","","","","","","","","","","","","",""
"10460","","","{""green_ball"":[""Ball sometimes shakes and moves in a random direction""]}","survey-multi-select","25","627628","0.0-8.0-5.0-0.0","10","1","2025-07-02 10:18:21","80fe4187154257d5fb01684ea91b68b9","2.217.27.245","Mozilla/5.0 (Macintosh; Intel Mac OS X 10_15_7) AppleWebKit/537.36 (KHTML, like Gecko) Chrome/137.0.0.0 Safari/537.36","Macintosh","Chrome","137.0.0.0","OS X","10_15_7","https://app.prolific.com/","en-GB,en-US;q=0.9,en;q=0.8","663ba5be68b9831a7ee50cfc","683db6dfa200031b80f2a654","6865075745da4c7fde57a47a","663ba5be68b9831a7ee50cfc","","","[0]","","","","quiz","","","","","","","","","","","","","","","","","","","","","","","","","","","","","","","","","","","","","true",""
"2804","","<p align='center'><b>CORRECT!</b> Indeed, the green ball may sometimes shake and move in a random direction.</p>","0","html-button-response","26","630433","0.0-8.0-5.0-1.0","10","1","2025-07-02 10:18:21","80fe4187154257d5fb01684ea91b68b9","2.217.27.245","Mozilla/5.0 (Macintosh; Intel Mac OS X 10_15_7) AppleWebKit/537.36 (KHTML, like Gecko) Chrome/137.0.0.0 Safari/537.36","Macintosh","Chrome","137.0.0.0","OS X","10_15_7","https://app.prolific.com/","en-GB,en-US;q=0.9,en;q=0.8","663ba5be68b9831a7ee50cfc","683db6dfa200031b80f2a654","6865075745da4c7fde57a47a","663ba5be68b9831a7ee50cfc","","","","","","","","","","","","","","","","","","","","","","","","","","","","","","","","","","","","","","","","","","","","",""
"4986","","","{""yellow_ball"":[""Ball doesn‘t move and I get -1 penalty point""]}","survey-multi-select","27","635421","0.0-8.0-6.0-0.0","10","1","2025-07-02 10:18:21","80fe4187154257d5fb01684ea91b68b9","2.217.27.245","Mozilla/5.0 (Macintosh; Intel Mac OS X 10_15_7) AppleWebKit/537.36 (KHTML, like Gecko) Chrome/137.0.0.0 Safari/537.36","Macintosh","Chrome","137.0.0.0","OS X","10_15_7","https://app.prolific.com/","en-GB,en-US;q=0.9,en;q=0.8","663ba5be68b9831a7ee50cfc","683db6dfa200031b80f2a654","6865075745da4c7fde57a47a","663ba5be68b9831a7ee50cfc","","","[0]","","","","quiz","","","","","","","","","","","","","","","","","","","","","","","","","","","","","","","","","","","","","true",""
"1146","","<p align='center'><b>CORRECT!</b> Indeed, the yellow ball never moves and you receive a penalty.</p>","0","html-button-response","28","636568","0.0-8.0-6.0-1.0","10","1","2025-07-02 10:18:21","80fe4187154257d5fb01684ea91b68b9","2.217.27.245","Mozilla/5.0 (Macintosh; Intel Mac OS X 10_15_7) AppleWebKit/537.36 (KHTML, like Gecko) Chrome/137.0.0.0 Safari/537.36","Macintosh","Chrome","137.0.0.0","OS X","10_15_7","https://app.prolific.com/","en-GB,en-US;q=0.9,en;q=0.8","663ba5be68b9831a7ee50cfc","683db6dfa200031b80f2a654","6865075745da4c7fde57a47a","663ba5be68b9831a7ee50cfc","","","","","","","","","","","","","","","","","","","","","","","","","","","","","","","","","","","","","","","","","","","","",""
"3290","","","{""blue_ball"":[""Ball doesn‘t move and I get -1 penalty point""]}","survey-multi-select","29","639859","0.0-8.0-7.0-0.0","10","1","2025-07-02 10:18:21","80fe4187154257d5fb01684ea91b68b9","2.217.27.245","Mozilla/5.0 (Macintosh; Intel Mac OS X 10_15_7) AppleWebKit/537.36 (KHTML, like Gecko) Chrome/137.0.0.0 Safari/537.36","Macintosh","Chrome","137.0.0.0","OS X","10_15_7","https://app.prolific.com/","en-GB,en-US;q=0.9,en;q=0.8","663ba5be68b9831a7ee50cfc","683db6dfa200031b80f2a654","6865075745da4c7fde57a47a","663ba5be68b9831a7ee50cfc","","","[0]","","","","quiz","","","","","","","","","","","","","","","","","","","","","","","","","","","","","","","","","","","","","false",""
"1898","","<p align='center'><b>INCORRECT.</b> The blue ball always shakes and moves randomly.</p>","0","html-button-response","30","641758","0.0-8.0-7.0-1.0","10","1","2025-07-02 10:18:21","80fe4187154257d5fb01684ea91b68b9","2.217.27.245","Mozilla/5.0 (Macintosh; Intel Mac OS X 10_15_7) AppleWebKit/537.36 (KHTML, like Gecko) Chrome/137.0.0.0 Safari/537.36","Macintosh","Chrome","137.0.0.0","OS X","10_15_7","https://app.prolific.com/","en-GB,en-US;q=0.9,en;q=0.8","663ba5be68b9831a7ee50cfc","683db6dfa200031b80f2a654","6865075745da4c7fde57a47a","663ba5be68b9831a7ee50cfc","","","","","","","","","","","","","","","","","","","","","","","","","","","","","","","","","","","","","","","","","","","","",""
"8204","","","{""blue_ball"":[""Ball always shakes and moves in a random direction""]}","survey-multi-select","31","649964","0.0-8.0-7.1-0.1","10","1","2025-07-02 10:18:21","80fe4187154257d5fb01684ea91b68b9","2.217.27.245","Mozilla/5.0 (Macintosh; Intel Mac OS X 10_15_7) AppleWebKit/537.36 (KHTML, like Gecko) Chrome/137.0.0.0 Safari/537.36","Macintosh","Chrome","137.0.0.0","OS X","10_15_7","https://app.prolific.com/","en-GB,en-US;q=0.9,en;q=0.8","663ba5be68b9831a7ee50cfc","683db6dfa200031b80f2a654","6865075745da4c7fde57a47a","663ba5be68b9831a7ee50cfc","","","[0]","","","","quiz","","","","","","","","","","","","","","","","","","","","","","","","","","","","","","","","","","","","","true",""
"2376","","<p align='center'><b>CORRECT!</b> Indeed, the blue ball always shakes and moves in a random direction. Also there is a penalty of -1 point.</p>","0","html-button-response","32","652341","0.0-8.0-7.1-1.1","10","1","2025-07-02 10:18:21","80fe4187154257d5fb01684ea91b68b9","2.217.27.245","Mozilla/5.0 (Macintosh; Intel Mac OS X 10_15_7) AppleWebKit/537.36 (KHTML, like Gecko) Chrome/137.0.0.0 Safari/537.36","Macintosh","Chrome","137.0.0.0","OS X","10_15_7","https://app.prolific.com/","en-GB,en-US;q=0.9,en;q=0.8","663ba5be68b9831a7ee50cfc","683db6dfa200031b80f2a654","6865075745da4c7fde57a47a","663ba5be68b9831a7ee50cfc","","","","","","","","","","","","","","","","","","","","","","","","","","","","","","","","","","","","","","","","","","","","",""
"4518","","","{""bonus"":[""When I reach 50% of points""]}","survey-multi-select","33","656860","0.0-8.0-8.0-0.0","10","1","2025-07-02 10:18:21","80fe4187154257d5fb01684ea91b68b9","2.217.27.245","Mozilla/5.0 (Macintosh; Intel Mac OS X 10_15_7) AppleWebKit/537.36 (KHTML, like Gecko) Chrome/137.0.0.0 Safari/537.36","Macintosh","Chrome","137.0.0.0","OS X","10_15_7","https://app.prolific.com/","en-GB,en-US;q=0.9,en;q=0.8","663ba5be68b9831a7ee50cfc","683db6dfa200031b80f2a654","6865075745da4c7fde57a47a","663ba5be68b9831a7ee50cfc","","","[0]","","","","quiz","","","","","","","","","","","","","","","","","","","","","","","","","","","","","","","","","","","","","true",""
"1026","","<p align='center'><b>CORRECT!</b> Indeed, you receive 2 pounds extra when you reach 50% of points.</p>","0","html-button-response","34","657887","0.0-8.0-8.0-1.0","10","1","2025-07-02 10:18:21","80fe4187154257d5fb01684ea91b68b9","2.217.27.245","Mozilla/5.0 (Macintosh; Intel Mac OS X 10_15_7) AppleWebKit/537.36 (KHTML, like Gecko) Chrome/137.0.0.0 Safari/537.36","Macintosh","Chrome","137.0.0.0","OS X","10_15_7","https://app.prolific.com/","en-GB,en-US;q=0.9,en;q=0.8","663ba5be68b9831a7ee50cfc","683db6dfa200031b80f2a654","6865075745da4c7fde57a47a","663ba5be68b9831a7ee50cfc","","","","","","","","","","","","","","","","","","","","","","","","","","","","","","","","","","","","","","","","","","","","",""
"2134","","","","instructions","35","660021","0.0-8.0-9.0","10","1","2025-07-02 10:18:21","80fe4187154257d5fb01684ea91b68b9","2.217.27.245","Mozilla/5.0 (Macintosh; Intel Mac OS X 10_15_7) AppleWebKit/537.36 (KHTML, like Gecko) Chrome/137.0.0.0 Safari/537.36","Macintosh","Chrome","137.0.0.0","OS X","10_15_7","https://app.prolific.com/","en-GB,en-US;q=0.9,en;q=0.8","663ba5be68b9831a7ee50cfc","683db6dfa200031b80f2a654","6865075745da4c7fde57a47a","663ba5be68b9831a7ee50cfc","","[{""page_index"":0,""viewing_time"":2134}]","","","","","","","","","","","","","","","","","","","","","","","","","","","","","","","","","","","","","","","","","","",""
"16910","","<p>Before you start with this game please answer the following three questions yourself. </p>
  <p>Through this game, we measure several aspects of your cognitive performance, such as reaction times, multi-tasking capabilities </p>
  <p>and the ability to assess the situation you are in.</p>
  <p></p>
  <p><b>How good do you usually are in such tasks?</b></p>","22","html-slider-response","36","676932","0.0-9.0-0.0","10","1","2025-07-02 10:18:21","80fe4187154257d5fb01684ea91b68b9","2.217.27.245","Mozilla/5.0 (Macintosh; Intel Mac OS X 10_15_7) AppleWebKit/537.36 (KHTML, like Gecko) Chrome/137.0.0.0 Safari/537.36","Macintosh","Chrome","137.0.0.0","OS X","10_15_7","https://app.prolific.com/","en-GB,en-US;q=0.9,en;q=0.8","663ba5be68b9831a7ee50cfc","683db6dfa200031b80f2a654","6865075745da4c7fde57a47a","663ba5be68b9831a7ee50cfc","2025-07-02T10:29:39.753Z","","","","","","PreSkillQ","","","","","","","","","","","","","","","","","","","","","","","","","","","","","","","","","","","","","","50"
"3920","","<div style=""width:500px;"">
  <p>How well do you think you will perform in this task compared to other participants?</p>
  </div>","11","html-slider-response","37","680853","0.0-9.0-1.0","10","1","2025-07-02 10:18:21","80fe4187154257d5fb01684ea91b68b9","2.217.27.245","Mozilla/5.0 (Macintosh; Intel Mac OS X 10_15_7) AppleWebKit/537.36 (KHTML, like Gecko) Chrome/137.0.0.0 Safari/537.36","Macintosh","Chrome","137.0.0.0","OS X","10_15_7","https://app.prolific.com/","en-GB,en-US;q=0.9,en;q=0.8","663ba5be68b9831a7ee50cfc","683db6dfa200031b80f2a654","6865075745da4c7fde57a47a","663ba5be68b9831a7ee50cfc","2025-07-02T10:29:43.674Z","","","","","","PrePerfQ","","","","","","","","","","","","","","","","","","","","","","","","","","","","","","","","","","","","","","50"
"5635","","<div style=""width:500px;"">
  <p>What best describes how you currently feel?</p>
  </div>","67","html-slider-response","38","686489","0.0-9.0-2.0","10","1","2025-07-02 10:18:21","80fe4187154257d5fb01684ea91b68b9","2.217.27.245","Mozilla/5.0 (Macintosh; Intel Mac OS X 10_15_7) AppleWebKit/537.36 (KHTML, like Gecko) Chrome/137.0.0.0 Safari/537.36","Macintosh","Chrome","137.0.0.0","OS X","10_15_7","https://app.prolific.com/","en-GB,en-US;q=0.9,en;q=0.8","663ba5be68b9831a7ee50cfc","683db6dfa200031b80f2a654","6865075745da4c7fde57a47a","663ba5be68b9831a7ee50cfc","2025-07-02T10:29:49.310Z","","","","","","PreMotivationQ","","","","","","","","","","","","","","","","","","","","","","","","","","","","","","","","","","","","","","50"
"","","","","ctl-task-cpt","39","706355","0.0-10.0-0.0","10","1","2025-07-02 10:18:21","80fe4187154257d5fb01684ea91b68b9","2.217.27.245","Mozilla/5.0 (Macintosh; Intel Mac OS X 10_15_7) AppleWebKit/537.36 (KHTML, like Gecko) Chrome/137.0.0.0 Safari/537.36","Macintosh","Chrome","137.0.0.0","OS X","10_15_7","https://app.prolific.com/","en-GB,en-US;q=0.9,en;q=0.8","663ba5be68b9831a7ee50cfc","683db6dfa200031b80f2a654","6865075745da4c7fde57a47a","663ba5be68b9831a7ee50cfc","2025-07-02T10:30:09.176Z","","","","","","","","","","","","","","","","win-only","1","g1:NE,g2:SW","1","1","0","687747.6","1130.9","6136.2","16855.9","1","4","8","6","1","1","1","1","0","0.007575757575757576","1672.6","3000","1525","[""up"",""right""]","{""num_key_presses"":4,""num_perfect"":4,""num_errors"":0,""num_randdir"":0,""num_randdir_good_moves"":0,""num_whilered"":0,""num_whileblue"":0,""num_blue"":0,""num_good_moves"":4}","[696.2857142857143,690.0825892857143,0.2,696.2857142857143,690.0825892857143,100.2,696.2857142857143,690.0825892857143,204.4,696.2857142857143,690.0825892857143,304.7,696.2857142857143,690.0825892857143,409.4,696.2857142857143,690.0825892857143,510.3,696.2857142857143,690.0825892857143,610.3,668.2857142857143,800.0825892857143,715,610.2857142857143,920.0825892857143,819.5,610.2857142857143,920.0825892857143,919.9,888.2857142857143,582.0825892857143,1020.2,1410.2857142857142,94.08258928571429,1125.5,1416.2857142857142,82.08258928571429,1230.6,1412.2857142857142,80.08258928571429,1330.6,1266.2857142857142,150.08258928571428,1434.7,1268.2857142857142,104.08258928571429,1534.7,1272.2857142857142,110.08258928571429,1635.1,1272.2857142857142,110.08258928571429,1739.9,1272.2857142857142,110.08258928571429,1840.4,1272.2857142857142,110.08258928571429,1944.5,1688.2857142857142,324.0825892857143,2044.8,2028.2857142857142,590.0825892857143,2144.8,2050.285714285714,590.0825892857143,2244.8,2050.285714285714,590.0825892857143,2345.5,2050.285714285714,590.0825892857143,2449.7,2050.285714285714,590.0825892857143,2550.6,2050.285714285714,590.0825892857143,2654.8,2050.285714285714,590.0825892857143,2759.4,2050.285714285714,590.0825892857143,2859.4,2050.285714285714,590.0825892857143,2960,2050.285714285714,590.0825892857143,3064.7,2050.285714285714,590.0825892857143,3164.8,2050.285714285714,590.0825892857143,3269.8,2050.285714285714,590.0825892857143,3374.2,2050.285714285714,590.0825892857143,3475.1,2050.285714285714,590.0825892857143,3575.1,2050.285714285714,590.0825892857143,3679.6,2050.285714285714,590.0825892857143,3780.3,2050.285714285714,590.0825892857143,3880.5,2050.285714285714,590.0825892857143,3984.8,2050.285714285714,590.0825892857143,4085.3,2050.285714285714,590.0825892857143,4190.2,2050.285714285714,590.0825892857143,4294.9,2050.285714285714,590.0825892857143,4395.3,2050.285714285714,590.0825892857143,4500.6,2050.285714285714,590.0825892857143,4600.6,2050.285714285714,590.0825892857143,4705,2050.285714285714,590.0825892857143,4809.4,2050.285714285714,590.0825892857143,4909.7]","[1402.2,1402.2,1000,0,402.2,""smooth"",""right"",""right"",""good_move"",4219.5,2817,2346.5,1402.6,470.4,""smooth"",""right"",""right"",""good_move"",7360.8,3141,2830.9,4219.8,310.1,""smooth"",""up"",""up"",""good_move"",10627.5,3266.2,2958.3,7361.3,307.9,""smooth"",""up"",""up"",""good_move""]","",""
"8817","","<div style=""width:500px;"">
  <p>What determined the result of this run?</p>
  </div>","81","html-slider-response","40","715173","0.0-10.0-1.0","10","1","2025-07-02 10:18:21","80fe4187154257d5fb01684ea91b68b9","2.217.27.245","Mozilla/5.0 (Macintosh; Intel Mac OS X 10_15_7) AppleWebKit/537.36 (KHTML, like Gecko) Chrome/137.0.0.0 Safari/537.36","Macintosh","Chrome","137.0.0.0","OS X","10_15_7","https://app.prolific.com/","en-GB,en-US;q=0.9,en;q=0.8","663ba5be68b9831a7ee50cfc","683db6dfa200031b80f2a654","6865075745da4c7fde57a47a","663ba5be68b9831a7ee50cfc","2025-07-02T10:30:17.994Z","","","","","","AttribQ","","","","","","","","","","","","","","","","","","","","","","","","","","","","","","","","","","","","","","50"
"3523","","<div style=""width:500px;"">
  <p>How much control did you have over the ball?</p>
  </div>","99","html-slider-response","41","718698","0.0-10.0-2.0","10","1","2025-07-02 10:18:21","80fe4187154257d5fb01684ea91b68b9","2.217.27.245","Mozilla/5.0 (Macintosh; Intel Mac OS X 10_15_7) AppleWebKit/537.36 (KHTML, like Gecko) Chrome/137.0.0.0 Safari/537.36","Macintosh","Chrome","137.0.0.0","OS X","10_15_7","https://app.prolific.com/","en-GB,en-US;q=0.9,en;q=0.8","663ba5be68b9831a7ee50cfc","683db6dfa200031b80f2a654","6865075745da4c7fde57a47a","663ba5be68b9831a7ee50cfc","2025-07-02T10:30:21.519Z","","","","","","ControlQ","","","","","","","","","","","","","","","","","","","","","","","","","","","","","","","","","","","","","","50"
"4438","","<div style=""width:500px;"">
  <p>How would you describe your current emotional state?</p>
  </div>","50","html-slider-response","42","723141","0.0-10.0-3.0","10","1","2025-07-02 10:18:21","80fe4187154257d5fb01684ea91b68b9","2.217.27.245","Mozilla/5.0 (Macintosh; Intel Mac OS X 10_15_7) AppleWebKit/537.36 (KHTML, like Gecko) Chrome/137.0.0.0 Safari/537.36","Macintosh","Chrome","137.0.0.0","OS X","10_15_7","https://app.prolific.com/","en-GB,en-US;q=0.9,en;q=0.8","663ba5be68b9831a7ee50cfc","683db6dfa200031b80f2a654","6865075745da4c7fde57a47a","663ba5be68b9831a7ee50cfc","2025-07-02T10:30:25.962Z","","","","","","StressQ","","","","","","","","","","","","","","","","","","","","","","","","","","","","","","","","","","","","","","50"
"5593","","<div style=""width:500px;"">
  <p>What best describes how you currently feel?</p>
  </div>","58","html-slider-response","43","728739","0.0-10.0-4.0","10","1","2025-07-02 10:18:21","80fe4187154257d5fb01684ea91b68b9","2.217.27.245","Mozilla/5.0 (Macintosh; Intel Mac OS X 10_15_7) AppleWebKit/537.36 (KHTML, like Gecko) Chrome/137.0.0.0 Safari/537.36","Macintosh","Chrome","137.0.0.0","OS X","10_15_7","https://app.prolific.com/","en-GB,en-US;q=0.9,en;q=0.8","663ba5be68b9831a7ee50cfc","683db6dfa200031b80f2a654","6865075745da4c7fde57a47a","663ba5be68b9831a7ee50cfc","2025-07-02T10:30:31.560Z","","","","","","MotivationQ","","","","","","","","","","","","","","","","","","","","","","","","","","","","","","","","","","","","","","50"
"","","","","ctl-task-cpt","44","758612","0.0-10.0-0.1","10","1","2025-07-02 10:18:21","80fe4187154257d5fb01684ea91b68b9","2.217.27.245","Mozilla/5.0 (Macintosh; Intel Mac OS X 10_15_7) AppleWebKit/537.36 (KHTML, like Gecko) Chrome/137.0.0.0 Safari/537.36","Macintosh","Chrome","137.0.0.0","OS X","10_15_7","https://app.prolific.com/","en-GB,en-US;q=0.9,en;q=0.8","663ba5be68b9831a7ee50cfc","683db6dfa200031b80f2a654","6865075745da4c7fde57a47a","663ba5be68b9831a7ee50cfc","2025-07-02T10:31:01.433Z","","","","","","","","","","","","","","","","win-only","1","g1:NE,g2:SW","0.9","2","0","729987.9","1308.8","6311.1","26856.1","1","4","4","6","1","1","0","1","1","0.007575757575757576","1140.1","3000","915","[""up"",""right""]","{""num_key_presses"":6,""num_perfect"":5,""num_errors"":1,""num_randdir"":0,""num_randdir_good_moves"":0,""num_whilered"":0,""num_whileblue"":1,""num_blue"":2,""num_good_moves"":5}","[688.2857142857143,698.0825892857143,0.2,688.2857142857143,698.0825892857143,102.4,688.2857142857143,698.0825892857143,202.6,688.2857142857143,698.0825892857143,306.7,688.2857142857143,698.0825892857143,411.7,688.2857142857143,698.0825892857143,511.9,808.2857142857143,554.0825892857143,612.4,1214.2857142857142,234.08258928571428,716.9,1232.2857142857142,226.08258928571428,821.9,1236.2857142857142,218.08258928571428,922.4,1236.2857142857142,210.08258928571428,1027.4,1236.2857142857142,210.08258928571428,1127.4,1236.2857142857142,210.08258928571428,1227.4,1236.2857142857142,210.08258928571428,1333.2,1250.2857142857142,210.08258928571428,1436.3,1542.2857142857142,230.08258928571428,1536.6,1920.2857142857142,502.0825892857143,1641.6,1920.2857142857142,502.0825892857143,1742.6,1920.2857142857142,502.0825892857143,1847.6,1920.2857142857142,502.0825892857143,1952.2,1920.2857142857142,502.0825892857143,2057.1,1920.2857142857142,502.0825892857143,2157.1,1920.2857142857142,502.0825892857143,2261.9,1920.2857142857142,502.0825892857143,2367.1,1920.2857142857142,502.0825892857143,2472,1920.2857142857142,502.0825892857143,2572.3,1920.2857142857142,502.0825892857143,2672.6,1920.2857142857142,502.0825892857143,2777.1,1920.2857142857142,502.0825892857143,2882,1920.2857142857142,502.0825892857143,2986.8,1920.2857142857142,502.0825892857143,3092.7,1920.2857142857142,502.0825892857143,3197.1,1920.2857142857142,502.0825892857143,3297.5,1920.2857142857142,502.0825892857143,3401.7,1920.2857142857142,502.0825892857143,3501.7,1920.2857142857142,502.0825892857143,3602.3,1920.2857142857142,502.0825892857143,3702.8,1920.2857142857142,502.0825892857143,3807.1,1920.2857142857142,502.0825892857143,3912,1920.2857142857142,502.0825892857143,4012.7,1920.2857142857142,502.0825892857143,4117,1920.2857142857142,502.0825892857143,4221.8,1920.2857142857142,502.0825892857143,4327.3,1920.2857142857142,502.0825892857143,4432.2,1920.2857142857142,502.0825892857143,4537.9,1920.2857142857142,502.0825892857143,4642.4,1920.2857142857142,502.0825892857143,4747.2,1920.2857142857142,502.0825892857143,4847.2,1920.2857142857142,502.0825892857143,4952.3]","[4636.9,4636.9,2038,2010.6,588.3,""smooth"",""right"",""right"",""good_move"",8004.2,3366.7,2916.6,4637.5,450.1,""smooth"",""right"",""right"",""good_move"",11112.4,3108,2764.1,8004.4,343.9,""smooth"",""up"",""up"",""good_move"",14006.7,2893.8,2591.1,11112.9,302.7,""while_blue"",""up"",""left"",""bad_move"",17573.1,3565.9,3198,14007.2,367.9,""smooth"",""right"",""right"",""good_move"",20456.7,2883.4,2524.2,17573.4,359.1,""smooth"",""up"",""up"",""good_move""]","",""
"3490","","<div style=""width:500px;"">
  <p>What determined the result of this run?</p>
  </div>","76","html-slider-response","45","762104","0.0-10.0-1.1","10","1","2025-07-02 10:18:21","80fe4187154257d5fb01684ea91b68b9","2.217.27.245","Mozilla/5.0 (Macintosh; Intel Mac OS X 10_15_7) AppleWebKit/537.36 (KHTML, like Gecko) Chrome/137.0.0.0 Safari/537.36","Macintosh","Chrome","137.0.0.0","OS X","10_15_7","https://app.prolific.com/","en-GB,en-US;q=0.9,en;q=0.8","663ba5be68b9831a7ee50cfc","683db6dfa200031b80f2a654","6865075745da4c7fde57a47a","663ba5be68b9831a7ee50cfc","2025-07-02T10:31:04.925Z","","","","","","AttribQ","","","","","","","","","","","","","","","","","","","","","","","","","","","","","","","","","","","","","","50"
"2828","","<div style=""width:500px;"">
  <p>How much control did you have over the ball?</p>
  </div>","91","html-slider-response","46","764934","0.0-10.0-2.1","10","1","2025-07-02 10:18:21","80fe4187154257d5fb01684ea91b68b9","2.217.27.245","Mozilla/5.0 (Macintosh; Intel Mac OS X 10_15_7) AppleWebKit/537.36 (KHTML, like Gecko) Chrome/137.0.0.0 Safari/537.36","Macintosh","Chrome","137.0.0.0","OS X","10_15_7","https://app.prolific.com/","en-GB,en-US;q=0.9,en;q=0.8","663ba5be68b9831a7ee50cfc","683db6dfa200031b80f2a654","6865075745da4c7fde57a47a","663ba5be68b9831a7ee50cfc","2025-07-02T10:31:07.755Z","","","","","","ControlQ","","","","","","","","","","","","","","","","","","","","","","","","","","","","","","","","","","","","","","50"
"4746","","<div style=""width:500px;"">
  <p>How would you describe your current emotional state?</p>
  </div>","63","html-slider-response","47","769681","0.0-10.0-3.1","10","1","2025-07-02 10:18:21","80fe4187154257d5fb01684ea91b68b9","2.217.27.245","Mozilla/5.0 (Macintosh; Intel Mac OS X 10_15_7) AppleWebKit/537.36 (KHTML, like Gecko) Chrome/137.0.0.0 Safari/537.36","Macintosh","Chrome","137.0.0.0","OS X","10_15_7","https://app.prolific.com/","en-GB,en-US;q=0.9,en;q=0.8","663ba5be68b9831a7ee50cfc","683db6dfa200031b80f2a654","6865075745da4c7fde57a47a","663ba5be68b9831a7ee50cfc","2025-07-02T10:31:12.502Z","","","","","","StressQ","","","","","","","","","","","","","","","","","","","","","","","","","","","","","","","","","","","","","","50"
"3435","","<div style=""width:500px;"">
  <p>What best describes how you currently feel?</p>
  </div>","58","html-slider-response","48","773117","0.0-10.0-4.1","10","1","2025-07-02 10:18:21","80fe4187154257d5fb01684ea91b68b9","2.217.27.245","Mozilla/5.0 (Macintosh; Intel Mac OS X 10_15_7) AppleWebKit/537.36 (KHTML, like Gecko) Chrome/137.0.0.0 Safari/537.36","Macintosh","Chrome","137.0.0.0","OS X","10_15_7","https://app.prolific.com/","en-GB,en-US;q=0.9,en;q=0.8","663ba5be68b9831a7ee50cfc","683db6dfa200031b80f2a654","6865075745da4c7fde57a47a","663ba5be68b9831a7ee50cfc","2025-07-02T10:31:15.938Z","","","","","","MotivationQ","","","","","","","","","","","","","","","","","","","","","","","","","","","","","","","","","","","","","","50"
"","","","","ctl-task-cpt","49","799693","0.0-10.0-0.2","10","1","2025-07-02 10:18:21","80fe4187154257d5fb01684ea91b68b9","2.217.27.245","Mozilla/5.0 (Macintosh; Intel Mac OS X 10_15_7) AppleWebKit/537.36 (KHTML, like Gecko) Chrome/137.0.0.0 Safari/537.36","Macintosh","Chrome","137.0.0.0","OS X","10_15_7","https://app.prolific.com/","en-GB,en-US;q=0.9,en;q=0.8","663ba5be68b9831a7ee50cfc","683db6dfa200031b80f2a654","6865075745da4c7fde57a47a","663ba5be68b9831a7ee50cfc","2025-07-02T10:31:42.514Z","","","","","","","","","","","","","","","","win-only","0","g1:NW,g2:SE","0.8","3","0","774356.9","1212.1","6216.3","23566.3","1","4","8","6","1","1","1","2","1","0.015151515151515152","1439.1","3000","1005","[""left"",""up""]","{""num_key_presses"":4,""num_perfect"":4,""num_errors"":0,""num_randdir"":0,""num_randdir_good_moves"":0,""num_whilered"":0,""num_whileblue"":0,""num_blue"":2,""num_good_moves"":4}","[698.2857142857143,706.0825892857143,0.2,698.2857142857143,706.0825892857143,102.6,698.2857142857143,706.0825892857143,204.1,698.2857142857143,706.0825892857143,308.3,698.2857142857143,706.0825892857143,408.8,698.2857142857143,706.0825892857143,509,698.2857142857143,706.0825892857143,609,454.2857142857143,482.0825892857143,709.1,428.2857142857143,452.0825892857143,813.2,254.28571428571428,278.0825892857143,913.8,278.2857142857143,-19.917410714285708,1014.2,242.28571428571428,14.082589285714292,1118.5,202.28571428571428,78.08258928571429,1218.6,172.28571428571428,154.08258928571428,1319.2,172.28571428571428,154.08258928571428,1423.5,172.28571428571428,154.08258928571428,1523.9,172.28571428571428,154.08258928571428,1629.1,172.28571428571428,154.08258928571428,1733.8,38.28571428571429,226.08258928571428,1838.4,-405.7142857142857,442.0825892857143,1938.5,-455.7142857142857,446.0825892857143,2043.9,-455.7142857142857,446.0825892857143,2148.8,-455.7142857142857,446.0825892857143,2248.8,-455.7142857142857,446.0825892857143,2349.1,-455.7142857142857,446.0825892857143,2453.9,-455.7142857142857,446.0825892857143,2553.9,-455.7142857142857,446.0825892857143,2659,-455.7142857142857,446.0825892857143,2759.2,-455.7142857142857,446.0825892857143,2863,-455.7142857142857,446.0825892857143,2963.1,-455.7142857142857,446.0825892857143,3063.8,-455.7142857142857,446.0825892857143,3163.8,-455.7142857142857,446.0825892857143,3268.4,-455.7142857142857,446.0825892857143,3368.5,-455.7142857142857,446.0825892857143,3468.6,-455.7142857142857,446.0825892857143,3573.4,-455.7142857142857,446.0825892857143,3673.4,-455.7142857142857,446.0825892857143,3774,-455.7142857142857,446.0825892857143,3879.1,-455.7142857142857,446.0825892857143,3979.2,-455.7142857142857,446.0825892857143,4083.4,-455.7142857142857,446.0825892857143,4183.9,-455.7142857142857,446.0825892857143,4288.9,-455.7142857142857,446.0825892857143,4388.9,-455.7142857142857,446.0825892857143,4493.5,-455.7142857142857,446.0825892857143,4599.1,-455.7142857142857,446.0825892857143,4703.7,-455.7142857142857,446.0825892857143,4803.8,-455.7142857142857,446.0825892857143,4908.2]","[5200.5,5200.5,2613.1,2009.8,577.6,""smooth"",""left"",""left"",""good_move"",8384.2,3183.3,2736.6,5201,446.7,""smooth"",""left"",""left"",""good_move"",14337.8,5953.4,2349.8,11475,513,""smooth"",""up"",""up"",""good_move"",17262.6,2924.4,2436.9,14338.2,487.5,""smooth"",""up"",""up"",""good_move""]","",""
"3759","","<div style=""width:500px;"">
  <p>What determined the result of this run?</p>
  </div>","83","html-slider-response","50","803454","0.0-10.0-1.2","10","1","2025-07-02 10:18:21","80fe4187154257d5fb01684ea91b68b9","2.217.27.245","Mozilla/5.0 (Macintosh; Intel Mac OS X 10_15_7) AppleWebKit/537.36 (KHTML, like Gecko) Chrome/137.0.0.0 Safari/537.36","Macintosh","Chrome","137.0.0.0","OS X","10_15_7","https://app.prolific.com/","en-GB,en-US;q=0.9,en;q=0.8","663ba5be68b9831a7ee50cfc","683db6dfa200031b80f2a654","6865075745da4c7fde57a47a","663ba5be68b9831a7ee50cfc","2025-07-02T10:31:46.275Z","","","","","","AttribQ","","","","","","","","","","","","","","","","","","","","","","","","","","","","","","","","","","","","","","50"
"2279","","<div style=""width:500px;"">
  <p>How much control did you have over the ball?</p>
  </div>","93","html-slider-response","51","805733","0.0-10.0-2.2","10","1","2025-07-02 10:18:21","80fe4187154257d5fb01684ea91b68b9","2.217.27.245","Mozilla/5.0 (Macintosh; Intel Mac OS X 10_15_7) AppleWebKit/537.36 (KHTML, like Gecko) Chrome/137.0.0.0 Safari/537.36","Macintosh","Chrome","137.0.0.0","OS X","10_15_7","https://app.prolific.com/","en-GB,en-US;q=0.9,en;q=0.8","663ba5be68b9831a7ee50cfc","683db6dfa200031b80f2a654","6865075745da4c7fde57a47a","663ba5be68b9831a7ee50cfc","2025-07-02T10:31:48.554Z","","","","","","ControlQ","","","","","","","","","","","","","","","","","","","","","","","","","","","","","","","","","","","","","","50"
"3331","","<div style=""width:500px;"">
  <p>How would you describe your current emotional state?</p>
  </div>","50","html-slider-response","52","809064","0.0-10.0-3.2","10","1","2025-07-02 10:18:21","80fe4187154257d5fb01684ea91b68b9","2.217.27.245","Mozilla/5.0 (Macintosh; Intel Mac OS X 10_15_7) AppleWebKit/537.36 (KHTML, like Gecko) Chrome/137.0.0.0 Safari/537.36","Macintosh","Chrome","137.0.0.0","OS X","10_15_7","https://app.prolific.com/","en-GB,en-US;q=0.9,en;q=0.8","663ba5be68b9831a7ee50cfc","683db6dfa200031b80f2a654","6865075745da4c7fde57a47a","663ba5be68b9831a7ee50cfc","2025-07-02T10:31:51.886Z","","","","","","StressQ","","","","","","","","","","","","","","","","","","","","","","","","","","","","","","","","","","","","","","50"
"2909","","<div style=""width:500px;"">
  <p>What best describes how you currently feel?</p>
  </div>","50","html-slider-response","53","811975","0.0-10.0-4.2","10","1","2025-07-02 10:18:21","80fe4187154257d5fb01684ea91b68b9","2.217.27.245","Mozilla/5.0 (Macintosh; Intel Mac OS X 10_15_7) AppleWebKit/537.36 (KHTML, like Gecko) Chrome/137.0.0.0 Safari/537.36","Macintosh","Chrome","137.0.0.0","OS X","10_15_7","https://app.prolific.com/","en-GB,en-US;q=0.9,en;q=0.8","663ba5be68b9831a7ee50cfc","683db6dfa200031b80f2a654","6865075745da4c7fde57a47a","663ba5be68b9831a7ee50cfc","2025-07-02T10:31:54.796Z","","","","","","MotivationQ","","","","","","","","","","","","","","","","","","","","","","","","","","","","","","","","","","","","","","50"
"","","","","ctl-task-cpt","54","838525","0.0-10.0-0.3","10","1","2025-07-02 10:18:21","80fe4187154257d5fb01684ea91b68b9","2.217.27.245","Mozilla/5.0 (Macintosh; Intel Mac OS X 10_15_7) AppleWebKit/537.36 (KHTML, like Gecko) Chrome/137.0.0.0 Safari/537.36","Macintosh","Chrome","137.0.0.0","OS X","10_15_7","https://app.prolific.com/","en-GB,en-US;q=0.9,en;q=0.8","663ba5be68b9831a7ee50cfc","683db6dfa200031b80f2a654","6865075745da4c7fde57a47a","663ba5be68b9831a7ee50cfc","2025-07-02T10:32:21.346Z","","","","","","","","","","","","","","","","win-only","3","g1:SW,g2:NE","0.7","4","0","813214.1","1188.8","6191.9","23540.3","1","4","4","6","1","1","1","3","2","0.022727272727272728","1259.4","3000","1055","[""down"",""left""]","{""num_key_presses"":4,""num_perfect"":4,""num_errors"":0,""num_randdir"":0,""num_randdir_good_moves"":0,""num_whilered"":0,""num_whileblue"":0,""num_blue"":2,""num_good_moves"":4}","[694.2857142857143,704.0825892857143,0.1,694.2857142857143,704.0825892857143,102.3,694.2857142857143,704.0825892857143,207.1,694.2857142857143,704.0825892857143,312.2,694.2857142857143,704.0825892857143,416.8,694.2857142857143,704.0825892857143,522.1,702.2857142857143,688.0825892857143,622.7,1036.2857142857142,320.0825892857143,727.2,510.2857142857143,802.0825892857143,832.3,208.28571428571428,1048.0825892857142,932.3,152.28571428571428,1206.0825892857142,1037.2,146.28571428571428,1212.0825892857142,1137.2,146.28571428571428,1212.0825892857142,1237.7,146.28571428571428,1212.0825892857142,1342.3,146.28571428571428,1212.0825892857142,1442.3,146.28571428571428,1212.0825892857142,1546.3,128.28571428571428,1212.0825892857142,1646.5,-347.7142857142857,978.0825892857143,1746.8,-375.7142857142857,940.0825892857143,1846.8,-375.7142857142857,940.0825892857143,1953.2,-375.7142857142857,940.0825892857143,2056.5,-375.7142857142857,940.0825892857143,2157.2,-375.7142857142857,940.0825892857143,2262,-375.7142857142857,940.0825892857143,2366.5,-375.7142857142857,940.0825892857143,2468.2,-375.7142857142857,940.0825892857143,2571.7,-375.7142857142857,940.0825892857143,2677.3,-375.7142857142857,940.0825892857143,2782.2,-375.7142857142857,940.0825892857143,2887.5,-375.7142857142857,940.0825892857143,2991.5,-375.7142857142857,940.0825892857143,3091.6,-375.7142857142857,940.0825892857143,3196.4,-375.7142857142857,940.0825892857143,3301.4,-375.7142857142857,940.0825892857143,3401.6,-375.7142857142857,940.0825892857143,3506.9,-375.7142857142857,940.0825892857143,3607.1,-375.7142857142857,940.0825892857143,3711.6,-375.7142857142857,940.0825892857143,3812,-375.7142857142857,940.0825892857143,3912,-375.7142857142857,940.0825892857143,4016.8,-375.7142857142857,940.0825892857143,4119.5,-375.7142857142857,940.0825892857143,4222.3,-375.7142857142857,940.0825892857143,4327.3,-375.7142857142857,940.0825892857143,4432.4,-375.7142857142857,940.0825892857143,4536.8,-375.7142857142857,940.0825892857143,4641.4,-375.7142857142857,940.0825892857143,4741.6,-375.7142857142857,940.0825892857143,4841.7,-375.7142857142857,940.0825892857143,4941.9]","[5100.9,5100.9,2604.6,2008.5,487.8,""smooth"",""down"",""down"",""good_move"",11867.7,6766.6,2468.6,8823.8,575.3,""smooth"",""down"",""down"",""good_move"",14531.4,2663.6,2247.1,11867.8,416.5,""smooth"",""left"",""left"",""good_move"",17265.2,2733.6,2246.2,14531.6,487.4,""smooth"",""left"",""left"",""good_move""]","",""
"4099","","<div style=""width:500px;"">
  <p>What determined the result of this run?</p>
  </div>","91","html-slider-response","55","842625","0.0-10.0-1.3","10","1","2025-07-02 10:18:21","80fe4187154257d5fb01684ea91b68b9","2.217.27.245","Mozilla/5.0 (Macintosh; Intel Mac OS X 10_15_7) AppleWebKit/537.36 (KHTML, like Gecko) Chrome/137.0.0.0 Safari/537.36","Macintosh","Chrome","137.0.0.0","OS X","10_15_7","https://app.prolific.com/","en-GB,en-US;q=0.9,en;q=0.8","663ba5be68b9831a7ee50cfc","683db6dfa200031b80f2a654","6865075745da4c7fde57a47a","663ba5be68b9831a7ee50cfc","2025-07-02T10:32:25.446Z","","","","","","AttribQ","","","","","","","","","","","","","","","","","","","","","","","","","","","","","","","","","","","","","","50"
"2369","","<div style=""width:500px;"">
  <p>How much control did you have over the ball?</p>
  </div>","93","html-slider-response","56","844995","0.0-10.0-2.3","10","1","2025-07-02 10:18:21","80fe4187154257d5fb01684ea91b68b9","2.217.27.245","Mozilla/5.0 (Macintosh; Intel Mac OS X 10_15_7) AppleWebKit/537.36 (KHTML, like Gecko) Chrome/137.0.0.0 Safari/537.36","Macintosh","Chrome","137.0.0.0","OS X","10_15_7","https://app.prolific.com/","en-GB,en-US;q=0.9,en;q=0.8","663ba5be68b9831a7ee50cfc","683db6dfa200031b80f2a654","6865075745da4c7fde57a47a","663ba5be68b9831a7ee50cfc","2025-07-02T10:32:27.816Z","","","","","","ControlQ","","","","","","","","","","","","","","","","","","","","","","","","","","","","","","","","","","","","","","50"
"5610","","<div style=""width:500px;"">
  <p>How would you describe your current emotional state?</p>
  </div>","28","html-slider-response","57","850606","0.0-10.0-3.3","10","1","2025-07-02 10:18:21","80fe4187154257d5fb01684ea91b68b9","2.217.27.245","Mozilla/5.0 (Macintosh; Intel Mac OS X 10_15_7) AppleWebKit/537.36 (KHTML, like Gecko) Chrome/137.0.0.0 Safari/537.36","Macintosh","Chrome","137.0.0.0","OS X","10_15_7","https://app.prolific.com/","en-GB,en-US;q=0.9,en;q=0.8","663ba5be68b9831a7ee50cfc","683db6dfa200031b80f2a654","6865075745da4c7fde57a47a","663ba5be68b9831a7ee50cfc","2025-07-02T10:32:33.427Z","","","","","","StressQ","","","","","","","","","","","","","","","","","","","","","","","","","","","","","","","","","","","","","","50"
"3484","","<div style=""width:500px;"">
  <p>What best describes how you currently feel?</p>
  </div>","63","html-slider-response","58","854090","0.0-10.0-4.3","10","1","2025-07-02 10:18:21","80fe4187154257d5fb01684ea91b68b9","2.217.27.245","Mozilla/5.0 (Macintosh; Intel Mac OS X 10_15_7) AppleWebKit/537.36 (KHTML, like Gecko) Chrome/137.0.0.0 Safari/537.36","Macintosh","Chrome","137.0.0.0","OS X","10_15_7","https://app.prolific.com/","en-GB,en-US;q=0.9,en;q=0.8","663ba5be68b9831a7ee50cfc","683db6dfa200031b80f2a654","6865075745da4c7fde57a47a","663ba5be68b9831a7ee50cfc","2025-07-02T10:32:36.911Z","","","","","","MotivationQ","","","","","","","","","","","","","","","","","","","","","","","","","","","","","","","","","","","","","","50"
"","","","","ctl-task-cpt","59","873984","0.0-10.0-0.4","10","1","2025-07-02 10:18:21","80fe4187154257d5fb01684ea91b68b9","2.217.27.245","Mozilla/5.0 (Macintosh; Intel Mac OS X 10_15_7) AppleWebKit/537.36 (KHTML, like Gecko) Chrome/137.0.0.0 Safari/537.36","Macintosh","Chrome","137.0.0.0","OS X","10_15_7","https://app.prolific.com/","en-GB,en-US;q=0.9,en;q=0.8","663ba5be68b9831a7ee50cfc","683db6dfa200031b80f2a654","6865075745da4c7fde57a47a","663ba5be68b9831a7ee50cfc","2025-07-02T10:32:56.805Z","","","","","","","","","","","","","","","","win-only","1","g1:NE,g2:SW","0.6","5","0","855328.8","1690.3","6690.8","16881.1","1","4","8","6","1","1","1","4","3","0.030303030303030304","1213.9","3000","1310","[""up"",""right""]","{""num_key_presses"":4,""num_perfect"":4,""num_errors"":0,""num_randdir"":0,""num_randdir_good_moves"":0,""num_whilered"":0,""num_whileblue"":0,""num_blue"":0,""num_good_moves"":4}","[688.2857142857143,698.0825892857143,0.2,688.2857142857143,698.0825892857143,100.3,688.2857142857143,698.0825892857143,200.4,688.2857142857143,698.0825892857143,300.8,688.2857142857143,698.0825892857143,405.9,688.2857142857143,698.0825892857143,506.3,688.2857142857143,698.0825892857143,609.9,974.2857142857143,328.0825892857143,710.2,1040.2857142857142,270.0825892857143,815.5,1166.2857142857142,170.08258928571428,920.2,1186.2857142857142,158.08258928571428,1021,1224.2857142857142,136.08258928571428,1125.7,1224.2857142857142,136.08258928571428,1230.2,1224.2857142857142,136.08258928571428,1330.2,1224.2857142857142,136.08258928571428,1435.3,1286.2857142857142,138.08258928571428,1535.7,1910.2857142857142,524.0825892857143,1640.7,1992.2857142857142,590.0825892857143,1745.2,1992.2857142857142,590.0825892857143,1845.9,1992.2857142857142,590.0825892857143,1950.5,1992.2857142857142,590.0825892857143,2055.4,1992.2857142857142,590.0825892857143,2155.5,1992.2857142857142,590.0825892857143,2255.6,1992.2857142857142,590.0825892857143,2356.9,1992.2857142857142,590.0825892857143,2460.3,1992.2857142857142,590.0825892857143,2560.8,1992.2857142857142,590.0825892857143,2665,1992.2857142857142,590.0825892857143,2765.6,1992.2857142857142,590.0825892857143,2870.3,1992.2857142857142,590.0825892857143,2970.6,1992.2857142857142,590.0825892857143,3074.8,1992.2857142857142,590.0825892857143,3175.8,1992.2857142857142,590.0825892857143,3280.5,1992.2857142857142,590.0825892857143,3380.6,1992.2857142857142,590.0825892857143,3484.9,1992.2857142857142,590.0825892857143,3585.3,1992.2857142857142,590.0825892857143,3685.3,1992.2857142857142,590.0825892857143,3790.9,1992.2857142857142,590.0825892857143,3896,1992.2857142857142,590.0825892857143,4000.8,1992.2857142857142,590.0825892857143,4100.9,1992.2857142857142,590.0825892857143,4202.1,1992.2857142857142,590.0825892857143,4305.3,1992.2857142857142,590.0825892857143,4405.5,1992.2857142857142,590.0825892857143,4510.6,1992.2857142857142,590.0825892857143,4610.6,1992.2857142857142,590.0825892857143,4715.8,1992.2857142857142,590.0825892857143,4815.9,1992.2857142857142,590.0825892857143,4915.9]","[1554.1,1554.1,1000,0,554.1,""smooth"",""right"",""right"",""good_move"",4339.6,2785.3,2350.7,1554.3,434.6,""smooth"",""right"",""right"",""good_move"",7325.6,2985.8,2590.5,4339.8,395.3,""smooth"",""up"",""up"",""good_move"",10104.5,2778.7,2444.9,7325.8,333.8,""smooth"",""up"",""up"",""good_move""]","",""
"3678","","<div style=""width:500px;"">
  <p>What determined the result of this run?</p>
  </div>","90","html-slider-response","60","877663","0.0-10.0-1.4","10","1","2025-07-02 10:18:21","80fe4187154257d5fb01684ea91b68b9","2.217.27.245","Mozilla/5.0 (Macintosh; Intel Mac OS X 10_15_7) AppleWebKit/537.36 (KHTML, like Gecko) Chrome/137.0.0.0 Safari/537.36","Macintosh","Chrome","137.0.0.0","OS X","10_15_7","https://app.prolific.com/","en-GB,en-US;q=0.9,en;q=0.8","663ba5be68b9831a7ee50cfc","683db6dfa200031b80f2a654","6865075745da4c7fde57a47a","663ba5be68b9831a7ee50cfc","2025-07-02T10:33:00.484Z","","","","","","AttribQ","","","","","","","","","","","","","","","","","","","","","","","","","","","","","","","","","","","","","","50"
"2934","","<div style=""width:500px;"">
  <p>How much control did you have over the ball?</p>
  </div>","91","html-slider-response","61","880598","0.0-10.0-2.4","10","1","2025-07-02 10:18:21","80fe4187154257d5fb01684ea91b68b9","2.217.27.245","Mozilla/5.0 (Macintosh; Intel Mac OS X 10_15_7) AppleWebKit/537.36 (KHTML, like Gecko) Chrome/137.0.0.0 Safari/537.36","Macintosh","Chrome","137.0.0.0","OS X","10_15_7","https://app.prolific.com/","en-GB,en-US;q=0.9,en;q=0.8","663ba5be68b9831a7ee50cfc","683db6dfa200031b80f2a654","6865075745da4c7fde57a47a","663ba5be68b9831a7ee50cfc","2025-07-02T10:33:03.419Z","","","","","","ControlQ","","","","","","","","","","","","","","","","","","","","","","","","","","","","","","","","","","","","","","50"
"4931","","<div style=""width:500px;"">
  <p>How would you describe your current emotional state?</p>
  </div>","38","html-slider-response","62","885530","0.0-10.0-3.4","10","1","2025-07-02 10:18:21","80fe4187154257d5fb01684ea91b68b9","2.217.27.245","Mozilla/5.0 (Macintosh; Intel Mac OS X 10_15_7) AppleWebKit/537.36 (KHTML, like Gecko) Chrome/137.0.0.0 Safari/537.36","Macintosh","Chrome","137.0.0.0","OS X","10_15_7","https://app.prolific.com/","en-GB,en-US;q=0.9,en;q=0.8","663ba5be68b9831a7ee50cfc","683db6dfa200031b80f2a654","6865075745da4c7fde57a47a","663ba5be68b9831a7ee50cfc","2025-07-02T10:33:08.351Z","","","","","","StressQ","","","","","","","","","","","","","","","","","","","","","","","","","","","","","","","","","","","","","","50"
"4398","","<div style=""width:500px;"">
  <p>What best describes how you currently feel?</p>
  </div>","41","html-slider-response","63","889929","0.0-10.0-4.4","10","1","2025-07-02 10:18:21","80fe4187154257d5fb01684ea91b68b9","2.217.27.245","Mozilla/5.0 (Macintosh; Intel Mac OS X 10_15_7) AppleWebKit/537.36 (KHTML, like Gecko) Chrome/137.0.0.0 Safari/537.36","Macintosh","Chrome","137.0.0.0","OS X","10_15_7","https://app.prolific.com/","en-GB,en-US;q=0.9,en;q=0.8","663ba5be68b9831a7ee50cfc","683db6dfa200031b80f2a654","6865075745da4c7fde57a47a","663ba5be68b9831a7ee50cfc","2025-07-02T10:33:12.750Z","","","","","","MotivationQ","","","","","","","","","","","","","","","","","","","","","","","","","","","","","","","","","","","","","","50"
"","","","","ctl-task-cpt","64","910114","0.0-10.0-0.5","10","1","2025-07-02 10:18:21","80fe4187154257d5fb01684ea91b68b9","2.217.27.245","Mozilla/5.0 (Macintosh; Intel Mac OS X 10_15_7) AppleWebKit/537.36 (KHTML, like Gecko) Chrome/137.0.0.0 Safari/537.36","Macintosh","Chrome","137.0.0.0","OS X","10_15_7","https://app.prolific.com/","en-GB,en-US;q=0.9,en;q=0.8","663ba5be68b9831a7ee50cfc","683db6dfa200031b80f2a654","6865075745da4c7fde57a47a","663ba5be68b9831a7ee50cfc","2025-07-02T10:33:32.935Z","","","","","","","","","","","","","","","","win-only","0","g1:NW,g2:SE","0.5","6","0","891166.3","1251.8","6255.4","17175.7","1","4","4","6","1","1","1","5","4","0.03787878787878788","1074.8","3000","1460","[""left"",""up""]","{""num_key_presses"":4,""num_perfect"":4,""num_errors"":0,""num_randdir"":0,""num_randdir_good_moves"":0,""num_whilered"":0,""num_whileblue"":0,""num_blue"":0,""num_good_moves"":4}","[698.2857142857143,710.0825892857143,0.1,698.2857142857143,710.0825892857143,103.6,698.2857142857143,710.0825892857143,208.7,698.2857142857143,710.0825892857143,309,698.2857142857143,710.0825892857143,409.3,698.2857142857143,710.0825892857143,513.3,520.2857142857143,592.0825892857143,613.7,286.2857142857143,258.0825892857143,714.1,172.28571428571428,132.08258928571428,819.5,144.28571428571428,146.08258928571428,924.5,142.28571428571428,152.08258928571428,1029.4,142.28571428571428,152.08258928571428,1134.2,142.28571428571428,152.08258928571428,1234.2,142.28571428571428,152.08258928571428,1338.7,76.28571428571429,186.08258928571428,1444.4,-269.7142857142857,460.0825892857143,1544.5,-269.7142857142857,460.0825892857143,1649.5,-269.7142857142857,460.0825892857143,1754.2,-269.7142857142857,460.0825892857143,1854.2,-269.7142857142857,460.0825892857143,1954.4,-269.7142857142857,460.0825892857143,2058.7,-269.7142857142857,460.0825892857143,2163.7,-269.7142857142857,460.0825892857143,2270.9,-269.7142857142857,460.0825892857143,2373.6,-269.7142857142857,460.0825892857143,2474.2,-269.7142857142857,460.0825892857143,2578.5,-269.7142857142857,460.0825892857143,2678.7,-269.7142857142857,460.0825892857143,2784.2,-269.7142857142857,460.0825892857143,2888.5,-269.7142857142857,460.0825892857143,2988.5,-269.7142857142857,460.0825892857143,3093.3,-269.7142857142857,460.0825892857143,3193.3,-269.7142857142857,460.0825892857143,3294.4,-269.7142857142857,460.0825892857143,3394.4,-269.7142857142857,460.0825892857143,3498.6,-269.7142857142857,460.0825892857143,3606.6,-269.7142857142857,460.0825892857143,3709.2,-269.7142857142857,460.0825892857143,3813.5,-269.7142857142857,460.0825892857143,3913.8,-269.7142857142857,460.0825892857143,4014.3,-269.7142857142857,460.0825892857143,4119,-269.7142857142857,460.0825892857143,4224.3,-269.7142857142857,460.0825892857143,4329.2,-269.7142857142857,460.0825892857143,4434,-269.7142857142857,460.0825892857143,4534.2,-269.7142857142857,460.0825892857143,4638.8,-269.7142857142857,460.0825892857143,4739.3,-269.7142857142857,460.0825892857143,4843.3,-269.7142857142857,460.0825892857143,4943.9]","[1369,1369,1000,0,369,""smooth"",""left"",""left"",""good_move"",4986.5,3617.1,3099.8,1369.4,517.3,""smooth"",""left"",""left"",""good_move"",7683.6,2696.9,2357.6,4986.7,339.3,""smooth"",""up"",""up"",""good_move"",10835.1,3151.1,2816.5,7684,334.6,""smooth"",""up"",""up"",""good_move""]","",""
"4082","","<div style=""width:500px;"">
  <p>What determined the result of this run?</p>
  </div>","89","html-slider-response","65","914197","0.0-10.0-1.5","10","1","2025-07-02 10:18:21","80fe4187154257d5fb01684ea91b68b9","2.217.27.245","Mozilla/5.0 (Macintosh; Intel Mac OS X 10_15_7) AppleWebKit/537.36 (KHTML, like Gecko) Chrome/137.0.0.0 Safari/537.36","Macintosh","Chrome","137.0.0.0","OS X","10_15_7","https://app.prolific.com/","en-GB,en-US;q=0.9,en;q=0.8","663ba5be68b9831a7ee50cfc","683db6dfa200031b80f2a654","6865075745da4c7fde57a47a","663ba5be68b9831a7ee50cfc","2025-07-02T10:33:37.018Z","","","","","","AttribQ","","","","","","","","","","","","","","","","","","","","","","","","","","","","","","","","","","","","","","50"
"2547","","<div style=""width:500px;"">
  <p>How much control did you have over the ball?</p>
  </div>","90","html-slider-response","66","916745","0.0-10.0-2.5","10","1","2025-07-02 10:18:21","80fe4187154257d5fb01684ea91b68b9","2.217.27.245","Mozilla/5.0 (Macintosh; Intel Mac OS X 10_15_7) AppleWebKit/537.36 (KHTML, like Gecko) Chrome/137.0.0.0 Safari/537.36","Macintosh","Chrome","137.0.0.0","OS X","10_15_7","https://app.prolific.com/","en-GB,en-US;q=0.9,en;q=0.8","663ba5be68b9831a7ee50cfc","683db6dfa200031b80f2a654","6865075745da4c7fde57a47a","663ba5be68b9831a7ee50cfc","2025-07-02T10:33:39.566Z","","","","","","ControlQ","","","","","","","","","","","","","","","","","","","","","","","","","","","","","","","","","","","","","","50"
"2836","","<div style=""width:500px;"">
  <p>How would you describe your current emotional state?</p>
  </div>","25","html-slider-response","67","919582","0.0-10.0-3.5","10","1","2025-07-02 10:18:21","80fe4187154257d5fb01684ea91b68b9","2.217.27.245","Mozilla/5.0 (Macintosh; Intel Mac OS X 10_15_7) AppleWebKit/537.36 (KHTML, like Gecko) Chrome/137.0.0.0 Safari/537.36","Macintosh","Chrome","137.0.0.0","OS X","10_15_7","https://app.prolific.com/","en-GB,en-US;q=0.9,en;q=0.8","663ba5be68b9831a7ee50cfc","683db6dfa200031b80f2a654","6865075745da4c7fde57a47a","663ba5be68b9831a7ee50cfc","2025-07-02T10:33:42.403Z","","","","","","StressQ","","","","","","","","","","","","","","","","","","","","","","","","","","","","","","","","","","","","","","50"
"1924","","<div style=""width:500px;"">
  <p>What best describes how you currently feel?</p>
  </div>","32","html-slider-response","68","921507","0.0-10.0-4.5","10","1","2025-07-02 10:18:21","80fe4187154257d5fb01684ea91b68b9","2.217.27.245","Mozilla/5.0 (Macintosh; Intel Mac OS X 10_15_7) AppleWebKit/537.36 (KHTML, like Gecko) Chrome/137.0.0.0 Safari/537.36","Macintosh","Chrome","137.0.0.0","OS X","10_15_7","https://app.prolific.com/","en-GB,en-US;q=0.9,en;q=0.8","663ba5be68b9831a7ee50cfc","683db6dfa200031b80f2a654","6865075745da4c7fde57a47a","663ba5be68b9831a7ee50cfc","2025-07-02T10:33:44.328Z","","","","","","MotivationQ","","","","","","","","","","","","","","","","","","","","","","","","","","","","","","","","","","","","","","50"
"","","","","ctl-task-cpt","69","967378","0.0-10.0-0.6","10","1","2025-07-02 10:18:21","80fe4187154257d5fb01684ea91b68b9","2.217.27.245","Mozilla/5.0 (Macintosh; Intel Mac OS X 10_15_7) AppleWebKit/537.36 (KHTML, like Gecko) Chrome/137.0.0.0 Safari/537.36","Macintosh","Chrome","137.0.0.0","OS X","10_15_7","https://app.prolific.com/","en-GB,en-US;q=0.9,en;q=0.8","663ba5be68b9831a7ee50cfc","683db6dfa200031b80f2a654","6865075745da4c7fde57a47a","663ba5be68b9831a7ee50cfc","2025-07-02T10:34:30.199Z","","","","","","","","","","","","","","","","win-only","2","g1:SE,g2:NW","0.4","7","0","922743.9","1089.7","6090.6","42860.9","1","4","4","6","1","-1","-1","4","5","0.030303030303030304","1375.6","3000","-3005","[""down"",""right""]","{""num_key_presses"":7,""num_perfect"":2,""num_errors"":0,""num_randdir"":5,""num_randdir_good_moves"":1,""num_whilered"":0,""num_whileblue"":0,""num_blue"":4,""num_good_moves"":3}","[692.2857142857143,694.0825892857143,0.1,692.2857142857143,694.0825892857143,100.9,692.2857142857143,694.0825892857143,201.4,692.2857142857143,694.0825892857143,305.6,692.2857142857143,694.0825892857143,411.1,692.2857142857143,694.0825892857143,516.1,692.2857142857143,694.0825892857143,620.7,692.2857142857143,694.0825892857143,726.7,792.2857142857143,774.0825892857143,831.2,1132.2857142857142,1134.0825892857142,936.6,1132.2857142857142,1134.0825892857142,1041.2,1166.2857142857142,1174.0825892857142,1146.5,1234.2857142857142,1282.0825892857142,1250.7,1234.2857142857142,1282.0825892857142,1351.2,1234.2857142857142,1282.0825892857142,1454.5,1234.2857142857142,1282.0825892857142,1555.8,1234.2857142857142,1282.0825892857142,1655.9,1474.2857142857142,1132.0825892857142,1756,1624.2857142857142,1018.0825892857143,1856.1,1624.2857142857142,1018.0825892857143,1957.4,1624.2857142857142,1018.0825892857143,2061.2,1624.2857142857142,1018.0825892857143,2166.3,1624.2857142857142,1018.0825892857143,2272.5,1624.2857142857142,1018.0825892857143,2376.6,1624.2857142857142,1018.0825892857143,2481.6,1624.2857142857142,1018.0825892857143,2587.8,1624.2857142857142,1018.0825892857143,2691.6,1624.2857142857142,1018.0825892857143,2795.8,1624.2857142857142,1018.0825892857143,2900.5,1624.2857142857142,1018.0825892857143,3001.1,1624.2857142857142,1018.0825892857143,3106.6,1624.2857142857142,1018.0825892857143,3211.6,1624.2857142857142,1018.0825892857143,3315.7,1624.2857142857142,1018.0825892857143,3416.4,1624.2857142857142,1018.0825892857143,3516.6,1624.2857142857142,1018.0825892857143,3620.8,1624.2857142857142,1018.0825892857143,3721.3,1624.2857142857142,1018.0825892857143,3822.8,1624.2857142857142,1018.0825892857143,3926.3,1624.2857142857142,1018.0825892857143,4031,1624.2857142857142,1018.0825892857143,4131.2,1624.2857142857142,1018.0825892857143,4236.5,1624.2857142857142,1018.0825892857143,4339,1624.2857142857142,1018.0825892857143,4440.8,1624.2857142857142,1018.0825892857143,4541,1624.2857142857142,1018.0825892857143,4646.2,1624.2857142857142,1018.0825892857143,4751.1,1624.2857142857142,1018.0825892857143,4855.7,1624.2857142857142,1018.0825892857143,4956.3]","[1595.8,1595.8,1000,0,595.8,""oops"",""right"",""left"",""bad_move"",9293.5,7697.3,3633.7,5255.3,404.5,""oops"",""right"",""up"",""bad_move"",12039.2,2745.4,2316.6,9293.8,428.8,""smooth"",""down"",""down"",""good_move"",15001.5,2962,2603.5,12039.5,358.5,""oops"",""right"",""left"",""bad_move"",21444.8,6443.2,1885.2,19220.3,339.3,""oops"",""down"",""down"",""good_move"",31608.5,10163.4,3266.6,27922,419.9,""smooth"",""down"",""down"",""good_move"",34783.6,3174.9,2810,31608.7,364.9,""oops"",""right"",""up"",""bad_move""]","",""
"4732","","<div style=""width:500px;"">
  <p>What determined the result of this run?</p>
  </div>","3","html-slider-response","70","972111","0.0-10.0-1.6","10","1","2025-07-02 10:18:21","80fe4187154257d5fb01684ea91b68b9","2.217.27.245","Mozilla/5.0 (Macintosh; Intel Mac OS X 10_15_7) AppleWebKit/537.36 (KHTML, like Gecko) Chrome/137.0.0.0 Safari/537.36","Macintosh","Chrome","137.0.0.0","OS X","10_15_7","https://app.prolific.com/","en-GB,en-US;q=0.9,en;q=0.8","663ba5be68b9831a7ee50cfc","683db6dfa200031b80f2a654","6865075745da4c7fde57a47a","663ba5be68b9831a7ee50cfc","2025-07-02T10:34:34.932Z","","","","","","AttribQ","","","","","","","","","","","","","","","","","","","","","","","","","","","","","","","","","","","","","","50"
"3589","","<div style=""width:500px;"">
  <p>How much control did you have over the ball?</p>
  </div>","6","html-slider-response","71","975701","0.0-10.0-2.6","10","1","2025-07-02 10:18:21","80fe4187154257d5fb01684ea91b68b9","2.217.27.245","Mozilla/5.0 (Macintosh; Intel Mac OS X 10_15_7) AppleWebKit/537.36 (KHTML, like Gecko) Chrome/137.0.0.0 Safari/537.36","Macintosh","Chrome","137.0.0.0","OS X","10_15_7","https://app.prolific.com/","en-GB,en-US;q=0.9,en;q=0.8","663ba5be68b9831a7ee50cfc","683db6dfa200031b80f2a654","6865075745da4c7fde57a47a","663ba5be68b9831a7ee50cfc","2025-07-02T10:34:38.522Z","","","","","","ControlQ","","","","","","","","","","","","","","","","","","","","","","","","","","","","","","","","","","","","","","50"
"4139","","<div style=""width:500px;"">
  <p>How would you describe your current emotional state?</p>
  </div>","41","html-slider-response","72","979840","0.0-10.0-3.6","10","1","2025-07-02 10:18:21","80fe4187154257d5fb01684ea91b68b9","2.217.27.245","Mozilla/5.0 (Macintosh; Intel Mac OS X 10_15_7) AppleWebKit/537.36 (KHTML, like Gecko) Chrome/137.0.0.0 Safari/537.36","Macintosh","Chrome","137.0.0.0","OS X","10_15_7","https://app.prolific.com/","en-GB,en-US;q=0.9,en;q=0.8","663ba5be68b9831a7ee50cfc","683db6dfa200031b80f2a654","6865075745da4c7fde57a47a","663ba5be68b9831a7ee50cfc","2025-07-02T10:34:42.662Z","","","","","","StressQ","","","","","","","","","","","","","","","","","","","","","","","","","","","","","","","","","","","","","","50"
"3039","","<div style=""width:500px;"">
  <p>What best describes how you currently feel?</p>
  </div>","47","html-slider-response","73","982880","0.0-10.0-4.6","10","1","2025-07-02 10:18:21","80fe4187154257d5fb01684ea91b68b9","2.217.27.245","Mozilla/5.0 (Macintosh; Intel Mac OS X 10_15_7) AppleWebKit/537.36 (KHTML, like Gecko) Chrome/137.0.0.0 Safari/537.36","Macintosh","Chrome","137.0.0.0","OS X","10_15_7","https://app.prolific.com/","en-GB,en-US;q=0.9,en;q=0.8","663ba5be68b9831a7ee50cfc","683db6dfa200031b80f2a654","6865075745da4c7fde57a47a","663ba5be68b9831a7ee50cfc","2025-07-02T10:34:45.701Z","","","","","","MotivationQ","","","","","","","","","","","","","","","","","","","","","","","","","","","","","","","","","","","","","","50"
"","","","","ctl-task-cpt","74","1020881","0.0-10.0-0.7","10","1","2025-07-02 10:18:21","80fe4187154257d5fb01684ea91b68b9","2.217.27.245","Mozilla/5.0 (Macintosh; Intel Mac OS X 10_15_7) AppleWebKit/537.36 (KHTML, like Gecko) Chrome/137.0.0.0 Safari/537.36","Macintosh","Chrome","137.0.0.0","OS X","10_15_7","https://app.prolific.com/","en-GB,en-US;q=0.9,en;q=0.8","663ba5be68b9831a7ee50cfc","683db6dfa200031b80f2a654","6865075745da4c7fde57a47a","663ba5be68b9831a7ee50cfc","2025-07-02T10:35:23.702Z","","","","","","","","","","","","","","","","win-only","1","g1:NE,g2:SW","0.3","8","0","984116","1406.4","6410.5","34991","1","4","8","6","1","-1","-1","3","4","0.022727272727272728","1212.8","3000","-2995","[""up"",""right""]","{""num_key_presses"":7,""num_perfect"":3,""num_errors"":0,""num_randdir"":4,""num_randdir_good_moves"":2,""num_whilered"":0,""num_whileblue"":0,""num_blue"":2,""num_good_moves"":5}","[682.2857142857143,686.0825892857143,0.1,682.2857142857143,686.0825892857143,104.1,682.2857142857143,686.0825892857143,204.7,682.2857142857143,686.0825892857143,309.8,682.2857142857143,686.0825892857143,414.7,682.2857142857143,686.0825892857143,519.3,682.2857142857143,686.0825892857143,624.6,882.2857142857143,276.0825892857143,729.3,1236.2857142857142,-21.917410714285708,829.3,1272.2857142857142,-27.917410714285708,929.4,1250.2857142857142,92.08258928571429,1029.5,1244.2857142857142,132.08258928571428,1129.5,1244.2857142857142,132.08258928571428,1234.5,1244.2857142857142,132.08258928571428,1334.8,1244.2857142857142,132.08258928571428,1434.8,1244.2857142857142,132.08258928571428,1538.9,1806.2857142857142,358.0825892857143,1639.1,2132.285714285714,932.0825892857143,1744.7,2132.285714285714,932.0825892857143,1844.8,2132.285714285714,932.0825892857143,1944.8,2132.285714285714,932.0825892857143,2044.8,2132.285714285714,932.0825892857143,2149.8,2132.285714285714,932.0825892857143,2254.6,2132.285714285714,932.0825892857143,2359.7,2132.285714285714,932.0825892857143,2464.5,2132.285714285714,932.0825892857143,2570.9,2132.285714285714,932.0825892857143,2674.3,2132.285714285714,932.0825892857143,2779.9,2132.285714285714,932.0825892857143,2883.7,2132.285714285714,932.0825892857143,2984.3,2132.285714285714,932.0825892857143,3088.8,2132.285714285714,932.0825892857143,3189.5,2132.285714285714,932.0825892857143,3294.5,2132.285714285714,932.0825892857143,3394.6,2132.285714285714,932.0825892857143,3494.7,2132.285714285714,932.0825892857143,3600,2132.285714285714,932.0825892857143,3704.1,2132.285714285714,932.0825892857143,3804.7,2132.285714285714,932.0825892857143,3904.8,2132.285714285714,932.0825892857143,4009.1,2132.285714285714,932.0825892857143,4109.3,2132.285714285714,932.0825892857143,4214.2,2132.285714285714,932.0825892857143,4319,2132.285714285714,932.0825892857143,4424,2132.285714285714,932.0825892857143,4524.5,2132.285714285714,932.0825892857143,4628.7,2132.285714285714,932.0825892857143,4729.2,2132.285714285714,932.0825892857143,4829.2,2132.285714285714,932.0825892857143,4934]","[1444.5,1444.5,1000,0,444.5,""smooth"",""right"",""right"",""good_move"",4024.2,2579.5,2204.6,1444.7,374.9,""smooth"",""right"",""right"",""good_move"",7409.2,3384.8,3013.2,4024.5,371.6,""oops"",""up"",""left"",""bad_move"",17564.7,10155.2,3052,14019.9,492.8,""oops"",""up"",""right"",""good_move"",20202.3,2637.4,2268.8,17564.9,368.6,""smooth"",""up"",""up"",""good_move"",23577.4,3374.9,2834.6,20202.5,540.3,""oops"",""up"",""down"",""bad_move"",26548.9,2971.3,2724.7,23577.6,246.6,""oops"",""up"",""up"",""good_move""]","",""
"3307","","<div style=""width:500px;"">
  <p>What determined the result of this run?</p>
  </div>","5","html-slider-response","75","1024189","0.0-10.0-1.7","10","1","2025-07-02 10:18:21","80fe4187154257d5fb01684ea91b68b9","2.217.27.245","Mozilla/5.0 (Macintosh; Intel Mac OS X 10_15_7) AppleWebKit/537.36 (KHTML, like Gecko) Chrome/137.0.0.0 Safari/537.36","Macintosh","Chrome","137.0.0.0","OS X","10_15_7","https://app.prolific.com/","en-GB,en-US;q=0.9,en;q=0.8","663ba5be68b9831a7ee50cfc","683db6dfa200031b80f2a654","6865075745da4c7fde57a47a","663ba5be68b9831a7ee50cfc","2025-07-02T10:35:27.010Z","","","","","","AttribQ","","","","","","","","","","","","","","","","","","","","","","","","","","","","","","","","","","","","","","50"
"3218","","<div style=""width:500px;"">
  <p>How much control did you have over the ball?</p>
  </div>","18","html-slider-response","76","1027407","0.0-10.0-2.7","10","1","2025-07-02 10:18:21","80fe4187154257d5fb01684ea91b68b9","2.217.27.245","Mozilla/5.0 (Macintosh; Intel Mac OS X 10_15_7) AppleWebKit/537.36 (KHTML, like Gecko) Chrome/137.0.0.0 Safari/537.36","Macintosh","Chrome","137.0.0.0","OS X","10_15_7","https://app.prolific.com/","en-GB,en-US;q=0.9,en;q=0.8","663ba5be68b9831a7ee50cfc","683db6dfa200031b80f2a654","6865075745da4c7fde57a47a","663ba5be68b9831a7ee50cfc","2025-07-02T10:35:30.228Z","","","","","","ControlQ","","","","","","","","","","","","","","","","","","","","","","","","","","","","","","","","","","","","","","50"
"4049","","<div style=""width:500px;"">
  <p>How would you describe your current emotional state?</p>
  </div>","80","html-slider-response","77","1031457","0.0-10.0-3.7","10","1","2025-07-02 10:18:21","80fe4187154257d5fb01684ea91b68b9","2.217.27.245","Mozilla/5.0 (Macintosh; Intel Mac OS X 10_15_7) AppleWebKit/537.36 (KHTML, like Gecko) Chrome/137.0.0.0 Safari/537.36","Macintosh","Chrome","137.0.0.0","OS X","10_15_7","https://app.prolific.com/","en-GB,en-US;q=0.9,en;q=0.8","663ba5be68b9831a7ee50cfc","683db6dfa200031b80f2a654","6865075745da4c7fde57a47a","663ba5be68b9831a7ee50cfc","2025-07-02T10:35:34.278Z","","","","","","StressQ","","","","","","","","","","","","","","","","","","","","","","","","","","","","","","","","","","","","","","50"
"3565","","<div style=""width:500px;"">
  <p>What best describes how you currently feel?</p>
  </div>","50","html-slider-response","78","1035022","0.0-10.0-4.7","10","1","2025-07-02 10:18:21","80fe4187154257d5fb01684ea91b68b9","2.217.27.245","Mozilla/5.0 (Macintosh; Intel Mac OS X 10_15_7) AppleWebKit/537.36 (KHTML, like Gecko) Chrome/137.0.0.0 Safari/537.36","Macintosh","Chrome","137.0.0.0","OS X","10_15_7","https://app.prolific.com/","en-GB,en-US;q=0.9,en;q=0.8","663ba5be68b9831a7ee50cfc","683db6dfa200031b80f2a654","6865075745da4c7fde57a47a","663ba5be68b9831a7ee50cfc","2025-07-02T10:35:37.844Z","","","","","","MotivationQ","","","","","","","","","","","","","","","","","","","","","","","","","","","","","","","","","","","","","","50"
"","","","","ctl-task-cpt","79","1067213","0.0-10.0-0.8","10","1","2025-07-02 10:18:21","80fe4187154257d5fb01684ea91b68b9","2.217.27.245","Mozilla/5.0 (Macintosh; Intel Mac OS X 10_15_7) AppleWebKit/537.36 (KHTML, like Gecko) Chrome/137.0.0.0 Safari/537.36","Macintosh","Chrome","137.0.0.0","OS X","10_15_7","https://app.prolific.com/","en-GB,en-US;q=0.9,en;q=0.8","663ba5be68b9831a7ee50cfc","683db6dfa200031b80f2a654","6865075745da4c7fde57a47a","663ba5be68b9831a7ee50cfc","2025-07-02T10:36:10.034Z","","","","","","","","","","","","","","","","win-only","0","g1:NW,g2:SE","0.4","9","0","1036258.3","994.6","5996.2","29180.5","1","4","8","6","1","1","1","4","3","0.030303030303030304","871.8","3000","880","[""left"",""up""]","{""num_key_presses"":6,""num_perfect"":3,""num_errors"":0,""num_randdir"":3,""num_randdir_good_moves"":2,""num_whilered"":0,""num_whileblue"":0,""num_blue"":2,""num_good_moves"":5}","[694.2857142857143,690.0825892857143,0.2,694.2857142857143,690.0825892857143,101,694.2857142857143,690.0825892857143,201.5,694.2857142857143,690.0825892857143,305.8,694.2857142857143,690.0825892857143,406.6,604.2857142857143,654.0825892857143,511.3,306.2857142857143,392.0825892857143,611.3,168.28571428571428,236.08258928571428,716.5,148.28571428571428,212.08258928571428,820.9,148.28571428571428,212.08258928571428,921.1,148.28571428571428,212.08258928571428,1021.2,148.28571428571428,212.08258928571428,1126.1,96.28571428571429,216.08258928571428,1230.8,-409.7142857142857,606.0825892857143,1331.4,-409.7142857142857,606.0825892857143,1435.7,-409.7142857142857,606.0825892857143,1535.8,-409.7142857142857,606.0825892857143,1636,-409.7142857142857,606.0825892857143,1740.8,-409.7142857142857,606.0825892857143,1841.3,-409.7142857142857,606.0825892857143,1946,-409.7142857142857,606.0825892857143,2046.2,-409.7142857142857,606.0825892857143,2146.2,-409.7142857142857,606.0825892857143,2251.4,-409.7142857142857,608.0825892857143,2356.1,-405.7142857142857,600.0825892857143,2456.4,-405.7142857142857,598.0825892857143,2561.4,-405.7142857142857,598.0825892857143,2666.5,-405.7142857142857,600.0825892857143,2771.6,-405.7142857142857,600.0825892857143,2876,-405.7142857142857,600.0825892857143,2976.1,-405.7142857142857,600.0825892857143,3076.5,-405.7142857142857,600.0825892857143,3180.9,-405.7142857142857,600.0825892857143,3286.2,-405.7142857142857,600.0825892857143,3386.6,-405.7142857142857,600.0825892857143,3490.6,-405.7142857142857,600.0825892857143,3591.4,-405.7142857142857,600.0825892857143,3696.2,-405.7142857142857,600.0825892857143,3796.5,-405.7142857142857,600.0825892857143,3900.7,-405.7142857142857,600.0825892857143,4000.9,-405.7142857142857,600.0825892857143,4105.9,-405.7142857142857,600.0825892857143,4206.2,-405.7142857142857,600.0825892857143,4307.6,-405.7142857142857,600.0825892857143,4410.8,-405.7142857142857,600.0825892857143,4515.8,-405.7142857142857,600.0825892857143,4615.8,-405.7142857142857,600.0825892857143,4720.8,-405.7142857142857,600.0825892857143,4820.9,-405.7142857142857,600.0825892857143,4921.5]","[1403.2,1403.2,1000,0,403.2,""oops"",""left"",""left"",""good_move"",4265.3,2861.7,2510.4,1403.6,351.3,""smooth"",""left"",""left"",""good_move"",7333.4,3067.9,2710.6,4265.5,357.3,""oops"",""up"",""right"",""bad_move"",10000.5,2667,2347.6,7333.5,319.4,""oops"",""up"",""left"",""good_move"",15730.7,5730.1,1913.6,13458.9,358.2,""smooth"",""up"",""up"",""good_move"",23086.5,7355.6,3225,19499.9,361.6,""smooth"",""up"",""up"",""good_move""]","",""
"5110","","<div style=""width:500px;"">
  <p>What determined the result of this run?</p>
  </div>","50","html-slider-response","80","1072323","0.0-10.0-1.8","10","1","2025-07-02 10:18:21","80fe4187154257d5fb01684ea91b68b9","2.217.27.245","Mozilla/5.0 (Macintosh; Intel Mac OS X 10_15_7) AppleWebKit/537.36 (KHTML, like Gecko) Chrome/137.0.0.0 Safari/537.36","Macintosh","Chrome","137.0.0.0","OS X","10_15_7","https://app.prolific.com/","en-GB,en-US;q=0.9,en;q=0.8","663ba5be68b9831a7ee50cfc","683db6dfa200031b80f2a654","6865075745da4c7fde57a47a","663ba5be68b9831a7ee50cfc","2025-07-02T10:36:15.144Z","","","","","","AttribQ","","","","","","","","","","","","","","","","","","","","","","","","","","","","","","","","","","","","","","50"
"5674","","<div style=""width:500px;"">
  <p>How much control did you have over the ball?</p>
  </div>","56","html-slider-response","81","1077998","0.0-10.0-2.8","10","1","2025-07-02 10:18:21","80fe4187154257d5fb01684ea91b68b9","2.217.27.245","Mozilla/5.0 (Macintosh; Intel Mac OS X 10_15_7) AppleWebKit/537.36 (KHTML, like Gecko) Chrome/137.0.0.0 Safari/537.36","Macintosh","Chrome","137.0.0.0","OS X","10_15_7","https://app.prolific.com/","en-GB,en-US;q=0.9,en;q=0.8","663ba5be68b9831a7ee50cfc","683db6dfa200031b80f2a654","6865075745da4c7fde57a47a","663ba5be68b9831a7ee50cfc","2025-07-02T10:36:20.819Z","","","","","","ControlQ","","","","","","","","","","","","","","","","","","","","","","","","","","","","","","","","","","","","","","50"
"3290","","<div style=""width:500px;"">
  <p>How would you describe your current emotional state?</p>
  </div>","57","html-slider-response","82","1081289","0.0-10.0-3.8","10","1","2025-07-02 10:18:21","80fe4187154257d5fb01684ea91b68b9","2.217.27.245","Mozilla/5.0 (Macintosh; Intel Mac OS X 10_15_7) AppleWebKit/537.36 (KHTML, like Gecko) Chrome/137.0.0.0 Safari/537.36","Macintosh","Chrome","137.0.0.0","OS X","10_15_7","https://app.prolific.com/","en-GB,en-US;q=0.9,en;q=0.8","663ba5be68b9831a7ee50cfc","683db6dfa200031b80f2a654","6865075745da4c7fde57a47a","663ba5be68b9831a7ee50cfc","2025-07-02T10:36:24.110Z","","","","","","StressQ","","","","","","","","","","","","","","","","","","","","","","","","","","","","","","","","","","","","","","50"
"5715","","<div style=""width:500px;"">
  <p>What best describes how you currently feel?</p>
  </div>","50","html-slider-response","83","1087005","0.0-10.0-4.8","10","1","2025-07-02 10:18:21","80fe4187154257d5fb01684ea91b68b9","2.217.27.245","Mozilla/5.0 (Macintosh; Intel Mac OS X 10_15_7) AppleWebKit/537.36 (KHTML, like Gecko) Chrome/137.0.0.0 Safari/537.36","Macintosh","Chrome","137.0.0.0","OS X","10_15_7","https://app.prolific.com/","en-GB,en-US;q=0.9,en;q=0.8","663ba5be68b9831a7ee50cfc","683db6dfa200031b80f2a654","6865075745da4c7fde57a47a","663ba5be68b9831a7ee50cfc","2025-07-02T10:36:29.826Z","","","","","","MotivationQ","","","","","","","","","","","","","","","","","","","","","","","","","","","","","","","","","","","","","","50"
