"rt","response_timestamp","stimulus","response","trial_type","trial_index","time_elapsed","internal_node_id","run_id","condition","recorded_at","source_code_version","ip","user_agent","device","browser","browser_version","platform","platform_version","referer","accept_language","PROLIFIC_PID","STUDY_ID","SESSION_ID","prolific_id","realtime","view_history","question_order","consent","success","question_id","eventType","responses","item_order","radio_event_ids","radio_event_times","key_event_times","mouse_event_times","straightlining","zigzagging","honeypot","which_type","canvas_config","goals_layout","control_level","trial_number","tutorial_trial_number","trial_start_time","phase1_start_time","phase2_start_time","phase3_start_time","goal_1_value","goal_1_distance","goal_2_value","goal_2_distance","goal_selected","outcome","outcome_total","participant_final_score","participant_initial_score","participant_final_score_prop","goal_choice_rt","allocated_time","allocated_time_remaining","goal_direction","counts","mouse_movements","key_presses","correct","slider_start"
"65708","1751451611072","<p style='font-size:40px;line-height:1.25'><strong>Welcome to the experiment!</strong></p><p style='font-size:1.1em;line-height:1.25'>Thank you for your interest in our experiment! Before you begin, it is important that we obtain your informed consent to participate in the study.</p><p style='font-size:1.1em;line-height:1.25'>On the next screen will be an <strong>information sheet</strong> for you to read. To participate in the study we need you to read this information sheet and the following consent form carefully. If you agree with all the statements, please click the <strong>I agree</strong> button.</p><p style='font-size:1.1em;line-height:1.25'>Press <strong>Next</strong> to read the information sheet.</p>","0","custom-html-button-response","0","65708","0.0-0.0","78","1","2025-07-02 10:19:04","80fe4187154257d5fb01684ea91b68b9","92.53.153.233","Mozilla/5.0 (Windows NT 10.0; Win64; x64) AppleWebKit/537.36 (KHTML, like Gecko) Chrome/138.0.0.0 Safari/537.36","WebKit","Chrome","138.0.0.0","Windows","10.0","https://app.prolific.com/","en-GB,en;q=0.9,sl;q=0.8","664b4f0017b082f48ee8a033","683db6dfa200031b80f2a654","686507900f3513ea6fea65c3","664b4f0017b082f48ee8a033","2025-07-02T10:20:11.073Z","","","","","","","","","","","","","","","","","","","","","","","","","","","","","","","","","","","","","","","","","","","",""
"84643","","","","instructions","1","150352","0.0-1.0","78","1","2025-07-02 10:19:04","80fe4187154257d5fb01684ea91b68b9","92.53.153.233","Mozilla/5.0 (Windows NT 10.0; Win64; x64) AppleWebKit/537.36 (KHTML, like Gecko) Chrome/138.0.0.0 Safari/537.36","WebKit","Chrome","138.0.0.0","Windows","10.0","https://app.prolific.com/","en-GB,en;q=0.9,sl;q=0.8","664b4f0017b082f48ee8a033","683db6dfa200031b80f2a654","686507900f3513ea6fea65c3","664b4f0017b082f48ee8a033","","[{""page_index"":0,""viewing_time"":61076},{""page_index"":1,""viewing_time"":23567}]","","","","","","","","","","","","","","","","","","","","","","","","","","","","","","","","","","","","","","","","","","",""
"9104","","","{""Q0"":"""",""Q1"":"""",""Q2"":"""",""Q3"":"""",""Q4"":"""",""Q5"":"""",""Q6"":""I agree""}","survey-multi-choice","2","159458","0.0-2.0","78","1","2025-07-02 10:19:04","80fe4187154257d5fb01684ea91b68b9","92.53.153.233","Mozilla/5.0 (Windows NT 10.0; Win64; x64) AppleWebKit/537.36 (KHTML, like Gecko) Chrome/138.0.0.0 Safari/537.36","WebKit","Chrome","138.0.0.0","Windows","10.0","https://app.prolific.com/","en-GB,en;q=0.9,sl;q=0.8","664b4f0017b082f48ee8a033","683db6dfa200031b80f2a654","686507900f3513ea6fea65c3","664b4f0017b082f48ee8a033","","","[0,1,2,3,4,5,6]","true","","","","","","","","","","","","","","","","","","","","","","","","","","","","","","","","","","","","","","","","",""
"10748","","","","fullscreen","3","171208","0.0-4.0","78","1","2025-07-02 10:19:04","80fe4187154257d5fb01684ea91b68b9","92.53.153.233","Mozilla/5.0 (Windows NT 10.0; Win64; x64) AppleWebKit/537.36 (KHTML, like Gecko) Chrome/138.0.0.0 Safari/537.36","WebKit","Chrome","138.0.0.0","Windows","10.0","https://app.prolific.com/","en-GB,en;q=0.9,sl;q=0.8","664b4f0017b082f48ee8a033","683db6dfa200031b80f2a654","686507900f3513ea6fea65c3","664b4f0017b082f48ee8a033","","","","","true","","","","","","","","","","","","","","","","","","","","","","","","","","","","","","","","","","","","","","","",""
"5086","1751451721660"," <p style='font-size:1.1em;line-height:1.25'>Thank you for completing the consent form and closing all other tabs.</p><p style='font-size:1.1em;line-height:1.25'>We will now invite you to fill in some demographic information and questionnaires, before starting the game.<br>This will take about 5 minutes.<br></p><p style='font-size:1.1em;line-height:1.25'>Press the <strong>Next</strong> button to continue.</p>","0","custom-html-button-response","4","176295","0.0-5.0","78","1","2025-07-02 10:19:04","80fe4187154257d5fb01684ea91b68b9","92.53.153.233","Mozilla/5.0 (Windows NT 10.0; Win64; x64) AppleWebKit/537.36 (KHTML, like Gecko) Chrome/138.0.0.0 Safari/537.36","WebKit","Chrome","138.0.0.0","Windows","10.0","https://app.prolific.com/","en-GB,en;q=0.9,sl;q=0.8","664b4f0017b082f48ee8a033","683db6dfa200031b80f2a654","686507900f3513ea6fea65c3","664b4f0017b082f48ee8a033","2025-07-02T10:22:01.660Z","","","","","","","","","","","","","","","","","","","","","","","","","","","","","","","","","","","","","","","","","","","",""
"3222","","","{""age"":""39""}","survey-text","5","179519","0.0-6.0-0.0","78","1","2025-07-02 10:19:04","80fe4187154257d5fb01684ea91b68b9","92.53.153.233","Mozilla/5.0 (Windows NT 10.0; Win64; x64) AppleWebKit/537.36 (KHTML, like Gecko) Chrome/138.0.0.0 Safari/537.36","WebKit","Chrome","138.0.0.0","Windows","10.0","https://app.prolific.com/","en-GB,en;q=0.9,sl;q=0.8","664b4f0017b082f48ee8a033","683db6dfa200031b80f2a654","686507900f3513ea6fea65c3","664b4f0017b082f48ee8a033","","","","","","0","demographics","","","","","","","","","","","","","","","","","","","","","","","","","","","","","","","","","","","","","",""
"2837","","","{""gender_identity"":""male/man""}","survey-multi-choice","6","182357","0.0-6.0-1.0","78","1","2025-07-02 10:19:04","80fe4187154257d5fb01684ea91b68b9","92.53.153.233","Mozilla/5.0 (Windows NT 10.0; Win64; x64) AppleWebKit/537.36 (KHTML, like Gecko) Chrome/138.0.0.0 Safari/537.36","WebKit","Chrome","138.0.0.0","Windows","10.0","https://app.prolific.com/","en-GB,en;q=0.9,sl;q=0.8","664b4f0017b082f48ee8a033","683db6dfa200031b80f2a654","686507900f3513ea6fea65c3","664b4f0017b082f48ee8a033","","","[0]","","","1","demographics","","","","","","","","","","","","","","","","","","","","","","","","","","","","","","","","","","","","","",""
"2190","","","{""assigned_sex"":""male""}","survey-multi-choice","7","184548","0.0-6.0-2.0","78","1","2025-07-02 10:19:04","80fe4187154257d5fb01684ea91b68b9","92.53.153.233","Mozilla/5.0 (Windows NT 10.0; Win64; x64) AppleWebKit/537.36 (KHTML, like Gecko) Chrome/138.0.0.0 Safari/537.36","WebKit","Chrome","138.0.0.0","Windows","10.0","https://app.prolific.com/","en-GB,en;q=0.9,sl;q=0.8","664b4f0017b082f48ee8a033","683db6dfa200031b80f2a654","686507900f3513ea6fea65c3","664b4f0017b082f48ee8a033","","","[0]","","","2","demographics","","","","","","","","","","","","","","","","","","","","","","","","","","","","","","","","","","","","","",""
"4790","","","{""menstrual_cycle"":""No""}","survey-multi-choice","8","189339","0.0-6.0-3.0","78","1","2025-07-02 10:19:04","80fe4187154257d5fb01684ea91b68b9","92.53.153.233","Mozilla/5.0 (Windows NT 10.0; Win64; x64) AppleWebKit/537.36 (KHTML, like Gecko) Chrome/138.0.0.0 Safari/537.36","WebKit","Chrome","138.0.0.0","Windows","10.0","https://app.prolific.com/","en-GB,en;q=0.9,sl;q=0.8","664b4f0017b082f48ee8a033","683db6dfa200031b80f2a654","686507900f3513ea6fea65c3","664b4f0017b082f48ee8a033","","","[0]","","","4","demographics","","","","","","","","","","","","","","","","","","","","","","","","","","","","","","","","","","","","","",""
"6856","","","{""education"":""Master's Degree (e.g., MSc)""}","survey-multi-choice","9","196196","0.0-6.0-4.0","78","1","2025-07-02 10:19:04","80fe4187154257d5fb01684ea91b68b9","92.53.153.233","Mozilla/5.0 (Windows NT 10.0; Win64; x64) AppleWebKit/537.36 (KHTML, like Gecko) Chrome/138.0.0.0 Safari/537.36","WebKit","Chrome","138.0.0.0","Windows","10.0","https://app.prolific.com/","en-GB,en;q=0.9,sl;q=0.8","664b4f0017b082f48ee8a033","683db6dfa200031b80f2a654","686507900f3513ea6fea65c3","664b4f0017b082f48ee8a033","","","[0]","","","5","demographics","","","","","","","","","","","","","","","","","","","","","","","","","","","","","","","","","","","","","",""
"10315","","","{""education"":""Bachelor's Degree (e.g., BA)""}","survey-multi-choice","10","206512","0.0-6.0-5.0","78","1","2025-07-02 10:19:04","80fe4187154257d5fb01684ea91b68b9","92.53.153.233","Mozilla/5.0 (Windows NT 10.0; Win64; x64) AppleWebKit/537.36 (KHTML, like Gecko) Chrome/138.0.0.0 Safari/537.36","WebKit","Chrome","138.0.0.0","Windows","10.0","https://app.prolific.com/","en-GB,en;q=0.9,sl;q=0.8","664b4f0017b082f48ee8a033","683db6dfa200031b80f2a654","686507900f3513ea6fea65c3","664b4f0017b082f48ee8a033","2025-07-02T10:22:31.877Z","","[0]","","","6","demographics","","","","","","","","","","","","","","","","","","","","","","","","","","","","","","","","","","","","","",""
"70935","","","{""mental_health_condition"":""anxiety"",""mental_health_treatment"":""just medication"",""psychiatric_medication"":""Cipralex, 10mg per day""}","survey-text","11","277449","0.0-7.0-0.0","78","1","2025-07-02 10:19:04","80fe4187154257d5fb01684ea91b68b9","92.53.153.233","Mozilla/5.0 (Windows NT 10.0; Win64; x64) AppleWebKit/537.36 (KHTML, like Gecko) Chrome/138.0.0.0 Safari/537.36","WebKit","Chrome","138.0.0.0","Windows","10.0","https://app.prolific.com/","en-GB,en;q=0.9,sl;q=0.8","664b4f0017b082f48ee8a033","683db6dfa200031b80f2a654","686507900f3513ea6fea65c3","664b4f0017b082f48ee8a033","2025-07-02T10:23:42.814Z","","","","","1","mental_health","","","","","","","","","","","","","","","","","","","","","","","","","","","","","","","","","","","","","",""
"11683","","","{""depression_history"":[""No""]}","survey-multi-select","12","289134","0.0-7.0-1.0","78","1","2025-07-02 10:19:04","80fe4187154257d5fb01684ea91b68b9","92.53.153.233","Mozilla/5.0 (Windows NT 10.0; Win64; x64) AppleWebKit/537.36 (KHTML, like Gecko) Chrome/138.0.0.0 Safari/537.36","WebKit","Chrome","138.0.0.0","Windows","10.0","https://app.prolific.com/","en-GB,en;q=0.9,sl;q=0.8","664b4f0017b082f48ee8a033","683db6dfa200031b80f2a654","686507900f3513ea6fea65c3","664b4f0017b082f48ee8a033","","","[0]","","","","mental_health","","","","","","","","","","","","","","","","","","","","","","","","","","","","","","","","","","","","","",""
"71395.40000003576","","","","survey-template","13","360531","0.0-7.0-3.0","78","1","2025-07-02 10:19:04","80fe4187154257d5fb01684ea91b68b9","92.53.153.233","Mozilla/5.0 (Windows NT 10.0; Win64; x64) AppleWebKit/537.36 (KHTML, like Gecko) Chrome/138.0.0.0 Safari/537.36","WebKit","Chrome","138.0.0.0","Windows","10.0","https://app.prolific.com/","en-GB,en;q=0.9,sl;q=0.8","664b4f0017b082f48ee8a033","683db6dfa200031b80f2a654","686507900f3513ea6fea65c3","664b4f0017b082f48ee8a033","2025-07-02T10:25:05.896Z","","","","","","ius","{""Q01"":""3"",""Q02"":""3"",""Q03"":""0"",""Q04"":""0"",""Q05"":""1"",""Q06"":""2"",""Q07"":""1"",""Q08"":""0"",""Q09"":""3"",""Q10"":""1"",""Q11"":""1"",""Q12"":""1"",""Q13"":""1""}","[0,1,2,3,4,5,6,7,8,9,10,11,12]","[""Q01"",""Q02"",""Q03"",""Q04"",""Q05"",""Q06"",""Q07"",""Q08"",""Q09"",""Q10"",""Q11"",""Q12"",""Q13""]","[5105.800000011921,8305.900000035763,12988.900000035763,20249.80000001192,24169.80000001192,30299.900000035763,45053,47990.80000001192,54377,58982.80000001192,63598.10000002384,66706.90000003576,69830.80000001192]","[]","[5105.800000011921,7682.900000035763,8305.900000035763,11516.900000035763,12988.900000035763,17834.80000001192,20249.80000001192,24169.80000001192,30299.900000035763,45053,47990.80000001192,53743,54377,58982.80000001192,63598.10000002384,66706.90000003576,69830.80000001192,71394]","0.46153846153846156","0.3333333333333333","0","","","","","","","","","","","","","","","","","","","","","","","","","","","","",""
"2735","1751451908631","<p style='font-size:1.1em;line-height:1.25'>In the following, we will ask you a few questions relating to your experiences over the past month.<br></p><p style='font-size:1.1em;line-height:1.25'>Press the <strong>Next</strong> button to continue.</p>","0","custom-html-button-response","14","363267","0.0-7.0-4.0","78","1","2025-07-02 10:19:04","80fe4187154257d5fb01684ea91b68b9","92.53.153.233","Mozilla/5.0 (Windows NT 10.0; Win64; x64) AppleWebKit/537.36 (KHTML, like Gecko) Chrome/138.0.0.0 Safari/537.36","WebKit","Chrome","138.0.0.0","Windows","10.0","https://app.prolific.com/","en-GB,en;q=0.9,sl;q=0.8","664b4f0017b082f48ee8a033","683db6dfa200031b80f2a654","686507900f3513ea6fea65c3","664b4f0017b082f48ee8a033","2025-07-02T10:25:08.632Z","","","","","","","","","","","","","","","","","","","","","","","","","","","","","","","","","","","","","","","","","","","",""
"160165.80000001192","","","","survey-template","15","523433","0.0-7.0-5.0","78","1","2025-07-02 10:19:04","80fe4187154257d5fb01684ea91b68b9","92.53.153.233","Mozilla/5.0 (Windows NT 10.0; Win64; x64) AppleWebKit/537.36 (KHTML, like Gecko) Chrome/138.0.0.0 Safari/537.36","WebKit","Chrome","138.0.0.0","Windows","10.0","https://app.prolific.com/","en-GB,en;q=0.9,sl;q=0.8","664b4f0017b082f48ee8a033","683db6dfa200031b80f2a654","686507900f3513ea6fea65c3","664b4f0017b082f48ee8a033","2025-07-02T10:27:48.799Z","","","","","","pss","{""Q01"":""3"",""Q02"":""1"",""Q03"":""3"",""Q04"":""1"",""Q05"":""1"",""Q06"":""1"",""Q07"":""1"",""Q08"":""1"",""Q09"":""3"",""Q10"":""2""}","[0,1,2,3,4,5,6,7,8,9]","[""Q01"",""Q02"",""Q03"",""Q04"",""Q05"",""Q06"",""Q07"",""Q08"",""Q09"",""Q10""]","[5677.700000047684,122173.70000004768,124427.90000003576,128317.80000001192,135496.80000001192,140477.70000004768,145955.80000001192,151463.90000003576,155004.70000004768,159608.80000001192]","[]","[0,5677.700000047684,79878.5,119326.80000001192,119704.70000004768,120944.80000001192,122173.70000004768,123780.90000003576,124427.90000003576,128317.80000001192,134279.80000001192,135496.80000001192,140477.70000004768,145267.70000004768,145955.80000001192,150260.90000003576,151463.90000003576,155004.70000004768,159608.80000001192,160164.70000004768]","0.7","0.1111111111111111","0","","","","","","","","","","","","","","","","","","","","","","","","","","","","",""
"3114","1751452071914","<p style='font-size:1.1em;line-height:1.25'>Thank you for your answers! Now we will ask you a few more questions relating to your feelings in the last 24 hours.<br></p><p style='font-size:1.1em;line-height:1.25'>Press the <strong>Next</strong> button to continue.</p>","0","custom-html-button-response","16","526549","0.0-7.0-6.0","78","1","2025-07-02 10:19:04","80fe4187154257d5fb01684ea91b68b9","92.53.153.233","Mozilla/5.0 (Windows NT 10.0; Win64; x64) AppleWebKit/537.36 (KHTML, like Gecko) Chrome/138.0.0.0 Safari/537.36","WebKit","Chrome","138.0.0.0","Windows","10.0","https://app.prolific.com/","en-GB,en;q=0.9,sl;q=0.8","664b4f0017b082f48ee8a033","683db6dfa200031b80f2a654","686507900f3513ea6fea65c3","664b4f0017b082f48ee8a033","2025-07-02T10:27:51.914Z","","","","","","","","","","","","","","","","","","","","","","","","","","","","","","","","","","","","","","","","","","","",""
"155497.80000001192","","","","survey-template","17","682049","0.0-7.0-7.0","78","1","2025-07-02 10:19:04","80fe4187154257d5fb01684ea91b68b9","92.53.153.233","Mozilla/5.0 (Windows NT 10.0; Win64; x64) AppleWebKit/537.36 (KHTML, like Gecko) Chrome/138.0.0.0 Safari/537.36","WebKit","Chrome","138.0.0.0","Windows","10.0","https://app.prolific.com/","en-GB,en;q=0.9,sl;q=0.8","664b4f0017b082f48ee8a033","683db6dfa200031b80f2a654","686507900f3513ea6fea65c3","664b4f0017b082f48ee8a033","2025-07-02T10:30:27.414Z","","","","","","drsp","{""Q01"":""1"",""Q02"":""1"",""Q03"":""1"",""Q04"":""1"",""Q05"":""1"",""Q06"":""1"",""Q07"":""3"",""Q08"":""2"",""Q09"":""1"",""Q10"":""1"",""Q11"":""1"",""Q12"":""1"",""Q13"":""1"",""Q14"":""1"",""Q15"":""1"",""Q16"":""1"",""Q17"":""1"",""Q18"":""1"",""Q19"":""0"",""Q20"":""0"",""Q21"":""1""}","[0,1,2,3,4,5,6,7,8,9,10,11,12,13,14,15,16,17,18,19,20]","[""Q01"",""Q02"",""Q03"",""Q04"",""Q05"",""Q06"",""Q07"",""Q08"",""Q08"",""Q09"",""Q10"",""Q11"",""Q12"",""Q13"",""Q14"",""Q15"",""Q16"",""Q17"",""Q18"",""Q18"",""Q19"",""Q20"",""Q21"",""Q21""]","[4182.900000035763,6242.600000023842,25352.400000035763,27400.600000023842,28688.600000023842,30648.30000001192,37457.40000003576,39199.30000001192,40362.30000001192,44536.5,47060.5,49942.40000003576,51463.40000003576,52817.40000003576,56650.5,133436.20000004768,134122.5,134923.20000004768,139236.5,142122.5,145906.5,148910.30000001192,152586.40000003576,153919.30000001192]","[]","[0.10000002384185791,4182.900000035763,6242.600000023842,25352.400000035763,27400.600000023842,28688.600000023842,30648.30000001192,37457.40000003576,39199.30000001192,40362.30000001192,44536.5,47060.5,49942.40000003576,51463.40000003576,52817.40000003576,56263.40000003576,56650.5,132083.30000001192,133436.20000004768,134122.5,134923.20000004768,139236.5,141777.20000004768,142122.5,145906.5,148910.30000001192,152586.40000003576,153919.30000001192,155495.5]","0.8095238095238095","0.2","0","","","","","","","","","","","","","","","","","","","","","","","","","","","","",""
"13926.099999964237","","","","survey-template","18","695977","0.0-7.0-8.0","78","1","2025-07-02 10:19:04","80fe4187154257d5fb01684ea91b68b9","92.53.153.233","Mozilla/5.0 (Windows NT 10.0; Win64; x64) AppleWebKit/537.36 (KHTML, like Gecko) Chrome/138.0.0.0 Safari/537.36","WebKit","Chrome","138.0.0.0","Windows","10.0","https://app.prolific.com/","en-GB,en;q=0.9,sl;q=0.8","664b4f0017b082f48ee8a033","683db6dfa200031b80f2a654","686507900f3513ea6fea65c3","664b4f0017b082f48ee8a033","2025-07-02T10:30:41.342Z","","","","","","stress","{""Q01"":""1"",""Q02"":""3"",""Q03"":""1""}","[0,1,2]","[""Q01"",""Q02"",""Q03""]","[7850.899999976158,11309.899999976158,13203.800000011921]","[]","[6457.699999988079,7850.899999976158,11309.899999976158,13203.800000011921,13925.5]","0.6666666666666666","1","0","","","","","","","","","","","","","","","","","","","","","","","","","","","","",""
"48796","","","","instructions","19","744773","0.0-8.0-0.0","78","1","2025-07-02 10:19:04","80fe4187154257d5fb01684ea91b68b9","92.53.153.233","Mozilla/5.0 (Windows NT 10.0; Win64; x64) AppleWebKit/537.36 (KHTML, like Gecko) Chrome/138.0.0.0 Safari/537.36","WebKit","Chrome","138.0.0.0","Windows","10.0","https://app.prolific.com/","en-GB,en;q=0.9,sl;q=0.8","664b4f0017b082f48ee8a033","683db6dfa200031b80f2a654","686507900f3513ea6fea65c3","664b4f0017b082f48ee8a033","","[{""page_index"":0,""viewing_time"":11879},{""page_index"":1,""viewing_time"":15921},{""page_index"":2,""viewing_time"":6189},{""page_index"":3,""viewing_time"":14807}]","","","","","","","","","","","","","","","","","","","","","","","","","","","","","","","","","","","","","","","","","","",""
"","","","","ctl-task-cpt","20","790616","0.0-8.0-1.0","78","1","2025-07-02 10:19:04","80fe4187154257d5fb01684ea91b68b9","92.53.153.233","Mozilla/5.0 (Windows NT 10.0; Win64; x64) AppleWebKit/537.36 (KHTML, like Gecko) Chrome/138.0.0.0 Safari/537.36","WebKit","Chrome","138.0.0.0","Windows","10.0","https://app.prolific.com/","en-GB,en;q=0.9,sl;q=0.8","664b4f0017b082f48ee8a033","683db6dfa200031b80f2a654","686507900f3513ea6fea65c3","664b4f0017b082f48ee8a033","","","","","","","","","","","","","","","","","win-only","0","g1:NW,g2:SE","1","0","1","745976.9","2976","6976.6","42838.3","2","4","4","6","2","4","3","3","0","0.022727272727272728","1477.6","4000","1555","[""down"",""right""]","{""num_key_presses"":7,""num_perfect"":6,""num_errors"":1,""num_randdir"":0,""num_randdir_good_moves"":0,""num_whilered"":0,""num_whileblue"":0,""num_blue"":4,""num_good_moves"":6}","[471.8571428571429,458.7633928571429,0.1,471.8571428571429,458.7633928571429,104.2,471.8571428571429,458.7633928571429,204.4,471.8571428571429,458.7633928571429,310.4,471.8571428571429,458.7633928571429,410.5,471.8571428571429,458.7633928571429,515.4,471.8571428571429,458.7633928571429,621.1,471.8571428571429,458.7633928571429,732,471.8571428571429,458.7633928571429,834.7,471.8571428571429,458.7633928571429,935.7,471.8571428571429,458.7633928571429,1039.7,567.8571428571429,571.7633928571429,1145.7,813.8571428571429,771.7633928571429,1251.4,859.8571428571429,835.7633928571429,1356.4,870.8571428571429,880.7633928571429,1460.8,870.8571428571429,880.7633928571429,1572.3,871.8571428571429,881.7633928571429,1675.2,871.8571428571429,881.7633928571429,1776.4,865.8571428571429,861.7633928571429,1877,846.8571428571429,773.7633928571429,1980,845.8571428571429,725.7633928571429,2080.1,849.8571428571429,703.7633928571429,2181.1,850.8571428571429,702.7633928571429,2286,850.8571428571429,702.7633928571429,2386,862.8571428571429,698.7633928571429,2489.7,919.8571428571429,705.7633928571429,2589.9,928.8571428571429,710.7633928571429,2695.8,929.8571428571429,710.7633928571429,2795.8,930.8571428571429,710.7633928571429,2899.7,939.8571428571429,713.7633928571429,3000.7,942.8571428571429,713.7633928571429,3100.8,942.8571428571429,713.7633928571429,3204.8,942.8571428571429,713.7633928571429,3305.6,942.8571428571429,713.7633928571429,3409.7,942.8571428571429,713.7633928571429,3510.7,942.8571428571429,713.7633928571429,3614.8,942.8571428571429,713.7633928571429,3720.6,942.8571428571429,713.7633928571429,3824.4,942.8571428571429,713.7633928571429,3924.5]","[102.4,102.4,1000,0.1,-897.6,""error"",""-"",""-"",""no_move"",4287.8,4185.2,2823.4,1104.5,359.9,""smooth"",""right"",""right"",""good_move"",7437.4,3149.2,2734.9,4288.2,414.3,""smooth"",""down"",""down"",""good_move"",15310.8,7873.1,3601.5,11279.7,429.6,""smooth"",""right"",""right"",""good_move"",18171.9,2860.9,2414.6,15311,446.3,""smooth"",""down"",""down"",""good_move"",24715.2,6543.1,2469.2,21904.3,341.7,""smooth"",""right"",""right"",""good_move"",35772.6,11057.1,2907.3,32364.4,500.9,""smooth"",""down"",""down"",""good_move""]","",""
"15817","","","","instructions","21","806434","0.0-8.0-2.0","78","1","2025-07-02 10:19:04","80fe4187154257d5fb01684ea91b68b9","92.53.153.233","Mozilla/5.0 (Windows NT 10.0; Win64; x64) AppleWebKit/537.36 (KHTML, like Gecko) Chrome/138.0.0.0 Safari/537.36","WebKit","Chrome","138.0.0.0","Windows","10.0","https://app.prolific.com/","en-GB,en;q=0.9,sl;q=0.8","664b4f0017b082f48ee8a033","683db6dfa200031b80f2a654","686507900f3513ea6fea65c3","664b4f0017b082f48ee8a033","","[{""page_index"":0,""viewing_time"":15817}]","","","","","","","","","","","","","","","","","","","","","","","","","","","","","","","","","","","","","","","","","","",""
"","","","","ctl-task-cpt","22","855226","0.0-8.0-3.0","78","1","2025-07-02 10:19:04","80fe4187154257d5fb01684ea91b68b9","92.53.153.233","Mozilla/5.0 (Windows NT 10.0; Win64; x64) AppleWebKit/537.36 (KHTML, like Gecko) Chrome/138.0.0.0 Safari/537.36","WebKit","Chrome","138.0.0.0","Windows","10.0","https://app.prolific.com/","en-GB,en;q=0.9,sl;q=0.8","664b4f0017b082f48ee8a033","683db6dfa200031b80f2a654","686507900f3513ea6fea65c3","664b4f0017b082f48ee8a033","","","","","","","","","","","","","","","","","win-only","0","g1:NW,g2:SE","0.35","0","3","807637","1556.2","5560.9","45786.5","2","4","8","6","2","8","8","8","0","0.06060606060606061","1087.6","4000","1170","[""down"",""right""]","{""num_key_presses"":8,""num_perfect"":4,""num_errors"":0,""num_randdir"":4,""num_randdir_good_moves"":3,""num_whilered"":0,""num_whileblue"":0,""num_blue"":5,""num_good_moves"":7}","[463.8571428571429,460.7633928571429,0.2,463.8571428571429,460.7633928571429,101.1,463.8571428571429,460.7633928571429,205,463.8571428571429,460.7633928571429,309.5,463.8571428571429,460.7633928571429,410.3,463.8571428571429,460.7633928571429,515.6,368.8571428571429,322.7633928571429,616.1,361.8571428571429,331.7633928571429,719.8,795.8571428571429,834.7633928571429,822.3,826.8571428571429,871.7633928571429,924.8,847.8571428571429,878.7633928571429,1024.9,852.8571428571429,880.7633928571429,1125.8,852.8571428571429,880.7633928571429,1229.7,848.8571428571429,875.7633928571429,1330.8,849.8571428571429,852.7633928571429,1435,850.8571428571429,853.7633928571429,1537.6,849.8571428571429,836.7633928571429,1639.6,815.8571428571429,671.7633928571429,1739.8,818.8571428571429,653.7633928571429,1840,818.8571428571429,653.7633928571429,1944.7,825.8571428571429,630.7633928571429,2044.9,828.8571428571429,621.7633928571429,2153.1,831.8571428571429,613.7633928571429,2255.9,832.8571428571429,611.7633928571429,2360,832.8571428571429,610.7633928571429,2460.5,832.8571428571429,610.7633928571429,2564.8,832.8571428571429,610.7633928571429,2669.7,832.8571428571429,610.7633928571429,2774.6,832.8571428571429,610.7633928571429,2879.5,832.8571428571429,610.7633928571429,2979.7,832.8571428571429,610.7633928571429,3084.9,832.8571428571429,610.7633928571429,3190.2,832.8571428571429,610.7633928571429,3294.7,832.8571428571429,610.7633928571429,3396,832.8571428571429,610.7633928571429,3499.5,832.8571428571429,610.7633928571429,3604.3,832.8571428571429,610.7633928571429,3704.6,832.8571428571429,610.7633928571429,3804.8,832.8571428571429,610.7633928571429,3910.7]","[12423.3,12423.3,2368.2,9629.9,425.2,""smooth"",""right"",""right"",""good_move"",18662.8,6239,2461.8,15735.1,465.9,""smooth"",""right"",""right"",""good_move"",20864.1,2201.2,1706,18663,495.2,""oops"",""right"",""down"",""good_move"",28305.7,7441.1,3807.1,24125.6,373,""smooth"",""right"",""right"",""good_move"",31545.9,3240,2857.4,28305.9,382.6,""oops"",""down"",""down"",""good_move"",34523.8,2977.7,2574,31546.1,403.7,""oops"",""down"",""left"",""bad_move"",37115.8,2591.7,2229.1,34524.1,362.6,""oops"",""right"",""down"",""good_move"",40124.3,3007.9,2583.9,37116.4,424,""smooth"",""right"",""right"",""good_move""]","",""
"21625","","","","instructions","23","876852","0.0-8.0-4.0","78","1","2025-07-02 10:19:04","80fe4187154257d5fb01684ea91b68b9","92.53.153.233","Mozilla/5.0 (Windows NT 10.0; Win64; x64) AppleWebKit/537.36 (KHTML, like Gecko) Chrome/138.0.0.0 Safari/537.36","WebKit","Chrome","138.0.0.0","Windows","10.0","https://app.prolific.com/","en-GB,en;q=0.9,sl;q=0.8","664b4f0017b082f48ee8a033","683db6dfa200031b80f2a654","686507900f3513ea6fea65c3","664b4f0017b082f48ee8a033","","[{""page_index"":0,""viewing_time"":8064},{""page_index"":1,""viewing_time"":13561}]","","","","","","","","","","","","","","","","","","","","","","","","","","","","","","","","","","","","","","","","","","",""
"12476","","","{""green_ball"":[""Ball sometimes shakes and moves in a random direction""]}","survey-multi-select","24","889329","0.0-8.0-5.0-0.0","78","1","2025-07-02 10:19:04","80fe4187154257d5fb01684ea91b68b9","92.53.153.233","Mozilla/5.0 (Windows NT 10.0; Win64; x64) AppleWebKit/537.36 (KHTML, like Gecko) Chrome/138.0.0.0 Safari/537.36","WebKit","Chrome","138.0.0.0","Windows","10.0","https://app.prolific.com/","en-GB,en;q=0.9,sl;q=0.8","664b4f0017b082f48ee8a033","683db6dfa200031b80f2a654","686507900f3513ea6fea65c3","664b4f0017b082f48ee8a033","","","[0]","","","","quiz","","","","","","","","","","","","","","","","","","","","","","","","","","","","","","","","","","","","","true",""
"1899","","<p align='center'><b>CORRECT!</b> Indeed, the green ball may sometimes shake and move in a random direction.</p>","0","html-button-response","25","891230","0.0-8.0-5.0-1.0","78","1","2025-07-02 10:19:04","80fe4187154257d5fb01684ea91b68b9","92.53.153.233","Mozilla/5.0 (Windows NT 10.0; Win64; x64) AppleWebKit/537.36 (KHTML, like Gecko) Chrome/138.0.0.0 Safari/537.36","WebKit","Chrome","138.0.0.0","Windows","10.0","https://app.prolific.com/","en-GB,en;q=0.9,sl;q=0.8","664b4f0017b082f48ee8a033","683db6dfa200031b80f2a654","686507900f3513ea6fea65c3","664b4f0017b082f48ee8a033","","","","","","","","","","","","","","","","","","","","","","","","","","","","","","","","","","","","","","","","","","","","",""
"7569","","","{""yellow_ball"":[""Ball doesn‘t move and I get -1 penalty point""]}","survey-multi-select","26","898801","0.0-8.0-6.0-0.0","78","1","2025-07-02 10:19:04","80fe4187154257d5fb01684ea91b68b9","92.53.153.233","Mozilla/5.0 (Windows NT 10.0; Win64; x64) AppleWebKit/537.36 (KHTML, like Gecko) Chrome/138.0.0.0 Safari/537.36","WebKit","Chrome","138.0.0.0","Windows","10.0","https://app.prolific.com/","en-GB,en;q=0.9,sl;q=0.8","664b4f0017b082f48ee8a033","683db6dfa200031b80f2a654","686507900f3513ea6fea65c3","664b4f0017b082f48ee8a033","","","[0]","","","","quiz","","","","","","","","","","","","","","","","","","","","","","","","","","","","","","","","","","","","","true",""
"1241","","<p align='center'><b>CORRECT!</b> Indeed, the yellow ball never moves and you receive a penalty.</p>","0","html-button-response","27","900042","0.0-8.0-6.0-1.0","78","1","2025-07-02 10:19:04","80fe4187154257d5fb01684ea91b68b9","92.53.153.233","Mozilla/5.0 (Windows NT 10.0; Win64; x64) AppleWebKit/537.36 (KHTML, like Gecko) Chrome/138.0.0.0 Safari/537.36","WebKit","Chrome","138.0.0.0","Windows","10.0","https://app.prolific.com/","en-GB,en;q=0.9,sl;q=0.8","664b4f0017b082f48ee8a033","683db6dfa200031b80f2a654","686507900f3513ea6fea65c3","664b4f0017b082f48ee8a033","","","","","","","","","","","","","","","","","","","","","","","","","","","","","","","","","","","","","","","","","","","","",""
"8204","","","{""blue_ball"":[""Ball always shakes and moves in a random direction""]}","survey-multi-select","28","908248","0.0-8.0-7.0-0.0","78","1","2025-07-02 10:19:04","80fe4187154257d5fb01684ea91b68b9","92.53.153.233","Mozilla/5.0 (Windows NT 10.0; Win64; x64) AppleWebKit/537.36 (KHTML, like Gecko) Chrome/138.0.0.0 Safari/537.36","WebKit","Chrome","138.0.0.0","Windows","10.0","https://app.prolific.com/","en-GB,en;q=0.9,sl;q=0.8","664b4f0017b082f48ee8a033","683db6dfa200031b80f2a654","686507900f3513ea6fea65c3","664b4f0017b082f48ee8a033","","","[0]","","","","quiz","","","","","","","","","","","","","","","","","","","","","","","","","","","","","","","","","","","","","true",""
"1106","","<p align='center'><b>CORRECT!</b> Indeed, the blue ball always shakes and moves in a random direction. Also there is a penalty of -1 point.</p>","0","html-button-response","29","909354","0.0-8.0-7.0-1.0","78","1","2025-07-02 10:19:04","80fe4187154257d5fb01684ea91b68b9","92.53.153.233","Mozilla/5.0 (Windows NT 10.0; Win64; x64) AppleWebKit/537.36 (KHTML, like Gecko) Chrome/138.0.0.0 Safari/537.36","WebKit","Chrome","138.0.0.0","Windows","10.0","https://app.prolific.com/","en-GB,en;q=0.9,sl;q=0.8","664b4f0017b082f48ee8a033","683db6dfa200031b80f2a654","686507900f3513ea6fea65c3","664b4f0017b082f48ee8a033","","","","","","","","","","","","","","","","","","","","","","","","","","","","","","","","","","","","","","","","","","","","",""
"4573","","","{""bonus"":[""When I reach 50% of points""]}","survey-multi-select","30","913929","0.0-8.0-8.0-0.0","78","1","2025-07-02 10:19:04","80fe4187154257d5fb01684ea91b68b9","92.53.153.233","Mozilla/5.0 (Windows NT 10.0; Win64; x64) AppleWebKit/537.36 (KHTML, like Gecko) Chrome/138.0.0.0 Safari/537.36","WebKit","Chrome","138.0.0.0","Windows","10.0","https://app.prolific.com/","en-GB,en;q=0.9,sl;q=0.8","664b4f0017b082f48ee8a033","683db6dfa200031b80f2a654","686507900f3513ea6fea65c3","664b4f0017b082f48ee8a033","","","[0]","","","","quiz","","","","","","","","","","","","","","","","","","","","","","","","","","","","","","","","","","","","","true",""
"925","","<p align='center'><b>CORRECT!</b> Indeed, you receive 2 pounds extra when you reach 50% of points.</p>","0","html-button-response","31","914855","0.0-8.0-8.0-1.0","78","1","2025-07-02 10:19:04","80fe4187154257d5fb01684ea91b68b9","92.53.153.233","Mozilla/5.0 (Windows NT 10.0; Win64; x64) AppleWebKit/537.36 (KHTML, like Gecko) Chrome/138.0.0.0 Safari/537.36","WebKit","Chrome","138.0.0.0","Windows","10.0","https://app.prolific.com/","en-GB,en;q=0.9,sl;q=0.8","664b4f0017b082f48ee8a033","683db6dfa200031b80f2a654","686507900f3513ea6fea65c3","664b4f0017b082f48ee8a033","","","","","","","","","","","","","","","","","","","","","","","","","","","","","","","","","","","","","","","","","","","","",""
"1476","","","","instructions","32","916332","0.0-8.0-9.0","78","1","2025-07-02 10:19:04","80fe4187154257d5fb01684ea91b68b9","92.53.153.233","Mozilla/5.0 (Windows NT 10.0; Win64; x64) AppleWebKit/537.36 (KHTML, like Gecko) Chrome/138.0.0.0 Safari/537.36","WebKit","Chrome","138.0.0.0","Windows","10.0","https://app.prolific.com/","en-GB,en;q=0.9,sl;q=0.8","664b4f0017b082f48ee8a033","683db6dfa200031b80f2a654","686507900f3513ea6fea65c3","664b4f0017b082f48ee8a033","","[{""page_index"":0,""viewing_time"":1476}]","","","","","","","","","","","","","","","","","","","","","","","","","","","","","","","","","","","","","","","","","","",""
"16573","","<p>Before you start with this game please answer the following three questions yourself. </p>
  <p>Through this game, we measure several aspects of your cognitive performance, such as reaction times, multi-tasking capabilities </p>
  <p>and the ability to assess the situation you are in.</p>
  <p></p>
  <p><b>How good do you usually are in such tasks?</b></p>","83","html-slider-response","33","932906","0.0-9.0-0.0","78","1","2025-07-02 10:19:04","80fe4187154257d5fb01684ea91b68b9","92.53.153.233","Mozilla/5.0 (Windows NT 10.0; Win64; x64) AppleWebKit/537.36 (KHTML, like Gecko) Chrome/138.0.0.0 Safari/537.36","WebKit","Chrome","138.0.0.0","Windows","10.0","https://app.prolific.com/","en-GB,en;q=0.9,sl;q=0.8","664b4f0017b082f48ee8a033","683db6dfa200031b80f2a654","686507900f3513ea6fea65c3","664b4f0017b082f48ee8a033","2025-07-02T10:34:38.271Z","","","","","","PreSkillQ","","","","","","","","","","","","","","","","","","","","","","","","","","","","","","","","","","","","","","50"
"5216","","<div style=""width:500px;"">
  <p>How well do you think you will perform in this task compared to other participants?</p>
  </div>","71","html-slider-response","34","938122","0.0-9.0-1.0","78","1","2025-07-02 10:19:04","80fe4187154257d5fb01684ea91b68b9","92.53.153.233","Mozilla/5.0 (Windows NT 10.0; Win64; x64) AppleWebKit/537.36 (KHTML, like Gecko) Chrome/138.0.0.0 Safari/537.36","WebKit","Chrome","138.0.0.0","Windows","10.0","https://app.prolific.com/","en-GB,en;q=0.9,sl;q=0.8","664b4f0017b082f48ee8a033","683db6dfa200031b80f2a654","686507900f3513ea6fea65c3","664b4f0017b082f48ee8a033","2025-07-02T10:34:43.488Z","","","","","","PrePerfQ","","","","","","","","","","","","","","","","","","","","","","","","","","","","","","","","","","","","","","50"
"4393","","<div style=""width:500px;"">
  <p>What best describes how you currently feel?</p>
  </div>","72","html-slider-response","35","942517","0.0-9.0-2.0","78","1","2025-07-02 10:19:04","80fe4187154257d5fb01684ea91b68b9","92.53.153.233","Mozilla/5.0 (Windows NT 10.0; Win64; x64) AppleWebKit/537.36 (KHTML, like Gecko) Chrome/138.0.0.0 Safari/537.36","WebKit","Chrome","138.0.0.0","Windows","10.0","https://app.prolific.com/","en-GB,en;q=0.9,sl;q=0.8","664b4f0017b082f48ee8a033","683db6dfa200031b80f2a654","686507900f3513ea6fea65c3","664b4f0017b082f48ee8a033","2025-07-02T10:34:47.882Z","","","","","","PreMotivationQ","","","","","","","","","","","","","","","","","","","","","","","","","","","","","","","","","","","","","","50"
"","","","","ctl-task-cpt","36","973868","0.0-10.0-0.0","78","1","2025-07-02 10:19:04","80fe4187154257d5fb01684ea91b68b9","92.53.153.233","Mozilla/5.0 (Windows NT 10.0; Win64; x64) AppleWebKit/537.36 (KHTML, like Gecko) Chrome/138.0.0.0 Safari/537.36","WebKit","Chrome","138.0.0.0","Windows","10.0","https://app.prolific.com/","en-GB,en;q=0.9,sl;q=0.8","664b4f0017b082f48ee8a033","683db6dfa200031b80f2a654","686507900f3513ea6fea65c3","664b4f0017b082f48ee8a033","2025-07-02T10:35:19.233Z","","","","","","","","","","","","","","","","win-only","0","g1:NW,g2:SE","1","1","0","943721.3","1315.9","6319.3","28330.7","1","4","8","6","2","8","8","8","0","0.06060606060606061","872.9","3000","1010","[""down"",""right""]","{""num_key_presses"":6,""num_perfect"":6,""num_errors"":0,""num_randdir"":0,""num_randdir_good_moves"":0,""num_whilered"":0,""num_whileblue"":0,""num_blue"":2,""num_good_moves"":6}","[454.8571428571429,460.7633928571429,0.2,455.8571428571429,460.7633928571429,100.2,456.8571428571429,461.7633928571429,200.5,440.8571428571429,471.7633928571429,304.9,442.8571428571429,470.7633928571429,405.7,649.8571428571429,700.7633928571429,509.8,751.8571428571429,863.7633928571429,615,789.8571428571429,881.7633928571429,718.5,806.8571428571429,868.7633928571429,819.4,809.8571428571429,866.7633928571429,920.3,807.8571428571429,866.7633928571429,1026.1,797.8571428571429,851.7633928571429,1131.1,777.8571428571429,854.7633928571429,1235.6,743.8571428571429,808.7633928571429,1340,695.8571428571429,726.7633928571429,1441,679.8571428571429,726.7633928571429,1553.2,678.8571428571429,690.7633928571429,1655.9,698.8571428571429,640.7633928571429,1756.2,701.8571428571429,632.7633928571429,1860.3,702.8571428571429,631.7633928571429,1964.6,702.8571428571429,631.7633928571429,2070,702.8571428571429,631.7633928571429,2170.4,702.8571428571429,631.7633928571429,2270.8,702.8571428571429,631.7633928571429,2375.2,702.8571428571429,631.7633928571429,2481.5,702.8571428571429,631.7633928571429,2584.5,702.8571428571429,631.7633928571429,2684.5,702.8571428571429,631.7633928571429,2784.6,702.8571428571429,631.7633928571429,2885.7,702.8571428571429,631.7633928571429,2986.3,702.8571428571429,631.7633928571429,3090.3,702.8571428571429,631.7633928571429,3196,702.8571428571429,631.7633928571429,3300.1,702.8571428571429,631.7633928571429,3404.6,702.8571428571429,631.7633928571429,3509.5,702.8571428571429,631.7633928571429,3609.8,702.8571428571429,631.7633928571429,3716.4,702.8571428571429,631.7633928571429,3820.6,702.8571428571429,631.7633928571429,3924.9,711.8571428571429,633.7633928571429,4029.5,711.8571428571429,633.7633928571429,4129.6,711.8571428571429,633.7633928571429,4229.9,711.8571428571429,633.7633928571429,4329.9,711.8571428571429,633.7633928571429,4429.9,711.8571428571429,633.7633928571429,4530.1,711.8571428571429,633.7633928571429,4643.3,711.8571428571429,633.7633928571429,4750.1,711.8571428571429,633.7633928571429,4855.9,711.8571428571429,633.7633928571429,4959.8]","[1380.4,1380.4,1000,0,380.4,""smooth"",""right"",""right"",""good_move"",4324.2,2943.3,2552.6,1380.9,390.7,""smooth"",""right"",""right"",""good_move"",10312.3,5987.9,2335.9,7656.7,319.7,""smooth"",""right"",""right"",""good_move"",17100.6,6788.2,3204.6,13486.8,409.2,""smooth"",""down"",""down"",""good_move"",18716,1615.2,1184.7,17100.9,430.4,""smooth"",""down"",""down"",""good_move"",21910.1,3193.9,2812.2,18716.2,381.7,""smooth"",""down"",""down"",""good_move""]","",""
"4357","","<div style=""width:500px;"">
  <p>What determined the result of this run?</p>
  </div>","100","html-slider-response","37","978226","0.0-10.0-1.0","78","1","2025-07-02 10:19:04","80fe4187154257d5fb01684ea91b68b9","92.53.153.233","Mozilla/5.0 (Windows NT 10.0; Win64; x64) AppleWebKit/537.36 (KHTML, like Gecko) Chrome/138.0.0.0 Safari/537.36","WebKit","Chrome","138.0.0.0","Windows","10.0","https://app.prolific.com/","en-GB,en;q=0.9,sl;q=0.8","664b4f0017b082f48ee8a033","683db6dfa200031b80f2a654","686507900f3513ea6fea65c3","664b4f0017b082f48ee8a033","2025-07-02T10:35:23.591Z","","","","","","AttribQ","","","","","","","","","","","","","","","","","","","","","","","","","","","","","","","","","","","","","","50"
"2569","","<div style=""width:500px;"">
  <p>How much control did you have over the ball?</p>
  </div>","100","html-slider-response","38","980796","0.0-10.0-2.0","78","1","2025-07-02 10:19:04","80fe4187154257d5fb01684ea91b68b9","92.53.153.233","Mozilla/5.0 (Windows NT 10.0; Win64; x64) AppleWebKit/537.36 (KHTML, like Gecko) Chrome/138.0.0.0 Safari/537.36","WebKit","Chrome","138.0.0.0","Windows","10.0","https://app.prolific.com/","en-GB,en;q=0.9,sl;q=0.8","664b4f0017b082f48ee8a033","683db6dfa200031b80f2a654","686507900f3513ea6fea65c3","664b4f0017b082f48ee8a033","2025-07-02T10:35:26.161Z","","","","","","ControlQ","","","","","","","","","","","","","","","","","","","","","","","","","","","","","","","","","","","","","","50"
"3653","","<div style=""width:500px;"">
  <p>How would you describe your current emotional state?</p>
  </div>","0","html-slider-response","39","984450","0.0-10.0-3.0","78","1","2025-07-02 10:19:04","80fe4187154257d5fb01684ea91b68b9","92.53.153.233","Mozilla/5.0 (Windows NT 10.0; Win64; x64) AppleWebKit/537.36 (KHTML, like Gecko) Chrome/138.0.0.0 Safari/537.36","WebKit","Chrome","138.0.0.0","Windows","10.0","https://app.prolific.com/","en-GB,en;q=0.9,sl;q=0.8","664b4f0017b082f48ee8a033","683db6dfa200031b80f2a654","686507900f3513ea6fea65c3","664b4f0017b082f48ee8a033","2025-07-02T10:35:29.815Z","","","","","","StressQ","","","","","","","","","","","","","","","","","","","","","","","","","","","","","","","","","","","","","","50"
"3480","","<div style=""width:500px;"">
  <p>What best describes how you currently feel?</p>
  </div>","69","html-slider-response","40","987931","0.0-10.0-4.0","78","1","2025-07-02 10:19:04","80fe4187154257d5fb01684ea91b68b9","92.53.153.233","Mozilla/5.0 (Windows NT 10.0; Win64; x64) AppleWebKit/537.36 (KHTML, like Gecko) Chrome/138.0.0.0 Safari/537.36","WebKit","Chrome","138.0.0.0","Windows","10.0","https://app.prolific.com/","en-GB,en;q=0.9,sl;q=0.8","664b4f0017b082f48ee8a033","683db6dfa200031b80f2a654","686507900f3513ea6fea65c3","664b4f0017b082f48ee8a033","2025-07-02T10:35:33.296Z","","","","","","MotivationQ","","","","","","","","","","","","","","","","","","","","","","","","","","","","","","","","","","","","","","50"
"","","","","ctl-task-cpt","41","1016125","0.0-10.0-0.1","78","1","2025-07-02 10:19:04","80fe4187154257d5fb01684ea91b68b9","92.53.153.233","Mozilla/5.0 (Windows NT 10.0; Win64; x64) AppleWebKit/537.36 (KHTML, like Gecko) Chrome/138.0.0.0 Safari/537.36","WebKit","Chrome","138.0.0.0","Windows","10.0","https://app.prolific.com/","en-GB,en;q=0.9,sl;q=0.8","664b4f0017b082f48ee8a033","683db6dfa200031b80f2a654","686507900f3513ea6fea65c3","664b4f0017b082f48ee8a033","2025-07-02T10:36:01.491Z","","","","","","","","","","","","","","","","win-only","2","g1:SE,g2:NW","0.9","2","0","989136.5","967.3","5971.3","25186.2","1","4","4","6","2","4","4","12","8","0.09090909090909091","954.5","3000","970","[""left"",""up""]","{""num_key_presses"":6,""num_perfect"":6,""num_errors"":0,""num_randdir"":0,""num_randdir_good_moves"":0,""num_whilered"":0,""num_whileblue"":0,""num_blue"":1,""num_good_moves"":6}","[471.8571428571429,462.7633928571429,0.3,471.8571428571429,462.7633928571429,115.7,471.8571428571429,462.7633928571429,219.8,471.8571428571429,462.7633928571429,319.9,471.8571428571429,462.7633928571429,424.7,597.8571428571429,589.7633928571429,529.2,505.8571428571429,472.7633928571429,643.7,97.85714285714286,118.76339285714286,743.7,72.85714285714286,62.76339285714286,846.2,59.85714285714286,38.76339285714286,956.3,59.85714285714286,38.76339285714286,1058.9,59.85714285714286,40.76339285714286,1159.2,73.85714285714286,60.76339285714286,1264.7,264.8571428571429,233.76339285714286,1376.5,476.8571428571429,352.7633928571429,1480,499.8571428571429,365.7633928571429,1584.5,555.8571428571429,383.7633928571429,1691.9,580.8571428571429,394.7633928571429,1797.6,604.8571428571429,417.7633928571429,1898.1,597.8571428571429,423.7633928571429,1998.5,615.8571428571429,403.7633928571429,2098.8,688.8571428571429,396.7633928571429,2204.6,688.8571428571429,393.7633928571429,2312.8,688.8571428571429,392.7633928571429,2414.3,680.8571428571429,388.7633928571429,2518.5,680.8571428571429,388.7633928571429,2623.9,680.8571428571429,388.7633928571429,2728.5,680.8571428571429,388.7633928571429,2829,680.8571428571429,388.7633928571429,2929,680.8571428571429,388.7633928571429,3029.2,680.8571428571429,388.7633928571429,3133.2,680.8571428571429,388.7633928571429,3238.7,680.8571428571429,388.7633928571429,3343.3,680.8571428571429,388.7633928571429,3444,680.8571428571429,388.7633928571429,3549.3,680.8571428571429,388.7633928571429,3653.3,680.8571428571429,388.7633928571429,3753.5,680.8571428571429,388.7633928571429,3859.2,680.8571428571429,388.7633928571429,3959.2,680.8571428571429,388.7633928571429,4063.6,680.8571428571429,388.7633928571429,4168,680.8571428571429,388.7633928571429,4269.1,680.8571428571429,388.7633928571429,4381.6,680.8571428571429,388.7633928571429,4484.5,680.8571428571429,388.7633928571429,4589.3,680.8571428571429,388.7633928571429,4694.2,680.8571428571429,388.7633928571429,4798.8,680.8571428571429,388.7633928571429,4898.8]","[1388.5,1388.5,1000,0,388.5,""smooth"",""up"",""up"",""good_move"",3890.7,2501.5,2149.6,1389.2,351.9,""smooth"",""up"",""up"",""good_move"",10637,6746.2,3022.4,7289.6,325,""smooth"",""up"",""up"",""good_move"",13058,2420.8,2076.7,10637.2,344.1,""smooth"",""left"",""left"",""good_move"",16457.8,3399.5,3036.7,13058.3,362.8,""smooth"",""left"",""left"",""good_move"",19129.7,2671.7,2373.1,16458,298.6,""smooth"",""left"",""left"",""good_move""]","",""
"3373","","<div style=""width:500px;"">
  <p>What determined the result of this run?</p>
  </div>","100","html-slider-response","42","1019499","0.0-10.0-1.1","78","1","2025-07-02 10:19:04","80fe4187154257d5fb01684ea91b68b9","92.53.153.233","Mozilla/5.0 (Windows NT 10.0; Win64; x64) AppleWebKit/537.36 (KHTML, like Gecko) Chrome/138.0.0.0 Safari/537.36","WebKit","Chrome","138.0.0.0","Windows","10.0","https://app.prolific.com/","en-GB,en;q=0.9,sl;q=0.8","664b4f0017b082f48ee8a033","683db6dfa200031b80f2a654","686507900f3513ea6fea65c3","664b4f0017b082f48ee8a033","2025-07-02T10:36:04.864Z","","","","","","AttribQ","","","","","","","","","","","","","","","","","","","","","","","","","","","","","","","","","","","","","","50"
"4085","","<div style=""width:500px;"">
  <p>How much control did you have over the ball?</p>
  </div>","83","html-slider-response","43","1023585","0.0-10.0-2.1","78","1","2025-07-02 10:19:04","80fe4187154257d5fb01684ea91b68b9","92.53.153.233","Mozilla/5.0 (Windows NT 10.0; Win64; x64) AppleWebKit/537.36 (KHTML, like Gecko) Chrome/138.0.0.0 Safari/537.36","WebKit","Chrome","138.0.0.0","Windows","10.0","https://app.prolific.com/","en-GB,en;q=0.9,sl;q=0.8","664b4f0017b082f48ee8a033","683db6dfa200031b80f2a654","686507900f3513ea6fea65c3","664b4f0017b082f48ee8a033","2025-07-02T10:36:08.950Z","","","","","","ControlQ","","","","","","","","","","","","","","","","","","","","","","","","","","","","","","","","","","","","","","50"
"41443","","<div style=""width:500px;"">
  <p>How would you describe your current emotional state?</p>
  </div>","10","html-slider-response","44","1065029","0.0-10.0-3.1","78","1","2025-07-02 10:19:04","80fe4187154257d5fb01684ea91b68b9","92.53.153.233","Mozilla/5.0 (Windows NT 10.0; Win64; x64) AppleWebKit/537.36 (KHTML, like Gecko) Chrome/138.0.0.0 Safari/537.36","WebKit","Chrome","138.0.0.0","Windows","10.0","https://app.prolific.com/","en-GB,en;q=0.9,sl;q=0.8","664b4f0017b082f48ee8a033","683db6dfa200031b80f2a654","686507900f3513ea6fea65c3","664b4f0017b082f48ee8a033","2025-07-02T10:36:50.394Z","","","","","","StressQ","","","","","","","","","","","","","","","","","","","","","","","","","","","","","","","","","","","","","","50"
"3200","","<div style=""width:500px;"">
  <p>What best describes how you currently feel?</p>
  </div>","67","html-slider-response","45","1068229","0.0-10.0-4.1","78","1","2025-07-02 10:19:04","80fe4187154257d5fb01684ea91b68b9","92.53.153.233","Mozilla/5.0 (Windows NT 10.0; Win64; x64) AppleWebKit/537.36 (KHTML, like Gecko) Chrome/138.0.0.0 Safari/537.36","WebKit","Chrome","138.0.0.0","Windows","10.0","https://app.prolific.com/","en-GB,en;q=0.9,sl;q=0.8","664b4f0017b082f48ee8a033","683db6dfa200031b80f2a654","686507900f3513ea6fea65c3","664b4f0017b082f48ee8a033","2025-07-02T10:36:53.594Z","","","","","","MotivationQ","","","","","","","","","","","","","","","","","","","","","","","","","","","","","","","","","","","","","","50"
"","","","","ctl-task-cpt","46","1099359","0.0-10.0-0.2","78","1","2025-07-02 10:19:04","80fe4187154257d5fb01684ea91b68b9","92.53.153.233","Mozilla/5.0 (Windows NT 10.0; Win64; x64) AppleWebKit/537.36 (KHTML, like Gecko) Chrome/138.0.0.0 Safari/537.36","WebKit","Chrome","138.0.0.0","Windows","10.0","https://app.prolific.com/","en-GB,en;q=0.9,sl;q=0.8","664b4f0017b082f48ee8a033","683db6dfa200031b80f2a654","686507900f3513ea6fea65c3","664b4f0017b082f48ee8a033","2025-07-02T10:37:24.724Z","","","","","","","","","","","","","","","","win-only","1","g1:NE,g2:SW","0.8","3","0","1069435.3","1152","6155.8","28111.2","1","4","8","6","2","8","8","20","12","0.15151515151515152","1256.6","3000","425","[""down"",""left""]","{""num_key_presses"":8,""num_perfect"":6,""num_errors"":0,""num_randdir"":2,""num_randdir_good_moves"":1,""num_whilered"":0,""num_whileblue"":0,""num_blue"":0,""num_good_moves"":7}","[466.8571428571429,465.7633928571429,0.3,466.8571428571429,465.7633928571429,103.4,466.8571428571429,465.7633928571429,214.1,466.8571428571429,465.7633928571429,318.2,501.8571428571429,451.7633928571429,419.9,502.8571428571429,450.7633928571429,524.6,526.8571428571429,418.7633928571429,627.2,526.8571428571429,418.7633928571429,728.8,110.85714285714286,807.7633928571429,830,35.85714285714286,940.7633928571429,931.6,5.857142857142861,963.7633928571429,1033.8,13.857142857142861,954.7633928571429,1139.5,29.85714285714286,890.7633928571429,1244,30.85714285714286,891.7633928571429,1344.1,31.85714285714286,890.7633928571429,1445,39.85714285714286,868.7633928571429,1548.6,107.85714285714286,884.7633928571429,1648.6,107.85714285714286,884.7633928571429,1754.3,107.85714285714286,884.7633928571429,1861,129.85714285714286,834.7633928571429,1964,353.8571428571429,743.7633928571429,2064.2,481.8571428571429,706.7633928571429,2168.7,490.8571428571429,729.7633928571429,2270.8,489.8571428571429,730.7633928571429,2373.4,489.8571428571429,730.7633928571429,2473.7,489.8571428571429,730.7633928571429,2574.3,481.8571428571429,730.7633928571429,2675.7,481.8571428571429,730.7633928571429,2779.3,494.8571428571429,717.7633928571429,2879.7,518.8571428571429,691.7633928571429,2980.2,623.8571428571429,674.7633928571429,3083.2,642.8571428571429,673.7633928571429,3183.2,642.8571428571429,673.7633928571429,3283.2,642.8571428571429,673.7633928571429,3384.1,643.8571428571429,660.7633928571429,3488.5,642.8571428571429,641.7633928571429,3594.4,642.8571428571429,638.7633928571429,3698.2,642.8571428571429,638.7633928571429,3799.3,642.8571428571429,638.7633928571429,3899.6,644.8571428571429,637.7633928571429,4004.1,633.8571428571429,648.7633928571429,4104.2,630.8571428571429,649.7633928571429,4208.3,635.8571428571429,627.7633928571429,4308.9,643.8571428571429,619.7633928571429,4409.1,643.8571428571429,618.7633928571429,4509.3,643.8571428571429,618.7633928571429,4613.4,643.8571428571429,618.7633928571429,4713.9,643.8571428571429,617.7633928571429,4818.7,643.8571428571429,617.7633928571429,4918.7]","[1430.1,1430.1,1000,0,430.1,""oops"",""left"",""left"",""good_move"",3502.5,2072.1,1634.7,1430.4,437.4,""smooth"",""down"",""down"",""good_move"",6432.3,2929.4,2549.2,3502.9,380.2,""smooth"",""left"",""left"",""good_move"",9235.4,2802.9,2439.2,6432.5,363.7,""oops"",""left"",""up"",""bad_move"",12373.3,3137.3,2754.4,9236,382.9,""smooth"",""left"",""left"",""good_move"",15629.9,3256.4,2890.7,12373.5,365.7,""smooth"",""down"",""down"",""good_move"",18668.7,3038.6,2692.5,15630.1,346.1,""smooth"",""down"",""down"",""good_move"",21851.2,3182.3,2800.5,18668.9,381.8,""smooth"",""down"",""down"",""good_move""]","",""
"58679","","<div style=""width:500px;"">
  <p>What determined the result of this run?</p>
  </div>","72","html-slider-response","47","1158039","0.0-10.0-1.2","78","1","2025-07-02 10:19:04","80fe4187154257d5fb01684ea91b68b9","92.53.153.233","Mozilla/5.0 (Windows NT 10.0; Win64; x64) AppleWebKit/537.36 (KHTML, like Gecko) Chrome/138.0.0.0 Safari/537.36","WebKit","Chrome","138.0.0.0","Windows","10.0","https://app.prolific.com/","en-GB,en;q=0.9,sl;q=0.8","664b4f0017b082f48ee8a033","683db6dfa200031b80f2a654","686507900f3513ea6fea65c3","664b4f0017b082f48ee8a033","2025-07-02T10:38:23.404Z","","","","","","AttribQ","","","","","","","","","","","","","","","","","","","","","","","","","","","","","","","","","","","","","","50"
"3452","","<div style=""width:500px;"">
  <p>How much control did you have over the ball?</p>
  </div>","61","html-slider-response","48","1161492","0.0-10.0-2.2","78","1","2025-07-02 10:19:04","80fe4187154257d5fb01684ea91b68b9","92.53.153.233","Mozilla/5.0 (Windows NT 10.0; Win64; x64) AppleWebKit/537.36 (KHTML, like Gecko) Chrome/138.0.0.0 Safari/537.36","WebKit","Chrome","138.0.0.0","Windows","10.0","https://app.prolific.com/","en-GB,en;q=0.9,sl;q=0.8","664b4f0017b082f48ee8a033","683db6dfa200031b80f2a654","686507900f3513ea6fea65c3","664b4f0017b082f48ee8a033","2025-07-02T10:38:26.857Z","","","","","","ControlQ","","","","","","","","","","","","","","","","","","","","","","","","","","","","","","","","","","","","","","50"
"3349","","<div style=""width:500px;"">
  <p>How would you describe your current emotional state?</p>
  </div>","13","html-slider-response","49","1164843","0.0-10.0-3.2","78","1","2025-07-02 10:19:04","80fe4187154257d5fb01684ea91b68b9","92.53.153.233","Mozilla/5.0 (Windows NT 10.0; Win64; x64) AppleWebKit/537.36 (KHTML, like Gecko) Chrome/138.0.0.0 Safari/537.36","WebKit","Chrome","138.0.0.0","Windows","10.0","https://app.prolific.com/","en-GB,en;q=0.9,sl;q=0.8","664b4f0017b082f48ee8a033","683db6dfa200031b80f2a654","686507900f3513ea6fea65c3","664b4f0017b082f48ee8a033","2025-07-02T10:38:30.208Z","","","","","","StressQ","","","","","","","","","","","","","","","","","","","","","","","","","","","","","","","","","","","","","","50"
"2686","","<div style=""width:500px;"">
  <p>What best describes how you currently feel?</p>
  </div>","76","html-slider-response","50","1167530","0.0-10.0-4.2","78","1","2025-07-02 10:19:04","80fe4187154257d5fb01684ea91b68b9","92.53.153.233","Mozilla/5.0 (Windows NT 10.0; Win64; x64) AppleWebKit/537.36 (KHTML, like Gecko) Chrome/138.0.0.0 Safari/537.36","WebKit","Chrome","138.0.0.0","Windows","10.0","https://app.prolific.com/","en-GB,en;q=0.9,sl;q=0.8","664b4f0017b082f48ee8a033","683db6dfa200031b80f2a654","686507900f3513ea6fea65c3","664b4f0017b082f48ee8a033","2025-07-02T10:38:32.895Z","","","","","","MotivationQ","","","","","","","","","","","","","","","","","","","","","","","","","","","","","","","","","","","","","","50"
"","","","","ctl-task-cpt","51","1219791","0.0-10.0-0.3","78","1","2025-07-02 10:19:04","80fe4187154257d5fb01684ea91b68b9","92.53.153.233","Mozilla/5.0 (Windows NT 10.0; Win64; x64) AppleWebKit/537.36 (KHTML, like Gecko) Chrome/138.0.0.0 Safari/537.36","WebKit","Chrome","138.0.0.0","Windows","10.0","https://app.prolific.com/","en-GB,en;q=0.9,sl;q=0.8","664b4f0017b082f48ee8a033","683db6dfa200031b80f2a654","686507900f3513ea6fea65c3","664b4f0017b082f48ee8a033","2025-07-02T10:39:25.156Z","","","","","","","","","","","","","","","","win-only","0","g1:NW,g2:SE","0.7","4","0","1168736.3","965","5967.2","49240.8","1","4","4","6","2","-4","-4","16","20","0.12121212121212122","658","3000","-2420","[""down"",""right""]","{""num_key_presses"":8,""num_perfect"":6,""num_errors"":0,""num_randdir"":2,""num_randdir_good_moves"":0,""num_whilered"":0,""num_whileblue"":0,""num_blue"":5,""num_good_moves"":6}","[469.8571428571429,458.7633928571429,0.2,469.8571428571429,458.7633928571429,100.9,469.8571428571429,458.7633928571429,201.3,469.8571428571429,458.7633928571429,306.2,527.8571428571429,533.7633928571429,406.5,831.8571428571429,834.7633928571429,511.1,872.8571428571429,859.7633928571429,612,873.8571428571429,858.7633928571429,715.3,872.8571428571429,858.7633928571429,816.1,865.8571428571429,850.7633928571429,916.4,845.8571428571429,816.7633928571429,1021.3,813.8571428571429,796.7633928571429,1125.7,815.8571428571429,762.7633928571429,1226.2,744.8571428571429,661.7633928571429,1330.4,734.8571428571429,667.7633928571429,1430.7,723.8571428571429,643.7633928571429,1531.1,725.8571428571429,608.7633928571429,1635.6,709.8571428571429,610.7633928571429,1736.3,687.8571428571429,609.7633928571429,1840.6,698.8571428571429,587.7633928571429,1948,702.8571428571429,568.7633928571429,2050.7,702.8571428571429,566.7633928571429,2151.5,669.8571428571429,575.7633928571429,2255.2,677.8571428571429,567.7633928571429,2355.6,699.8571428571429,559.7633928571429,2456.7,700.8571428571429,556.7633928571429,2560.6,700.8571428571429,556.7633928571429,2666.1,700.8571428571429,556.7633928571429,2766.8,700.8571428571429,556.7633928571429,2870.7,700.8571428571429,556.7633928571429,2975.3,700.8571428571429,556.7633928571429,3076.6,697.8571428571429,555.7633928571429,3182.4,697.8571428571429,555.7633928571429,3286.4,697.8571428571429,555.7633928571429,3386.5,697.8571428571429,555.7633928571429,3490.5,697.8571428571429,555.7633928571429,3590.8,697.8571428571429,555.7633928571429,3695.8,697.8571428571429,555.7633928571429,3801.1,697.8571428571429,555.7633928571429,3905.7,697.8571428571429,555.7633928571429,4011.4,697.8571428571429,555.7633928571429,4116.8,697.8571428571429,555.7633928571429,4220.7,697.8571428571429,555.7633928571429,4325.5,697.8571428571429,555.7633928571429,4425.5,697.8571428571429,555.7633928571429,4530.5,697.8571428571429,555.7633928571429,4636.5,697.8571428571429,555.7633928571429,4740.5,697.8571428571429,555.7633928571429,4840.7,697.8571428571429,555.7633928571429,4940.8]","[1347.2,1347.2,1000,0,347.2,""smooth"",""right"",""right"",""good_move"",4776.3,3428.6,3094.6,1347.7,334,""smooth"",""right"",""right"",""good_move"",7658.3,2881.9,2567.6,4776.5,314.3,""oops"",""right"",""left"",""bad_move"",10595.6,2937,2605,7658.6,332,""smooth"",""right"",""right"",""good_move"",28215.3,17619.6,3322.2,24448,445.2,""smooth"",""right"",""right"",""good_move"",31858.8,3643,3285.6,28215.8,357.4,""smooth"",""down"",""down"",""good_move"",34223.8,2364.9,2030.5,31859,334.4,""oops"",""down"",""up"",""bad_move"",37470.5,3246.3,2908.5,34224.2,337.8,""smooth"",""down"",""down"",""good_move""]","",""
"2473","","<div style=""width:500px;"">
  <p>What determined the result of this run?</p>
  </div>","0","html-slider-response","52","1222266","0.0-10.0-1.3","78","1","2025-07-02 10:19:04","80fe4187154257d5fb01684ea91b68b9","92.53.153.233","Mozilla/5.0 (Windows NT 10.0; Win64; x64) AppleWebKit/537.36 (KHTML, like Gecko) Chrome/138.0.0.0 Safari/537.36","WebKit","Chrome","138.0.0.0","Windows","10.0","https://app.prolific.com/","en-GB,en;q=0.9,sl;q=0.8","664b4f0017b082f48ee8a033","683db6dfa200031b80f2a654","686507900f3513ea6fea65c3","664b4f0017b082f48ee8a033","2025-07-02T10:39:27.631Z","","","","","","AttribQ","","","","","","","","","","","","","","","","","","","","","","","","","","","","","","","","","","","","","","50"
"2859","","<div style=""width:500px;"">
  <p>How much control did you have over the ball?</p>
  </div>","12","html-slider-response","53","1225126","0.0-10.0-2.3","78","1","2025-07-02 10:19:04","80fe4187154257d5fb01684ea91b68b9","92.53.153.233","Mozilla/5.0 (Windows NT 10.0; Win64; x64) AppleWebKit/537.36 (KHTML, like Gecko) Chrome/138.0.0.0 Safari/537.36","WebKit","Chrome","138.0.0.0","Windows","10.0","https://app.prolific.com/","en-GB,en;q=0.9,sl;q=0.8","664b4f0017b082f48ee8a033","683db6dfa200031b80f2a654","686507900f3513ea6fea65c3","664b4f0017b082f48ee8a033","2025-07-02T10:39:30.491Z","","","","","","ControlQ","","","","","","","","","","","","","","","","","","","","","","","","","","","","","","","","","","","","","","50"
"3038","","<div style=""width:500px;"">
  <p>How would you describe your current emotional state?</p>
  </div>","20","html-slider-response","54","1228164","0.0-10.0-3.3","78","1","2025-07-02 10:19:04","80fe4187154257d5fb01684ea91b68b9","92.53.153.233","Mozilla/5.0 (Windows NT 10.0; Win64; x64) AppleWebKit/537.36 (KHTML, like Gecko) Chrome/138.0.0.0 Safari/537.36","WebKit","Chrome","138.0.0.0","Windows","10.0","https://app.prolific.com/","en-GB,en;q=0.9,sl;q=0.8","664b4f0017b082f48ee8a033","683db6dfa200031b80f2a654","686507900f3513ea6fea65c3","664b4f0017b082f48ee8a033","2025-07-02T10:39:33.529Z","","","","","","StressQ","","","","","","","","","","","","","","","","","","","","","","","","","","","","","","","","","","","","","","50"
"121613","","<div style=""width:500px;"">
  <p>What best describes how you currently feel?</p>
  </div>","81","html-slider-response","55","1349778","0.0-10.0-4.3","78","1","2025-07-02 10:19:04","80fe4187154257d5fb01684ea91b68b9","92.53.153.233","Mozilla/5.0 (Windows NT 10.0; Win64; x64) AppleWebKit/537.36 (KHTML, like Gecko) Chrome/138.0.0.0 Safari/537.36","WebKit","Chrome","138.0.0.0","Windows","10.0","https://app.prolific.com/","en-GB,en;q=0.9,sl;q=0.8","664b4f0017b082f48ee8a033","683db6dfa200031b80f2a654","686507900f3513ea6fea65c3","664b4f0017b082f48ee8a033","2025-07-02T10:41:35.143Z","","","","","","MotivationQ","","","","","","","","","","","","","","","","","","","","","","","","","","","","","","","","","","","","","","50"
"","","","","ctl-task-cpt","56","1395326","0.0-10.0-0.4","78","1","2025-07-02 10:19:04","80fe4187154257d5fb01684ea91b68b9","92.53.153.233","Mozilla/5.0 (Windows NT 10.0; Win64; x64) AppleWebKit/537.36 (KHTML, like Gecko) Chrome/138.0.0.0 Safari/537.36","WebKit","Chrome","138.0.0.0","Windows","10.0","https://app.prolific.com/","en-GB,en;q=0.9,sl;q=0.8","664b4f0017b082f48ee8a033","683db6dfa200031b80f2a654","686507900f3513ea6fea65c3","664b4f0017b082f48ee8a033","2025-07-02T10:42:20.691Z","","","","","","","","","","","","","","","","win-only","0","g1:NW,g2:SE","0.6","5","0","1350985.4","2282.4","7286.8","42525.5","1","4","4","6","2","-4","-4","12","16","0.09090909090909091","1144.8","3000","-2970","[""down"",""right""]","{""num_key_presses"":7,""num_perfect"":4,""num_errors"":0,""num_randdir"":3,""num_randdir_good_moves"":2,""num_whilered"":0,""num_whileblue"":0,""num_blue"":4,""num_good_moves"":6}","[465.8571428571429,468.7633928571429,0.2,465.8571428571429,468.7633928571429,105.3,465.8571428571429,468.7633928571429,208.5,465.8571428571429,468.7633928571429,310.1,465.8571428571429,468.7633928571429,413.3,465.8571428571429,468.7633928571429,518.1,464.8571428571429,468.7633928571429,618.5,504.8571428571429,499.7633928571429,719.4,891.8571428571429,732.7633928571429,824.6,920.8571428571429,754.7633928571429,928.3,874.8571428571429,785.7633928571429,1028.5,823.8571428571429,819.7633928571429,1133.1,823.8571428571429,819.7633928571429,1241.6,827.8571428571429,822.7633928571429,1344,828.8571428571429,822.7633928571429,1449.2,828.8571428571429,822.7633928571429,1553.4,828.8571428571429,822.7633928571429,1654.3,838.8571428571429,822.7633928571429,1754.3,839.8571428571429,822.7633928571429,1859.4,838.8571428571429,819.7633928571429,1963.2,838.8571428571429,819.7633928571429,2064.4,838.8571428571429,819.7633928571429,2168.3,834.8571428571429,819.7633928571429,2269.3,789.8571428571429,762.7633928571429,2377.2,678.8571428571429,639.7633928571429,2478.9,668.8571428571429,673.7633928571429,2584.3,668.8571428571429,673.7633928571429,2689,706.8571428571429,667.7633928571429,2789.1,818.8571428571429,753.7633928571429,2890,819.8571428571429,775.7633928571429,2994.7,819.8571428571429,776.7633928571429,3099,819.8571428571429,774.7633928571429,3203.4,819.8571428571429,774.7633928571429,3308.4,821.8571428571429,773.7633928571429,3408.6,784.8571428571429,765.7633928571429,3511.4,650.8571428571429,688.7633928571429,3614.4,628.8571428571429,716.7633928571429,3718.2,628.8571428571429,716.7633928571429,3819.2,628.8571428571429,716.7633928571429,3924.9,633.8571428571429,696.7633928571429,4025.7,636.8571428571429,685.7633928571429,4126.3,637.8571428571429,690.7633928571429,4229.4,618.8571428571429,679.7633928571429,4335.2,623.8571428571429,678.7633928571429,4439.1,632.8571428571429,668.7633928571429,4543.8,634.8571428571429,659.7633928571429,4649,634.8571428571429,657.7633928571429,4749.1,634.8571428571429,656.7633928571429,4854.3,634.8571428571429,656.7633928571429,4959.2]","[1495.7,1495.7,1000,0,495.7,""smooth"",""right"",""right"",""good_move"",4408.5,2912.3,2486.9,1496.2,425.4,""oops"",""right"",""down"",""good_move"",10537.3,6128.3,2460.1,7690.3,386.9,""smooth"",""right"",""right"",""good_move"",17275.5,6738,2759.4,14149.2,366.9,""oops"",""right"",""right"",""good_move"",26821.4,9545.7,2013,24464.1,344.3,""smooth"",""down"",""down"",""good_move"",29092,2270.2,1824.1,26821.8,446.1,""oops"",""down"",""up"",""bad_move"",32503.3,3411,3087,29092.3,324,""smooth"",""down"",""down"",""good_move""]","",""
"58450","","<div style=""width:500px;"">
  <p>What determined the result of this run?</p>
  </div>","26","html-slider-response","57","1453777","0.0-10.0-1.4","78","1","2025-07-02 10:19:04","80fe4187154257d5fb01684ea91b68b9","92.53.153.233","Mozilla/5.0 (Windows NT 10.0; Win64; x64) AppleWebKit/537.36 (KHTML, like Gecko) Chrome/138.0.0.0 Safari/537.36","WebKit","Chrome","138.0.0.0","Windows","10.0","https://app.prolific.com/","en-GB,en;q=0.9,sl;q=0.8","664b4f0017b082f48ee8a033","683db6dfa200031b80f2a654","686507900f3513ea6fea65c3","664b4f0017b082f48ee8a033","2025-07-02T10:43:19.142Z","","","","","","AttribQ","","","","","","","","","","","","","","","","","","","","","","","","","","","","","","","","","","","","","","50"
"2800","","<div style=""width:500px;"">
  <p>How much control did you have over the ball?</p>
  </div>","22","html-slider-response","58","1456578","0.0-10.0-2.4","78","1","2025-07-02 10:19:04","80fe4187154257d5fb01684ea91b68b9","92.53.153.233","Mozilla/5.0 (Windows NT 10.0; Win64; x64) AppleWebKit/537.36 (KHTML, like Gecko) Chrome/138.0.0.0 Safari/537.36","WebKit","Chrome","138.0.0.0","Windows","10.0","https://app.prolific.com/","en-GB,en;q=0.9,sl;q=0.8","664b4f0017b082f48ee8a033","683db6dfa200031b80f2a654","686507900f3513ea6fea65c3","664b4f0017b082f48ee8a033","2025-07-02T10:43:21.943Z","","","","","","ControlQ","","","","","","","","","","","","","","","","","","","","","","","","","","","","","","","","","","","","","","50"
"3646","","<div style=""width:500px;"">
  <p>How would you describe your current emotional state?</p>
  </div>","51","html-slider-response","59","1460225","0.0-10.0-3.4","78","1","2025-07-02 10:19:04","80fe4187154257d5fb01684ea91b68b9","92.53.153.233","Mozilla/5.0 (Windows NT 10.0; Win64; x64) AppleWebKit/537.36 (KHTML, like Gecko) Chrome/138.0.0.0 Safari/537.36","WebKit","Chrome","138.0.0.0","Windows","10.0","https://app.prolific.com/","en-GB,en;q=0.9,sl;q=0.8","664b4f0017b082f48ee8a033","683db6dfa200031b80f2a654","686507900f3513ea6fea65c3","664b4f0017b082f48ee8a033","2025-07-02T10:43:25.590Z","","","","","","StressQ","","","","","","","","","","","","","","","","","","","","","","","","","","","","","","","","","","","","","","50"
"2585","","<div style=""width:500px;"">
  <p>What best describes how you currently feel?</p>
  </div>","81","html-slider-response","60","1462811","0.0-10.0-4.4","78","1","2025-07-02 10:19:04","80fe4187154257d5fb01684ea91b68b9","92.53.153.233","Mozilla/5.0 (Windows NT 10.0; Win64; x64) AppleWebKit/537.36 (KHTML, like Gecko) Chrome/138.0.0.0 Safari/537.36","WebKit","Chrome","138.0.0.0","Windows","10.0","https://app.prolific.com/","en-GB,en;q=0.9,sl;q=0.8","664b4f0017b082f48ee8a033","683db6dfa200031b80f2a654","686507900f3513ea6fea65c3","664b4f0017b082f48ee8a033","2025-07-02T10:43:28.176Z","","","","","","MotivationQ","","","","","","","","","","","","","","","","","","","","","","","","","","","","","","","","","","","","","","50"
"","","","","ctl-task-cpt","61","1510361","0.0-10.0-0.5","78","1","2025-07-02 10:19:04","80fe4187154257d5fb01684ea91b68b9","92.53.153.233","Mozilla/5.0 (Windows NT 10.0; Win64; x64) AppleWebKit/537.36 (KHTML, like Gecko) Chrome/138.0.0.0 Safari/537.36","WebKit","Chrome","138.0.0.0","Windows","10.0","https://app.prolific.com/","en-GB,en;q=0.9,sl;q=0.8","664b4f0017b082f48ee8a033","683db6dfa200031b80f2a654","686507900f3513ea6fea65c3","664b4f0017b082f48ee8a033","2025-07-02T10:44:15.726Z","","","","","","","","","","","","","","","","win-only","3","g1:SW,g2:NE","0.5","6","0","1464019.8","965.9","5967.5","44530.9","1","4","8","6","2","-8","-9","3","12","0.022727272727272728","1689.6","3000","-2960","[""up"",""right""]","{""num_key_presses"":11,""num_perfect"":5,""num_errors"":1,""num_randdir"":5,""num_randdir_good_moves"":2,""num_whilered"":0,""num_whileblue"":1,""num_blue"":3,""num_good_moves"":8}","[458.8571428571429,459.7633928571429,0.2,458.8571428571429,459.7633928571429,100.9,459.8571428571429,461.7633928571429,208.6,448.8571428571429,501.7633928571429,310.6,395.8571428571429,592.7633928571429,415.7,320.8571428571429,643.7633928571429,515.7,354.8571428571429,606.7633928571429,619.5,364.8571428571429,593.7633928571429,721.2,364.8571428571429,593.7633928571429,825.3,364.8571428571429,593.7633928571429,925.4,364.8571428571429,593.7633928571429,1029.7,364.8571428571429,593.7633928571429,1130.8,235.85714285714286,708.7633928571429,1234.9,464.8571428571429,591.7633928571429,1339.4,803.8571428571429,215.76339285714286,1440.9,816.8571428571429,166.76339285714286,1544.9,836.8571428571429,86.76339285714286,1650.6,845.8571428571429,57.76339285714286,1755.7,845.8571428571429,57.76339285714286,1857.1,837.8571428571429,64.76339285714286,1960.3,831.8571428571429,68.76339285714286,2065.2,828.8571428571429,76.76339285714286,2166.1,820.8571428571429,98.76339285714286,2270,819.8571428571429,109.76339285714286,2370.5,823.8571428571429,117.76339285714286,2476.1,824.8571428571429,117.76339285714286,2579.8,824.8571428571429,117.76339285714286,2685.6,824.8571428571429,117.76339285714286,2790.7,824.8571428571429,117.76339285714286,2891.1,824.8571428571429,117.76339285714286,2994.8,824.8571428571429,117.76339285714286,3094.9,824.8571428571429,117.76339285714286,3196.1,824.8571428571429,117.76339285714286,3299.7,824.8571428571429,117.76339285714286,3401.1,824.8571428571429,117.76339285714286,3505.1,824.8571428571429,117.76339285714286,3610.6,824.8571428571429,117.76339285714286,3716.1,824.8571428571429,117.76339285714286,3819.9,824.8571428571429,117.76339285714286,3925.6,824.8571428571429,117.76339285714286,4029.4,824.8571428571429,117.76339285714286,4130.5,824.8571428571429,117.76339285714286,4234.9,824.8571428571429,117.76339285714286,4336.1,824.8571428571429,117.76339285714286,4436.2,824.8571428571429,117.76339285714286,4539.4,824.8571428571429,117.76339285714286,4639.4,824.8571428571429,117.76339285714286,4741.9,824.8571428571429,117.76339285714286,4845.3,824.8571428571429,117.76339285714286,4946.3]","[1290.1,1290.1,1000,0,290.2,""oops"",""right"",""left"",""bad_move"",7706.3,6415.7,2931.1,4438.3,336.9,""smooth"",""up"",""up"",""good_move"",14558,6851.3,2659.2,11588.8,310,""oops"",""up"",""right"",""good_move"",17092.5,2534.1,2130.7,14558.4,403.4,""smooth"",""up"",""up"",""good_move"",20126.4,3033.6,2720,17092.8,313.6,""oops"",""up"",""right"",""good_move"",22928.2,2801.5,2426,20126.7,375.5,""oops"",""up"",""left"",""bad_move"",25427.9,2499.3,2230.5,22928.6,268.8,""smooth"",""up"",""up"",""good_move"",29211.9,3783.6,3525.1,25428.3,258.5,""smooth"",""right"",""right"",""good_move"",31655.5,2443.3,2164.9,29212.2,278.4,""smooth"",""right"",""right"",""good_move"",34171,2515.4,2270,31655.6,245.4,""oops"",""right"",""left"",""bad_move"",36103.2,1931.9,1677.4,34171.3,254.5,""while_blue"",""right"",""right"",""good_move""]","",""
"4788","","<div style=""width:500px;"">
  <p>What determined the result of this run?</p>
  </div>","0","html-slider-response","62","1515150","0.0-10.0-1.5","78","1","2025-07-02 10:19:04","80fe4187154257d5fb01684ea91b68b9","92.53.153.233","Mozilla/5.0 (Windows NT 10.0; Win64; x64) AppleWebKit/537.36 (KHTML, like Gecko) Chrome/138.0.0.0 Safari/537.36","WebKit","Chrome","138.0.0.0","Windows","10.0","https://app.prolific.com/","en-GB,en;q=0.9,sl;q=0.8","664b4f0017b082f48ee8a033","683db6dfa200031b80f2a654","686507900f3513ea6fea65c3","664b4f0017b082f48ee8a033","2025-07-02T10:44:20.515Z","","","","","","AttribQ","","","","","","","","","","","","","","","","","","","","","","","","","","","","","","","","","","","","","","50"
"2811","","<div style=""width:500px;"">
  <p>How much control did you have over the ball?</p>
  </div>","0","html-slider-response","63","1517962","0.0-10.0-2.5","78","1","2025-07-02 10:19:04","80fe4187154257d5fb01684ea91b68b9","92.53.153.233","Mozilla/5.0 (Windows NT 10.0; Win64; x64) AppleWebKit/537.36 (KHTML, like Gecko) Chrome/138.0.0.0 Safari/537.36","WebKit","Chrome","138.0.0.0","Windows","10.0","https://app.prolific.com/","en-GB,en;q=0.9,sl;q=0.8","664b4f0017b082f48ee8a033","683db6dfa200031b80f2a654","686507900f3513ea6fea65c3","664b4f0017b082f48ee8a033","2025-07-02T10:44:23.327Z","","","","","","ControlQ","","","","","","","","","","","","","","","","","","","","","","","","","","","","","","","","","","","","","","50"
"3483","","<div style=""width:500px;"">
  <p>How would you describe your current emotional state?</p>
  </div>","52","html-slider-response","64","1521446","0.0-10.0-3.5","78","1","2025-07-02 10:19:04","80fe4187154257d5fb01684ea91b68b9","92.53.153.233","Mozilla/5.0 (Windows NT 10.0; Win64; x64) AppleWebKit/537.36 (KHTML, like Gecko) Chrome/138.0.0.0 Safari/537.36","WebKit","Chrome","138.0.0.0","Windows","10.0","https://app.prolific.com/","en-GB,en;q=0.9,sl;q=0.8","664b4f0017b082f48ee8a033","683db6dfa200031b80f2a654","686507900f3513ea6fea65c3","664b4f0017b082f48ee8a033","2025-07-02T10:44:26.811Z","","","","","","StressQ","","","","","","","","","","","","","","","","","","","","","","","","","","","","","","","","","","","","","","50"
"2161","","<div style=""width:500px;"">
  <p>What best describes how you currently feel?</p>
  </div>","80","html-slider-response","65","1523608","0.0-10.0-4.5","78","1","2025-07-02 10:19:04","80fe4187154257d5fb01684ea91b68b9","92.53.153.233","Mozilla/5.0 (Windows NT 10.0; Win64; x64) AppleWebKit/537.36 (KHTML, like Gecko) Chrome/138.0.0.0 Safari/537.36","WebKit","Chrome","138.0.0.0","Windows","10.0","https://app.prolific.com/","en-GB,en;q=0.9,sl;q=0.8","664b4f0017b082f48ee8a033","683db6dfa200031b80f2a654","686507900f3513ea6fea65c3","664b4f0017b082f48ee8a033","2025-07-02T10:44:28.973Z","","","","","","MotivationQ","","","","","","","","","","","","","","","","","","","","","","","","","","","","","","","","","","","","","","50"
"","","","","ctl-task-cpt","66","1567062","0.0-10.0-0.6","78","1","2025-07-02 10:19:04","80fe4187154257d5fb01684ea91b68b9","92.53.153.233","Mozilla/5.0 (Windows NT 10.0; Win64; x64) AppleWebKit/537.36 (KHTML, like Gecko) Chrome/138.0.0.0 Safari/537.36","WebKit","Chrome","138.0.0.0","Windows","10.0","https://app.prolific.com/","en-GB,en;q=0.9,sl;q=0.8","664b4f0017b082f48ee8a033","683db6dfa200031b80f2a654","686507900f3513ea6fea65c3","664b4f0017b082f48ee8a033","2025-07-02T10:45:12.427Z","","","","","","","","","","","","","","","","win-only","1","g1:NE,g2:SW","0.4","7","0","1524816.4","998.4","6001.4","40436","1","4","4","6","2","-4","-5","0","3","0","923.8","3000","-3005","[""down"",""left""]","{""num_key_presses"":11,""num_perfect"":4,""num_errors"":1,""num_randdir"":6,""num_randdir_good_moves"":1,""num_whilered"":0,""num_whileblue"":0,""num_blue"":1,""num_good_moves"":5}","[463.8571428571429,457.7633928571429,0.2,463.8571428571429,457.7633928571429,102.6,463.8571428571429,455.7633928571429,207.2,466.8571428571429,452.7633928571429,307.4,657.8571428571429,265.7633928571429,413,694.8571428571429,239.76339285714286,513.7,288.8571428571429,693.7633928571429,619.4,182.85714285714286,772.7633928571429,722.8,142.85714285714286,792.7633928571429,824.8,70.85714285714286,842.7633928571429,928,70.85714285714286,842.7633928571429,1029.1,97.85714285714286,827.7633928571429,1129.3,367.8571428571429,729.7633928571429,1229.5,559.8571428571429,626.7633928571429,1340.5,561.8571428571429,623.7633928571429,1443.1,566.8571428571429,615.7633928571429,1559.8,592.8571428571429,593.7633928571429,1664.6,592.8571428571429,593.7633928571429,1768.1,592.8571428571429,593.7633928571429,1872.2,592.8571428571429,593.7633928571429,1977.2,592.8571428571429,593.7633928571429,2077.5,592.8571428571429,593.7633928571429,2178.9,592.8571428571429,593.7633928571429,2282.6,592.8571428571429,593.7633928571429,2382.7,592.8571428571429,593.7633928571429,2482.8,592.8571428571429,593.7633928571429,2588.2,592.8571428571429,593.7633928571429,2688.5,592.8571428571429,593.7633928571429,2788.9,592.8571428571429,593.7633928571429,2893,592.8571428571429,593.7633928571429,2998.8,592.8571428571429,593.7633928571429,3102.9,592.8571428571429,593.7633928571429,3208.7,592.8571428571429,593.7633928571429,3315,592.8571428571429,593.7633928571429,3415,592.8571428571429,593.7633928571429,3517.8,592.8571428571429,593.7633928571429,3622.5,592.8571428571429,593.7633928571429,3722.6,592.8571428571429,593.7633928571429,3827.8,592.8571428571429,593.7633928571429,3928,592.8571428571429,593.7633928571429,4033.8,592.8571428571429,593.7633928571429,4134,592.8571428571429,593.7633928571429,4237.7,592.8571428571429,593.7633928571429,4342.6,592.8571428571429,593.7633928571429,4443.2,592.8571428571429,593.7633928571429,4548,592.8571428571429,593.7633928571429,4648.2,592.8571428571429,593.7633928571429,4749.4,592.8571428571429,593.7633928571429,4849.8,592.8571428571429,593.7633928571429,4949.8]","[1343,1343.1,1000,0,343.1,""smooth"",""left"",""left"",""good_move"",4074.1,2730.5,2396.4,1343.6,334.1,""smooth"",""left"",""left"",""good_move"",6624.4,2550.1,2247.1,4074.3,303,""oops"",""left"",""right"",""bad_move"",8735.6,2110.9,1790,6624.7,320.9,""oops"",""down"",""right"",""bad_move"",10775.6,2039.7,1732.2,8736,307.4,""oops"",""down"",""right"",""bad_move"",16888.6,6112.7,2360.7,14214.7,313.2,""oops"",""down"",""left"",""good_move"",19677.1,2788.1,2522.1,16889,266,""smooth"",""down"",""down"",""good_move"",22293.6,2616.2,2304,19677.4,312.2,""smooth"",""left"",""left"",""good_move"",25385.9,3091.8,2825.4,22294.1,266.4,""oops"",""left"",""right"",""bad_move"",28444.7,3058.4,2750.5,25386.3,307.9,""oops"",""left"",""right"",""bad_move"",31112,2667.1,2713.7,28444.9,-46.6,""error"",""-"",""-"",""no_move""]","",""
"2795","","<div style=""width:500px;"">
  <p>What determined the result of this run?</p>
  </div>","0","html-slider-response","67","1569858","0.0-10.0-1.6","78","1","2025-07-02 10:19:04","80fe4187154257d5fb01684ea91b68b9","92.53.153.233","Mozilla/5.0 (Windows NT 10.0; Win64; x64) AppleWebKit/537.36 (KHTML, like Gecko) Chrome/138.0.0.0 Safari/537.36","WebKit","Chrome","138.0.0.0","Windows","10.0","https://app.prolific.com/","en-GB,en;q=0.9,sl;q=0.8","664b4f0017b082f48ee8a033","683db6dfa200031b80f2a654","686507900f3513ea6fea65c3","664b4f0017b082f48ee8a033","2025-07-02T10:45:15.224Z","","","","","","AttribQ","","","","","","","","","","","","","","","","","","","","","","","","","","","","","","","","","","","","","","50"
"2761","","<div style=""width:500px;"">
  <p>How much control did you have over the ball?</p>
  </div>","10","html-slider-response","68","1572620","0.0-10.0-2.6","78","1","2025-07-02 10:19:04","80fe4187154257d5fb01684ea91b68b9","92.53.153.233","Mozilla/5.0 (Windows NT 10.0; Win64; x64) AppleWebKit/537.36 (KHTML, like Gecko) Chrome/138.0.0.0 Safari/537.36","WebKit","Chrome","138.0.0.0","Windows","10.0","https://app.prolific.com/","en-GB,en;q=0.9,sl;q=0.8","664b4f0017b082f48ee8a033","683db6dfa200031b80f2a654","686507900f3513ea6fea65c3","664b4f0017b082f48ee8a033","2025-07-02T10:45:17.985Z","","","","","","ControlQ","","","","","","","","","","","","","","","","","","","","","","","","","","","","","","","","","","","","","","50"
"3626","","<div style=""width:500px;"">
  <p>How would you describe your current emotional state?</p>
  </div>","50","html-slider-response","69","1576247","0.0-10.0-3.6","78","1","2025-07-02 10:19:04","80fe4187154257d5fb01684ea91b68b9","92.53.153.233","Mozilla/5.0 (Windows NT 10.0; Win64; x64) AppleWebKit/537.36 (KHTML, like Gecko) Chrome/138.0.0.0 Safari/537.36","WebKit","Chrome","138.0.0.0","Windows","10.0","https://app.prolific.com/","en-GB,en;q=0.9,sl;q=0.8","664b4f0017b082f48ee8a033","683db6dfa200031b80f2a654","686507900f3513ea6fea65c3","664b4f0017b082f48ee8a033","2025-07-02T10:45:21.612Z","","","","","","StressQ","","","","","","","","","","","","","","","","","","","","","","","","","","","","","","","","","","","","","","50"
"2524","","<div style=""width:500px;"">
  <p>What best describes how you currently feel?</p>
  </div>","81","html-slider-response","70","1578772","0.0-10.0-4.6","78","1","2025-07-02 10:19:04","80fe4187154257d5fb01684ea91b68b9","92.53.153.233","Mozilla/5.0 (Windows NT 10.0; Win64; x64) AppleWebKit/537.36 (KHTML, like Gecko) Chrome/138.0.0.0 Safari/537.36","WebKit","Chrome","138.0.0.0","Windows","10.0","https://app.prolific.com/","en-GB,en;q=0.9,sl;q=0.8","664b4f0017b082f48ee8a033","683db6dfa200031b80f2a654","686507900f3513ea6fea65c3","664b4f0017b082f48ee8a033","2025-07-02T10:45:24.137Z","","","","","","MotivationQ","","","","","","","","","","","","","","","","","","","","","","","","","","","","","","","","","","","","","","50"
"","","","","ctl-task-cpt","71","1622756","0.0-10.0-0.7","78","1","2025-07-02 10:19:04","80fe4187154257d5fb01684ea91b68b9","92.53.153.233","Mozilla/5.0 (Windows NT 10.0; Win64; x64) AppleWebKit/537.36 (KHTML, like Gecko) Chrome/138.0.0.0 Safari/537.36","WebKit","Chrome","138.0.0.0","Windows","10.0","https://app.prolific.com/","en-GB,en;q=0.9,sl;q=0.8","664b4f0017b082f48ee8a033","683db6dfa200031b80f2a654","686507900f3513ea6fea65c3","664b4f0017b082f48ee8a033","2025-07-02T10:46:08.121Z","","","","","","","","","","","","","","","","win-only","3","g1:SW,g2:NE","0.3","8","0","1579981.4","1082.4","6086","40962.6","1","4","8","6","2","-8","-8","0","0","0","767.9","3000","-2965","[""up"",""right""]","{""num_key_presses"":9,""num_perfect"":3,""num_errors"":0,""num_randdir"":6,""num_randdir_good_moves"":4,""num_whilered"":0,""num_whileblue"":0,""num_blue"":2,""num_good_moves"":7}","[469.8571428571429,463.7633928571429,0.2,469.8571428571429,463.7633928571429,103,469.8571428571429,463.7633928571429,204.4,474.8571428571429,458.7633928571429,313.6,838.8571428571429,215.76339285714286,414.2,927.8571428571429,103.76339285714286,519.6,932.8571428571429,95.76339285714286,623.7,903.8571428571429,88.76339285714286,729,896.8571428571429,87.76339285714286,834,896.8571428571429,87.76339285714286,934.1,896.8571428571429,87.76339285714286,1035.2,894.8571428571429,86.76339285714286,1138.9,894.8571428571429,86.76339285714286,1239.2,894.8571428571429,86.76339285714286,1340,894.8571428571429,86.76339285714286,1444.5,894.8571428571429,86.76339285714286,1544.6,894.8571428571429,86.76339285714286,1644.6,894.8571428571429,86.76339285714286,1744.8,894.8571428571429,86.76339285714286,1849.8,894.8571428571429,86.76339285714286,1954.9,894.8571428571429,86.76339285714286,2059.7,894.8571428571429,86.76339285714286,2161.4,894.8571428571429,86.76339285714286,2263.8,894.8571428571429,86.76339285714286,2367.5,894.8571428571429,86.76339285714286,2469.4,894.8571428571429,86.76339285714286,2574.8,894.8571428571429,86.76339285714286,2682,894.8571428571429,86.76339285714286,2786.2,894.8571428571429,86.76339285714286,2890.2,894.8571428571429,86.76339285714286,2993.5,894.8571428571429,86.76339285714286,3093.7,894.8571428571429,86.76339285714286,3194.1,894.8571428571429,86.76339285714286,3300.1,894.8571428571429,86.76339285714286,3400.2,894.8571428571429,86.76339285714286,3503.5,894.8571428571429,86.76339285714286,3604.3,894.8571428571429,86.76339285714286,3709.3,894.8571428571429,86.76339285714286,3815.3,894.8571428571429,86.76339285714286,3918.7,894.8571428571429,86.76339285714286,4020.4,894.8571428571429,86.76339285714286,4124.2,894.8571428571429,86.76339285714286,4228.9,894.8571428571429,86.76339285714286,4329.3,894.8571428571429,86.76339285714286,4430.4,894.8571428571429,86.76339285714286,4536,894.8571428571429,86.76339285714286,4638.3,894.8571428571429,86.76339285714286,4738.9,894.8571428571429,86.76339285714286,4843.3,894.8571428571429,86.76339285714286,4943.5]","[4536.1,4536.1,2282,2006.1,248,""smooth"",""right"",""right"",""good_move"",7524,2987.6,2667.6,4536.4,320,""oops"",""right"",""right"",""good_move"",10320.2,2795.8,2442.1,7524.4,353.7,""oops"",""up"",""down"",""bad_move"",13298.5,2977.8,2658,10320.7,319.8,""smooth"",""up"",""up"",""good_move"",15799.2,2500.3,2136.4,13298.9,363.9,""smooth"",""up"",""up"",""good_move"",22568.4,6769,1962.3,20306.1,300,""oops"",""right"",""up"",""good_move"",25698.6,3129.9,2759.5,22568.7,370.4,""oops"",""right"",""right"",""good_move"",28364.4,2664.8,2280.2,25699.6,384.6,""oops"",""up"",""left"",""bad_move"",31890.5,3525.8,3250.2,28364.7,275.6,""oops"",""right"",""up"",""good_move""]","",""
"1991","","<div style=""width:500px;"">
  <p>What determined the result of this run?</p>
  </div>","16","html-slider-response","72","1624749","0.0-10.0-1.7","78","1","2025-07-02 10:19:04","80fe4187154257d5fb01684ea91b68b9","92.53.153.233","Mozilla/5.0 (Windows NT 10.0; Win64; x64) AppleWebKit/537.36 (KHTML, like Gecko) Chrome/138.0.0.0 Safari/537.36","WebKit","Chrome","138.0.0.0","Windows","10.0","https://app.prolific.com/","en-GB,en;q=0.9,sl;q=0.8","664b4f0017b082f48ee8a033","683db6dfa200031b80f2a654","686507900f3513ea6fea65c3","664b4f0017b082f48ee8a033","2025-07-02T10:46:10.114Z","","","","","","AttribQ","","","","","","","","","","","","","","","","","","","","","","","","","","","","","","","","","","","","","","50"
"2334","","<div style=""width:500px;"">
  <p>How much control did you have over the ball?</p>
  </div>","18","html-slider-response","73","1627083","0.0-10.0-2.7","78","1","2025-07-02 10:19:04","80fe4187154257d5fb01684ea91b68b9","92.53.153.233","Mozilla/5.0 (Windows NT 10.0; Win64; x64) AppleWebKit/537.36 (KHTML, like Gecko) Chrome/138.0.0.0 Safari/537.36","WebKit","Chrome","138.0.0.0","Windows","10.0","https://app.prolific.com/","en-GB,en;q=0.9,sl;q=0.8","664b4f0017b082f48ee8a033","683db6dfa200031b80f2a654","686507900f3513ea6fea65c3","664b4f0017b082f48ee8a033","2025-07-02T10:46:12.448Z","","","","","","ControlQ","","","","","","","","","","","","","","","","","","","","","","","","","","","","","","","","","","","","","","50"
"13036","","<div style=""width:500px;"">
  <p>How would you describe your current emotional state?</p>
  </div>","45","html-slider-response","74","1640120","0.0-10.0-3.7","78","1","2025-07-02 10:19:04","80fe4187154257d5fb01684ea91b68b9","92.53.153.233","Mozilla/5.0 (Windows NT 10.0; Win64; x64) AppleWebKit/537.36 (KHTML, like Gecko) Chrome/138.0.0.0 Safari/537.36","WebKit","Chrome","138.0.0.0","Windows","10.0","https://app.prolific.com/","en-GB,en;q=0.9,sl;q=0.8","664b4f0017b082f48ee8a033","683db6dfa200031b80f2a654","686507900f3513ea6fea65c3","664b4f0017b082f48ee8a033","2025-07-02T10:46:25.485Z","","","","","","StressQ","","","","","","","","","","","","","","","","","","","","","","","","","","","","","","","","","","","","","","50"
"2817","","<div style=""width:500px;"">
  <p>What best describes how you currently feel?</p>
  </div>","79","html-slider-response","75","1642938","0.0-10.0-4.7","78","1","2025-07-02 10:19:04","80fe4187154257d5fb01684ea91b68b9","92.53.153.233","Mozilla/5.0 (Windows NT 10.0; Win64; x64) AppleWebKit/537.36 (KHTML, like Gecko) Chrome/138.0.0.0 Safari/537.36","WebKit","Chrome","138.0.0.0","Windows","10.0","https://app.prolific.com/","en-GB,en;q=0.9,sl;q=0.8","664b4f0017b082f48ee8a033","683db6dfa200031b80f2a654","686507900f3513ea6fea65c3","664b4f0017b082f48ee8a033","2025-07-02T10:46:28.303Z","","","","","","MotivationQ","","","","","","","","","","","","","","","","","","","","","","","","","","","","","","","","","","","","","","50"
"","","","","ctl-task-cpt","76","1694743","0.0-10.0-0.8","78","1","2025-07-02 10:19:04","80fe4187154257d5fb01684ea91b68b9","92.53.153.233","Mozilla/5.0 (Windows NT 10.0; Win64; x64) AppleWebKit/537.36 (KHTML, like Gecko) Chrome/138.0.0.0 Safari/537.36","WebKit","Chrome","138.0.0.0","Windows","10.0","https://app.prolific.com/","en-GB,en;q=0.9,sl;q=0.8","664b4f0017b082f48ee8a033","683db6dfa200031b80f2a654","686507900f3513ea6fea65c3","664b4f0017b082f48ee8a033","2025-07-02T10:47:20.108Z","","","","","","","","","","","","","","","","win-only","0","g1:NW,g2:SE","0.4","9","0","1644148.1","9439.6","14441.8","48786.8","1","4","8","6","2","-8","-8","0","0","0","869.9","3000","-2970","[""down"",""right""]","{""num_key_presses"":11,""num_perfect"":5,""num_errors"":0,""num_randdir"":6,""num_randdir_good_moves"":3,""num_whilered"":0,""num_whileblue"":0,""num_blue"":1,""num_good_moves"":8}","[458.8571428571429,469.7633928571429,0.8,459.8571428571429,469.7633928571429,105.2,482.8571428571429,462.7633928571429,206.6,547.8571428571429,434.7633928571429,307.5,305.8571428571429,378.7633928571429,411.1,683.8571428571429,640.7633928571429,521.5,793.8571428571429,779.7633928571429,623.6,799.8571428571429,774.7633928571429,723.9,806.8571428571429,822.7633928571429,826.8,806.8571428571429,829.7633928571429,930.7,805.8571428571429,839.7633928571429,1039.2,771.8571428571429,843.7633928571429,1140.9,771.8571428571429,842.7633928571429,1246.3,774.8571428571429,786.7633928571429,1346.8,774.8571428571429,786.7633928571429,1456.5,774.8571428571429,786.7633928571429,1562.2,774.8571428571429,786.7633928571429,1666.4,774.8571428571429,786.7633928571429,1771.5,774.8571428571429,786.7633928571429,1874.2,774.8571428571429,786.7633928571429,1974.7,774.8571428571429,786.7633928571429,2075.8,774.8571428571429,786.7633928571429,2181,774.8571428571429,786.7633928571429,2281.8,774.8571428571429,786.7633928571429,2389.2,774.8571428571429,786.7633928571429,2490.3,774.8571428571429,786.7633928571429,2592.6,774.8571428571429,786.7633928571429,2695.7,774.8571428571429,786.7633928571429,2796.7,774.8571428571429,786.7633928571429,2906.7,774.8571428571429,786.7633928571429,3012.2,774.8571428571429,786.7633928571429,3116.2,774.8571428571429,786.7633928571429,3216.3,774.8571428571429,786.7633928571429,3317.2,774.8571428571429,786.7633928571429,3429.1,774.8571428571429,786.7633928571429,3530.9,774.8571428571429,786.7633928571429,3640.2,774.8571428571429,786.7633928571429,3740.9,774.8571428571429,786.7633928571429,3841.2,774.8571428571429,786.7633928571429,3946.5,774.8571428571429,786.7633928571429,4046.6,774.8571428571429,786.7633928571429,4146.6,774.8571428571429,786.7633928571429,4251.4,774.8571428571429,786.7633928571429,4351.6,774.8571428571429,786.7633928571429,4451.7,774.8571428571429,786.7633928571429,4552,774.8571428571429,786.7633928571429,4660,774.8571428571429,786.7633928571429,4761.7,774.8571428571429,786.7633928571429,4866.4,774.8571428571429,786.7633928571429,4966.5]","[1411.2,1411.2,1000,0,411.2,""smooth"",""right"",""right"",""good_move"",4390.8,2979.1,2663.6,1411.7,315.5,""smooth"",""right"",""right"",""good_move"",7039.4,2648.4,2340.2,4391,308.2,""oops"",""right"",""left"",""bad_move"",9918.3,2878.6,2607.8,7039.7,270.8,""oops"",""right"",""up"",""bad_move"",11879,1960.3,1586.9,9918.7,373.4,""smooth"",""right"",""right"",""good_move"",14423.7,2544.2,2269,11879.5,275.2,""smooth"",""right"",""right"",""good_move"",16855.6,2431.6,2137.8,14424,293.8,""oops"",""down"",""up"",""bad_move"",19705.3,2849.3,2562.7,16856,286.6,""oops"",""down"",""down"",""good_move"",22373.6,2668,2355.2,19705.6,312.8,""oops"",""down"",""down"",""good_move"",25327.1,2953.3,2642.4,22373.8,310.9,""oops"",""down"",""down"",""good_move"",31840.9,6513.5,3059,28494.9,287,""smooth"",""down"",""down"",""good_move""]","",""
"2836","","<div style=""width:500px;"">
  <p>What determined the result of this run?</p>
  </div>","9","html-slider-response","77","1697580","0.0-10.0-1.8","78","1","2025-07-02 10:19:04","80fe4187154257d5fb01684ea91b68b9","92.53.153.233","Mozilla/5.0 (Windows NT 10.0; Win64; x64) AppleWebKit/537.36 (KHTML, like Gecko) Chrome/138.0.0.0 Safari/537.36","WebKit","Chrome","138.0.0.0","Windows","10.0","https://app.prolific.com/","en-GB,en;q=0.9,sl;q=0.8","664b4f0017b082f48ee8a033","683db6dfa200031b80f2a654","686507900f3513ea6fea65c3","664b4f0017b082f48ee8a033","2025-07-02T10:47:22.945Z","","","","","","AttribQ","","","","","","","","","","","","","","","","","","","","","","","","","","","","","","","","","","","","","","50"
"2216","","<div style=""width:500px;"">
  <p>How much control did you have over the ball?</p>
  </div>","14","html-slider-response","78","1699797","0.0-10.0-2.8","78","1","2025-07-02 10:19:04","80fe4187154257d5fb01684ea91b68b9","92.53.153.233","Mozilla/5.0 (Windows NT 10.0; Win64; x64) AppleWebKit/537.36 (KHTML, like Gecko) Chrome/138.0.0.0 Safari/537.36","WebKit","Chrome","138.0.0.0","Windows","10.0","https://app.prolific.com/","en-GB,en;q=0.9,sl;q=0.8","664b4f0017b082f48ee8a033","683db6dfa200031b80f2a654","686507900f3513ea6fea65c3","664b4f0017b082f48ee8a033","2025-07-02T10:47:25.162Z","","","","","","ControlQ","","","","","","","","","","","","","","","","","","","","","","","","","","","","","","","","","","","","","","50"
"2599","","<div style=""width:500px;"">
  <p>How would you describe your current emotional state?</p>
  </div>","67","html-slider-response","79","1702396","0.0-10.0-3.8","78","1","2025-07-02 10:19:04","80fe4187154257d5fb01684ea91b68b9","92.53.153.233","Mozilla/5.0 (Windows NT 10.0; Win64; x64) AppleWebKit/537.36 (KHTML, like Gecko) Chrome/138.0.0.0 Safari/537.36","WebKit","Chrome","138.0.0.0","Windows","10.0","https://app.prolific.com/","en-GB,en;q=0.9,sl;q=0.8","664b4f0017b082f48ee8a033","683db6dfa200031b80f2a654","686507900f3513ea6fea65c3","664b4f0017b082f48ee8a033","2025-07-02T10:47:27.762Z","","","","","","StressQ","","","","","","","","","","","","","","","","","","","","","","","","","","","","","","","","","","","","","","50"
"3587","","<div style=""width:500px;"">
  <p>What best describes how you currently feel?</p>
  </div>","64","html-slider-response","80","1705984","0.0-10.0-4.8","78","1","2025-07-02 10:19:04","80fe4187154257d5fb01684ea91b68b9","92.53.153.233","Mozilla/5.0 (Windows NT 10.0; Win64; x64) AppleWebKit/537.36 (KHTML, like Gecko) Chrome/138.0.0.0 Safari/537.36","WebKit","Chrome","138.0.0.0","Windows","10.0","https://app.prolific.com/","en-GB,en;q=0.9,sl;q=0.8","664b4f0017b082f48ee8a033","683db6dfa200031b80f2a654","686507900f3513ea6fea65c3","664b4f0017b082f48ee8a033","2025-07-02T10:47:31.350Z","","","","","","MotivationQ","","","","","","","","","","","","","","","","","","","","","","","","","","","","","","","","","","","","","","50"
"","","","","ctl-task-cpt","81","1744449","0.0-10.0-0.9","78","1","2025-07-02 10:19:04","80fe4187154257d5fb01684ea91b68b9","92.53.153.233","Mozilla/5.0 (Windows NT 10.0; Win64; x64) AppleWebKit/537.36 (KHTML, like Gecko) Chrome/138.0.0.0 Safari/537.36","WebKit","Chrome","138.0.0.0","Windows","10.0","https://app.prolific.com/","en-GB,en;q=0.9,sl;q=0.8","664b4f0017b082f48ee8a033","683db6dfa200031b80f2a654","686507900f3513ea6fea65c3","664b4f0017b082f48ee8a033","2025-07-02T10:48:09.814Z","","","","","","","","","","","","","","","","win-only","3","g1:SW,g2:NE","0.5","10","0","1707194.5","663.1","5665.9","35445.6","1","4","4","6","2","-4","-5","0","0","0","1436.1","3000","-2935","[""up"",""right""]","{""num_key_presses"":9,""num_perfect"":3,""num_errors"":1,""num_randdir"":5,""num_randdir_good_moves"":2,""num_whilered"":0,""num_whileblue"":1,""num_blue"":2,""num_good_moves"":5}","[455.8571428571429,453.7633928571429,0.2,455.8571428571429,453.7633928571429,103,455.8571428571429,453.7633928571429,209.7,456.8571428571429,453.7633928571429,312.4,460.8571428571429,454.7633928571429,412.7,457.8571428571429,466.7633928571429,516.9,365.8571428571429,572.7633928571429,618.4,278.8571428571429,707.7633928571429,723.5,311.8571428571429,682.7633928571429,827.1,410.8571428571429,572.7633928571429,927.6,537.8571428571429,454.7633928571429,1028.9,664.8571428571429,320.7633928571429,1132.5,771.8571428571429,193.76339285714286,1233.6,794.8571428571429,147.76339285714286,1338.2,806.8571428571429,109.76339285714286,1447.2,806.8571428571429,109.76339285714286,1550.1,807.8571428571429,109.76339285714286,1652.4,807.8571428571429,109.76339285714286,1752.7,807.8571428571429,109.76339285714286,1853.6,807.8571428571429,109.76339285714286,1953.6,807.8571428571429,109.76339285714286,2058.9,807.8571428571429,109.76339285714286,2162.6,807.8571428571429,109.76339285714286,2262.8,807.8571428571429,109.76339285714286,2362.8,807.8571428571429,109.76339285714286,2463.2,807.8571428571429,109.76339285714286,2564.1,807.8571428571429,109.76339285714286,2667.8,807.8571428571429,109.76339285714286,2767.8,807.8571428571429,109.76339285714286,2868.3,807.8571428571429,109.76339285714286,2968.4,807.8571428571429,109.76339285714286,3068.6,807.8571428571429,109.76339285714286,3172,807.8571428571429,109.76339285714286,3272.8,807.8571428571429,109.76339285714286,3377.4,807.8571428571429,109.76339285714286,3477.5,807.8571428571429,109.76339285714286,3582.1,807.8571428571429,109.76339285714286,3683,807.8571428571429,109.76339285714286,3788.6,807.8571428571429,109.76339285714286,3892.6,807.8571428571429,109.76339285714286,3997.6,807.8571428571429,109.76339285714286,4097.7,807.8571428571429,109.76339285714286,4201,807.8571428571429,109.76339285714286,4301.2,807.8571428571429,109.76339285714286,4402.4,807.8571428571429,109.76339285714286,4505.5,807.8571428571429,109.76339285714286,4608.3,807.8571428571429,109.76339285714286,4709,807.8571428571429,109.76339285714286,4810.9,807.8571428571429,109.76339285714286,4912.5]","[1433.4,1433.4,1000,0,433.4,""smooth"",""up"",""up"",""good_move"",7735.6,6301.6,2054.6,5380.1,300.9,""while_blue"",""up"",""down"",""bad_move"",10188.5,2452.4,2002.5,7736.2,449.9,""oops"",""up"",""left"",""bad_move"",13475.2,3286.4,2957.1,10188.8,329.3,""smooth"",""up"",""up"",""good_move"",16342.6,2866.8,2520.8,13475.8,346,""oops"",""up"",""up"",""good_move"",18806.4,2463.2,2100.1,16343.2,363.1,""oops"",""up"",""down"",""bad_move"",21599.9,2793.2,2491.3,18806.7,301.9,""oops"",""right"",""up"",""good_move"",24575.5,2975.3,2656.8,21600.2,318.5,""oops"",""up"",""down"",""bad_move"",26978.5,2402.6,2072.9,24575.9,329.7,""smooth"",""up"",""up"",""good_move""]","",""
"64687","","<div style=""width:500px;"">
  <p>What determined the result of this run?</p>
  </div>","14","html-slider-response","82","1809136","0.0-10.0-1.9","78","1","2025-07-02 10:19:04","80fe4187154257d5fb01684ea91b68b9","92.53.153.233","Mozilla/5.0 (Windows NT 10.0; Win64; x64) AppleWebKit/537.36 (KHTML, like Gecko) Chrome/138.0.0.0 Safari/537.36","WebKit","Chrome","138.0.0.0","Windows","10.0","https://app.prolific.com/","en-GB,en;q=0.9,sl;q=0.8","664b4f0017b082f48ee8a033","683db6dfa200031b80f2a654","686507900f3513ea6fea65c3","664b4f0017b082f48ee8a033","2025-07-02T10:49:14.501Z","","","","","","AttribQ","","","","","","","","","","","","","","","","","","","","","","","","","","","","","","","","","","","","","","50"
"4811","","<div style=""width:500px;"">
  <p>How much control did you have over the ball?</p>
