"rt","response_timestamp","stimulus","response","trial_type","trial_index","time_elapsed","internal_node_id","run_id","condition","recorded_at","source_code_version","ip","user_agent","device","browser","browser_version","platform","platform_version","referer","accept_language","PROLIFIC_PID","STUDY_ID","SESSION_ID","prolific_id","realtime","view_history","question_order","consent","success","question_id","eventType","responses","item_order","radio_event_ids","radio_event_times","key_event_times","mouse_event_times","straightlining","zigzagging","honeypot","which_type","canvas_config","goals_layout","control_level","trial_number","tutorial_trial_number","trial_start_time","phase1_start_time","phase2_start_time","phase3_start_time","goal_1_value","goal_1_distance","goal_2_value","goal_2_distance","goal_selected","outcome","outcome_total","participant_final_score","participant_initial_score","participant_final_score_prop","goal_choice_rt","allocated_time","allocated_time_remaining","goal_direction","counts","mouse_movements","key_presses","correct","slider_start"
"27972","1751451764325","<p style='font-size:40px;line-height:1.25'><strong>Welcome to the experiment!</strong></p><p style='font-size:1.1em;line-height:1.25'>Thank you for your interest in our experiment! Before you begin, it is important that we obtain your informed consent to participate in the study.</p><p style='font-size:1.1em;line-height:1.25'>On the next screen will be an <strong>information sheet</strong> for you to read. To participate in the study we need you to read this information sheet and the following consent form carefully. If you agree with all the statements, please click the <strong>I agree</strong> button.</p><p style='font-size:1.1em;line-height:1.25'>Press <strong>Next</strong> to read the information sheet.</p>","0","custom-html-button-response","0","27979","0.0-0.0","160","1","2025-07-02 10:22:11","80fe4187154257d5fb01684ea91b68b9","154.159.238.41","Mozilla/5.0 (Windows NT 10.0; Win64; x64) AppleWebKit/537.36 (KHTML, like Gecko) Chrome/137.0.0.0 Safari/537.36","WebKit","Chrome","137.0.0.0","Windows","10.0","https://app.prolific.com/","en-US,en;q=0.9","664b7cea18fe17cd31b5ab5e","683db6dfa200031b80f2a654","6865078bbba92057c1061f2c","664b7cea18fe17cd31b5ab5e","2025-07-02T10:22:44.329Z","","","","","","","","","","","","","","","","","","","","","","","","","","","","","","","","","","","","","","","","","","","",""
"457508","","","","instructions","1","485494","0.0-1.0","160","1","2025-07-02 10:22:11","80fe4187154257d5fb01684ea91b68b9","154.159.238.41","Mozilla/5.0 (Windows NT 10.0; Win64; x64) AppleWebKit/537.36 (KHTML, like Gecko) Chrome/137.0.0.0 Safari/537.36","WebKit","Chrome","137.0.0.0","Windows","10.0","https://app.prolific.com/","en-US,en;q=0.9","664b7cea18fe17cd31b5ab5e","683db6dfa200031b80f2a654","6865078bbba92057c1061f2c","664b7cea18fe17cd31b5ab5e","","[{""page_index"":0,""viewing_time"":399148},{""page_index"":1,""viewing_time"":58359}]","","","","","","","","","","","","","","","","","","","","","","","","","","","","","","","","","","","","","","","","","","",""
"9150","","","{""Q0"":"""",""Q1"":"""",""Q2"":"""",""Q3"":"""",""Q4"":"""",""Q5"":"""",""Q6"":""I agree""}","survey-multi-choice","2","494660","0.0-2.0","160","1","2025-07-02 10:22:11","80fe4187154257d5fb01684ea91b68b9","154.159.238.41","Mozilla/5.0 (Windows NT 10.0; Win64; x64) AppleWebKit/537.36 (KHTML, like Gecko) Chrome/137.0.0.0 Safari/537.36","WebKit","Chrome","137.0.0.0","Windows","10.0","https://app.prolific.com/","en-US,en;q=0.9","664b7cea18fe17cd31b5ab5e","683db6dfa200031b80f2a654","6865078bbba92057c1061f2c","664b7cea18fe17cd31b5ab5e","","","[0,1,2,3,4,5,6]","true","","","","","","","","","","","","","","","","","","","","","","","","","","","","","","","","","","","","","","","","",""
"20233","","","","fullscreen","3","515919","0.0-4.0","160","1","2025-07-02 10:22:11","80fe4187154257d5fb01684ea91b68b9","154.159.238.41","Mozilla/5.0 (Windows NT 10.0; Win64; x64) AppleWebKit/537.36 (KHTML, like Gecko) Chrome/137.0.0.0 Safari/537.36","WebKit","Chrome","137.0.0.0","Windows","10.0","https://app.prolific.com/","en-US,en;q=0.9","664b7cea18fe17cd31b5ab5e","683db6dfa200031b80f2a654","6865078bbba92057c1061f2c","664b7cea18fe17cd31b5ab5e","","","","","true","","","","","","","","","","","","","","","","","","","","","","","","","","","","","","","","","","","","","","","",""
"18922","1751452271194"," <p style='font-size:1.1em;line-height:1.25'>Thank you for completing the consent form and closing all other tabs.</p><p style='font-size:1.1em;line-height:1.25'>We will now invite you to fill in some demographic information and questionnaires, before starting the game.<br>This will take about 5 minutes.<br></p><p style='font-size:1.1em;line-height:1.25'>Press the <strong>Next</strong> button to continue.</p>","0","custom-html-button-response","4","534847","0.0-5.0","160","1","2025-07-02 10:22:11","80fe4187154257d5fb01684ea91b68b9","154.159.238.41","Mozilla/5.0 (Windows NT 10.0; Win64; x64) AppleWebKit/537.36 (KHTML, like Gecko) Chrome/137.0.0.0 Safari/537.36","WebKit","Chrome","137.0.0.0","Windows","10.0","https://app.prolific.com/","en-US,en;q=0.9","664b7cea18fe17cd31b5ab5e","683db6dfa200031b80f2a654","6865078bbba92057c1061f2c","664b7cea18fe17cd31b5ab5e","2025-07-02T10:31:11.196Z","","","","","","","","","","","","","","","","","","","","","","","","","","","","","","","","","","","","","","","","","","","",""
"8535","","","{""age"":""25""}","survey-text","5","543395","0.0-6.0-0.0","160","1","2025-07-02 10:22:11","80fe4187154257d5fb01684ea91b68b9","154.159.238.41","Mozilla/5.0 (Windows NT 10.0; Win64; x64) AppleWebKit/537.36 (KHTML, like Gecko) Chrome/137.0.0.0 Safari/537.36","WebKit","Chrome","137.0.0.0","Windows","10.0","https://app.prolific.com/","en-US,en;q=0.9","664b7cea18fe17cd31b5ab5e","683db6dfa200031b80f2a654","6865078bbba92057c1061f2c","664b7cea18fe17cd31b5ab5e","","","","","","0","demographics","","","","","","","","","","","","","","","","","","","","","","","","","","","","","","","","","","","","","",""
"8762","","","{""gender_identity"":""male/man""}","survey-multi-choice","6","552166","0.0-6.0-1.0","160","1","2025-07-02 10:22:11","80fe4187154257d5fb01684ea91b68b9","154.159.238.41","Mozilla/5.0 (Windows NT 10.0; Win64; x64) AppleWebKit/537.36 (KHTML, like Gecko) Chrome/137.0.0.0 Safari/537.36","WebKit","Chrome","137.0.0.0","Windows","10.0","https://app.prolific.com/","en-US,en;q=0.9","664b7cea18fe17cd31b5ab5e","683db6dfa200031b80f2a654","6865078bbba92057c1061f2c","664b7cea18fe17cd31b5ab5e","","","[0]","","","1","demographics","","","","","","","","","","","","","","","","","","","","","","","","","","","","","","","","","","","","","",""
"8077","","","{""assigned_sex"":""male""}","survey-multi-choice","7","560247","0.0-6.0-2.0","160","1","2025-07-02 10:22:11","80fe4187154257d5fb01684ea91b68b9","154.159.238.41","Mozilla/5.0 (Windows NT 10.0; Win64; x64) AppleWebKit/537.36 (KHTML, like Gecko) Chrome/137.0.0.0 Safari/537.36","WebKit","Chrome","137.0.0.0","Windows","10.0","https://app.prolific.com/","en-US,en;q=0.9","664b7cea18fe17cd31b5ab5e","683db6dfa200031b80f2a654","6865078bbba92057c1061f2c","664b7cea18fe17cd31b5ab5e","","","[0]","","","2","demographics","","","","","","","","","","","","","","","","","","","","","","","","","","","","","","","","","","","","","",""
"7074","","","{""menstrual_cycle"":""No""}","survey-multi-choice","8","567325","0.0-6.0-3.0","160","1","2025-07-02 10:22:11","80fe4187154257d5fb01684ea91b68b9","154.159.238.41","Mozilla/5.0 (Windows NT 10.0; Win64; x64) AppleWebKit/537.36 (KHTML, like Gecko) Chrome/137.0.0.0 Safari/537.36","WebKit","Chrome","137.0.0.0","Windows","10.0","https://app.prolific.com/","en-US,en;q=0.9","664b7cea18fe17cd31b5ab5e","683db6dfa200031b80f2a654","6865078bbba92057c1061f2c","664b7cea18fe17cd31b5ab5e","","","[0]","","","4","demographics","","","","","","","","","","","","","","","","","","","","","","","","","","","","","","","","","","","","","",""
"106330","","","{""education"":""Bachelor's Degree (e.g., BA)""}","survey-multi-choice","9","673658","0.0-6.0-4.0","160","1","2025-07-02 10:22:11","80fe4187154257d5fb01684ea91b68b9","154.159.238.41","Mozilla/5.0 (Windows NT 10.0; Win64; x64) AppleWebKit/537.36 (KHTML, like Gecko) Chrome/137.0.0.0 Safari/537.36","WebKit","Chrome","137.0.0.0","Windows","10.0","https://app.prolific.com/","en-US,en;q=0.9","664b7cea18fe17cd31b5ab5e","683db6dfa200031b80f2a654","6865078bbba92057c1061f2c","664b7cea18fe17cd31b5ab5e","","","[0]","","","5","demographics","","","","","","","","","","","","","","","","","","","","","","","","","","","","","","","","","","","","","",""
"9096","","","{""education"":""Bachelor's Degree (e.g., BA)""}","survey-multi-choice","10","682757","0.0-6.0-5.0","160","1","2025-07-02 10:22:11","80fe4187154257d5fb01684ea91b68b9","154.159.238.41","Mozilla/5.0 (Windows NT 10.0; Win64; x64) AppleWebKit/537.36 (KHTML, like Gecko) Chrome/137.0.0.0 Safari/537.36","WebKit","Chrome","137.0.0.0","Windows","10.0","https://app.prolific.com/","en-US,en;q=0.9","664b7cea18fe17cd31b5ab5e","683db6dfa200031b80f2a654","6865078bbba92057c1061f2c","664b7cea18fe17cd31b5ab5e","2025-07-02T10:33:39.107Z","","[0]","","","6","demographics","","","","","","","","","","","","","","","","","","","","","","","","","","","","","","","","","","","","","",""
"40633","","","{""mental_health_condition"":""none"",""mental_health_treatment"":""none"",""psychiatric_medication"":""none""}","survey-text","11","723398","0.0-7.0-0.0","160","1","2025-07-02 10:22:11","80fe4187154257d5fb01684ea91b68b9","154.159.238.41","Mozilla/5.0 (Windows NT 10.0; Win64; x64) AppleWebKit/537.36 (KHTML, like Gecko) Chrome/137.0.0.0 Safari/537.36","WebKit","Chrome","137.0.0.0","Windows","10.0","https://app.prolific.com/","en-US,en;q=0.9","664b7cea18fe17cd31b5ab5e","683db6dfa200031b80f2a654","6865078bbba92057c1061f2c","664b7cea18fe17cd31b5ab5e","2025-07-02T10:34:19.748Z","","","","","1","mental_health","","","","","","","","","","","","","","","","","","","","","","","","","","","","","","","","","","","","","",""
"21555","","","{""depression_history"":[""Yes""]}","survey-multi-select","12","744966","0.0-7.0-1.0","160","1","2025-07-02 10:22:11","80fe4187154257d5fb01684ea91b68b9","154.159.238.41","Mozilla/5.0 (Windows NT 10.0; Win64; x64) AppleWebKit/537.36 (KHTML, like Gecko) Chrome/137.0.0.0 Safari/537.36","WebKit","Chrome","137.0.0.0","Windows","10.0","https://app.prolific.com/","en-US,en;q=0.9","664b7cea18fe17cd31b5ab5e","683db6dfa200031b80f2a654","6865078bbba92057c1061f2c","664b7cea18fe17cd31b5ab5e","","","[0]","","","","mental_health","","","","","","","","","","","","","","","","","","","","","","","","","","","","","","","","","","","","","",""
"19051","","","{""depression_episodes"":""1-2"",""depression_recent"":""More than 1 year ago""}","survey-multi-choice","13","764019","0.0-7.0-2.0-0.0","160","1","2025-07-02 10:22:11","80fe4187154257d5fb01684ea91b68b9","154.159.238.41","Mozilla/5.0 (Windows NT 10.0; Win64; x64) AppleWebKit/537.36 (KHTML, like Gecko) Chrome/137.0.0.0 Safari/537.36","WebKit","Chrome","137.0.0.0","Windows","10.0","https://app.prolific.com/","en-US,en;q=0.9","664b7cea18fe17cd31b5ab5e","683db6dfa200031b80f2a654","6865078bbba92057c1061f2c","664b7cea18fe17cd31b5ab5e","2025-07-02T10:35:00.368Z","","[0,1]","","","3","mental_health","","","","","","","","","","","","","","","","","","","","","","","","","","","","","","","","","","","","","",""
"182280.79999999702","","","","survey-template","14","946315","0.0-7.0-3.0","160","1","2025-07-02 10:22:11","80fe4187154257d5fb01684ea91b68b9","154.159.238.41","Mozilla/5.0 (Windows NT 10.0; Win64; x64) AppleWebKit/537.36 (KHTML, like Gecko) Chrome/137.0.0.0 Safari/537.36","WebKit","Chrome","137.0.0.0","Windows","10.0","https://app.prolific.com/","en-US,en;q=0.9","664b7cea18fe17cd31b5ab5e","683db6dfa200031b80f2a654","6865078bbba92057c1061f2c","664b7cea18fe17cd31b5ab5e","2025-07-02T10:38:02.664Z","","","","","","ius","{""Q01"":""2"",""Q02"":""3"",""Q03"":""2"",""Q04"":""2"",""Q05"":""2"",""Q06"":""1"",""Q07"":""3"",""Q08"":""0"",""Q09"":""4"",""Q10"":""2"",""Q11"":""1"",""Q12"":""3"",""Q13"":""3""}","[0,1,2,3,4,5,6,7,8,9,10,11,12]","[""Q01"",""Q02"",""Q03"",""Q04"",""Q05"",""Q06"",""Q07"",""Q08"",""Q09"",""Q10"",""Q11"",""Q12"",""Q13""]","[57202.5,65649.89999999106,74287.39999999106,83429.89999999106,98323.89999999106,112000,121021.70000000298,130381.29999999702,143880,148863,165605,172584.20000000298,180057.39999999106]","[]","[57202.5,65649.89999999106,72659.59999999404,74287.39999999106,83429.89999999106,98323.89999999106,112000,121021.70000000298,130381.29999999702,143880,148863,165605,172584.20000000298,178053.29999999702,180057.39999999106,182267.20000000298]","0.38461538461538464","0.4166666666666667","0","","","","","","","","","","","","","","","","","","","","","","","","","","","","",""
"13096","1751452695765","<p style='font-size:1.1em;line-height:1.25'>In the following, we will ask you a few questions relating to your experiences over the past month.<br></p><p style='font-size:1.1em;line-height:1.25'>Press the <strong>Next</strong> button to continue.</p>","0","custom-html-button-response","15","959417","0.0-7.0-4.0","160","1","2025-07-02 10:22:11","80fe4187154257d5fb01684ea91b68b9","154.159.238.41","Mozilla/5.0 (Windows NT 10.0; Win64; x64) AppleWebKit/537.36 (KHTML, like Gecko) Chrome/137.0.0.0 Safari/537.36","WebKit","Chrome","137.0.0.0","Windows","10.0","https://app.prolific.com/","en-US,en;q=0.9","664b7cea18fe17cd31b5ab5e","683db6dfa200031b80f2a654","6865078bbba92057c1061f2c","664b7cea18fe17cd31b5ab5e","2025-07-02T10:38:15.767Z","","","","","","","","","","","","","","","","","","","","","","","","","","","","","","","","","","","","","","","","","","","",""
"150246.5","","","","survey-template","16","1109674","0.0-7.0-5.0","160","1","2025-07-02 10:22:11","80fe4187154257d5fb01684ea91b68b9","154.159.238.41","Mozilla/5.0 (Windows NT 10.0; Win64; x64) AppleWebKit/537.36 (KHTML, like Gecko) Chrome/137.0.0.0 Safari/537.36","WebKit","Chrome","137.0.0.0","Windows","10.0","https://app.prolific.com/","en-US,en;q=0.9","664b7cea18fe17cd31b5ab5e","683db6dfa200031b80f2a654","6865078bbba92057c1061f2c","664b7cea18fe17cd31b5ab5e","2025-07-02T10:40:46.023Z","","","","","","pss","{""Q01"":""3"",""Q02"":""3"",""Q03"":""2"",""Q04"":""1"",""Q05"":""1"",""Q06"":""3"",""Q07"":""1"",""Q08"":""2"",""Q09"":""2"",""Q10"":""2""}","[0,1,2,3,4,5,6,7,8,9]","[""Q01"",""Q02"",""Q03"",""Q04"",""Q05"",""Q06"",""Q07"",""Q08"",""Q09"",""Q10""]","[31933.5,40020.09999999404,48467.39999999106,57835.89999999106,71293.59999999404,87462.29999999702,107795.20000000298,119282.20000000298,136852,144460.89999999106]","[]","[0.09999999403953552,31933.5,40020.09999999404,48467.39999999106,57835.89999999106,71293.59999999404,87462.29999999702,107795.20000000298,119282.20000000298,136852,144460.89999999106,150234.09999999404]","0.6","0.3333333333333333","0","","","","","","","","","","","","","","","","","","","","","","","","","","","","",""
"8319","1751452854345","<p style='font-size:1.1em;line-height:1.25'>Thank you for your answers! Now we will ask you a few more questions relating to your feelings in the last 24 hours.<br></p><p style='font-size:1.1em;line-height:1.25'>Press the <strong>Next</strong> button to continue.</p>","0","custom-html-button-response","17","1117997","0.0-7.0-6.0","160","1","2025-07-02 10:22:11","80fe4187154257d5fb01684ea91b68b9","154.159.238.41","Mozilla/5.0 (Windows NT 10.0; Win64; x64) AppleWebKit/537.36 (KHTML, like Gecko) Chrome/137.0.0.0 Safari/537.36","WebKit","Chrome","137.0.0.0","Windows","10.0","https://app.prolific.com/","en-US,en;q=0.9","664b7cea18fe17cd31b5ab5e","683db6dfa200031b80f2a654","6865078bbba92057c1061f2c","664b7cea18fe17cd31b5ab5e","2025-07-02T10:40:54.346Z","","","","","","","","","","","","","","","","","","","","","","","","","","","","","","","","","","","","","","","","","","","",""
"153359.20000000298","","","","survey-template","18","1271374","0.0-7.0-7.0","160","1","2025-07-02 10:22:11","80fe4187154257d5fb01684ea91b68b9","154.159.238.41","Mozilla/5.0 (Windows NT 10.0; Win64; x64) AppleWebKit/537.36 (KHTML, like Gecko) Chrome/137.0.0.0 Safari/537.36","WebKit","Chrome","137.0.0.0","Windows","10.0","https://app.prolific.com/","en-US,en;q=0.9","664b7cea18fe17cd31b5ab5e","683db6dfa200031b80f2a654","6865078bbba92057c1061f2c","664b7cea18fe17cd31b5ab5e","2025-07-02T10:43:27.724Z","","","","","","drsp","{""Q01"":""3"",""Q02"":""2"",""Q03"":""1"",""Q04"":""4"",""Q05"":""3"",""Q06"":""3"",""Q07"":""3"",""Q08"":""3"",""Q09"":""5"",""Q10"":""4"",""Q11"":""3"",""Q12"":""4"",""Q13"":""4"",""Q14"":""3"",""Q15"":""3"",""Q16"":""4"",""Q17"":""2"",""Q18"":""3"",""Q19"":""3"",""Q20"":""3"",""Q21"":""3""}","[0,1,2,3,4,5,6,7,8,9,10,11,12,13,14,15,16,17,18,19,20]","[""Q01"",""Q02"",""Q03"",""Q04"",""Q05"",""Q06"",""Q07"",""Q08"",""Q09"",""Q10"",""Q11"",""Q12"",""Q13"",""Q14"",""Q15"",""Q16"",""Q17"",""Q18"",""Q19"",""Q20"",""Q21""]","[4942.70000000298,9085.5,12640.20000000298,18370.90000000596,23619.20000000298,32418.70000000298,35315.20000000298,40537.5,46950.10000000894,52224.10000000894,60410.79999999702,64252.5,91158.79999999702,96110.60000000894,101742.79999999702,104708.5,111156.40000000596,121002.5,130863.20000000298,143613.20000000298,151103.70000000298]","[]","[0.10000000894069672,4942.70000000298,9085.5,12640.20000000298,17023,18370.90000000596,23619.20000000298,28612.60000000894,30173,32418.70000000298,35315.20000000298,39454.79999999702,40537.5,46950.10000000894,52224.10000000894,60410.79999999702,64252.5,91158.79999999702,96110.60000000894,101742.79999999702,104708.5,111156.40000000596,121002.5,130863.20000000298,143613.20000000298,151103.70000000298,153339.40000000596]","0.5714285714285714","0.45","0","","","","","","","","","","","","","","","","","","","","","","","","","","","","",""
"27423.09999999404","","","","survey-template","19","1298803","0.0-7.0-8.0","160","1","2025-07-02 10:22:11","80fe4187154257d5fb01684ea91b68b9","154.159.238.41","Mozilla/5.0 (Windows NT 10.0; Win64; x64) AppleWebKit/537.36 (KHTML, like Gecko) Chrome/137.0.0.0 Safari/537.36","WebKit","Chrome","137.0.0.0","Windows","10.0","https://app.prolific.com/","en-US,en;q=0.9","664b7cea18fe17cd31b5ab5e","683db6dfa200031b80f2a654","6865078bbba92057c1061f2c","664b7cea18fe17cd31b5ab5e","2025-07-02T10:43:55.152Z","","","","","","stress","{""Q01"":""3"",""Q02"":""2"",""Q03"":""3""}","[0,1,2]","[""Q01"",""Q02"",""Q03""]","[11040.59999999404,18139.79999999702,25687.29999999702]","[]","[11040.59999999404,18139.79999999702,24313.70000000298,25687.29999999702,27419.20000000298]","1","0","0","","","","","","","","","","","","","","","","","","","","","","","","","","","","",""
"126711","","","","instructions","20","1425518","0.0-8.0-0.0","160","1","2025-07-02 10:22:11","80fe4187154257d5fb01684ea91b68b9","154.159.238.41","Mozilla/5.0 (Windows NT 10.0; Win64; x64) AppleWebKit/537.36 (KHTML, like Gecko) Chrome/137.0.0.0 Safari/537.36","WebKit","Chrome","137.0.0.0","Windows","10.0","https://app.prolific.com/","en-US,en;q=0.9","664b7cea18fe17cd31b5ab5e","683db6dfa200031b80f2a654","6865078bbba92057c1061f2c","664b7cea18fe17cd31b5ab5e","","[{""page_index"":0,""viewing_time"":26418},{""page_index"":1,""viewing_time"":36091},{""page_index"":2,""viewing_time"":23917},{""page_index"":3,""viewing_time"":40284}]","","","","","","","","","","","","","","","","","","","","","","","","","","","","","","","","","","","","","","","","","","",""
"","","","","ctl-task-cpt","21","1467739","0.0-8.0-1.0","160","1","2025-07-02 10:22:11","80fe4187154257d5fb01684ea91b68b9","154.159.238.41","Mozilla/5.0 (Windows NT 10.0; Win64; x64) AppleWebKit/537.36 (KHTML, like Gecko) Chrome/137.0.0.0 Safari/537.36","WebKit","Chrome","137.0.0.0","Windows","10.0","https://app.prolific.com/","en-US,en;q=0.9","664b7cea18fe17cd31b5ab5e","683db6dfa200031b80f2a654","6865078bbba92057c1061f2c","664b7cea18fe17cd31b5ab5e","","","","","","","","","","","","","","","","","win-only","0","g1:NW,g2:SE","1","0","1","1430327.7","4251.1","8252.5","39206.7","2","4","4","6","2","4","0","0","0","0","2488.9","4000","310","[""down"",""right""]","{""num_key_presses"":13,""num_perfect"":6,""num_errors"":4,""num_randdir"":0,""num_randdir_good_moves"":0,""num_whilered"":3,""num_whileblue"":0,""num_blue"":2,""num_good_moves"":6}","[302.22232142857143,291.12857142857143,0.3,302.22232142857143,291.12857142857143,101.9,302.22232142857143,291.12857142857143,210,302.22232142857143,291.12857142857143,316.7,302.22232142857143,291.12857142857143,421.4,302.22232142857143,291.12857142857143,522,302.22232142857143,291.12857142857143,632,302.22232142857143,291.12857142857143,736.8,302.22232142857143,291.12857142857143,849.4,302.22232142857143,291.12857142857143,953.1,285.22232142857143,273.12857142857143,1055.3,258.22232142857143,229.12857142857143,1168.3,248.22232142857143,212.12857142857143,1272.5,218.22232142857143,174.12857142857143,1376.8,225.22232142857143,218.12857142857143,1484.8,271.22232142857143,348.12857142857143,1587.2,278.22232142857143,358.12857142857143,1688.6,374.22232142857143,459.12857142857143,1789.3,441.22232142857143,549.1285714285714,1891.6,490.22232142857143,588.1285714285714,1993.1,512.2223214285714,591.1285714285714,2094.8,529.2223214285714,584.1285714285714,2198.2,537.2223214285714,580.1285714285714,2302.7,537.2223214285714,580.1285714285714,2405.9,537.2223214285714,580.1285714285714,2508.1,537.2223214285714,580.1285714285714,2610.3,537.2223214285714,580.1285714285714,2717.9,537.2223214285714,580.1285714285714,2820.2,537.2223214285714,580.1285714285714,2920.9,537.2223214285714,580.1285714285714,3021.1,537.2223214285714,580.1285714285714,3134.8,537.2223214285714,580.1285714285714,3237.4,537.2223214285714,580.1285714285714,3337.6,537.2223214285714,580.1285714285714,3446.6,537.2223214285714,580.1285714285714,3547.2,537.2223214285714,580.1285714285714,3652.8,537.2223214285714,580.1285714285714,3752.9,537.2223214285714,580.1285714285714,3855,537.2223214285714,580.1285714285714,3959.6]","[3126.4,3126.3,1000,0.1,2126.4,""smooth"",""right"",""right"",""good_move"",4364.3,1235.3,3295.5,3130,-2060.4,""error"",""-"",""-"",""no_move"",4554.4,185.3,3295.5,3130,-1871.1,""while_red"",""-"",""-"",""no_move"",5935.7,1566.6,2357.5,5372.5,-1794.3,""error"",""-"",""-"",""no_move"",16005.8,10066.1,2208.5,13314.3,483,""smooth"",""right"",""right"",""good_move"",16306.5,300.1,3337.4,16006.5,-3037.4,""error"",""-"",""-"",""no_move"",16691.5,384,3337.4,16006.5,-2652.4,""while_red"",""-"",""-"",""no_move"",21007.2,4699.7,2740.4,17310.8,956,""smooth"",""down"",""down"",""good_move"",21279.3,267.3,3048.6,21012,-2781.2,""error"",""-"",""-"",""no_move"",21547.4,265.8,3048.6,21012,-2513.2,""while_red"",""-"",""-"",""no_move"",25713.6,4432.1,2815.1,22283.4,615.2,""smooth"",""down"",""down"",""good_move"",27688.3,1972.8,1289.2,25715.5,683.6,""smooth"",""down"",""down"",""good_move"",30815.6,3122.5,2628.8,27693.1,493.7,""smooth"",""right"",""right"",""good_move""]","",""
"44445","","","","instructions","22","1512186","0.0-8.0-2.0","160","1","2025-07-02 10:22:11","80fe4187154257d5fb01684ea91b68b9","154.159.238.41","Mozilla/5.0 (Windows NT 10.0; Win64; x64) AppleWebKit/537.36 (KHTML, like Gecko) Chrome/137.0.0.0 Safari/537.36","WebKit","Chrome","137.0.0.0","Windows","10.0","https://app.prolific.com/","en-US,en;q=0.9","664b7cea18fe17cd31b5ab5e","683db6dfa200031b80f2a654","6865078bbba92057c1061f2c","664b7cea18fe17cd31b5ab5e","","[{""page_index"":0,""viewing_time"":44444}]","","","","","","","","","","","","","","","","","","","","","","","","","","","","","","","","","","","","","","","","","","",""
"","","","","ctl-task-cpt","23","1568513","0.0-8.0-3.0","160","1","2025-07-02 10:22:11","80fe4187154257d5fb01684ea91b68b9","154.159.238.41","Mozilla/5.0 (Windows NT 10.0; Win64; x64) AppleWebKit/537.36 (KHTML, like Gecko) Chrome/137.0.0.0 Safari/537.36","WebKit","Chrome","137.0.0.0","Windows","10.0","https://app.prolific.com/","en-US,en;q=0.9","664b7cea18fe17cd31b5ab5e","683db6dfa200031b80f2a654","6865078bbba92057c1061f2c","664b7cea18fe17cd31b5ab5e","","","","","","","","","","","","","","","","","win-only","0","g1:NW,g2:SE","0.35","0","3","1517001.8","5623.8","9632.3","53304.7","2","4","8","6","2","-8","-8","0","0","0","2216.4","4000","-2220","[""down"",""right""]","{""num_key_presses"":10,""num_perfect"":4,""num_errors"":0,""num_randdir"":6,""num_randdir_good_moves"":1,""num_whilered"":0,""num_whileblue"":0,""num_blue"":3,""num_good_moves"":5}","[298.22232142857143,290.12857142857143,1.5,298.22232142857143,290.12857142857143,102.4,298.22232142857143,290.12857142857143,211.7,298.22232142857143,290.12857142857143,312.7,298.22232142857143,290.12857142857143,417.3,298.22232142857143,290.12857142857143,517.6,298.22232142857143,290.12857142857143,618,298.22232142857143,290.12857142857143,718.1,298.22232142857143,290.12857142857143,823.5,298.22232142857143,290.12857142857143,927.5,298.22232142857143,290.12857142857143,1030.5,298.22232142857143,290.12857142857143,1140.7,298.22232142857143,290.12857142857143,1243.8,330.22232142857143,303.12857142857143,1348.4,413.22232142857143,360.12857142857143,1450.6,449.22232142857143,386.12857142857143,1553.3,475.22232142857143,422.12857142857143,1653.8,519.2223214285714,490.12857142857143,1753.9,532.2223214285714,514.1285714285714,1855.8,532.2223214285714,517.1285714285714,1959.9,536.2223214285714,521.1285714285714,2063.1,536.2223214285714,521.1285714285714,2166.9,536.2223214285714,521.1285714285714,2270.7,536.2223214285714,521.1285714285714,2371.8,536.2223214285714,521.1285714285714,2472,536.2223214285714,521.1285714285714,2573.4,536.2223214285714,521.1285714285714,2674.8,536.2223214285714,521.1285714285714,2779.4,536.2223214285714,521.1285714285714,2884.5,536.2223214285714,521.1285714285714,2991.4,536.2223214285714,521.1285714285714,3092.5,536.2223214285714,521.1285714285714,3193,536.2223214285714,521.1285714285714,3294.9,536.2223214285714,521.1285714285714,3400.7,536.2223214285714,521.1285714285714,3502.9,536.2223214285714,521.1285714285714,3608.8,536.2223214285714,521.1285714285714,3710.7,536.2223214285714,521.1285714285714,3813.1,536.2223214285714,521.1285714285714,3916.2]","[1485.9,1486,1000,0,486,""smooth"",""right"",""right"",""good_move"",4956,3468.6,2988.6,1487.6,479.8,""oops"",""down"",""left"",""bad_move"",8725.5,3764.2,3092.9,4961.4,671.2,""oops"",""right"",""left"",""bad_move"",12203.1,3476.3,2539.2,8726.8,937.2,""oops"",""down"",""up"",""bad_move"",14962.7,2753.8,1983,12208.9,770.9,""smooth"",""down"",""down"",""good_move"",21927,6960.2,2644.4,18792.4,490.2,""smooth"",""down"",""down"",""good_move"",25181.9,3253.4,2829.1,21928.5,424.3,""oops"",""right"",""up"",""bad_move"",28008.5,2825.9,2364.8,25182.6,461.1,""oops"",""down"",""down"",""good_move"",33149.1,5138,2029.4,30739,380.8,""smooth"",""down"",""down"",""good_move"",36375.4,3225.2,2781.9,33150.2,443.3,""oops"",""down"",""up"",""bad_move""]","",""
"85567","","","","instructions","24","1654083","0.0-8.0-4.0","160","1","2025-07-02 10:22:11","80fe4187154257d5fb01684ea91b68b9","154.159.238.41","Mozilla/5.0 (Windows NT 10.0; Win64; x64) AppleWebKit/537.36 (KHTML, like Gecko) Chrome/137.0.0.0 Safari/537.36","WebKit","Chrome","137.0.0.0","Windows","10.0","https://app.prolific.com/","en-US,en;q=0.9","664b7cea18fe17cd31b5ab5e","683db6dfa200031b80f2a654","6865078bbba92057c1061f2c","664b7cea18fe17cd31b5ab5e","","[{""page_index"":0,""viewing_time"":25360},{""page_index"":1,""viewing_time"":60206}]","","","","","","","","","","","","","","","","","","","","","","","","","","","","","","","","","","","","","","","","","","",""
"14193","","","{""green_ball"":[""Ball always moves in the direction I press""]}","survey-multi-select","25","1668292","0.0-8.0-5.0-0.0","160","1","2025-07-02 10:22:11","80fe4187154257d5fb01684ea91b68b9","154.159.238.41","Mozilla/5.0 (Windows NT 10.0; Win64; x64) AppleWebKit/537.36 (KHTML, like Gecko) Chrome/137.0.0.0 Safari/537.36","WebKit","Chrome","137.0.0.0","Windows","10.0","https://app.prolific.com/","en-US,en;q=0.9","664b7cea18fe17cd31b5ab5e","683db6dfa200031b80f2a654","6865078bbba92057c1061f2c","664b7cea18fe17cd31b5ab5e","","","[0]","","","","quiz","","","","","","","","","","","","","","","","","","","","","","","","","","","","","","","","","","","","","false",""
"6825","","<p align='center'><b>INCORRECT.</b> Usually the green ball moves in the indicated direction, but sometimes it shakes and moves randomly. </p>","0","html-button-response","26","1675127","0.0-8.0-5.0-1.0","160","1","2025-07-02 10:22:11","80fe4187154257d5fb01684ea91b68b9","154.159.238.41","Mozilla/5.0 (Windows NT 10.0; Win64; x64) AppleWebKit/537.36 (KHTML, like Gecko) Chrome/137.0.0.0 Safari/537.36","WebKit","Chrome","137.0.0.0","Windows","10.0","https://app.prolific.com/","en-US,en;q=0.9","664b7cea18fe17cd31b5ab5e","683db6dfa200031b80f2a654","6865078bbba92057c1061f2c","664b7cea18fe17cd31b5ab5e","","","","","","","","","","","","","","","","","","","","","","","","","","","","","","","","","","","","","","","","","","","","",""
"15344","","","{""green_ball"":[""Ball sometimes shakes and moves in a random direction""]}","survey-multi-select","27","1690485","0.0-8.0-5.1-0.1","160","1","2025-07-02 10:22:11","80fe4187154257d5fb01684ea91b68b9","154.159.238.41","Mozilla/5.0 (Windows NT 10.0; Win64; x64) AppleWebKit/537.36 (KHTML, like Gecko) Chrome/137.0.0.0 Safari/537.36","WebKit","Chrome","137.0.0.0","Windows","10.0","https://app.prolific.com/","en-US,en;q=0.9","664b7cea18fe17cd31b5ab5e","683db6dfa200031b80f2a654","6865078bbba92057c1061f2c","664b7cea18fe17cd31b5ab5e","","","[0]","","","","quiz","","","","","","","","","","","","","","","","","","","","","","","","","","","","","","","","","","","","","true",""
"4727","","<p align='center'><b>CORRECT!</b> Indeed, the green ball may sometimes shake and move in a random direction.</p>","0","html-button-response","28","1695217","0.0-8.0-5.1-1.1","160","1","2025-07-02 10:22:11","80fe4187154257d5fb01684ea91b68b9","154.159.238.41","Mozilla/5.0 (Windows NT 10.0; Win64; x64) AppleWebKit/537.36 (KHTML, like Gecko) Chrome/137.0.0.0 Safari/537.36","WebKit","Chrome","137.0.0.0","Windows","10.0","https://app.prolific.com/","en-US,en;q=0.9","664b7cea18fe17cd31b5ab5e","683db6dfa200031b80f2a654","6865078bbba92057c1061f2c","664b7cea18fe17cd31b5ab5e","","","","","","","","","","","","","","","","","","","","","","","","","","","","","","","","","","","","","","","","","","","","",""
"13783","","","{""yellow_ball"":[""Ball doesn‘t move and I get -1 penalty point""]}","survey-multi-select","29","1709012","0.0-8.0-6.0-0.0","160","1","2025-07-02 10:22:11","80fe4187154257d5fb01684ea91b68b9","154.159.238.41","Mozilla/5.0 (Windows NT 10.0; Win64; x64) AppleWebKit/537.36 (KHTML, like Gecko) Chrome/137.0.0.0 Safari/537.36","WebKit","Chrome","137.0.0.0","Windows","10.0","https://app.prolific.com/","en-US,en;q=0.9","664b7cea18fe17cd31b5ab5e","683db6dfa200031b80f2a654","6865078bbba92057c1061f2c","664b7cea18fe17cd31b5ab5e","","","[0]","","","","quiz","","","","","","","","","","","","","","","","","","","","","","","","","","","","","","","","","","","","","true",""
"2235","","<p align='center'><b>CORRECT!</b> Indeed, the yellow ball never moves and you receive a penalty.</p>","0","html-button-response","30","1711252","0.0-8.0-6.0-1.0","160","1","2025-07-02 10:22:11","80fe4187154257d5fb01684ea91b68b9","154.159.238.41","Mozilla/5.0 (Windows NT 10.0; Win64; x64) AppleWebKit/537.36 (KHTML, like Gecko) Chrome/137.0.0.0 Safari/537.36","WebKit","Chrome","137.0.0.0","Windows","10.0","https://app.prolific.com/","en-US,en;q=0.9","664b7cea18fe17cd31b5ab5e","683db6dfa200031b80f2a654","6865078bbba92057c1061f2c","664b7cea18fe17cd31b5ab5e","","","","","","","","","","","","","","","","","","","","","","","","","","","","","","","","","","","","","","","","","","","","",""
"6913","","","{""blue_ball"":[""Ball doesn‘t move and I get -1 penalty point""]}","survey-multi-select","31","1718176","0.0-8.0-7.0-0.0","160","1","2025-07-02 10:22:11","80fe4187154257d5fb01684ea91b68b9","154.159.238.41","Mozilla/5.0 (Windows NT 10.0; Win64; x64) AppleWebKit/537.36 (KHTML, like Gecko) Chrome/137.0.0.0 Safari/537.36","WebKit","Chrome","137.0.0.0","Windows","10.0","https://app.prolific.com/","en-US,en;q=0.9","664b7cea18fe17cd31b5ab5e","683db6dfa200031b80f2a654","6865078bbba92057c1061f2c","664b7cea18fe17cd31b5ab5e","","","[0]","","","","quiz","","","","","","","","","","","","","","","","","","","","","","","","","","","","","","","","","","","","","false",""
"3515","","<p align='center'><b>INCORRECT.</b> The blue ball always shakes and moves randomly.</p>","0","html-button-response","32","1721696","0.0-8.0-7.0-1.0","160","1","2025-07-02 10:22:11","80fe4187154257d5fb01684ea91b68b9","154.159.238.41","Mozilla/5.0 (Windows NT 10.0; Win64; x64) AppleWebKit/537.36 (KHTML, like Gecko) Chrome/137.0.0.0 Safari/537.36","WebKit","Chrome","137.0.0.0","Windows","10.0","https://app.prolific.com/","en-US,en;q=0.9","664b7cea18fe17cd31b5ab5e","683db6dfa200031b80f2a654","6865078bbba92057c1061f2c","664b7cea18fe17cd31b5ab5e","","","","","","","","","","","","","","","","","","","","","","","","","","","","","","","","","","","","","","","","","","","","",""
"8006","","","{""blue_ball"":[""Ball always shakes and moves in a random direction""]}","survey-multi-select","33","1729720","0.0-8.0-7.1-0.1","160","1","2025-07-02 10:22:11","80fe4187154257d5fb01684ea91b68b9","154.159.238.41","Mozilla/5.0 (Windows NT 10.0; Win64; x64) AppleWebKit/537.36 (KHTML, like Gecko) Chrome/137.0.0.0 Safari/537.36","WebKit","Chrome","137.0.0.0","Windows","10.0","https://app.prolific.com/","en-US,en;q=0.9","664b7cea18fe17cd31b5ab5e","683db6dfa200031b80f2a654","6865078bbba92057c1061f2c","664b7cea18fe17cd31b5ab5e","","","[0]","","","","quiz","","","","","","","","","","","","","","","","","","","","","","","","","","","","","","","","","","","","","true",""
"1914","","<p align='center'><b>CORRECT!</b> Indeed, the blue ball always shakes and moves in a random direction. Also there is a penalty of -1 point.</p>","0","html-button-response","34","1731638","0.0-8.0-7.1-1.1","160","1","2025-07-02 10:22:11","80fe4187154257d5fb01684ea91b68b9","154.159.238.41","Mozilla/5.0 (Windows NT 10.0; Win64; x64) AppleWebKit/537.36 (KHTML, like Gecko) Chrome/137.0.0.0 Safari/537.36","WebKit","Chrome","137.0.0.0","Windows","10.0","https://app.prolific.com/","en-US,en;q=0.9","664b7cea18fe17cd31b5ab5e","683db6dfa200031b80f2a654","6865078bbba92057c1061f2c","664b7cea18fe17cd31b5ab5e","","","","","","","","","","","","","","","","","","","","","","","","","","","","","","","","","","","","","","","","","","","","",""
"7098","","","{""bonus"":[""When I reach 50% of points""]}","survey-multi-select","35","1738749","0.0-8.0-8.0-0.0","160","1","2025-07-02 10:22:11","80fe4187154257d5fb01684ea91b68b9","154.159.238.41","Mozilla/5.0 (Windows NT 10.0; Win64; x64) AppleWebKit/537.36 (KHTML, like Gecko) Chrome/137.0.0.0 Safari/537.36","WebKit","Chrome","137.0.0.0","Windows","10.0","https://app.prolific.com/","en-US,en;q=0.9","664b7cea18fe17cd31b5ab5e","683db6dfa200031b80f2a654","6865078bbba92057c1061f2c","664b7cea18fe17cd31b5ab5e","","","[0]","","","","quiz","","","","","","","","","","","","","","","","","","","","","","","","","","","","","","","","","","","","","true",""
"1880","","<p align='center'><b>CORRECT!</b> Indeed, you receive 2 pounds extra when you reach 50% of points.</p>","0","html-button-response","36","1740634","0.0-8.0-8.0-1.0","160","1","2025-07-02 10:22:11","80fe4187154257d5fb01684ea91b68b9","154.159.238.41","Mozilla/5.0 (Windows NT 10.0; Win64; x64) AppleWebKit/537.36 (KHTML, like Gecko) Chrome/137.0.0.0 Safari/537.36","WebKit","Chrome","137.0.0.0","Windows","10.0","https://app.prolific.com/","en-US,en;q=0.9","664b7cea18fe17cd31b5ab5e","683db6dfa200031b80f2a654","6865078bbba92057c1061f2c","664b7cea18fe17cd31b5ab5e","","","","","","","","","","","","","","","","","","","","","","","","","","","","","","","","","","","","","","","","","","","","",""
"6026","","","","instructions","37","1746666","0.0-8.0-9.0","160","1","2025-07-02 10:22:11","80fe4187154257d5fb01684ea91b68b9","154.159.238.41","Mozilla/5.0 (Windows NT 10.0; Win64; x64) AppleWebKit/537.36 (KHTML, like Gecko) Chrome/137.0.0.0 Safari/537.36","WebKit","Chrome","137.0.0.0","Windows","10.0","https://app.prolific.com/","en-US,en;q=0.9","664b7cea18fe17cd31b5ab5e","683db6dfa200031b80f2a654","6865078bbba92057c1061f2c","664b7cea18fe17cd31b5ab5e","","[{""page_index"":0,""viewing_time"":6025}]","","","","","","","","","","","","","","","","","","","","","","","","","","","","","","","","","","","","","","","","","","",""
"27282","","<p>Before you start with this game please answer the following three questions yourself. </p>
  <p>Through this game, we measure several aspects of your cognitive performance, such as reaction times, multi-tasking capabilities </p>
  <p>and the ability to assess the situation you are in.</p>
  <p></p>
  <p><b>How good do you usually are in such tasks?</b></p>","71","html-slider-response","38","1773960","0.0-9.0-0.0","160","1","2025-07-02 10:22:11","80fe4187154257d5fb01684ea91b68b9","154.159.238.41","Mozilla/5.0 (Windows NT 10.0; Win64; x64) AppleWebKit/537.36 (KHTML, like Gecko) Chrome/137.0.0.0 Safari/537.36","WebKit","Chrome","137.0.0.0","Windows","10.0","https://app.prolific.com/","en-US,en;q=0.9","664b7cea18fe17cd31b5ab5e","683db6dfa200031b80f2a654","6865078bbba92057c1061f2c","664b7cea18fe17cd31b5ab5e","2025-07-02T10:51:50.310Z","","","","","","PreSkillQ","","","","","","","","","","","","","","","","","","","","","","","","","","","","","","","","","","","","","","50"
"18112","","<div style=""width:500px;"">
  <p>How well do you think you will perform in this task compared to other participants?</p>
  </div>","70","html-slider-response","39","1792080","0.0-9.0-1.0","160","1","2025-07-02 10:22:11","80fe4187154257d5fb01684ea91b68b9","154.159.238.41","Mozilla/5.0 (Windows NT 10.0; Win64; x64) AppleWebKit/537.36 (KHTML, like Gecko) Chrome/137.0.0.0 Safari/537.36","WebKit","Chrome","137.0.0.0","Windows","10.0","https://app.prolific.com/","en-US,en;q=0.9","664b7cea18fe17cd31b5ab5e","683db6dfa200031b80f2a654","6865078bbba92057c1061f2c","664b7cea18fe17cd31b5ab5e","2025-07-02T10:52:08.430Z","","","","","","PrePerfQ","","","","","","","","","","","","","","","","","","","","","","","","","","","","","","","","","","","","","","50"
"12345","","<div style=""width:500px;"">
  <p>What best describes how you currently feel?</p>
  </div>","74","html-slider-response","40","1804433","0.0-9.0-2.0","160","1","2025-07-02 10:22:11","80fe4187154257d5fb01684ea91b68b9","154.159.238.41","Mozilla/5.0 (Windows NT 10.0; Win64; x64) AppleWebKit/537.36 (KHTML, like Gecko) Chrome/137.0.0.0 Safari/537.36","WebKit","Chrome","137.0.0.0","Windows","10.0","https://app.prolific.com/","en-US,en;q=0.9","664b7cea18fe17cd31b5ab5e","683db6dfa200031b80f2a654","6865078bbba92057c1061f2c","664b7cea18fe17cd31b5ab5e","2025-07-02T10:52:20.782Z","","","","","","PreMotivationQ","","","","","","","","","","","","","","","","","","","","","","","","","","","","","","","","","","","","","","50"
"","","","","ctl-task-cpt","41","1842807","0.0-10.0-0.0","160","1","2025-07-02 10:22:11","80fe4187154257d5fb01684ea91b68b9","154.159.238.41","Mozilla/5.0 (Windows NT 10.0; Win64; x64) AppleWebKit/537.36 (KHTML, like Gecko) Chrome/137.0.0.0 Safari/537.36","WebKit","Chrome","137.0.0.0","Windows","10.0","https://app.prolific.com/","en-US,en;q=0.9","664b7cea18fe17cd31b5ab5e","683db6dfa200031b80f2a654","6865078bbba92057c1061f2c","664b7cea18fe17cd31b5ab5e","2025-07-02T10:52:59.156Z","","","","","","","","","","","","","","","","win-only","3","g1:SW,g2:NE","1","1","0","1809259.8","11048.3","16053.4","35322.8","1","4","8","6","2","8","8","8","0","0.06060606060606061","1568.2","3000","435","[""up"",""right""]","{""num_key_presses"":6,""num_perfect"":6,""num_errors"":0,""num_randdir"":0,""num_randdir_good_moves"":0,""num_whilered"":0,""num_whileblue"":0,""num_blue"":0,""num_good_moves"":6}","[291.22232142857143,293.12857142857143,1.7,291.22232142857143,293.12857142857143,104.3,291.22232142857143,293.12857142857143,212.9,291.22232142857143,293.12857142857143,316.5,291.22232142857143,293.12857142857143,416.5,291.22232142857143,293.12857142857143,519.2,291.22232142857143,293.12857142857143,626.4,291.22232142857143,293.12857142857143,728.7,291.22232142857143,293.12857142857143,833.8,358.22232142857143,240.12857142857143,937.9,500.22232142857143,110.12857142857143,1038.1,539.2223214285714,74.12857142857143,1148.4,545.2223214285714,66.12857142857143,1255.5,545.2223214285714,66.12857142857143,1377.1,545.2223214285714,66.12857142857143,1487.8,545.2223214285714,66.12857142857143,1590.4,545.2223214285714,66.12857142857143,1701.7,545.2223214285714,66.12857142857143,1806.3,545.2223214285714,66.12857142857143,1909,545.2223214285714,66.12857142857143,2012.4,545.2223214285714,66.12857142857143,2114.7,545.2223214285714,66.12857142857143,2223.2,545.2223214285714,66.12857142857143,2325.1,545.2223214285714,66.12857142857143,2446.2,545.2223214285714,66.12857142857143,2547.5,527.2223214285714,108.12857142857143,2649.3,497.22232142857143,156.12857142857143,2750.7,472.22232142857143,192.12857142857143,2851.6,456.22232142857143,223.12857142857143,2952.6,454.22232142857143,242.12857142857143,3068.8,454.22232142857143,270.12857142857143,3171.1,454.22232142857143,288.12857142857143,3273.2,449.22232142857143,303.12857142857143,3378.5,443.22232142857143,313.12857142857143,3478.7,442.22232142857143,322.12857142857143,3584.9,442.22232142857143,323.12857142857143,3692.5,441.22232142857143,324.12857142857143,3798,439.22232142857143,327.12857142857143,3899.2,439.22232142857143,327.12857142857143,3999.4,439.22232142857143,327.12857142857143,4101.6,439.22232142857143,327.12857142857143,4204.2,439.22232142857143,327.12857142857143,4307.6,439.22232142857143,327.12857142857143,4410.3,439.22232142857143,327.12857142857143,4513.2,439.22232142857143,327.12857142857143,4613.2,439.22232142857143,327.12857142857143,4714.6,439.22232142857143,327.12857142857143,4824.3,439.22232142857143,327.12857142857143,4925]","[2442.3,2442.3,1000,0,1442.3,""smooth"",""up"",""up"",""good_move"",5448,3002.8,2469.4,2445.4,533.2,""smooth"",""up"",""up"",""good_move"",8700.8,3250.6,2723.3,5450.2,527.3,""smooth"",""right"",""right"",""good_move"",12312.6,3607.7,3134.1,8705,473.5,""smooth"",""right"",""right"",""good_move"",15369.6,3053.7,2589,12315.9,464.7,""smooth"",""right"",""right"",""good_move"",19107.8,3734.5,3229.7,15373.3,504.8,""smooth"",""up"",""up"",""good_move""]","",""
"11008","","<div style=""width:500px;"">
  <p>What determined the result of this run?</p>
  </div>","73","html-slider-response","42","1853823","0.0-10.0-1.0","160","1","2025-07-02 10:22:11","80fe4187154257d5fb01684ea91b68b9","154.159.238.41","Mozilla/5.0 (Windows NT 10.0; Win64; x64) AppleWebKit/537.36 (KHTML, like Gecko) Chrome/137.0.0.0 Safari/537.36","WebKit","Chrome","137.0.0.0","Windows","10.0","https://app.prolific.com/","en-US,en;q=0.9","664b7cea18fe17cd31b5ab5e","683db6dfa200031b80f2a654","6865078bbba92057c1061f2c","664b7cea18fe17cd31b5ab5e","2025-07-02T10:53:10.174Z","","","","","","AttribQ","","","","","","","","","","","","","","","","","","","","","","","","","","","","","","","","","","","","","","50"
"8500","","<div style=""width:500px;"">
  <p>How much control did you have over the ball?</p>
  </div>","93","html-slider-response","43","1862331","0.0-10.0-2.0","160","1","2025-07-02 10:22:11","80fe4187154257d5fb01684ea91b68b9","154.159.238.41","Mozilla/5.0 (Windows NT 10.0; Win64; x64) AppleWebKit/537.36 (KHTML, like Gecko) Chrome/137.0.0.0 Safari/537.36","WebKit","Chrome","137.0.0.0","Windows","10.0","https://app.prolific.com/","en-US,en;q=0.9","664b7cea18fe17cd31b5ab5e","683db6dfa200031b80f2a654","6865078bbba92057c1061f2c","664b7cea18fe17cd31b5ab5e","2025-07-02T10:53:18.680Z","","","","","","ControlQ","","","","","","","","","","","","","","","","","","","","","","","","","","","","","","","","","","","","","","50"
"9206","","<div style=""width:500px;"">
  <p>How would you describe your current emotional state?</p>
  </div>","25","html-slider-response","44","1871544","0.0-10.0-3.0","160","1","2025-07-02 10:22:11","80fe4187154257d5fb01684ea91b68b9","154.159.238.41","Mozilla/5.0 (Windows NT 10.0; Win64; x64) AppleWebKit/537.36 (KHTML, like Gecko) Chrome/137.0.0.0 Safari/537.36","WebKit","Chrome","137.0.0.0","Windows","10.0","https://app.prolific.com/","en-US,en;q=0.9","664b7cea18fe17cd31b5ab5e","683db6dfa200031b80f2a654","6865078bbba92057c1061f2c","664b7cea18fe17cd31b5ab5e","2025-07-02T10:53:27.893Z","","","","","","StressQ","","","","","","","","","","","","","","","","","","","","","","","","","","","","","","","","","","","","","","50"
"9382","","<div style=""width:500px;"">
  <p>What best describes how you currently feel?</p>
  </div>","87","html-slider-response","45","1880951","0.0-10.0-4.0","160","1","2025-07-02 10:22:11","80fe4187154257d5fb01684ea91b68b9","154.159.238.41","Mozilla/5.0 (Windows NT 10.0; Win64; x64) AppleWebKit/537.36 (KHTML, like Gecko) Chrome/137.0.0.0 Safari/537.36","WebKit","Chrome","137.0.0.0","Windows","10.0","https://app.prolific.com/","en-US,en;q=0.9","664b7cea18fe17cd31b5ab5e","683db6dfa200031b80f2a654","6865078bbba92057c1061f2c","664b7cea18fe17cd31b5ab5e","2025-07-02T10:53:37.300Z","","","","","","MotivationQ","","","","","","","","","","","","","","","","","","","","","","","","","","","","","","","","","","","","","","50"
"","","","","ctl-task-cpt","46","1915911","0.0-10.0-0.1","160","1","2025-07-02 10:22:11","80fe4187154257d5fb01684ea91b68b9","154.159.238.41","Mozilla/5.0 (Windows NT 10.0; Win64; x64) AppleWebKit/537.36 (KHTML, like Gecko) Chrome/137.0.0.0 Safari/537.36","WebKit","Chrome","137.0.0.0","Windows","10.0","https://app.prolific.com/","en-US,en;q=0.9","664b7cea18fe17cd31b5ab5e","683db6dfa200031b80f2a654","6865078bbba92057c1061f2c","664b7cea18fe17cd31b5ab5e","2025-07-02T10:54:12.260Z","","","","","","","","","","","","","","","","win-only","2","g1:SE,g2:NW","0.9","2","0","1885764.6","1969","6971.7","31932.3","1","4","4","6","2","4","4","12","8","0.09090909090909091","2006.6","3000","1080","[""left"",""up""]","{""num_key_presses"":6,""num_perfect"":6,""num_errors"":0,""num_randdir"":0,""num_randdir_good_moves"":0,""num_whilered"":0,""num_whileblue"":0,""num_blue"":3,""num_good_moves"":6}","[295.22232142857143,300.12857142857143,1.2,295.22232142857143,300.12857142857143,110,295.22232142857143,300.12857142857143,212.7,295.22232142857143,300.12857142857143,313.9,295.22232142857143,300.12857142857143,416.4,295.22232142857143,300.12857142857143,527.8,295.22232142857143,300.12857142857143,637.2,295.22232142857143,300.12857142857143,738,295.22232142857143,300.12857142857143,839.4,257.22232142857143,285.12857142857143,939.7,151.22232142857143,214.12857142857143,1052,102.22232142857143,177.12857142857143,1166.9,85.22232142857143,158.12857142857143,1283.7,71.22232142857143,135.12857142857143,1385.3,63.222321428571426,102.12857142857143,1486.9,62.222321428571426,94.12857142857143,1586.9,62.222321428571426,94.12857142857143,1691,62.222321428571426,94.12857142857143,1795.5,62.222321428571426,94.12857142857143,1899,62.222321428571426,94.12857142857143,2017.4,62.222321428571426,94.12857142857143,2125.7,62.222321428571426,94.12857142857143,2227.3,62.222321428571426,94.12857142857143,2336.1,62.222321428571426,94.12857142857143,2436.4,62.222321428571426,94.12857142857143,2536.7,62.222321428571426,94.12857142857143,2639,62.222321428571426,94.12857142857143,2742.2,62.222321428571426,94.12857142857143,2847.6,62.222321428571426,94.12857142857143,2952.6,77.22232142857143,108.12857142857143,3055.2,154.22232142857143,191.12857142857143,3158.4,173.22232142857143,203.12857142857143,3260.7,193.22232142857143,214.12857142857143,3367.2,208.22232142857143,223.12857142857143,3468.4,231.22232142857143,243.12857142857143,3571.5,241.22232142857143,253.12857142857143,3681.4,241.22232142857143,253.12857142857143,3788.9,241.22232142857143,253.12857142857143,3899.6,241.22232142857143,253.12857142857143,4005.3,241.22232142857143,253.12857142857143,4109.1,241.22232142857143,253.12857142857143,4211.6,241.22232142857143,253.12857142857143,4316.9,241.22232142857143,253.12857142857143,4418.1,241.22232142857143,253.12857142857143,4521.7,241.22232142857143,253.12857142857143,4625.4,241.22232142857143,253.12857142857143,4727,241.22232142857143,253.12857142857143,4841.3,241.22232142857143,253.12857142857143,4948]","[4811.7,4811.8,2302.2,2005.3,504.3,""smooth"",""up"",""up"",""good_move"",7572.6,2757.7,2220.6,4814.9,537.1,""smooth"",""up"",""up"",""good_move"",9945.5,2370.5,1867.4,7575,503.1,""smooth"",""left"",""left"",""good_move"",15973,6026.6,1874.7,13639.5,458.8,""smooth"",""left"",""left"",""good_move"",18647.1,2672.7,2111.8,15974.5,560.9,""smooth"",""left"",""left"",""good_move"",24788.2,6134,2311.5,22077.2,399.5,""smooth"",""up"",""up"",""good_move""]","",""
"6913","","<div style=""width:500px;"">
  <p>What determined the result of this run?</p>
  </div>","84","html-slider-response","47","1922831","0.0-10.0-1.1","160","1","2025-07-02 10:22:11","80fe4187154257d5fb01684ea91b68b9","154.159.238.41","Mozilla/5.0 (Windows NT 10.0; Win64; x64) AppleWebKit/537.36 (KHTML, like Gecko) Chrome/137.0.0.0 Safari/537.36","WebKit","Chrome","137.0.0.0","Windows","10.0","https://app.prolific.com/","en-US,en;q=0.9","664b7cea18fe17cd31b5ab5e","683db6dfa200031b80f2a654","6865078bbba92057c1061f2c","664b7cea18fe17cd31b5ab5e","2025-07-02T10:54:19.181Z","","","","","","AttribQ","","","","","","","","","","","","","","","","","","","","","","","","","","","","","","","","","","","","","","50"
"7282","","<div style=""width:500px;"">
  <p>How much control did you have over the ball?</p>
  </div>","100","html-slider-response","48","1930125","0.0-10.0-2.1","160","1","2025-07-02 10:22:11","80fe4187154257d5fb01684ea91b68b9","154.159.238.41","Mozilla/5.0 (Windows NT 10.0; Win64; x64) AppleWebKit/537.36 (KHTML, like Gecko) Chrome/137.0.0.0 Safari/537.36","WebKit","Chrome","137.0.0.0","Windows","10.0","https://app.prolific.com/","en-US,en;q=0.9","664b7cea18fe17cd31b5ab5e","683db6dfa200031b80f2a654","6865078bbba92057c1061f2c","664b7cea18fe17cd31b5ab5e","2025-07-02T10:54:26.476Z","","","","","","ControlQ","","","","","","","","","","","","","","","","","","","","","","","","","","","","","","","","","","","","","","50"
"8188","","<div style=""width:500px;"">
  <p>How would you describe your current emotional state?</p>
  </div>","23","html-slider-response","49","1938331","0.0-10.0-3.1","160","1","2025-07-02 10:22:11","80fe4187154257d5fb01684ea91b68b9","154.159.238.41","Mozilla/5.0 (Windows NT 10.0; Win64; x64) AppleWebKit/537.36 (KHTML, like Gecko) Chrome/137.0.0.0 Safari/537.36","WebKit","Chrome","137.0.0.0","Windows","10.0","https://app.prolific.com/","en-US,en;q=0.9","664b7cea18fe17cd31b5ab5e","683db6dfa200031b80f2a654","6865078bbba92057c1061f2c","664b7cea18fe17cd31b5ab5e","2025-07-02T10:54:34.680Z","","","","","","StressQ","","","","","","","","","","","","","","","","","","","","","","","","","","","","","","","","","","","","","","50"
"6641","","<div style=""width:500px;"">
  <p>What best describes how you currently feel?</p>
  </div>","77","html-slider-response","50","1944980","0.0-10.0-4.1","160","1","2025-07-02 10:22:11","80fe4187154257d5fb01684ea91b68b9","154.159.238.41","Mozilla/5.0 (Windows NT 10.0; Win64; x64) AppleWebKit/537.36 (KHTML, like Gecko) Chrome/137.0.0.0 Safari/537.36","WebKit","Chrome","137.0.0.0","Windows","10.0","https://app.prolific.com/","en-US,en;q=0.9","664b7cea18fe17cd31b5ab5e","683db6dfa200031b80f2a654","6865078bbba92057c1061f2c","664b7cea18fe17cd31b5ab5e","2025-07-02T10:54:41.329Z","","","","","","MotivationQ","","","","","","","","","","","","","","","","","","","","","","","","","","","","","","","","","","","","","","50"
"","","","","ctl-task-cpt","51","1973001","0.0-10.0-0.2","160","1","2025-07-02 10:22:11","80fe4187154257d5fb01684ea91b68b9","154.159.238.41","Mozilla/5.0 (Windows NT 10.0; Win64; x64) AppleWebKit/537.36 (KHTML, like Gecko) Chrome/137.0.0.0 Safari/537.36","WebKit","Chrome","137.0.0.0","Windows","10.0","https://app.prolific.com/","en-US,en;q=0.9","664b7cea18fe17cd31b5ab5e","683db6dfa200031b80f2a654","6865078bbba92057c1061f2c","664b7cea18fe17cd31b5ab5e","2025-07-02T10:55:09.350Z","","","","","","","","","","","","","","","","win-only","2","g1:SE,g2:NW","0.8","3","0","1949792.7","3304.7","8306.7","24997.9","1","4","4","6","2","4","4","16","12","0.12121212121212122","1553.7","3000","1050","[""left"",""up""]","{""num_key_presses"":6,""num_perfect"":6,""num_errors"":0,""num_randdir"":0,""num_randdir_good_moves"":0,""num_whilered"":0,""num_whileblue"":0,""num_blue"":0,""num_good_moves"":6}","[295.22232142857143,294.12857142857143,2.3,295.22232142857143,294.12857142857143,102.6,295.22232142857143,294.12857142857143,207.7,295.22232142857143,294.12857142857143,322.4,295.22232142857143,294.12857142857143,436,295.22232142857143,294.12857142857143,537.5,295.22232142857143,294.12857142857143,638.2,213.22232142857143,251.12857142857143,742.2,114.22232142857143,171.12857142857143,854.7,85.22232142857143,126.12857142857143,957.4,67.22232142857143,98.12857142857143,1065.5,66.22232142857143,88.12857142857143,1169.4,66.22232142857143,88.12857142857143,1274.8,66.22232142857143,88.12857142857143,1388.9,66.22232142857143,88.12857142857143,1493.8,66.22232142857143,88.12857142857143,1599.7,66.22232142857143,88.12857142857143,1708.6,66.22232142857143,88.12857142857143,1810.2,66.22232142857143,88.12857142857143,1911.9,66.22232142857143,88.12857142857143,2018.4,66.22232142857143,88.12857142857143,2122.4,66.22232142857143,88.12857142857143,2229.9,80.22232142857143,96.12857142857143,2335.7,159.22232142857143,176.12857142857143,2443.4,254.22232142857143,267.12857142857143,2545.9,316.22232142857143,324.12857142857143,2646.3,343.22232142857143,345.12857142857143,2747,353.22232142857143,353.12857142857143,2854.7,365.22232142857143,362.12857142857143,2961.6,370.22232142857143,363.12857142857143,3064.1,371.22232142857143,363.12857142857143,3164.2,371.22232142857143,363.12857142857143,3265.9,371.22232142857143,363.12857142857143,3366.6,371.22232142857143,363.12857142857143,3467.4,371.22232142857143,363.12857142857143,3570.2,371.22232142857143,363.12857142857143,3674.3,371.22232142857143,363.12857142857143,3778.6,371.22232142857143,363.12857142857143,3887.3,371.22232142857143,363.12857142857143,3992.1,371.22232142857143,363.12857142857143,4094.4,371.22232142857143,363.12857142857143,4197.6,371.22232142857143,363.12857142857143,4303,371.22232142857143,363.12857142857143,4409.3,371.22232142857143,363.12857142857143,4513.3,371.22232142857143,363.12857142857143,4622.3,371.22232142857143,363.12857142857143,4723,371.22232142857143,363.12857142857143,4837.6,371.22232142857143,363.12857142857143,4939.7]","[1706.4,1706.4,1000,0,706.4,""smooth"",""up"",""up"",""good_move"",3836.6,2128.4,1686.7,1708.2,441.7,""smooth"",""up"",""up"",""good_move"",7316.7,3473.5,3047.2,3843.2,426.3,""smooth"",""left"",""left"",""good_move"",9937.6,2619.7,2080.5,7317.9,539.2,""smooth"",""left"",""left"",""good_move"",13570.1,3630.2,3059.5,9939.9,570.7,""smooth"",""left"",""left"",""good_move"",16536.5,2965.4,2473,13571.1,492.4,""smooth"",""up"",""up"",""good_move""]","",""
"26222","","<div style=""width:500px;"">
  <p>What determined the result of this run?</p>
  </div>","94","html-slider-response","52","1999229","0.0-10.0-1.2","160","1","2025-07-02 10:22:11","80fe4187154257d5fb01684ea91b68b9","154.159.238.41","Mozilla/5.0 (Windows NT 10.0; Win64; x64) AppleWebKit/537.36 (KHTML, like Gecko) Chrome/137.0.0.0 Safari/537.36","WebKit","Chrome","137.0.0.0","Windows","10.0","https://app.prolific.com/","en-US,en;q=0.9","664b7cea18fe17cd31b5ab5e","683db6dfa200031b80f2a654","6865078bbba92057c1061f2c","664b7cea18fe17cd31b5ab5e","2025-07-02T10:55:35.579Z","","","","","","AttribQ","","","","","","","","","","","","","","","","","","","","","","","","","","","","","","","","","","","","","","50"
"6203","","<div style=""width:500px;"">
  <p>How much control did you have over the ball?</p>
  </div>","85","html-slider-response","53","2005442","0.0-10.0-2.2","160","1","2025-07-02 10:22:11","80fe4187154257d5fb01684ea91b68b9","154.159.238.41","Mozilla/5.0 (Windows NT 10.0; Win64; x64) AppleWebKit/537.36 (KHTML, like Gecko) Chrome/137.0.0.0 Safari/537.36","WebKit","Chrome","137.0.0.0","Windows","10.0","https://app.prolific.com/","en-US,en;q=0.9","664b7cea18fe17cd31b5ab5e","683db6dfa200031b80f2a654","6865078bbba92057c1061f2c","664b7cea18fe17cd31b5ab5e","2025-07-02T10:55:41.793Z","","","","","","ControlQ","","","","","","","","","","","","","","","","","","","","","","","","","","","","","","","","","","","","","","50"
"6621","","<div style=""width:500px;"">
  <p>How would you describe your current emotional state?</p>
  </div>","21","html-slider-response","54","2012076","0.0-10.0-3.2","160","1","2025-07-02 10:22:11","80fe4187154257d5fb01684ea91b68b9","154.159.238.41","Mozilla/5.0 (Windows NT 10.0; Win64; x64) AppleWebKit/537.36 (KHTML, like Gecko) Chrome/137.0.0.0 Safari/537.36","WebKit","Chrome","137.0.0.0","Windows","10.0","https://app.prolific.com/","en-US,en;q=0.9","664b7cea18fe17cd31b5ab5e","683db6dfa200031b80f2a654","6865078bbba92057c1061f2c","664b7cea18fe17cd31b5ab5e","2025-07-02T10:55:48.425Z","","","","","","StressQ","","","","","","","","","","","","","","","","","","","","","","","","","","","","","","","","","","","","","","50"
"6767","","<div style=""width:500px;"">
  <p>What best describes how you currently feel?</p>
  </div>","90","html-slider-response","55","2018853","0.0-10.0-4.2","160","1","2025-07-02 10:22:11","80fe4187154257d5fb01684ea91b68b9","154.159.238.41","Mozilla/5.0 (Windows NT 10.0; Win64; x64) AppleWebKit/537.36 (KHTML, like Gecko) Chrome/137.0.0.0 Safari/537.36","WebKit","Chrome","137.0.0.0","Windows","10.0","https://app.prolific.com/","en-US,en;q=0.9","664b7cea18fe17cd31b5ab5e","683db6dfa200031b80f2a654","6865078bbba92057c1061f2c","664b7cea18fe17cd31b5ab5e","2025-07-02T10:55:55.203Z","","","","","","MotivationQ","","","","","","","","","","","","","","","","","","","","","","","","","","","","","","","","","","","","","","50"
"","","","","ctl-task-cpt","56","2074027","0.0-10.0-0.3","160","1","2025-07-02 10:22:11","80fe4187154257d5fb01684ea91b68b9","154.159.238.41","Mozilla/5.0 (Windows NT 10.0; Win64; x64) AppleWebKit/537.36 (KHTML, like Gecko) Chrome/137.0.0.0 Safari/537.36","WebKit","Chrome","137.0.0.0","Windows","10.0","https://app.prolific.com/","en-US,en;q=0.9","664b7cea18fe17cd31b5ab5e","683db6dfa200031b80f2a654","6865078bbba92057c1061f2c","664b7cea18fe17cd31b5ab5e","2025-07-02T10:56:50.376Z","","","","","","","","","","","","","","","","win-only","2","g1:SE,g2:NW","0.7","4","0","2023665.2","3541.8","8542.3","52139","1","4","8","6","2","-8","-8","8","16","0.06060606060606061","1680.7","3000","-1655","[""left"",""up""]","{""num_key_presses"":9,""num_perfect"":7,""num_errors"":0,""num_randdir"":2,""num_randdir_good_moves"":1,""num_whilered"":0,""num_whileblue"":0,""num_blue"":4,""num_good_moves"":7}","[294.22232142857143,287.12857142857143,1.9,294.22232142857143,287.12857142857143,110.4,294.22232142857143,287.12857142857143,228,294.22232142857143,287.12857142857143,332.7,294.22232142857143,287.12857142857143,440.8,294.22232142857143,287.12857142857143,549.9,294.22232142857143,287.12857142857143,654.1,294.22232142857143,287.12857142857143,754.6,239.22232142857143,214.12857142857143,861.9,181.22232142857143,126.12857142857143,980.8,174.22232142857143,113.12857142857143,1085.8,153.22232142857143,103.12857142857143,1187.4,55.222321428571426,40.128571428571426,1293.5,47.222321428571426,31.128571428571426,1394.9,47.222321428571426,31.128571428571426,1503.6,47.222321428571426,31.128571428571426,1608.9,47.222321428571426,31.128571428571426,1715.1,47.222321428571426,31.128571428571426,1820.4,47.222321428571426,31.128571428571426,1924.2,47.222321428571426,31.128571428571426,2034.4,47.222321428571426,31.128571428571426,2138,47.222321428571426,31.128571428571426,2250.3,95.22232142857143,56.128571428571426,2355.8,159.22232142857143,107.12857142857143,2462.5,172.22232142857143,116.12857142857143,2574.4,204.22232142857143,142.12857142857143,2677.9,233.22232142857143,168.12857142857143,2780.7,256.22232142857143,195.12857142857143,2881.4,290.22232142857143,223.12857142857143,2997.2,312.22232142857143,243.12857142857143,3097.5,320.22232142857143,250.12857142857143,3200.1,320.22232142857143,250.12857142857143,3301.4,320.22232142857143,250.12857142857143,3407.6,320.22232142857143,250.12857142857143,3509.8,320.22232142857143,250.12857142857143,3615.6,320.22232142857143,250.12857142857143,3722,320.22232142857143,250.12857142857143,3833.8,320.22232142857143,250.12857142857143,3934,320.22232142857143,250.12857142857143,4036.3,320.22232142857143,250.12857142857143,4140.7,320.22232142857143,250.12857142857143,4244.6,320.22232142857143,250.12857142857143,4346.2,320.22232142857143,250.12857142857143,4446.5,320.22232142857143,250.12857142857143,4549.8,320.22232142857143,250.12857142857143,4659.5,320.22232142857143,250.12857142857143,4769.3,320.22232142857143,250.12857142857143,4875,320.22232142857143,250.12857142857143,4976.6]","[1549.8,1549.8,1000,0,549.8,""smooth"",""up"",""up"",""good_move"",8236.8,6679.4,2752.2,4899.9,584.7,""smooth"",""up"",""up"",""good_move"",11431.8,3192.7,2673.6,8239.1,519.1,""smooth"",""left"",""left"",""good_move"",14180.9,2748.4,2275,11432.5,473.4,""oops"",""left"",""left"",""good_move"",17637.8,3450.7,2937.1,14187.1,513.7,""smooth"",""up"",""up"",""good_move"",31153.9,13512.8,2210.3,28465.7,477.9,""oops"",""left"",""right"",""bad_move"",34102.8,2948.3,2412.5,31154.5,535.8,""smooth"",""right"",""right"",""bad_move"",37134.8,3029.4,2593.1,34105.4,436.3,""smooth"",""left"",""left"",""good_move"",40571.8,3434.3,2794.6,37137.5,639.8,""smooth"",""left"",""left"",""good_move""]","",""
"10751","","<div style=""width:500px;"">
  <p>What determined the result of this run?</p>
  </div>","19","html-slider-response","57","2084784","0.0-10.0-1.3","160","1","2025-07-02 10:22:11","80fe4187154257d5fb01684ea91b68b9","154.159.238.41","Mozilla/5.0 (Windows NT 10.0; Win64; x64) AppleWebKit/537.36 (KHTML, like Gecko) Chrome/137.0.0.0 Safari/537.36","WebKit","Chrome","137.0.0.0","Windows","10.0","https://app.prolific.com/","en-US,en;q=0.9","664b7cea18fe17cd31b5ab5e","683db6dfa200031b80f2a654","6865078bbba92057c1061f2c","664b7cea18fe17cd31b5ab5e","2025-07-02T10:57:01.134Z","","","","","","AttribQ","","","","","","","","","","","","","","","","","","","","","","","","","","","","","","","","","","","","","","50"
"6339","","<div style=""width:500px;"">
  <p>How much control did you have over the ball?</p>
  </div>","44","html-slider-response","58","2091139","0.0-10.0-2.3","160","1","2025-07-02 10:22:11","80fe4187154257d5fb01684ea91b68b9","154.159.238.41","Mozilla/5.0 (Windows NT 10.0; Win64; x64) AppleWebKit/537.36 (KHTML, like Gecko) Chrome/137.0.0.0 Safari/537.36","WebKit","Chrome","137.0.0.0","Windows","10.0","https://app.prolific.com/","en-US,en;q=0.9","664b7cea18fe17cd31b5ab5e","683db6dfa200031b80f2a654","6865078bbba92057c1061f2c","664b7cea18fe17cd31b5ab5e","2025-07-02T10:57:07.488Z","","","","","","ControlQ","","","","","","","","","","","","","","","","","","","","","","","","","","","","","","","","","","","","","","50"
"5907","","<div style=""width:500px;"">
  <p>How would you describe your current emotional state?</p>
  </div>","62","html-slider-response","59","2097059","0.0-10.0-3.3","160","1","2025-07-02 10:22:11","80fe4187154257d5fb01684ea91b68b9","154.159.238.41","Mozilla/5.0 (Windows NT 10.0; Win64; x64) AppleWebKit/537.36 (KHTML, like Gecko) Chrome/137.0.0.0 Safari/537.36","WebKit","Chrome","137.0.0.0","Windows","10.0","https://app.prolific.com/","en-US,en;q=0.9","664b7cea18fe17cd31b5ab5e","683db6dfa200031b80f2a654","6865078bbba92057c1061f2c","664b7cea18fe17cd31b5ab5e","2025-07-02T10:57:13.408Z","","","","","","StressQ","","","","","","","","","","","","","","","","","","","","","","","","","","","","","","","","","","","","","","50"
"5571","","<div style=""width:500px;"">
  <p>What best describes how you currently feel?</p>
  </div>","80","html-slider-response","60","2102633","0.0-10.0-4.3","160","1","2025-07-02 10:22:11","80fe4187154257d5fb01684ea91b68b9","154.159.238.41","Mozilla/5.0 (Windows NT 10.0; Win64; x64) AppleWebKit/537.36 (KHTML, like Gecko) Chrome/137.0.0.0 Safari/537.36","WebKit","Chrome","137.0.0.0","Windows","10.0","https://app.prolific.com/","en-US,en;q=0.9","664b7cea18fe17cd31b5ab5e","683db6dfa200031b80f2a654","6865078bbba92057c1061f2c","664b7cea18fe17cd31b5ab5e","2025-07-02T10:57:18.983Z","","","","","","MotivationQ","","","","","","","","","","","","","","","","","","","","","","","","","","","","","","","","","","","","","","50"
"","","","","ctl-task-cpt","61","2171715","0.0-10.0-0.4","160","1","2025-07-02 10:22:11","80fe4187154257d5fb01684ea91b68b9","154.159.238.41","Mozilla/5.0 (Windows NT 10.0; Win64; x64) AppleWebKit/537.36 (KHTML, like Gecko) Chrome/137.0.0.0 Safari/537.36","WebKit","Chrome","137.0.0.0","Windows","10.0","https://app.prolific.com/","en-US,en;q=0.9","664b7cea18fe17cd31b5ab5e","683db6dfa200031b80f2a654","6865078bbba92057c1061f2c","664b7cea18fe17cd31b5ab5e","2025-07-02T10:58:28.064Z","","","","","","","","","","","","","","","","win-only","1","g1:NE,g2:SW","0.6","5","0","2107448.7","1849.7","6852.8","66045","1","4","4","6","2","-4","-5","3","8","0.022727272727272728","2078","3000","-1600","[""down"",""left""]","{""num_key_presses"":11,""num_perfect"":6,""num_errors"":1,""num_randdir"":4,""num_randdir_good_moves"":2,""num_whilered"":0,""num_whileblue"":1,""num_blue"":8,""num_good_moves"":8}","[299.22232142857143,299.12857142857143,1.1,299.22232142857143,299.12857142857143,106.8,299.22232142857143,299.12857142857143,210.7,299.22232142857143,299.12857142857143,313.3,299.22232142857143,299.12857142857143,416.9,299.22232142857143,299.12857142857143,526.5,299.22232142857143,299.12857142857143,630.1,299.22232142857143,299.12857142857143,738,331.22232142857143,280.12857142857143,843.7,369.22232142857143,226.12857142857143,959.6,408.22232142857143,205.12857142857143,1064.4,406.22232142857143,208.12857142857143,1167.4,285.22232142857143,301.12857142857143,1267.6,155.22232142857143,397.12857142857143,1379.9,109.22232142857143,437.12857142857143,1481.3,80.22232142857143,467.12857142857143,1581.9,72.22232142857143,483.12857142857143,1685.8,65.22232142857143,509.12857142857143,1786.4,60.222321428571426,531.1285714285714,1892.2,60.222321428571426,531.1285714285714,1997.6,60.222321428571426,531.1285714285714,2098.9,60.222321428571426,531.1285714285714,2199.5,60.222321428571426,531.1285714285714,2303.2,60.222321428571426,531.1285714285714,2403.5,60.222321428571426,531.1285714285714,2510.6,60.222321428571426,531.1285714285714,2611.5,60.222321428571426,531.1285714285714,2712.2,60.222321428571426,531.1285714285714,2816.9,60.222321428571426,531.1285714285714,2929.3,60.222321428571426,531.1285714285714,3035.3,69.22232142857143,530.1285714285714,3138.4,102.22232142857143,530.1285714285714,3242.8,140.22232142857143,530.1285714285714,3347.2,168.22232142857143,528.1285714285714,3454.9,205.22232142857143,520.1285714285714,3564.7,258.22232142857143,506.12857142857143,3665.8,330.22232142857143,492.12857142857143,3767.1,359.22232142857143,488.12857142857143,3874.7,368.22232142857143,485.12857142857143,3977.9,368.22232142857143,485.12857142857143,4087.8,368.22232142857143,485.12857142857143,4188.5,368.22232142857143,485.12857142857143,4293.4,368.22232142857143,485.12857142857143,4396.8,368.22232142857143,485.12857142857143,4497.6,368.22232142857143,485.12857142857143,4607.8,368.22232142857143,485.12857142857143,4710.3,368.22232142857143,485.12857142857143,4811.2,368.22232142857143,485.12857142857143,4918.9]","[1512.5,1512.5,1000,0,512.5,""smooth"",""down"",""down"",""good_move"",5172.6,3654.8,3181.7,1517.8,473.1,""oops"",""left"",""down"",""good_move"",8039.2,2863.6,2418.9,5176,444.4,""smooth"",""left"",""left"",""good_move"",14290.3,6248.4,2559.6,11241,489.7,""smooth"",""left"",""left"",""good_move"",17531.8,3235.2,2733.5,14296.6,501.8,""oops"",""left"",""up"",""bad_move"",20470.5,2938.2,2582.5,17532.3,355.7,""while_blue"",""down"",""up"",""bad_move"",26129.9,5657.5,2184,23460.4,485.5,""smooth"",""down"",""down"",""good_move"",29474.4,3340.8,2866.4,26133.6,474.4,""oops"",""down"",""right"",""bad_move"",33005.8,3527,2728.7,29478.8,798.3,""smooth"",""down"",""down"",""good_move"",36207.1,3198.4,2670.4,33008.8,527.9,""smooth"",""left"",""left"",""good_move"",56909.5,20698.3,2783.5,53711,415,""oops"",""down"",""down"",""good_move""]","",""
"6354","","<div style=""width:500px;"">
  <p>What determined the result of this run?</p>
  </div>","28","html-slider-response","62","2178073","0.0-10.0-1.4","160","1","2025-07-02 10:22:11","80fe4187154257d5fb01684ea91b68b9","154.159.238.41","Mozilla/5.0 (Windows NT 10.0; Win64; x64) AppleWebKit/537.36 (KHTML, like Gecko) Chrome/137.0.0.0 Safari/537.36","WebKit","Chrome","137.0.0.0","Windows","10.0","https://app.prolific.com/","en-US,en;q=0.9","664b7cea18fe17cd31b5ab5e","683db6dfa200031b80f2a654","6865078bbba92057c1061f2c","664b7cea18fe17cd31b5ab5e","2025-07-02T10:58:34.423Z","","","","","","AttribQ","","","","","","","","","","","","","","","","","","","","","","","","","","","","","","","","","","","","","","50"
"10400","","<div style=""width:500px;"">
  <p>How much control did you have over the ball?</p>
  </div>","77","html-slider-response","63","2188477","0.0-10.0-2.4","160","1","2025-07-02 10:22:11","80fe4187154257d5fb01684ea91b68b9","154.159.238.41","Mozilla/5.0 (Windows NT 10.0; Win64; x64) AppleWebKit/537.36 (KHTML, like Gecko) Chrome/137.0.0.0 Safari/537.36","WebKit","Chrome","137.0.0.0","Windows","10.0","https://app.prolific.com/","en-US,en;q=0.9","664b7cea18fe17cd31b5ab5e","683db6dfa200031b80f2a654","6865078bbba92057c1061f2c","664b7cea18fe17cd31b5ab5e","2025-07-02T10:58:44.827Z","","","","","","ControlQ","","","","","","","","","","","","","","","","","","","","","","","","","","","","","","","","","","","","","","50"
"5702","","<div style=""width:500px;"">
  <p>How would you describe your current emotional state?</p>
  </div>","68","html-slider-response","64","2194186","0.0-10.0-3.4","160","1","2025-07-02 10:22:11","80fe4187154257d5fb01684ea91b68b9","154.159.238.41","Mozilla/5.0 (Windows NT 10.0; Win64; x64) AppleWebKit/537.36 (KHTML, like Gecko) Chrome/137.0.0.0 Safari/537.36","WebKit","Chrome","137.0.0.0","Windows","10.0","https://app.prolific.com/","en-US,en;q=0.9","664b7cea18fe17cd31b5ab5e","683db6dfa200031b80f2a654","6865078bbba92057c1061f2c","664b7cea18fe17cd31b5ab5e","2025-07-02T10:58:50.535Z","","","","","","StressQ","","","","","","","","","","","","","","","","","","","","","","","","","","","","","","","","","","","","","","50"
"8514","","<div style=""width:500px;"">
  <p>What best describes how you currently feel?</p>
  </div>","70","html-slider-response","65","2202706","0.0-10.0-4.4","160","1","2025-07-02 10:22:11","80fe4187154257d5fb01684ea91b68b9","154.159.238.41","Mozilla/5.0 (Windows NT 10.0; Win64; x64) AppleWebKit/537.36 (KHTML, like Gecko) Chrome/137.0.0.0 Safari/537.36","WebKit","Chrome","137.0.0.0","Windows","10.0","https://app.prolific.com/","en-US,en;q=0.9","664b7cea18fe17cd31b5ab5e","683db6dfa200031b80f2a654","6865078bbba92057c1061f2c","664b7cea18fe17cd31b5ab5e","2025-07-02T10:58:59.055Z","","","","","","MotivationQ","","","","","","","","","","","","","","","","","","","","","","","","","","","","","","","","","","","","","","50"
"","","","","ctl-task-cpt","66","2264750","0.0-10.0-0.5","160","1","2025-07-02 10:22:11","80fe4187154257d5fb01684ea91b68b9","154.159.238.41","Mozilla/5.0 (Windows NT 10.0; Win64; x64) AppleWebKit/537.36 (KHTML, like Gecko) Chrome/137.0.0.0 Safari/537.36","WebKit","Chrome","137.0.0.0","Windows","10.0","https://app.prolific.com/","en-US,en;q=0.9","664b7cea18fe17cd31b5ab5e","683db6dfa200031b80f2a654","6865078bbba92057c1061f2c","664b7cea18fe17cd31b5ab5e","2025-07-02T11:00:01.099Z","","","","","","","","","","","","","","","","win-only","3","g1:SW,g2:NE","0.5","6","0","2207512.7","1685.8","6687.7","59007.9","1","4","8","6","2","-8","-8","0","3","0","1484.4","3000","-960","[""up"",""right""]","{""num_key_presses"":13,""num_perfect"":7,""num_errors"":0,""num_randdir"":6,""num_randdir_good_moves"":2,""num_whilered"":0,""num_whileblue"":0,""num_blue"":4,""num_good_moves"":9}","[296.22232142857143,296.12857142857143,0.4,296.22232142857143,296.12857142857143,104.5,296.22232142857143,296.12857142857143,206.6,296.22232142857143,296.12857142857143,312.3,296.22232142857143,296.12857142857143,415,296.22232142857143,296.12857142857143,526.2,296.22232142857143,296.12857142857143,632.4,296.22232142857143,296.12857142857143,737.1,450.22232142857143,134.12857142857143,842.9,468.22232142857143,111.12857142857143,955.6,481.22232142857143,93.12857142857143,1061,501.22232142857143,77.12857142857143,1163.7,520.2223214285714,67.12857142857143,1271.4,523.2223214285714,66.12857142857143,1382.2,523.2223214285714,66.12857142857143,1491.8,523.2223214285714,66.12857142857143,1598,523.2223214285714,66.12857142857143,1710.1,523.2223214285714,66.12857142857143,1812.2,523.2223214285714,66.12857142857143,1915.4,523.2223214285714,66.12857142857143,2017.4,523.2223214285714,66.12857142857143,2119.5,523.2223214285714,66.12857142857143,2233.7,486.22232142857143,103.12857142857143,2333.7,420.22232142857143,166.12857142857143,2440.6,386.22232142857143,217.12857142857143,2542.2,358.22232142857143,263.12857142857143,2648.9,341.22232142857143,312.12857142857143,2754.8,334.22232142857143,347.12857142857143,2864.1,334.22232142857143,347.12857142857143,2970.9,334.22232142857143,347.12857142857143,3080.4,334.22232142857143,347.12857142857143,3185.4,334.22232142857143,347.12857142857143,3287.6,334.22232142857143,347.12857142857143,3393.1,334.22232142857143,347.12857142857143,3496.8,334.22232142857143,347.12857142857143,3597.8,334.22232142857143,347.12857142857143,3703.3,334.22232142857143,347.12857142857143,3813,334.22232142857143,347.12857142857143,3913.1,334.22232142857143,347.12857142857143,4014.5,334.22232142857143,347.12857142857143,4118.1,334.22232142857143,347.12857142857143,4220.9,334.22232142857143,347.12857142857143,4329.3,334.22232142857143,347.12857142857143,4431.4,334.22232142857143,347.12857142857143,4531.4,334.22232142857143,347.12857142857143,4632.5,334.22232142857143,347.12857142857143,4747.8,334.22232142857143,347.12857142857143,4853.1,334.22232142857143,347.12857142857143,4956.3]","[1800.1,1800.1,1000,0,800.1,""smooth"",""up"",""up"",""good_move"",4406.1,2604.9,2008.1,1801.3,596.8,""oops"",""up"",""down"",""bad_move"",8004.8,3595,3015.3,4409.8,579.8,""smooth"",""up"",""up"",""good_move"",10556.8,2549.8,1860.4,8007.4,689.1,""oops"",""right"",""up"",""good_move"",16075.8,5518.4,1818.7,13858.3,398.8,""smooth"",""right"",""right"",""good_move"",18931.7,2855.6,2406.8,16076.2,448.8,""oops"",""right"",""down"",""bad_move"",23938.8,5006.6,2089.5,21352.6,496.7,""smooth"",""up"",""up"",""good_move"",27551.3,3612.1,3156.8,23939.2,455.3,""oops"",""up"",""left"",""bad_move"",30300.9,2748.7,2191.4,27552.2,557.3,""oops"",""up"",""right"",""good_move"",37196.1,6894.7,2958.3,33529.1,708.7,""smooth"",""up"",""up"",""good_move"",39865.5,2666.5,2212,37199,454.5,""oops"",""right"",""left"",""bad_move"",46470,6604,2780,43295.6,394.4,""smooth"",""right"",""right"",""good_move"",49694.8,3224,2793.3,46470.8,430.7,""smooth"",""right"",""right"",""good_move""]","",""
"7815","","<div style=""width:500px;"">
  <p>What determined the result of this run?</p>
  </div>","10","html-slider-response","67","2272567","0.0-10.0-1.5","160","1","2025-07-02 10:22:11","80fe4187154257d5fb01684ea91b68b9","154.159.238.41","Mozilla/5.0 (Windows NT 10.0; Win64; x64) AppleWebKit/537.36 (KHTML, like Gecko) Chrome/137.0.0.0 Safari/537.36","WebKit","Chrome","137.0.0.0","Windows","10.0","https://app.prolific.com/","en-US,en;q=0.9","664b7cea18fe17cd31b5ab5e","683db6dfa200031b80f2a654","6865078bbba92057c1061f2c","664b7cea18fe17cd31b5ab5e","2025-07-02T11:00:08.916Z","","","","","","AttribQ","","","","","","","","","","","","","","","","","","","","","","","","","","","","","","","","","","","","","","50"
"8910","","<div style=""width:500px;"">
  <p>How much control did you have over the ball?</p>
  </div>","20","html-slider-response","68","2281483","0.0-10.0-2.5","160","1","2025-07-02 10:22:11","80fe4187154257d5fb01684ea91b68b9","154.159.238.41","Mozilla/5.0 (Windows NT 10.0; Win64; x64) AppleWebKit/537.36 (KHTML, like Gecko) Chrome/137.0.0.0 Safari/537.36","WebKit","Chrome","137.0.0.0","Windows","10.0","https://app.prolific.com/","en-US,en;q=0.9","664b7cea18fe17cd31b5ab5e","683db6dfa200031b80f2a654","6865078bbba92057c1061f2c","664b7cea18fe17cd31b5ab5e","2025-07-02T11:00:17.833Z","","","","","","ControlQ","","","","","","","","","","","","","","","","","","","","","","","","","","","","","","","","","","","","","","50"
"6401","","<div style=""width:500px;"">
  <p>How would you describe your current emotional state?</p>
  </div>","81","html-slider-response","69","2287897","0.0-10.0-3.5","160","1","2025-07-02 10:22:11","80fe4187154257d5fb01684ea91b68b9","154.159.238.41","Mozilla/5.0 (Windows NT 10.0; Win64; x64) AppleWebKit/537.36 (KHTML, like Gecko) Chrome/137.0.0.0 Safari/537.36","WebKit","Chrome","137.0.0.0","Windows","10.0","https://app.prolific.com/","en-US,en;q=0.9","664b7cea18fe17cd31b5ab5e","683db6dfa200031b80f2a654","6865078bbba92057c1061f2c","664b7cea18fe17cd31b5ab5e","2025-07-02T11:00:24.247Z","","","","","","StressQ","","","","","","","","","","","","","","","","","","","","","","","","","","","","","","","","","","","","","","50"
"5214","","<div style=""width:500px;"">
  <p>What best describes how you currently feel?</p>
  </div>","85","html-slider-response","70","2293121","0.0-10.0-4.5","160","1","2025-07-02 10:22:11","80fe4187154257d5fb01684ea91b68b9","154.159.238.41","Mozilla/5.0 (Windows NT 10.0; Win64; x64) AppleWebKit/537.36 (KHTML, like Gecko) Chrome/137.0.0.0 Safari/537.36","WebKit","Chrome","137.0.0.0","Windows","10.0","https://app.prolific.com/","en-US,en;q=0.9","664b7cea18fe17cd31b5ab5e","683db6dfa200031b80f2a654","6865078bbba92057c1061f2c","664b7cea18fe17cd31b5ab5e","2025-07-02T11:00:29.473Z","","","","","","MotivationQ","","","","","","","","","","","","","","","","","","","","","","","","","","","","","","","","","","","","","","50"
"","","","","ctl-task-cpt","71","2357204","0.0-10.0-0.6","160","1","2025-07-02 10:22:11","80fe4187154257d5fb01684ea91b68b9","154.159.238.41","Mozilla/5.0 (Windows NT 10.0; Win64; x64) AppleWebKit/537.36 (KHTML, like Gecko) Chrome/137.0.0.0 Safari/537.36","WebKit","Chrome","137.0.0.0","Windows","10.0","https://app.prolific.com/","en-US,en;q=0.9","664b7cea18fe17cd31b5ab5e","683db6dfa200031b80f2a654","6865078bbba92057c1061f2c","664b7cea18fe17cd31b5ab5e","2025-07-02T11:01:33.553Z","","","","","","","","","","","","","","","","win-only","3","g1:SW,g2:NE","0.4","7","0","2297941","13275.9","18279.2","61036.3","1","4","8","6","2","-8","-8","0","0","0","1431.3","3000","-800","[""up"",""right""]","{""num_key_presses"":13,""num_perfect"":6,""num_errors"":0,""num_randdir"":7,""num_randdir_good_moves"":3,""num_whilered"":0,""num_whileblue"":0,""num_blue"":1,""num_good_moves"":9}","[296.22232142857143,288.12857142857143,1.3,296.22232142857143,288.12857142857143,111.4,296.22232142857143,288.12857142857143,227,296.22232142857143,288.12857142857143,332.4,296.22232142857143,288.12857142857143,435.8,296.22232142857143,288.12857142857143,535.8,296.22232142857143,288.12857142857143,640.6,296.22232142857143,288.12857142857143,743,295.22232142857143,294.12857142857143,846.7,447.22232142857143,165.12857142857143,959,521.2223214285714,72.12857142857143,1060.1,542.2223214285714,47.128571428571426,1161.7,542.2223214285714,45.128571428571426,1261.7,542.2223214285714,45.128571428571426,1363,542.2223214285714,45.128571428571426,1474.5,542.2223214285714,45.128571428571426,1579.6,542.2223214285714,45.128571428571426,1681.2,542.2223214285714,45.128571428571426,1783.5,542.2223214285714,45.128571428571426,1885.5,542.2223214285714,45.128571428571426,1989.7,542.2223214285714,45.128571428571426,2098,497.22232142857143,97.12857142857143,2201.6,421.22232142857143,167.12857142857143,2309.6,369.22232142857143,254.12857142857143,2414,342.22232142857143,288.12857142857143,2520.6,328.22232142857143,298.12857142857143,2636.5,314.22232142857143,309.12857142857143,2741.8,353.22232142857143,351.12857142857143,2847,523.2223214285714,465.12857142857143,2953.4,525.2223214285714,467.12857142857143,3056.7,525.2223214285714,467.12857142857143,3158.9,525.2223214285714,467.12857142857143,3262.8,525.2223214285714,467.12857142857143,3368.1,525.2223214285714,467.12857142857143,3473.2,525.2223214285714,467.12857142857143,3575.8,525.2223214285714,467.12857142857143,3680.2,525.2223214285714,467.12857142857143,3786.3,525.2223214285714,467.12857142857143,3894.4,525.2223214285714,467.12857142857143,4000.4,525.2223214285714,467.12857142857143,4102.4,525.2223214285714,467.12857142857143,4210.9,525.2223214285714,467.12857142857143,4315.9,525.2223214285714,467.12857142857143,4425.6,525.2223214285714,467.12857142857143,4533,525.2223214285714,467.12857142857143,4634.4,525.2223214285714,467.12857142857143,4740.6,525.2223214285714,467.12857142857143,4842.6,525.2223214285714,467.12857142857143,4946]","[1618.6,1618.6,1000,0,618.6,""oops"",""up"",""right"",""good_move"",4866.2,3246.3,2543.1,1620,703.2,""oops"",""up"",""left"",""bad_move"",7575.2,2705.7,2110,4869.6,595.6,""oops"",""up"",""up"",""good_move"",10903,3324.6,2875.3,7578.4,449.3,""oops"",""up"",""down"",""bad_move"",12954.8,2051.1,1382.8,10903.7,668.3,""oops"",""up"",""right"",""good_move"",18627.3,5671.9,2072.4,16131,424,""smooth"",""up"",""up"",""good_move"",21253.7,2626,2238.8,18627.7,387.4,""smooth"",""right"",""right"",""good_move"",23671.9,2414.1,2004.9,21257.8,409.2,""oops"",""down"",""left"",""bad_move"",26632.7,2958.2,2473.4,23674.5,484.8,""smooth"",""up"",""up"",""good_move"",29927.2,3294.1,2871.6,26633.1,422.5,""smooth"",""right"",""right"",""good_move"",32941.4,3013.7,2648.7,29927.7,365,""smooth"",""up"",""up"",""good_move"",36261,3319,2885.8,32942,433.2,""oops"",""right"",""left"",""bad_move"",40042,3780.8,2120.1,36261.3,1660.7,""smooth"",""right"",""right"",""good_move""]","",""
"9465","","<div style=""width:500px;"">
  <p>What determined the result of this run?</p>
  </div>","19","html-slider-response","72","2366672","0.0-10.0-1.6","160","1","2025-07-02 10:22:11","80fe4187154257d5fb01684ea91b68b9","154.159.238.41","Mozilla/5.0 (Windows NT 10.0; Win64; x64) AppleWebKit/537.36 (KHTML, like Gecko) Chrome/137.0.0.0 Safari/537.36","WebKit","Chrome","137.0.0.0","Windows","10.0","https://app.prolific.com/","en-US,en;q=0.9","664b7cea18fe17cd31b5ab5e","683db6dfa200031b80f2a654","6865078bbba92057c1061f2c","664b7cea18fe17cd31b5ab5e","2025-07-02T11:01:43.022Z","","","","","","AttribQ","","","","","","","","","","","","","","","","","","","","","","","","","","","","","","","","","","","","","","50"
"5493","","<div style=""width:500px;"">
  <p>How much control did you have over the ball?</p>
  </div>","19","html-slider-response","73","2372171","0.0-10.0-2.6","160","1","2025-07-02 10:22:11","80fe4187154257d5fb01684ea91b68b9","154.159.238.41","Mozilla/5.0 (Windows NT 10.0; Win64; x64) AppleWebKit/537.36 (KHTML, like Gecko) Chrome/137.0.0.0 Safari/537.36","WebKit","Chrome","137.0.0.0","Windows","10.0","https://app.prolific.com/","en-US,en;q=0.9","664b7cea18fe17cd31b5ab5e","683db6dfa200031b80f2a654","6865078bbba92057c1061f2c","664b7cea18fe17cd31b5ab5e","2025-07-02T11:01:48.521Z","","","","","","ControlQ","","","","","","","","","","","","","","","","","","","","","","","","","","","","","","","","","","","","","","50"
"6007","","<div style=""width:500px;"">
  <p>How would you describe your current emotional state?</p>
  </div>","75","html-slider-response","74","2378187","0.0-10.0-3.6","160","1","2025-07-02 10:22:11","80fe4187154257d5fb01684ea91b68b9","154.159.238.41","Mozilla/5.0 (Windows NT 10.0; Win64; x64) AppleWebKit/537.36 (KHTML, like Gecko) Chrome/137.0.0.0 Safari/537.36","WebKit","Chrome","137.0.0.0","Windows","10.0","https://app.prolific.com/","en-US,en;q=0.9","664b7cea18fe17cd31b5ab5e","683db6dfa200031b80f2a654","6865078bbba92057c1061f2c","664b7cea18fe17cd31b5ab5e","2025-07-02T11:01:54.537Z","","","","","","StressQ","","","","","","","","","","","","","","","","","","","","","","","","","","","","","","","","","","","","","","50"
"6801","","<div style=""width:500px;"">
  <p>What best describes how you currently feel?</p>
  </div>","81","html-slider-response","75","2384995","0.0-10.0-4.6","160","1","2025-07-02 10:22:11","80fe4187154257d5fb01684ea91b68b9","154.159.238.41","Mozilla/5.0 (Windows NT 10.0; Win64; x64) AppleWebKit/537.36 (KHTML, like Gecko) Chrome/137.0.0.0 Safari/537.36","WebKit","Chrome","137.0.0.0","Windows","10.0","https://app.prolific.com/","en-US,en;q=0.9","664b7cea18fe17cd31b5ab5e","683db6dfa200031b80f2a654","6865078bbba92057c1061f2c","664b7cea18fe17cd31b5ab5e","2025-07-02T11:02:01.344Z","","","","","","MotivationQ","","","","","","","","","","","","","","","","","","","","","","","","","","","","","","","","","","","","","","50"
"","","","","ctl-task-cpt","76","2454325","0.0-10.0-0.7","160","1","2025-07-02 10:22:11","80fe4187154257d5fb01684ea91b68b9","154.159.238.41","Mozilla/5.0 (Windows NT 10.0; Win64; x64) AppleWebKit/537.36 (KHTML, like Gecko) Chrome/137.0.0.0 Safari/537.36","WebKit","Chrome","137.0.0.0","Windows","10.0","https://app.prolific.com/","en-US,en;q=0.9","664b7cea18fe17cd31b5ab5e","683db6dfa200031b80f2a654","6865078bbba92057c1061f2c","664b7cea18fe17cd31b5ab5e","2025-07-02T11:03:10.674Z","","","","","","","","","","","","","","","","win-only","1","g1:NE,g2:SW","0.3","8","0","2389802.3","1685.5","6696","66280.8","1","4","4","6","2","4","3","3","0","0.022727272727272728","2049.7","3000","760","[""down"",""left""]","{""num_key_presses"":14,""num_perfect"":4,""num_errors"":1,""num_randdir"":9,""num_randdir_good_moves"":6,""num_whilered"":0,""num_whileblue"":1,""num_blue"":3,""num_good_moves"":10}","[299.22232142857143,298.12857142857143,0.4,299.22232142857143,298.12857142857143,131.6,299.22232142857143,298.12857142857143,241.6,299.22232142857143,298.12857142857143,350.9,299.22232142857143,298.12857142857143,471.1,299.22232142857143,298.12857142857143,595,299.22232142857143,298.12857142857143,712.4,303.22232142857143,295.12857142857143,837.5,312.22232142857143,283.12857142857143,954.3,415.22232142857143,46.128571428571426,1083.7,347.22232142857143,130.12857142857143,1191.4,248.22232142857143,309.12857142857143,1311.9,205.22232142857143,371.12857142857143,1444.6,137.22232142857143,439.12857142857143,1568.4,102.22232142857143,493.12857142857143,1679.3,83.22232142857143,528.1285714285714,1798.4,83.22232142857143,531.1285714285714,1912.4,83.22232142857143,531.1285714285714,2024.2,83.22232142857143,531.1285714285714,2127.2,83.22232142857143,531.1285714285714,2231,83.22232142857143,531.1285714285714,2352.2,83.22232142857143,531.1285714285714,2492.2,83.22232142857143,531.1285714285714,2647.8,83.22232142857143,531.1285714285714,2783.7,83.22232142857143,531.1285714285714,2911.4,83.22232142857143,531.1285714285714,3035.8,83.22232142857143,531.1285714285714,3144.2,83.22232142857143,531.1285714285714,3278.1,83.22232142857143,531.1285714285714,3406,83.22232142857143,531.1285714285714,3511.1,83.22232142857143,531.1285714285714,3635.1,83.22232142857143,531.1285714285714,3781.5,83.22232142857143,531.1285714285714,3890.6,83.22232142857143,531.1285714285714,4007.1,83.22232142857143,531.1285714285714,4125.5,83.22232142857143,531.1285714285714,4241.6,83.22232142857143,531.1285714285714,4361,83.22232142857143,531.1285714285714,4468.3,83.22232142857143,531.1285714285714,4571.1,83.22232142857143,531.1285714285714,4671.4,83.22232142857143,531.1285714285714,4775,83.22232142857143,531.1285714285714,4917.5]","[1606.3,1606.3,1000,0,606.3,""oops"",""down"",""left"",""good_move"",12162.9,10555.8,2474.2,9237.3,451.4,""oops"",""down"",""left"",""good_move"",19684,7520.8,2865.8,12163.2,4655,""oops"",""right"",""left"",""good_move"",23468,3783.1,3188.3,19684.9,594.8,""smooth"",""up"",""up"",""bad_move"",26154.7,2682.5,2259.8,23472.2,422.7,""smooth"",""down"",""down"",""good_move"",30218.7,4063.4,3688.1,26155.3,375.3,""while_blue"",""down"",""down"",""good_move"",33785.5,3564.2,2733.2,30221.3,831,""oops"",""down"",""down"",""good_move"",39323.9,5537.4,2628.1,36183.9,511.9,""oops"",""down"",""right"",""bad_move"",42424.6,3098.8,2404.3,39325.8,694.5,""smooth"",""down"",""down"",""good_move"",45618.7,3193.7,2746.3,42425,447.4,""oops"",""left"",""up"",""bad_move"",49033.9,3414.9,2956.6,45619,458.3,""oops"",""left"",""up"",""bad_move"",52069.2,3033.1,2577.2,49036.2,455.8,""smooth"",""down"",""down"",""good_move"",54890,2820.2,2394.8,52069.8,425.4,""oops"",""down"",""left"",""good_move"",59210.7,4318.8,1882.4,54891.9,2436.4,""oops"",""down"",""down"",""good_move""]","",""
"7806","","<div style=""width:500px;"">
  <p>What determined the result of this run?</p>
  </div>","87","html-slider-response","77","2462135","0.0-10.0-1.7","160","1","2025-07-02 10:22:11","80fe4187154257d5fb01684ea91b68b9","154.159.238.41","Mozilla/5.0 (Windows NT 10.0; Win64; x64) AppleWebKit/537.36 (KHTML, like Gecko) Chrome/137.0.0.0 Safari/537.36","WebKit","Chrome","137.0.0.0","Windows","10.0","https://app.prolific.com/","en-US,en;q=0.9","664b7cea18fe17cd31b5ab5e","683db6dfa200031b80f2a654","6865078bbba92057c1061f2c","664b7cea18fe17cd31b5ab5e","2025-07-02T11:03:18.484Z","","","","","","AttribQ","","","","","","","","","","","","","","","","","","","","","","","","","","","","","","","","","","","","","","50"
"6739","","<div style=""width:500px;"">
  <p>How much control did you have over the ball?</p>
  </div>","40","html-slider-response","78","2468880","0.0-10.0-2.7","160","1","2025-07-02 10:22:11","80fe4187154257d5fb01684ea91b68b9","154.159.238.41","Mozilla/5.0 (Windows NT 10.0; Win64; x64) AppleWebKit/537.36 (KHTML, like Gecko) Chrome/137.0.0.0 Safari/537.36","WebKit","Chrome","137.0.0.0","Windows","10.0","https://app.prolific.com/","en-US,en;q=0.9","664b7cea18fe17cd31b5ab5e","683db6dfa200031b80f2a654","6865078bbba92057c1061f2c","664b7cea18fe17cd31b5ab5e","2025-07-02T11:03:25.230Z","","","","","","ControlQ","","","","","","","","","","","","","","","","","","","","","","","","","","","","","","","","","","","","","","50"
"6355","","<div style=""width:500px;"">
  <p>How would you describe your current emotional state?</p>
  </div>","74","html-slider-response","79","2475246","0.0-10.0-3.7","160","1","2025-07-02 10:22:11","80fe4187154257d5fb01684ea91b68b9","154.159.238.41","Mozilla/5.0 (Windows NT 10.0; Win64; x64) AppleWebKit/537.36 (KHTML, like Gecko) Chrome/137.0.0.0 Safari/537.36","WebKit","Chrome","137.0.0.0","Windows","10.0","https://app.prolific.com/","en-US,en;q=0.9","664b7cea18fe17cd31b5ab5e","683db6dfa200031b80f2a654","6865078bbba92057c1061f2c","664b7cea18fe17cd31b5ab5e","2025-07-02T11:03:31.595Z","","","","","","StressQ","","","","","","","","","","","","","","","","","","","","","","","","","","","","","","","","","","","","","","50"
"5416","","<div style=""width:500px;"">
  <p>What best describes how you currently feel?</p>
  </div>","77","html-slider-response","80","2480668","0.0-10.0-4.7","160","1","2025-07-02 10:22:11","80fe4187154257d5fb01684ea91b68b9","154.159.238.41","Mozilla/5.0 (Windows NT 10.0; Win64; x64) AppleWebKit/537.36 (KHTML, like Gecko) Chrome/137.0.0.0 Safari/537.36","WebKit","Chrome","137.0.0.0","Windows","10.0","https://app.prolific.com/","en-US,en;q=0.9","664b7cea18fe17cd31b5ab5e","683db6dfa200031b80f2a654","6865078bbba92057c1061f2c","664b7cea18fe17cd31b5ab5e","2025-07-02T11:03:37.017Z","","","","","","MotivationQ","","","","","","","","","","","","","","","","","","","","","","","","","","","","","","","","","","","","","","50"
"","","","","ctl-task-cpt","81","2551421","0.0-10.0-0.8","160","1","2025-07-02 10:22:11","80fe4187154257d5fb01684ea91b68b9","154.159.238.41","Mozilla/5.0 (Windows NT 10.0; Win64; x64) AppleWebKit/537.36 (KHTML, like Gecko) Chrome/137.0.0.0 Safari/537.36","WebKit","Chrome","137.0.0.0","Windows","10.0","https://app.prolific.com/","en-US,en;q=0.9","664b7cea18fe17cd31b5ab5e","683db6dfa200031b80f2a654","6865078bbba92057c1061f2c","664b7cea18fe17cd31b5ab5e","2025-07-02T11:04:47.770Z","","","","","","","","","","","","","","","","win-only","3","g1:SW,g2:NE","0.4","9","0","2485473.6","3274.8","8275.9","67724.3","1","4","4","6","2","4","4","7","3","0.05303030303030303","1663.6","3000","345","[""up"",""right""]","{""num_key_presses"":16,""num_perfect"":8,""num_errors"":0,""num_randdir"":8,""num_randdir_good_moves"":3,""num_whilered"":0,""num_whileblue"":0,""num_blue"":1,""num_good_moves"":11}","[297.22232142857143,293.12857142857143,1.8,297.22232142857143,293.12857142857143,109,297.22232142857143,293.12857142857143,216.1,297.22232142857143,293.12857142857143,326.3,297.22232142857143,293.12857142857143,432.5,297.22232142857143,293.12857142857143,541,297.22232142857143,293.12857142857143,642.9,297.22232142857143,293.12857142857143,748.8,297.22232142857143,293.12857142857143,848.8,374.22232142857143,216.12857142857143,955,456.22232142857143,119.12857142857143,1059.3,472.22232142857143,98.12857142857143,1161.9,499.22232142857143,75.12857142857143,1266.8,517.2223214285714,63.128571428571426,1371.8,522.2223214285714,60.128571428571426,1472.8,522.2223214285714,60.128571428571426,1577.8,522.2223214285714,60.128571428571426,1681.9,522.2223214285714,60.128571428571426,1788.6,522.2223214285714,60.128571428571426,1906.8,522.2223214285714,60.128571428571426,2018.8,522.2223214285714,60.128571428571426,2123.8,522.2223214285714,60.128571428571426,2228.4,522.2223214285714,60.128571428571426,2333.1,522.2223214285714,60.128571428571426,2433.2,522.2223214285714,60.128571428571426,2535.2,522.2223214285714,60.128571428571426,2639.7,522.2223214285714,60.128571428571426,2746.4,522.2223214285714,60.128571428571426,2854.1,522.2223214285714,60.128571428571426,2956.6,522.2223214285714,60.128571428571426,3068.4,522.2223214285714,60.128571428571426,3168.4,522.2223214285714,60.128571428571426,3274.5,452.22232142857143,98.12857142857143,3376.6,356.22232142857143,161.12857142857143,3476.8,345.22232142857143,172.12857142857143,3577.6,330.22232142857143,195.12857142857143,3686,325.22232142857143,207.12857142857143,3792.9,325.22232142857143,225.12857142857143,3904.7,352.22232142857143,224.12857142857143,4013.4,388.22232142857143,209.12857142857143,4123.6,421.22232142857143,195.12857142857143,4241.7,431.22232142857143,195.12857142857143,4350,432.22232142857143,195.12857142857143,4461.1,432.22232142857143,195.12857142857143,4574.5,432.22232142857143,195.12857142857143,4678,432.22232142857143,195.12857142857143,4789,432.22232142857143,195.12857142857143,4901]","[1698.8,1698.9,1000,0,698.9,""oops"",""up"",""down"",""bad_move"",5573.7,3870.2,3393.9,1703.6,476.3,""smooth"",""right"",""right"",""good_move"",8471.7,2897.3,2502.3,5574.4,395,""smooth"",""up"",""up"",""good_move"",11415.6,2943.5,2241,8472.1,702.5,""oops"",""up"",""down"",""bad_move"",14601.8,3185.1,2525.8,11416.7,659.4,""smooth"",""up"",""up"",""good_move"",17918.9,3313.5,2422.4,14605.4,891.1,""smooth"",""right"",""right"",""good_move"",20618.4,2696.7,2000.2,17921.7,696.6,""oops"",""up"",""left"",""bad_move"",24620.4,3999.8,1934.3,20620.7,2065.5,""oops"",""right"",""left"",""bad_move"",29044.4,4423.5,1723,24620.9,2700.5,""oops"",""up"",""up"",""good_move"",33289.6,4244.9,3049,29044.7,1195.9,""oops"",""up"",""down"",""bad_move"",36126.1,2836,1946,33290.1,890,""smooth"",""up"",""up"",""good_move"",40826.4,4698.6,2552.1,36127.8,2146.5,""smooth"",""right"",""right"",""good_move"",43653.4,2826.1,1415.8,40827.3,1410.3,""smooth"",""up"",""up"",""good_move"",51835.4,8181.2,2471.1,48935.4,428.9,""smooth"",""up"",""up"",""good_move"",55511.4,3675.7,3200.5,51835.7,475.2,""oops"",""right"",""right"",""good_move"",59134.8,3621.8,3243.9,55513,377.9,""oops"",""right"",""right"",""good_move""]","",""
"11162","","<div style=""width:500px;"">
  <p>What determined the result of this run?</p>
  </div>","74","html-slider-response","82","2562586","0.0-10.0-1.8","160","1","2025-07-02 10:22:11","80fe4187154257d5fb01684ea91b68b9","154.159.238.41","Mozilla/5.0 (Windows NT 10.0; Win64; x64) AppleWebKit/537.36 (KHTML, like Gecko) Chrome/137.0.0.0 Safari/537.36","WebKit","Chrome","137.0.0.0","Windows","10.0","https://app.prolific.com/","en-US,en;q=0.9","664b7cea18fe17cd31b5ab5e","683db6dfa200031b80f2a654","6865078bbba92057c1061f2c","664b7cea18fe17cd31b5ab5e","2025-07-02T11:04:58.936Z","","","","","","AttribQ","","","","","","","","","","","","","","","","","","","","","","","","","","","","","","","","","","","","","","50"
"9173","","<div style=""width:500px;"">
  <p>How much control did you have over the ball?</p>
  </div>","74","html-slider-response","83","2571764","0.0-10.0-2.8","160","1","2025-07-02 10:22:11","80fe4187154257d5fb01684ea91b68b9","154.159.238.41","Mozilla/5.0 (Windows NT 10.0; Win64; x64) AppleWebKit/537.36 (KHTML, like Gecko) Chrome/137.0.0.0 Safari/537.36","WebKit","Chrome","137.0.0.0","Windows","10.0","https://app.prolific.com/","en-US,en;q=0.9","664b7cea18fe17cd31b5ab5e","683db6dfa200031b80f2a654","6865078bbba92057c1061f2c","664b7cea18fe17cd31b5ab5e","2025-07-02T11:05:08.113Z","","","","","","ControlQ","","","","","","","","","","","","","","","","","","","","","","","","","","","","","","","","","","","","","","50"
"7538","","<div style=""width:500px;"">
  <p>How would you describe your current emotional state?</p>
  </div>","32","html-slider-response","84","2579311","0.0-10.0-3.8","160","1","2025-07-02 10:22:11","80fe4187154257d5fb01684ea91b68b9","154.159.238.41","Mozilla/5.0 (Windows NT 10.0; Win64; x64) AppleWebKit/537.36 (KHTML, like Gecko) Chrome/137.0.0.0 Safari/537.36","WebKit","Chrome","137.0.0.0","Windows","10.0","https://app.prolific.com/","en-US,en;q=0.9","664b7cea18fe17cd31b5ab5e","683db6dfa200031b80f2a654","6865078bbba92057c1061f2c","664b7cea18fe17cd31b5ab5e","2025-07-02T11:05:15.660Z","","","","","","StressQ","","","","","","","","","","","","","","","","","","","","","","","","","","","","","","","","","","","","","","50"
"6113","","<div style=""width:500px;"">
  <p>What best describes how you currently feel?</p>
  </div>","73","html-slider-response","85","2585432","0.0-10.0-4.8","160","1","2025-07-02 10:22:11","80fe4187154257d5fb01684ea91b68b9","154.159.238.41","Mozilla/5.0 (Windows NT 10.0; Win64; x64) AppleWebKit/537.36 (KHTML, like Gecko) Chrome/137.0.0.0 Safari/537.36","WebKit","Chrome","137.0.0.0","Windows","10.0","https://app.prolific.com/","en-US,en;q=0.9","664b7cea18fe17cd31b5ab5e","683db6dfa200031b80f2a654","6865078bbba92057c1061f2c","664b7cea18fe17cd31b5ab5e","2025-07-02T11:05:21.781Z","","","","","","MotivationQ","","","","","","","","","","","","","","","","","","","","","","","","","","","","","","","","","","","","","","50"
