"rt","response_timestamp","stimulus","response","trial_type","trial_index","time_elapsed","internal_node_id","run_id","condition","recorded_at","source_code_version","ip","user_agent","device","browser","browser_version","platform","platform_version","referer","accept_language","PROLIFIC_PID","STUDY_ID","SESSION_ID","prolific_id","realtime","view_history","question_order","consent","success","question_id","eventType","responses","item_order","radio_event_ids","radio_event_times","key_event_times","mouse_event_times","straightlining","zigzagging","honeypot","which_type","canvas_config","goals_layout","control_level","trial_number","tutorial_trial_number","trial_start_time","phase1_start_time","phase2_start_time","phase3_start_time","goal_1_value","goal_1_distance","goal_2_value","goal_2_distance","goal_selected","outcome","outcome_total","participant_final_score","participant_initial_score","participant_final_score_prop","goal_choice_rt","allocated_time","allocated_time_remaining","goal_direction","counts","mouse_movements","key_presses","correct","slider_start"
"160474","1751451783840","<p style='font-size:40px;line-height:1.25'><strong>Welcome to the experiment!</strong></p><p style='font-size:1.1em;line-height:1.25'>Thank you for your interest in our experiment! Before you begin, it is important that we obtain your informed consent to participate in the study.</p><p style='font-size:1.1em;line-height:1.25'>On the next screen will be an <strong>information sheet</strong> for you to read. To participate in the study we need you to read this information sheet and the following consent form carefully. If you agree with all the statements, please click the <strong>I agree</strong> button.</p><p style='font-size:1.1em;line-height:1.25'>Press <strong>Next</strong> to read the information sheet.</p>","0","custom-html-button-response","0","160484","0.0-0.0","128","1","2025-07-02 10:20:13","80fe4187154257d5fb01684ea91b68b9","154.159.238.41","Mozilla/5.0 (Windows NT 10.0; Win64; x64) AppleWebKit/537.36 (KHTML, like Gecko) Chrome/126.0.0.0 Safari/537.36","WebKit","Chrome","126.0.0.0","Windows","10.0","https://app.prolific.com/","en-US,en;q=0.9","664e413a5f3eb7f99d90e15b","683db6dfa200031b80f2a654","686507765aebf360ba7bf447","664e413a5f3eb7f99d90e15b","2025-07-02T10:23:03.843Z","","","","","","","","","","","","","","","","","","","","","","","","","","","","","","","","","","","","","","","","","","","",""
"76211","","","","instructions","1","236697","0.0-1.0","128","1","2025-07-02 10:20:13","80fe4187154257d5fb01684ea91b68b9","154.159.238.41","Mozilla/5.0 (Windows NT 10.0; Win64; x64) AppleWebKit/537.36 (KHTML, like Gecko) Chrome/126.0.0.0 Safari/537.36","WebKit","Chrome","126.0.0.0","Windows","10.0","https://app.prolific.com/","en-US,en;q=0.9","664e413a5f3eb7f99d90e15b","683db6dfa200031b80f2a654","686507765aebf360ba7bf447","664e413a5f3eb7f99d90e15b","","[{""page_index"":0,""viewing_time"":58991},{""page_index"":1,""viewing_time"":17219}]","","","","","","","","","","","","","","","","","","","","","","","","","","","","","","","","","","","","","","","","","","",""
"6640","","","{""Q0"":"""",""Q1"":"""",""Q2"":"""",""Q3"":"""",""Q4"":"""",""Q5"":"""",""Q6"":""I agree""}","survey-multi-choice","2","243343","0.0-2.0","128","1","2025-07-02 10:20:13","80fe4187154257d5fb01684ea91b68b9","154.159.238.41","Mozilla/5.0 (Windows NT 10.0; Win64; x64) AppleWebKit/537.36 (KHTML, like Gecko) Chrome/126.0.0.0 Safari/537.36","WebKit","Chrome","126.0.0.0","Windows","10.0","https://app.prolific.com/","en-US,en;q=0.9","664e413a5f3eb7f99d90e15b","683db6dfa200031b80f2a654","686507765aebf360ba7bf447","664e413a5f3eb7f99d90e15b","","","[0,1,2,3,4,5,6]","true","","","","","","","","","","","","","","","","","","","","","","","","","","","","","","","","","","","","","","","","",""
"87267","","","","fullscreen","3","331633","0.0-4.0","128","1","2025-07-02 10:20:13","80fe4187154257d5fb01684ea91b68b9","154.159.238.41","Mozilla/5.0 (Windows NT 10.0; Win64; x64) AppleWebKit/537.36 (KHTML, like Gecko) Chrome/126.0.0.0 Safari/537.36","WebKit","Chrome","126.0.0.0","Windows","10.0","https://app.prolific.com/","en-US,en;q=0.9","664e413a5f3eb7f99d90e15b","683db6dfa200031b80f2a654","686507765aebf360ba7bf447","664e413a5f3eb7f99d90e15b","","","","","true","","","","","","","","","","","","","","","","","","","","","","","","","","","","","","","","","","","","","","","",""
"13845","1751451968839"," <p style='font-size:1.1em;line-height:1.25'>Thank you for completing the consent form and closing all other tabs.</p><p style='font-size:1.1em;line-height:1.25'>We will now invite you to fill in some demographic information and questionnaires, before starting the game.<br>This will take about 5 minutes.<br></p><p style='font-size:1.1em;line-height:1.25'>Press the <strong>Next</strong> button to continue.</p>","0","custom-html-button-response","4","345480","0.0-5.0","128","1","2025-07-02 10:20:13","80fe4187154257d5fb01684ea91b68b9","154.159.238.41","Mozilla/5.0 (Windows NT 10.0; Win64; x64) AppleWebKit/537.36 (KHTML, like Gecko) Chrome/126.0.0.0 Safari/537.36","WebKit","Chrome","126.0.0.0","Windows","10.0","https://app.prolific.com/","en-US,en;q=0.9","664e413a5f3eb7f99d90e15b","683db6dfa200031b80f2a654","686507765aebf360ba7bf447","664e413a5f3eb7f99d90e15b","2025-07-02T10:26:08.839Z","","","","","","","","","","","","","","","","","","","","","","","","","","","","","","","","","","","","","","","","","","","",""
"4746","","","{""age"":""21""}","survey-text","5","350231","0.0-6.0-0.0","128","1","2025-07-02 10:20:13","80fe4187154257d5fb01684ea91b68b9","154.159.238.41","Mozilla/5.0 (Windows NT 10.0; Win64; x64) AppleWebKit/537.36 (KHTML, like Gecko) Chrome/126.0.0.0 Safari/537.36","WebKit","Chrome","126.0.0.0","Windows","10.0","https://app.prolific.com/","en-US,en;q=0.9","664e413a5f3eb7f99d90e15b","683db6dfa200031b80f2a654","686507765aebf360ba7bf447","664e413a5f3eb7f99d90e15b","","","","","","0","demographics","","","","","","","","","","","","","","","","","","","","","","","","","","","","","","","","","","","","","",""
"4729","","","{""gender_identity"":""male/man""}","survey-multi-choice","6","354962","0.0-6.0-1.0","128","1","2025-07-02 10:20:13","80fe4187154257d5fb01684ea91b68b9","154.159.238.41","Mozilla/5.0 (Windows NT 10.0; Win64; x64) AppleWebKit/537.36 (KHTML, like Gecko) Chrome/126.0.0.0 Safari/537.36","WebKit","Chrome","126.0.0.0","Windows","10.0","https://app.prolific.com/","en-US,en;q=0.9","664e413a5f3eb7f99d90e15b","683db6dfa200031b80f2a654","686507765aebf360ba7bf447","664e413a5f3eb7f99d90e15b","","","[0]","","","1","demographics","","","","","","","","","","","","","","","","","","","","","","","","","","","","","","","","","","","","","",""
"6154","","","{""assigned_sex"":""male""}","survey-multi-choice","7","361120","0.0-6.0-2.0","128","1","2025-07-02 10:20:13","80fe4187154257d5fb01684ea91b68b9","154.159.238.41","Mozilla/5.0 (Windows NT 10.0; Win64; x64) AppleWebKit/537.36 (KHTML, like Gecko) Chrome/126.0.0.0 Safari/537.36","WebKit","Chrome","126.0.0.0","Windows","10.0","https://app.prolific.com/","en-US,en;q=0.9","664e413a5f3eb7f99d90e15b","683db6dfa200031b80f2a654","686507765aebf360ba7bf447","664e413a5f3eb7f99d90e15b","","","[0]","","","2","demographics","","","","","","","","","","","","","","","","","","","","","","","","","","","","","","","","","","","","","",""
"4095","","","{""menstrual_cycle"":""No""}","survey-multi-choice","8","365219","0.0-6.0-3.0","128","1","2025-07-02 10:20:13","80fe4187154257d5fb01684ea91b68b9","154.159.238.41","Mozilla/5.0 (Windows NT 10.0; Win64; x64) AppleWebKit/537.36 (KHTML, like Gecko) Chrome/126.0.0.0 Safari/537.36","WebKit","Chrome","126.0.0.0","Windows","10.0","https://app.prolific.com/","en-US,en;q=0.9","664e413a5f3eb7f99d90e15b","683db6dfa200031b80f2a654","686507765aebf360ba7bf447","664e413a5f3eb7f99d90e15b","","","[0]","","","4","demographics","","","","","","","","","","","","","","","","","","","","","","","","","","","","","","","","","","","","","",""
"4669","","","{""education"":""Bachelor's Degree (e.g., BA)""}","survey-multi-choice","9","369892","0.0-6.0-4.0","128","1","2025-07-02 10:20:13","80fe4187154257d5fb01684ea91b68b9","154.159.238.41","Mozilla/5.0 (Windows NT 10.0; Win64; x64) AppleWebKit/537.36 (KHTML, like Gecko) Chrome/126.0.0.0 Safari/537.36","WebKit","Chrome","126.0.0.0","Windows","10.0","https://app.prolific.com/","en-US,en;q=0.9","664e413a5f3eb7f99d90e15b","683db6dfa200031b80f2a654","686507765aebf360ba7bf447","664e413a5f3eb7f99d90e15b","","","[0]","","","5","demographics","","","","","","","","","","","","","","","","","","","","","","","","","","","","","","","","","","","","","",""
"13940","","","{""education"":""Higher National Certificate""}","survey-multi-choice","10","383836","0.0-6.0-5.0","128","1","2025-07-02 10:20:13","80fe4187154257d5fb01684ea91b68b9","154.159.238.41","Mozilla/5.0 (Windows NT 10.0; Win64; x64) AppleWebKit/537.36 (KHTML, like Gecko) Chrome/126.0.0.0 Safari/537.36","WebKit","Chrome","126.0.0.0","Windows","10.0","https://app.prolific.com/","en-US,en;q=0.9","664e413a5f3eb7f99d90e15b","683db6dfa200031b80f2a654","686507765aebf360ba7bf447","664e413a5f3eb7f99d90e15b","2025-07-02T10:26:47.195Z","","[0]","","","6","demographics","","","","","","","","","","","","","","","","","","","","","","","","","","","","","","","","","","","","","",""
"35043","","","{""mental_health_condition"":""No"",""mental_health_treatment"":""No"",""psychiatric_medication"":""N/A""}","survey-text","11","418883","0.0-7.0-0.0","128","1","2025-07-02 10:20:13","80fe4187154257d5fb01684ea91b68b9","154.159.238.41","Mozilla/5.0 (Windows NT 10.0; Win64; x64) AppleWebKit/537.36 (KHTML, like Gecko) Chrome/126.0.0.0 Safari/537.36","WebKit","Chrome","126.0.0.0","Windows","10.0","https://app.prolific.com/","en-US,en;q=0.9","664e413a5f3eb7f99d90e15b","683db6dfa200031b80f2a654","686507765aebf360ba7bf447","664e413a5f3eb7f99d90e15b","2025-07-02T10:27:22.243Z","","","","","1","mental_health","","","","","","","","","","","","","","","","","","","","","","","","","","","","","","","","","","","","","",""
"164800","","","{""depression_history"":[""Yes""]}","survey-multi-select","12","583688","0.0-7.0-1.0","128","1","2025-07-02 10:20:13","80fe4187154257d5fb01684ea91b68b9","154.159.238.41","Mozilla/5.0 (Windows NT 10.0; Win64; x64) AppleWebKit/537.36 (KHTML, like Gecko) Chrome/126.0.0.0 Safari/537.36","WebKit","Chrome","126.0.0.0","Windows","10.0","https://app.prolific.com/","en-US,en;q=0.9","664e413a5f3eb7f99d90e15b","683db6dfa200031b80f2a654","686507765aebf360ba7bf447","664e413a5f3eb7f99d90e15b","","","[0]","","","","mental_health","","","","","","","","","","","","","","","","","","","","","","","","","","","","","","","","","","","","","",""
"16824","","","{""depression_episodes"":""1-2"",""depression_recent"":""More than 1 year ago""}","survey-multi-choice","13","600517","0.0-7.0-2.0-0.0","128","1","2025-07-02 10:20:13","80fe4187154257d5fb01684ea91b68b9","154.159.238.41","Mozilla/5.0 (Windows NT 10.0; Win64; x64) AppleWebKit/537.36 (KHTML, like Gecko) Chrome/126.0.0.0 Safari/537.36","WebKit","Chrome","126.0.0.0","Windows","10.0","https://app.prolific.com/","en-US,en;q=0.9","664e413a5f3eb7f99d90e15b","683db6dfa200031b80f2a654","686507765aebf360ba7bf447","664e413a5f3eb7f99d90e15b","2025-07-02T10:30:23.876Z","","[0,1]","","","3","mental_health","","","","","","","","","","","","","","","","","","","","","","","","","","","","","","","","","","","","","",""
"265240.7000000011","","","","survey-template","14","865764","0.0-7.0-3.0","128","1","2025-07-02 10:20:13","80fe4187154257d5fb01684ea91b68b9","154.159.238.41","Mozilla/5.0 (Windows NT 10.0; Win64; x64) AppleWebKit/537.36 (KHTML, like Gecko) Chrome/126.0.0.0 Safari/537.36","WebKit","Chrome","126.0.0.0","Windows","10.0","https://app.prolific.com/","en-US,en;q=0.9","664e413a5f3eb7f99d90e15b","683db6dfa200031b80f2a654","686507765aebf360ba7bf447","664e413a5f3eb7f99d90e15b","2025-07-02T10:34:49.123Z","","","","","","ius","{""Q01"":""3"",""Q02"":""4"",""Q03"":""3"",""Q04"":""4"",""Q05"":""3"",""Q06"":""3"",""Q07"":""4"",""Q08"":""0"",""Q09"":""4"",""Q10"":""3"",""Q11"":""3"",""Q12"":""3"",""Q13"":""3""}","[0,1,2,3,4,5,6,7,8,9,10,11,12]","[""Q01"",""Q02"",""Q03"",""Q04"",""Q05"",""Q06"",""Q07"",""Q08"",""Q09"",""Q10"",""Q11"",""Q12"",""Q13""]","[197894.09999999963,208471.59999999963,217170.59999999963,222053.80000000075,233341.80000000075,234624.30000000075,238004.09999999963,241230.20000000112,246907.09999999963,250094.70000000112,255225.59999999963,258671.90000000037,262749.5]","[]","[196476.80000000075,197894.09999999963,208471.59999999963,217170.59999999963,222053.80000000075,226075,233341.80000000075,234624.30000000075,238004.09999999963,241230.20000000112,246907.09999999963,250094.70000000112,253311,253502.5,255225.59999999963,258671.90000000037,262749.5,265238.2000000011]","0.6153846153846154","0.6666666666666666","0","","","","","","","","","","","","","","","","","","","","","","","","","","","","",""
"5334","1751452494460","<p style='font-size:1.1em;line-height:1.25'>In the following, we will ask you a few questions relating to your experiences over the past month.<br></p><p style='font-size:1.1em;line-height:1.25'>Press the <strong>Next</strong> button to continue.</p>","0","custom-html-button-response","15","871101","0.0-7.0-4.0","128","1","2025-07-02 10:20:13","80fe4187154257d5fb01684ea91b68b9","154.159.238.41","Mozilla/5.0 (Windows NT 10.0; Win64; x64) AppleWebKit/537.36 (KHTML, like Gecko) Chrome/126.0.0.0 Safari/537.36","WebKit","Chrome","126.0.0.0","Windows","10.0","https://app.prolific.com/","en-US,en;q=0.9","664e413a5f3eb7f99d90e15b","683db6dfa200031b80f2a654","686507765aebf360ba7bf447","664e413a5f3eb7f99d90e15b","2025-07-02T10:34:54.460Z","","","","","","","","","","","","","","","","","","","","","","","","","","","","","","","","","","","","","","","","","","","",""
"115547","","","","survey-template","16","986652","0.0-7.0-5.0","128","1","2025-07-02 10:20:13","80fe4187154257d5fb01684ea91b68b9","154.159.238.41","Mozilla/5.0 (Windows NT 10.0; Win64; x64) AppleWebKit/537.36 (KHTML, like Gecko) Chrome/126.0.0.0 Safari/537.36","WebKit","Chrome","126.0.0.0","Windows","10.0","https://app.prolific.com/","en-US,en;q=0.9","664e413a5f3eb7f99d90e15b","683db6dfa200031b80f2a654","686507765aebf360ba7bf447","664e413a5f3eb7f99d90e15b","2025-07-02T10:36:50.012Z","","","","","","pss","{""Q01"":""4"",""Q02"":""3"",""Q03"":""1"",""Q04"":""1"",""Q05"":""1"",""Q06"":""3"",""Q07"":""1"",""Q08"":""0"",""Q09"":""3"",""Q10"":""1""}","[0,1,2,3,4,5,6,7,8,9]","[""Q01"",""Q02"",""Q03"",""Q04"",""Q05"",""Q06"",""Q07"",""Q08"",""Q09"",""Q10"",""Q10""]","[10579.60000000149,40900,47628.20000000112,53350.90000000037,60145.20000000112,64623.40000000037,71111.40000000037,76489.20000000112,82824,87407.80000000075,90488.90000000037]","[]","[0,8779.800000000745,10579.60000000149,40900,47628.20000000112,53350.90000000037,60145.20000000112,64623.40000000037,71111.40000000037,76489.20000000112,82824,87407.80000000075,90488.90000000037,115544.30000000075]","0.6","0.3333333333333333","0","","","","","","","","","","","","","","","","","","","","","","","","","","","","",""
"4947","1751452614962","<p style='font-size:1.1em;line-height:1.25'>Thank you for your answers! Now we will ask you a few more questions relating to your feelings in the last 24 hours.<br></p><p style='font-size:1.1em;line-height:1.25'>Press the <strong>Next</strong> button to continue.</p>","0","custom-html-button-response","17","991604","0.0-7.0-6.0","128","1","2025-07-02 10:20:13","80fe4187154257d5fb01684ea91b68b9","154.159.238.41","Mozilla/5.0 (Windows NT 10.0; Win64; x64) AppleWebKit/537.36 (KHTML, like Gecko) Chrome/126.0.0.0 Safari/537.36","WebKit","Chrome","126.0.0.0","Windows","10.0","https://app.prolific.com/","en-US,en;q=0.9","664e413a5f3eb7f99d90e15b","683db6dfa200031b80f2a654","686507765aebf360ba7bf447","664e413a5f3eb7f99d90e15b","2025-07-02T10:36:54.963Z","","","","","","","","","","","","","","","","","","","","","","","","","","","","","","","","","","","","","","","","","","","",""
"82366.90000000037","","","","survey-template","18","1073976","0.0-7.0-7.0","128","1","2025-07-02 10:20:13","80fe4187154257d5fb01684ea91b68b9","154.159.238.41","Mozilla/5.0 (Windows NT 10.0; Win64; x64) AppleWebKit/537.36 (KHTML, like Gecko) Chrome/126.0.0.0 Safari/537.36","WebKit","Chrome","126.0.0.0","Windows","10.0","https://app.prolific.com/","en-US,en;q=0.9","664e413a5f3eb7f99d90e15b","683db6dfa200031b80f2a654","686507765aebf360ba7bf447","664e413a5f3eb7f99d90e15b","2025-07-02T10:38:17.335Z","","","","","","drsp","{""Q01"":""0"",""Q02"":""0"",""Q03"":""0"",""Q04"":""1"",""Q05"":""1"",""Q06"":""2"",""Q07"":""2"",""Q08"":""1"",""Q09"":""0"",""Q10"":""1"",""Q11"":""3"",""Q12"":""4"",""Q13"":""5"",""Q14"":""4"",""Q15"":""1"",""Q16"":""0"",""Q17"":""1"",""Q18"":""0"",""Q19"":""0"",""Q20"":""0"",""Q21"":""0""}","[0,1,2,3,4,5,6,7,8,9,10,11,12,13,14,15,16,17,18,19,20]","[""Q01"",""Q02"",""Q03"",""Q04"",""Q05"",""Q06"",""Q07"",""Q08"",""Q09"",""Q10"",""Q11"",""Q12"",""Q13"",""Q14"",""Q15"",""Q16"",""Q17"",""Q18"",""Q19"",""Q20"",""Q21""]","[3220.5,6425.300000000745,7765,10607.099999999627,12319.099999999627,17207.5,23320.599999999627,25961.199999999255,28496.400000000373,32313,35967.09999999963,39363.09999999963,42634.59999999963,46547.300000000745,50593.59999999963,53004.5,59940.09999999963,64129.5,70195.19999999925,73983.5,80411.90000000037]","[]","[0.09999999962747097,3220.5,5171.800000000745,6425.300000000745,7765,10607.099999999627,12319.099999999627,17207.5,23320.599999999627,25961.199999999255,28496.400000000373,32313,35967.09999999963,39363.09999999963,41391.40000000037,41582.90000000037,42634.59999999963,46547.300000000745,50593.59999999963,53004.5,59940.09999999963,64129.5,70195.19999999925,73983.5,78622.80000000075,80411.90000000037,82363.40000000037]","0.42857142857142855","0.55","0","","","","","","","","","","","","","","","","","","","","","","","","","","","","",""
"21048.099999999627","","","","survey-template","19","1095027","0.0-7.0-8.0","128","1","2025-07-02 10:20:13","80fe4187154257d5fb01684ea91b68b9","154.159.238.41","Mozilla/5.0 (Windows NT 10.0; Win64; x64) AppleWebKit/537.36 (KHTML, like Gecko) Chrome/126.0.0.0 Safari/537.36","WebKit","Chrome","126.0.0.0","Windows","10.0","https://app.prolific.com/","en-US,en;q=0.9","664e413a5f3eb7f99d90e15b","683db6dfa200031b80f2a654","686507765aebf360ba7bf447","664e413a5f3eb7f99d90e15b","2025-07-02T10:38:38.387Z","","","","","","stress","{""Q01"":""1"",""Q02"":""1"",""Q03"":""1""}","[0,1,2]","[""Q01"",""Q02"",""Q03""]","[5167.0999999996275,11260.799999998882,19841.39999999851]","[]","[5167.0999999996275,11260.799999998882,19841.39999999851,21047]","0.6666666666666666","0","0","","","","","","","","","","","","","","","","","","","","","","","","","","","","",""
"176014","","","","instructions","20","1271044","0.0-8.0-0.0","128","1","2025-07-02 10:20:13","80fe4187154257d5fb01684ea91b68b9","154.159.238.41","Mozilla/5.0 (Windows NT 10.0; Win64; x64) AppleWebKit/537.36 (KHTML, like Gecko) Chrome/126.0.0.0 Safari/537.36","WebKit","Chrome","126.0.0.0","Windows","10.0","https://app.prolific.com/","en-US,en;q=0.9","664e413a5f3eb7f99d90e15b","683db6dfa200031b80f2a654","686507765aebf360ba7bf447","664e413a5f3eb7f99d90e15b","","[{""page_index"":0,""viewing_time"":72662},{""page_index"":1,""viewing_time"":47868},{""page_index"":2,""viewing_time"":24503},{""page_index"":3,""viewing_time"":30980}]","","","","","","","","","","","","","","","","","","","","","","","","","","","","","","","","","","","","","","","","","","",""
"","","","","ctl-task-cpt","21","1298632","0.0-8.0-1.0","128","1","2025-07-02 10:20:13","80fe4187154257d5fb01684ea91b68b9","154.159.238.41","Mozilla/5.0 (Windows NT 10.0; Win64; x64) AppleWebKit/537.36 (KHTML, like Gecko) Chrome/126.0.0.0 Safari/537.36","WebKit","Chrome","126.0.0.0","Windows","10.0","https://app.prolific.com/","en-US,en;q=0.9","664e413a5f3eb7f99d90e15b","683db6dfa200031b80f2a654","686507765aebf360ba7bf447","664e413a5f3eb7f99d90e15b","","","","","","","","","","","","","","","","","win-only","2","g1:SE,g2:NW","1","0","1","1284480","5979.2","9981.6","24571.9","2","4","4","6","1","-2","-3","0","0","0","2856.5","4000","-2675","[""down"",""right""]","{""num_key_presses"":4,""num_perfect"":3,""num_errors"":1,""num_randdir"":0,""num_randdir_good_moves"":0,""num_whilered"":0,""num_whileblue"":0,""num_blue"":0,""num_good_moves"":3}","[290.22232142857143,298.12857142857143,0.3,290.22232142857143,298.12857142857143,101.8,290.22232142857143,298.12857142857143,201.8,290.22232142857143,298.12857142857143,302,290.22232142857143,298.12857142857143,402.9,290.22232142857143,298.12857142857143,507.3,290.22232142857143,298.12857142857143,611.4,290.22232142857143,298.12857142857143,712,290.22232142857143,298.12857142857143,816.8,290.22232142857143,299.12857142857143,924.4,290.22232142857143,301.12857142857143,1027.2,308.22232142857143,309.12857142857143,1132.7,325.22232142857143,314.12857142857143,1236.9,336.22232142857143,319.12857142857143,1341.8,343.22232142857143,326.12857142857143,1446.3,349.22232142857143,335.12857142857143,1551.6,353.22232142857143,341.12857142857143,1652.7,357.22232142857143,347.12857142857143,1757.3,371.22232142857143,368.12857142857143,1857.5,504.22232142857143,482.12857142857143,1961.3,508.22232142857143,484.12857142857143,2062.8,508.22232142857143,484.12857142857143,2167.1,508.22232142857143,484.12857142857143,2273.6,541.2223214285714,541.1285714285714,2375,560.2223214285714,569.1285714285714,2477.7,563.2223214285714,573.1285714285714,2582.7,563.2223214285714,573.1285714285714,2683,563.2223214285714,573.1285714285714,2783.1,563.2223214285714,573.1285714285714,2888.6,563.2223214285714,573.1285714285714,2989.5,563.2223214285714,573.1285714285714,3091.8,563.2223214285714,573.1285714285714,3192.7,563.2223214285714,573.1285714285714,3296.4,563.2223214285714,573.1285714285714,3397.1,563.2223214285714,573.1285714285714,3502.5,563.2223214285714,573.1285714285714,3607.3,563.2223214285714,573.1285714285714,3712.7,563.2223214285714,573.1285714285714,3816.7,563.2223214285714,573.1285714285714,3916.9]","[3277.5,3277.4,1000,0.1,2277.4,""smooth"",""down"",""down"",""good_move"",3632.8,354.7,2681.1,3278.2,-2326.5,""error"",""-"",""-"",""no_move"",8394.5,4761.5,2777.4,4634.2,982.9,""smooth"",""down"",""down"",""good_move"",11292.2,2897.6,2177.6,8394.6,720.1,""smooth"",""right"",""right"",""good_move""]","",""
"35897","","","","instructions","22","1334530","0.0-8.0-2.0","128","1","2025-07-02 10:20:13","80fe4187154257d5fb01684ea91b68b9","154.159.238.41","Mozilla/5.0 (Windows NT 10.0; Win64; x64) AppleWebKit/537.36 (KHTML, like Gecko) Chrome/126.0.0.0 Safari/537.36","WebKit","Chrome","126.0.0.0","Windows","10.0","https://app.prolific.com/","en-US,en;q=0.9","664e413a5f3eb7f99d90e15b","683db6dfa200031b80f2a654","686507765aebf360ba7bf447","664e413a5f3eb7f99d90e15b","","[{""page_index"":0,""viewing_time"":35897}]","","","","","","","","","","","","","","","","","","","","","","","","","","","","","","","","","","","","","","","","","","",""
"","","","","ctl-task-cpt","23","1386350","0.0-8.0-3.0","128","1","2025-07-02 10:20:13","80fe4187154257d5fb01684ea91b68b9","154.159.238.41","Mozilla/5.0 (Windows NT 10.0; Win64; x64) AppleWebKit/537.36 (KHTML, like Gecko) Chrome/126.0.0.0 Safari/537.36","WebKit","Chrome","126.0.0.0","Windows","10.0","https://app.prolific.com/","en-US,en;q=0.9","664e413a5f3eb7f99d90e15b","683db6dfa200031b80f2a654","686507765aebf360ba7bf447","664e413a5f3eb7f99d90e15b","","","","","","","","","","","","","","","","","win-only","2","g1:SE,g2:NW","0.35","0","3","1347966.3","2102.5","6108.4","48806.5","2","4","8","6","2","-8","-10","0","0","0","3555.2","4000","-2685","[""left"",""up""]","{""num_key_presses"":10,""num_perfect"":3,""num_errors"":2,""num_randdir"":5,""num_randdir_good_moves"":1,""num_whilered"":0,""num_whileblue"":0,""num_blue"":4,""num_good_moves"":4}","[297.22232142857143,298.12857142857143,0.2,297.22232142857143,298.12857142857143,109.5,297.22232142857143,298.12857142857143,214,297.22232142857143,298.12857142857143,314.8,297.22232142857143,298.12857142857143,418.7,297.22232142857143,298.12857142857143,525.2,297.22232142857143,298.12857142857143,627.5,297.22232142857143,298.12857142857143,727.6,297.22232142857143,298.12857142857143,828.2,297.22232142857143,298.12857142857143,928.4,297.22232142857143,298.12857142857143,1033.8,297.22232142857143,298.12857142857143,1141.6,297.22232142857143,298.12857142857143,1243.5,297.22232142857143,298.12857142857143,1344.2,297.22232142857143,298.12857142857143,1448.5,297.22232142857143,298.12857142857143,1553.6,297.22232142857143,298.12857142857143,1657.3,297.22232142857143,298.12857142857143,1758,297.22232142857143,298.12857142857143,1858.6,297.22232142857143,298.12857142857143,1958.9,297.22232142857143,298.12857142857143,2058.9,297.22232142857143,298.12857142857143,2163.6,297.22232142857143,298.12857142857143,2263.6,45.222321428571426,97.12857142857143,2374.1,34.222321428571426,86.12857142857143,2478.2,32.222321428571426,83.12857142857143,2578.6,51.222321428571426,-33.871428571428574,2679.5,52.222321428571426,-40.871428571428574,2783.3,52.222321428571426,-40.871428571428574,2883.3,53.222321428571426,-39.871428571428574,2991.9,53.222321428571426,-3.8714285714285737,3092.6,50.222321428571426,28.128571428571426,3193.8,49.222321428571426,38.128571428571426,3298.2,49.222321428571426,38.128571428571426,3398.7,49.222321428571426,39.128571428571426,3508.1,49.222321428571426,39.128571428571426,3613.8,49.222321428571426,39.128571428571426,3723.1,49.222321428571426,39.128571428571426,3823.5,49.222321428571426,39.128571428571426,3924.4]","[1547.7,1547.6,1000,0.1,547.6,""smooth"",""left"",""left"",""good_move"",4436.1,2887,2316.2,1549.3,570.6,""oops"",""left"",""down"",""bad_move"",11172.2,6735.6,2226.2,8462.5,483.5,""smooth"",""left"",""left"",""good_move"",14407,3234.6,2496.3,11172.4,738.3,""smooth"",""left"",""left"",""good_move"",21129.9,6722.6,2904.2,17887.9,337.8,""oops"",""up"",""down"",""bad_move"",24524.5,3394.2,3013.5,21130.3,380.7,""oops"",""up"",""right"",""bad_move"",32369.8,7844.9,2929,32042.7,-2601.9,""error"",""-"",""-"",""no_move"",33807.5,1437.3,3197.9,33372.7,-2763.1,""error"",""-"",""-"",""no_move"",37067.6,3259.8,1759.8,34807.9,499.9,""oops"",""left"",""left"",""good_move"",40149.4,3081.5,2525.4,37067.9,556.1,""oops"",""up"",""right"",""bad_move""]","",""
"49439","","","","instructions","24","1435791","0.0-8.0-4.0","128","1","2025-07-02 10:20:13","80fe4187154257d5fb01684ea91b68b9","154.159.238.41","Mozilla/5.0 (Windows NT 10.0; Win64; x64) AppleWebKit/537.36 (KHTML, like Gecko) Chrome/126.0.0.0 Safari/537.36","WebKit","Chrome","126.0.0.0","Windows","10.0","https://app.prolific.com/","en-US,en;q=0.9","664e413a5f3eb7f99d90e15b","683db6dfa200031b80f2a654","686507765aebf360ba7bf447","664e413a5f3eb7f99d90e15b","","[{""page_index"":0,""viewing_time"":2666},{""page_index"":1,""viewing_time"":46773}]","","","","","","","","","","","","","","","","","","","","","","","","","","","","","","","","","","","","","","","","","","",""
"29241","","","{""green_ball"":[""Ball always moves in the direction I press"",""Ball sometimes shakes and moves in a random direction""]}","survey-multi-select","25","1465036","0.0-8.0-5.0-0.0","128","1","2025-07-02 10:20:13","80fe4187154257d5fb01684ea91b68b9","154.159.238.41","Mozilla/5.0 (Windows NT 10.0; Win64; x64) AppleWebKit/537.36 (KHTML, like Gecko) Chrome/126.0.0.0 Safari/537.36","WebKit","Chrome","126.0.0.0","Windows","10.0","https://app.prolific.com/","en-US,en;q=0.9","664e413a5f3eb7f99d90e15b","683db6dfa200031b80f2a654","686507765aebf360ba7bf447","664e413a5f3eb7f99d90e15b","","","[0]","","","","quiz","","","","","","","","","","","","","","","","","","","","","","","","","","","","","","","","","","","","","false",""
"10022","","<p align='center'><b>INCORRECT.</b> Usually the green ball moves in the indicated direction, but sometimes it shakes and moves randomly. </p>","0","html-button-response","26","1475063","0.0-8.0-5.0-1.0","128","1","2025-07-02 10:20:13","80fe4187154257d5fb01684ea91b68b9","154.159.238.41","Mozilla/5.0 (Windows NT 10.0; Win64; x64) AppleWebKit/537.36 (KHTML, like Gecko) Chrome/126.0.0.0 Safari/537.36","WebKit","Chrome","126.0.0.0","Windows","10.0","https://app.prolific.com/","en-US,en;q=0.9","664e413a5f3eb7f99d90e15b","683db6dfa200031b80f2a654","686507765aebf360ba7bf447","664e413a5f3eb7f99d90e15b","","","","","","","","","","","","","","","","","","","","","","","","","","","","","","","","","","","","","","","","","","","","",""
"12878","","","{""green_ball"":[""Ball sometimes shakes and moves in a random direction""]}","survey-multi-select","27","1487945","0.0-8.0-5.1-0.1","128","1","2025-07-02 10:20:13","80fe4187154257d5fb01684ea91b68b9","154.159.238.41","Mozilla/5.0 (Windows NT 10.0; Win64; x64) AppleWebKit/537.36 (KHTML, like Gecko) Chrome/126.0.0.0 Safari/537.36","WebKit","Chrome","126.0.0.0","Windows","10.0","https://app.prolific.com/","en-US,en;q=0.9","664e413a5f3eb7f99d90e15b","683db6dfa200031b80f2a654","686507765aebf360ba7bf447","664e413a5f3eb7f99d90e15b","","","[0]","","","","quiz","","","","","","","","","","","","","","","","","","","","","","","","","","","","","","","","","","","","","true",""
"5122","","<p align='center'><b>CORRECT!</b> Indeed, the green ball may sometimes shake and move in a random direction.</p>","0","html-button-response","28","1493072","0.0-8.0-5.1-1.1","128","1","2025-07-02 10:20:13","80fe4187154257d5fb01684ea91b68b9","154.159.238.41","Mozilla/5.0 (Windows NT 10.0; Win64; x64) AppleWebKit/537.36 (KHTML, like Gecko) Chrome/126.0.0.0 Safari/537.36","WebKit","Chrome","126.0.0.0","Windows","10.0","https://app.prolific.com/","en-US,en;q=0.9","664e413a5f3eb7f99d90e15b","683db6dfa200031b80f2a654","686507765aebf360ba7bf447","664e413a5f3eb7f99d90e15b","","","","","","","","","","","","","","","","","","","","","","","","","","","","","","","","","","","","","","","","","","","","",""
"18369","","","{""yellow_ball"":[""Ball always shakes and moves in a random direction""]}","survey-multi-select","29","1511442","0.0-8.0-6.0-0.0","128","1","2025-07-02 10:20:13","80fe4187154257d5fb01684ea91b68b9","154.159.238.41","Mozilla/5.0 (Windows NT 10.0; Win64; x64) AppleWebKit/537.36 (KHTML, like Gecko) Chrome/126.0.0.0 Safari/537.36","WebKit","Chrome","126.0.0.0","Windows","10.0","https://app.prolific.com/","en-US,en;q=0.9","664e413a5f3eb7f99d90e15b","683db6dfa200031b80f2a654","686507765aebf360ba7bf447","664e413a5f3eb7f99d90e15b","","","[0]","","","","quiz","","","","","","","","","","","","","","","","","","","","","","","","","","","","","","","","","","","","","false",""
"5573","","<p align='center'><b>INCORRECT.</b> The yellow ball never moves and you reveice a penalty if you press anyways. </p>","0","html-button-response","30","1517021","0.0-8.0-6.0-1.0","128","1","2025-07-02 10:20:13","80fe4187154257d5fb01684ea91b68b9","154.159.238.41","Mozilla/5.0 (Windows NT 10.0; Win64; x64) AppleWebKit/537.36 (KHTML, like Gecko) Chrome/126.0.0.0 Safari/537.36","WebKit","Chrome","126.0.0.0","Windows","10.0","https://app.prolific.com/","en-US,en;q=0.9","664e413a5f3eb7f99d90e15b","683db6dfa200031b80f2a654","686507765aebf360ba7bf447","664e413a5f3eb7f99d90e15b","","","","","","","","","","","","","","","","","","","","","","","","","","","","","","","","","","","","","","","","","","","","",""
"3694","","","{""yellow_ball"":[""Ball doesn‘t move and I get -1 penalty point""]}","survey-multi-select","31","1520719","0.0-8.0-6.1-0.1","128","1","2025-07-02 10:20:13","80fe4187154257d5fb01684ea91b68b9","154.159.238.41","Mozilla/5.0 (Windows NT 10.0; Win64; x64) AppleWebKit/537.36 (KHTML, like Gecko) Chrome/126.0.0.0 Safari/537.36","WebKit","Chrome","126.0.0.0","Windows","10.0","https://app.prolific.com/","en-US,en;q=0.9","664e413a5f3eb7f99d90e15b","683db6dfa200031b80f2a654","686507765aebf360ba7bf447","664e413a5f3eb7f99d90e15b","","","[0]","","","","quiz","","","","","","","","","","","","","","","","","","","","","","","","","","","","","","","","","","","","","true",""
"2483","","<p align='center'><b>CORRECT!</b> Indeed, the yellow ball never moves and you receive a penalty.</p>","0","html-button-response","32","1523207","0.0-8.0-6.1-1.1","128","1","2025-07-02 10:20:13","80fe4187154257d5fb01684ea91b68b9","154.159.238.41","Mozilla/5.0 (Windows NT 10.0; Win64; x64) AppleWebKit/537.36 (KHTML, like Gecko) Chrome/126.0.0.0 Safari/537.36","WebKit","Chrome","126.0.0.0","Windows","10.0","https://app.prolific.com/","en-US,en;q=0.9","664e413a5f3eb7f99d90e15b","683db6dfa200031b80f2a654","686507765aebf360ba7bf447","664e413a5f3eb7f99d90e15b","","","","","","","","","","","","","","","","","","","","","","","","","","","","","","","","","","","","","","","","","","","","",""
"18533","","","{""blue_ball"":[""Ball always shakes and moves in a random direction""]}","survey-multi-select","33","1541747","0.0-8.0-7.0-0.0","128","1","2025-07-02 10:20:13","80fe4187154257d5fb01684ea91b68b9","154.159.238.41","Mozilla/5.0 (Windows NT 10.0; Win64; x64) AppleWebKit/537.36 (KHTML, like Gecko) Chrome/126.0.0.0 Safari/537.36","WebKit","Chrome","126.0.0.0","Windows","10.0","https://app.prolific.com/","en-US,en;q=0.9","664e413a5f3eb7f99d90e15b","683db6dfa200031b80f2a654","686507765aebf360ba7bf447","664e413a5f3eb7f99d90e15b","","","[0]","","","","quiz","","","","","","","","","","","","","","","","","","","","","","","","","","","","","","","","","","","","","true",""
"9005","","<p align='center'><b>CORRECT!</b> Indeed, the blue ball always shakes and moves in a random direction. Also there is a penalty of -1 point.</p>","0","html-button-response","34","1550757","0.0-8.0-7.0-1.0","128","1","2025-07-02 10:20:13","80fe4187154257d5fb01684ea91b68b9","154.159.238.41","Mozilla/5.0 (Windows NT 10.0; Win64; x64) AppleWebKit/537.36 (KHTML, like Gecko) Chrome/126.0.0.0 Safari/537.36","WebKit","Chrome","126.0.0.0","Windows","10.0","https://app.prolific.com/","en-US,en;q=0.9","664e413a5f3eb7f99d90e15b","683db6dfa200031b80f2a654","686507765aebf360ba7bf447","664e413a5f3eb7f99d90e15b","","","","","","","","","","","","","","","","","","","","","","","","","","","","","","","","","","","","","","","","","","","","",""
"34822","","","{""bonus"":[""When I reach 50% of points""]}","survey-multi-select","35","1585584","0.0-8.0-8.0-0.0","128","1","2025-07-02 10:20:13","80fe4187154257d5fb01684ea91b68b9","154.159.238.41","Mozilla/5.0 (Windows NT 10.0; Win64; x64) AppleWebKit/537.36 (KHTML, like Gecko) Chrome/126.0.0.0 Safari/537.36","WebKit","Chrome","126.0.0.0","Windows","10.0","https://app.prolific.com/","en-US,en;q=0.9","664e413a5f3eb7f99d90e15b","683db6dfa200031b80f2a654","686507765aebf360ba7bf447","664e413a5f3eb7f99d90e15b","","","[0]","","","","quiz","","","","","","","","","","","","","","","","","","","","","","","","","","","","","","","","","","","","","true",""
"2865","","<p align='center'><b>CORRECT!</b> Indeed, you receive 2 pounds extra when you reach 50% of points.</p>","0","html-button-response","36","1588453","0.0-8.0-8.0-1.0","128","1","2025-07-02 10:20:13","80fe4187154257d5fb01684ea91b68b9","154.159.238.41","Mozilla/5.0 (Windows NT 10.0; Win64; x64) AppleWebKit/537.36 (KHTML, like Gecko) Chrome/126.0.0.0 Safari/537.36","WebKit","Chrome","126.0.0.0","Windows","10.0","https://app.prolific.com/","en-US,en;q=0.9","664e413a5f3eb7f99d90e15b","683db6dfa200031b80f2a654","686507765aebf360ba7bf447","664e413a5f3eb7f99d90e15b","","","","","","","","","","","","","","","","","","","","","","","","","","","","","","","","","","","","","","","","","","","","",""
"5766","","","","instructions","37","1594221","0.0-8.0-9.0","128","1","2025-07-02 10:20:13","80fe4187154257d5fb01684ea91b68b9","154.159.238.41","Mozilla/5.0 (Windows NT 10.0; Win64; x64) AppleWebKit/537.36 (KHTML, like Gecko) Chrome/126.0.0.0 Safari/537.36","WebKit","Chrome","126.0.0.0","Windows","10.0","https://app.prolific.com/","en-US,en;q=0.9","664e413a5f3eb7f99d90e15b","683db6dfa200031b80f2a654","686507765aebf360ba7bf447","664e413a5f3eb7f99d90e15b","","[{""page_index"":0,""viewing_time"":5766}]","","","","","","","","","","","","","","","","","","","","","","","","","","","","","","","","","","","","","","","","","","",""
"28300","","<p>Before you start with this game please answer the following three questions yourself. </p>
  <p>Through this game, we measure several aspects of your cognitive performance, such as reaction times, multi-tasking capabilities </p>
  <p>and the ability to assess the situation you are in.</p>
  <p></p>
  <p><b>How good do you usually are in such tasks?</b></p>","58","html-slider-response","38","1622525","0.0-9.0-0.0","128","1","2025-07-02 10:20:13","80fe4187154257d5fb01684ea91b68b9","154.159.238.41","Mozilla/5.0 (Windows NT 10.0; Win64; x64) AppleWebKit/537.36 (KHTML, like Gecko) Chrome/126.0.0.0 Safari/537.36","WebKit","Chrome","126.0.0.0","Windows","10.0","https://app.prolific.com/","en-US,en;q=0.9","664e413a5f3eb7f99d90e15b","683db6dfa200031b80f2a654","686507765aebf360ba7bf447","664e413a5f3eb7f99d90e15b","2025-07-02T10:47:25.884Z","","","","","","PreSkillQ","","","","","","","","","","","","","","","","","","","","","","","","","","","","","","","","","","","","","","50"
"11696","","<div style=""width:500px;"">
  <p>How well do you think you will perform in this task compared to other participants?</p>
  </div>","54","html-slider-response","39","1634224","0.0-9.0-1.0","128","1","2025-07-02 10:20:13","80fe4187154257d5fb01684ea91b68b9","154.159.238.41","Mozilla/5.0 (Windows NT 10.0; Win64; x64) AppleWebKit/537.36 (KHTML, like Gecko) Chrome/126.0.0.0 Safari/537.36","WebKit","Chrome","126.0.0.0","Windows","10.0","https://app.prolific.com/","en-US,en;q=0.9","664e413a5f3eb7f99d90e15b","683db6dfa200031b80f2a654","686507765aebf360ba7bf447","664e413a5f3eb7f99d90e15b","2025-07-02T10:47:37.583Z","","","","","","PrePerfQ","","","","","","","","","","","","","","","","","","","","","","","","","","","","","","","","","","","","","","50"
"7572","","<div style=""width:500px;"">
  <p>What best describes how you currently feel?</p>
  </div>","55","html-slider-response","40","1641799","0.0-9.0-2.0","128","1","2025-07-02 10:20:13","80fe4187154257d5fb01684ea91b68b9","154.159.238.41","Mozilla/5.0 (Windows NT 10.0; Win64; x64) AppleWebKit/537.36 (KHTML, like Gecko) Chrome/126.0.0.0 Safari/537.36","WebKit","Chrome","126.0.0.0","Windows","10.0","https://app.prolific.com/","en-US,en;q=0.9","664e413a5f3eb7f99d90e15b","683db6dfa200031b80f2a654","686507765aebf360ba7bf447","664e413a5f3eb7f99d90e15b","2025-07-02T10:47:45.158Z","","","","","","PreMotivationQ","","","","","","","","","","","","","","","","","","","","","","","","","","","","","","","","","","","","","","50"
"","","","","ctl-task-cpt","41","1681414","0.0-10.0-0.0","128","1","2025-07-02 10:20:13","80fe4187154257d5fb01684ea91b68b9","154.159.238.41","Mozilla/5.0 (Windows NT 10.0; Win64; x64) AppleWebKit/537.36 (KHTML, like Gecko) Chrome/126.0.0.0 Safari/537.36","WebKit","Chrome","126.0.0.0","Windows","10.0","https://app.prolific.com/","en-US,en;q=0.9","664e413a5f3eb7f99d90e15b","683db6dfa200031b80f2a654","686507765aebf360ba7bf447","664e413a5f3eb7f99d90e15b","2025-07-02T10:48:24.773Z","","","","","","","","","","","","","","","","win-only","2","g1:SE,g2:NW","1","1","0","1655234","8855","13856.5","36596.2","1","4","4","6","2","4","4","4","0","0.030303030303030304","3163.3","3000","660","[""left"",""up""]","{""num_key_presses"":6,""num_perfect"":6,""num_errors"":0,""num_randdir"":0,""num_randdir_good_moves"":0,""num_whilered"":0,""num_whileblue"":0,""num_blue"":2,""num_good_moves"":6}","[298.22232142857143,288.12857142857143,0.5,298.22232142857143,288.12857142857143,101.8,298.22232142857143,288.12857142857143,205.9,298.22232142857143,288.12857142857143,312.1,298.22232142857143,288.12857142857143,416.9,298.22232142857143,288.12857142857143,517.9,298.22232142857143,288.12857142857143,621.5,298.22232142857143,288.12857142857143,726.1,298.22232142857143,288.12857142857143,826.1,298.22232142857143,288.12857142857143,935.1,298.22232142857143,288.12857142857143,1036.2,298.22232142857143,288.12857142857143,1142,298.22232142857143,288.12857142857143,1250.1,298.22232142857143,288.12857142857143,1352.4,298.22232142857143,288.12857142857143,1456.3,298.22232142857143,288.12857142857143,1564.8,298.22232142857143,288.12857142857143,1666.2,298.22232142857143,288.12857142857143,1766.2,298.22232142857143,288.12857142857143,1866.3,298.22232142857143,288.12857142857143,1966.4,298.22232142857143,288.12857142857143,2071.2,298.22232142857143,288.12857142857143,2171.7,298.22232142857143,288.12857142857143,2272,297.22232142857143,302.12857142857143,2382.5,201.22232142857143,196.12857142857143,2483.2,142.22232142857143,151.12857142857143,2585.8,122.22232142857143,140.12857142857143,2690.9,89.22232142857143,109.12857142857143,2792.5,68.22232142857143,78.12857142857143,2893,68.22232142857143,78.12857142857143,3000,68.22232142857143,80.12857142857143,3101.9,68.22232142857143,78.12857142857143,3205.9,68.22232142857143,78.12857142857143,3311.6,68.22232142857143,78.12857142857143,3411.9,68.22232142857143,78.12857142857143,3515.4,68.22232142857143,78.12857142857143,3616.4,68.22232142857143,78.12857142857143,3720.8,68.22232142857143,78.12857142857143,3830.5,68.22232142857143,78.12857142857143,3930.5,68.22232142857143,78.12857142857143,4031.9,68.22232142857143,78.12857142857143,4136.2,68.22232142857143,78.12857142857143,4236.4,68.22232142857143,78.12857142857143,4346.1,68.22232142857143,78.12857142857143,4451,68.22232142857143,78.12857142857143,4551.8,68.22232142857143,78.12857142857143,4663.5,68.22232142857143,78.12857142857143,4765.9,68.22232142857143,78.12857142857143,4870.6,68.22232142857143,78.12857142857143,4970.7]","[1550,1550,1000,0,550,""smooth"",""left"",""left"",""good_move"",4241.9,2691.5,2134.5,1550.4,557,""smooth"",""left"",""left"",""good_move"",15083.8,10841.6,2690.1,11997.2,396.5,""smooth"",""left"",""left"",""good_move"",17252.3,2168.2,1761,15084.1,407.2,""smooth"",""up"",""up"",""good_move"",19708.3,2455.6,1979,17252.7,476.6,""smooth"",""up"",""up"",""good_move"",22642.7,2934.1,2520.2,19708.6,413.9,""smooth"",""up"",""up"",""good_move""]","",""
"7385","","<div style=""width:500px;"">
  <p>What determined the result of this run?</p>
  </div>","75","html-slider-response","42","1688800","0.0-10.0-1.0","128","1","2025-07-02 10:20:13","80fe4187154257d5fb01684ea91b68b9","154.159.238.41","Mozilla/5.0 (Windows NT 10.0; Win64; x64) AppleWebKit/537.36 (KHTML, like Gecko) Chrome/126.0.0.0 Safari/537.36","WebKit","Chrome","126.0.0.0","Windows","10.0","https://app.prolific.com/","en-US,en;q=0.9","664e413a5f3eb7f99d90e15b","683db6dfa200031b80f2a654","686507765aebf360ba7bf447","664e413a5f3eb7f99d90e15b","2025-07-02T10:48:32.159Z","","","","","","AttribQ","","","","","","","","","","","","","","","","","","","","","","","","","","","","","","","","","","","","","","50"
"10156","","<div style=""width:500px;"">
  <p>How much control did you have over the ball?</p>
  </div>","89","html-slider-response","43","1698958","0.0-10.0-2.0","128","1","2025-07-02 10:20:13","80fe4187154257d5fb01684ea91b68b9","154.159.238.41","Mozilla/5.0 (Windows NT 10.0; Win64; x64) AppleWebKit/537.36 (KHTML, like Gecko) Chrome/126.0.0.0 Safari/537.36","WebKit","Chrome","126.0.0.0","Windows","10.0","https://app.prolific.com/","en-US,en;q=0.9","664e413a5f3eb7f99d90e15b","683db6dfa200031b80f2a654","686507765aebf360ba7bf447","664e413a5f3eb7f99d90e15b","2025-07-02T10:48:42.317Z","","","","","","ControlQ","","","","","","","","","","","","","","","","","","","","","","","","","","","","","","","","","","","","","","50"
"13379","","<div style=""width:500px;"">
  <p>How would you describe your current emotional state?</p>
  </div>","10","html-slider-response","44","1712340","0.0-10.0-3.0","128","1","2025-07-02 10:20:13","80fe4187154257d5fb01684ea91b68b9","154.159.238.41","Mozilla/5.0 (Windows NT 10.0; Win64; x64) AppleWebKit/537.36 (KHTML, like Gecko) Chrome/126.0.0.0 Safari/537.36","WebKit","Chrome","126.0.0.0","Windows","10.0","https://app.prolific.com/","en-US,en;q=0.9","664e413a5f3eb7f99d90e15b","683db6dfa200031b80f2a654","686507765aebf360ba7bf447","664e413a5f3eb7f99d90e15b","2025-07-02T10:48:55.699Z","","","","","","StressQ","","","","","","","","","","","","","","","","","","","","","","","","","","","","","","","","","","","","","","50"
"7618","","<div style=""width:500px;"">
  <p>What best describes how you currently feel?</p>
  </div>","88","html-slider-response","45","1719963","0.0-10.0-4.0","128","1","2025-07-02 10:20:13","80fe4187154257d5fb01684ea91b68b9","154.159.238.41","Mozilla/5.0 (Windows NT 10.0; Win64; x64) AppleWebKit/537.36 (KHTML, like Gecko) Chrome/126.0.0.0 Safari/537.36","WebKit","Chrome","126.0.0.0","Windows","10.0","https://app.prolific.com/","en-US,en;q=0.9","664e413a5f3eb7f99d90e15b","683db6dfa200031b80f2a654","686507765aebf360ba7bf447","664e413a5f3eb7f99d90e15b","2025-07-02T10:49:03.322Z","","","","","","MotivationQ","","","","","","","","","","","","","","","","","","","","","","","","","","","","","","","","","","","","","","50"
"","","","","ctl-task-cpt","46","1760439","0.0-10.0-0.1","128","1","2025-07-02 10:20:13","80fe4187154257d5fb01684ea91b68b9","154.159.238.41","Mozilla/5.0 (Windows NT 10.0; Win64; x64) AppleWebKit/537.36 (KHTML, like Gecko) Chrome/126.0.0.0 Safari/537.36","WebKit","Chrome","126.0.0.0","Windows","10.0","https://app.prolific.com/","en-US,en;q=0.9","664e413a5f3eb7f99d90e15b","683db6dfa200031b80f2a654","686507765aebf360ba7bf447","664e413a5f3eb7f99d90e15b","2025-07-02T10:49:43.798Z","","","","","","","","","","","","","","","","win-only","1","g1:NE,g2:SW","0.9","2","0","1733401.5","2604.9","7606.6","37448.1","1","4","8","6","2","8","8","12","4","0.09090909090909091","1531.8","3000","410","[""down"",""left""]","{""num_key_presses"":8,""num_perfect"":7,""num_errors"":0,""num_randdir"":1,""num_randdir_good_moves"":0,""num_whilered"":0,""num_whileblue"":0,""num_blue"":2,""num_good_moves"":7}","[294.22232142857143,299.12857142857143,0.6,294.22232142857143,299.12857142857143,103.6,294.22232142857143,299.12857142857143,207.6,294.22232142857143,299.12857142857143,317.7,294.22232142857143,299.12857142857143,419.8,291.22232142857143,303.12857142857143,521.6,174.22232142857143,441.12857142857143,621.7,120.22232142857143,469.12857142857143,726.8,120.22232142857143,469.12857142857143,830.9,119.22232142857143,475.12857142857143,931.3,92.22232142857143,509.12857142857143,1032.7,75.22232142857143,524.1285714285714,1135.9,75.22232142857143,524.1285714285714,1236.4,75.22232142857143,525.1285714285714,1342.3,75.22232142857143,525.1285714285714,1443.1,75.22232142857143,525.1285714285714,1546.4,75.22232142857143,525.1285714285714,1647.6,75.22232142857143,525.1285714285714,1750.9,75.22232142857143,525.1285714285714,1851.7,75.22232142857143,525.1285714285714,1952.3,75.22232142857143,525.1285714285714,2057.1,75.22232142857143,525.1285714285714,2157.5,75.22232142857143,525.1285714285714,2263.3,75.22232142857143,525.1285714285714,2366.1,75.22232142857143,525.1285714285714,2466.3,75.22232142857143,525.1285714285714,2580.6,75.22232142857143,525.1285714285714,2684.1,75.22232142857143,525.1285714285714,2786.6,75.22232142857143,525.1285714285714,2897.1,75.22232142857143,525.1285714285714,2997.3,75.22232142857143,525.1285714285714,3097.4,75.22232142857143,525.1285714285714,3201.2,75.22232142857143,525.1285714285714,3301.9,75.22232142857143,525.1285714285714,3414.7,75.22232142857143,525.1285714285714,3515.8,75.22232142857143,525.1285714285714,3616.1,75.22232142857143,525.1285714285714,3730.8,75.22232142857143,525.1285714285714,3831.3,75.22232142857143,525.1285714285714,3937.1,75.22232142857143,525.1285714285714,4046.5,75.22232142857143,525.1285714285714,4151,75.22232142857143,525.1285714285714,4251,75.22232142857143,525.1285714285714,4351.2,75.22232142857143,525.1285714285714,4451.2,75.22232142857143,525.1285714285714,4551.4,75.22232142857143,525.1285714285714,4651.5,75.22232142857143,525.1285714285714,4757.3,75.22232142857143,525.1285714285714,4863.8,75.22232142857143,525.1285714285714,4966.4]","[1392.9,1392.9,1000,0,392.9,""smooth"",""down"",""down"",""good_move"",10712.4,9318.8,2245.6,8131.3,335.5,""smooth"",""down"",""down"",""good_move"",13790.6,3077.5,2635.6,10713.1,441.9,""oops"",""down"",""up"",""bad_move"",17157.2,3365.3,2822.3,13791.9,543,""smooth"",""left"",""left"",""good_move"",20894,3734.6,3242.8,17159.4,491.8,""smooth"",""left"",""left"",""good_move"",23754.5,2860.2,2363.1,20894.3,497.1,""smooth"",""left"",""left"",""good_move"",27066.5,3311.7,2971.3,23754.8,340.4,""smooth"",""down"",""down"",""good_move"",29724,2657.2,2290.1,27066.8,367.1,""smooth"",""down"",""down"",""good_move""]","",""
"11954","","<div style=""width:500px;"">
  <p>What determined the result of this run?</p>
  </div>","90","html-slider-response","47","1772394","0.0-10.0-1.1","128","1","2025-07-02 10:20:13","80fe4187154257d5fb01684ea91b68b9","154.159.238.41","Mozilla/5.0 (Windows NT 10.0; Win64; x64) AppleWebKit/537.36 (KHTML, like Gecko) Chrome/126.0.0.0 Safari/537.36","WebKit","Chrome","126.0.0.0","Windows","10.0","https://app.prolific.com/","en-US,en;q=0.9","664e413a5f3eb7f99d90e15b","683db6dfa200031b80f2a654","686507765aebf360ba7bf447","664e413a5f3eb7f99d90e15b","2025-07-02T10:49:55.753Z","","","","","","AttribQ","","","","","","","","","","","","","","","","","","","","","","","","","","","","","","","","","","","","","","50"
"4083","","<div style=""width:500px;"">
  <p>How much control did you have over the ball?</p>
  </div>","91","html-slider-response","48","1776480","0.0-10.0-2.1","128","1","2025-07-02 10:20:13","80fe4187154257d5fb01684ea91b68b9","154.159.238.41","Mozilla/5.0 (Windows NT 10.0; Win64; x64) AppleWebKit/537.36 (KHTML, like Gecko) Chrome/126.0.0.0 Safari/537.36","WebKit","Chrome","126.0.0.0","Windows","10.0","https://app.prolific.com/","en-US,en;q=0.9","664e413a5f3eb7f99d90e15b","683db6dfa200031b80f2a654","686507765aebf360ba7bf447","664e413a5f3eb7f99d90e15b","2025-07-02T10:49:59.839Z","","","","","","ControlQ","","","","","","","","","","","","","","","","","","","","","","","","","","","","","","","","","","","","","","50"
"6205","","<div style=""width:500px;"">
  <p>How would you describe your current emotional state?</p>
  </div>","7","html-slider-response","49","1782687","0.0-10.0-3.1","128","1","2025-07-02 10:20:13","80fe4187154257d5fb01684ea91b68b9","154.159.238.41","Mozilla/5.0 (Windows NT 10.0; Win64; x64) AppleWebKit/537.36 (KHTML, like Gecko) Chrome/126.0.0.0 Safari/537.36","WebKit","Chrome","126.0.0.0","Windows","10.0","https://app.prolific.com/","en-US,en;q=0.9","664e413a5f3eb7f99d90e15b","683db6dfa200031b80f2a654","686507765aebf360ba7bf447","664e413a5f3eb7f99d90e15b","2025-07-02T10:50:06.046Z","","","","","","StressQ","","","","","","","","","","","","","","","","","","","","","","","","","","","","","","","","","","","","","","50"
"6287","","<div style=""width:500px;"">
  <p>What best describes how you currently feel?</p>
  </div>","96","html-slider-response","50","1788978","0.0-10.0-4.1","128","1","2025-07-02 10:20:13","80fe4187154257d5fb01684ea91b68b9","154.159.238.41","Mozilla/5.0 (Windows NT 10.0; Win64; x64) AppleWebKit/537.36 (KHTML, like Gecko) Chrome/126.0.0.0 Safari/537.36","WebKit","Chrome","126.0.0.0","Windows","10.0","https://app.prolific.com/","en-US,en;q=0.9","664e413a5f3eb7f99d90e15b","683db6dfa200031b80f2a654","686507765aebf360ba7bf447","664e413a5f3eb7f99d90e15b","2025-07-02T10:50:12.337Z","","","","","","MotivationQ","","","","","","","","","","","","","","","","","","","","","","","","","","","","","","","","","","","","","","50"
"","","","","ctl-task-cpt","51","1823788","0.0-10.0-0.2","128","1","2025-07-02 10:20:13","80fe4187154257d5fb01684ea91b68b9","154.159.238.41","Mozilla/5.0 (Windows NT 10.0; Win64; x64) AppleWebKit/537.36 (KHTML, like Gecko) Chrome/126.0.0.0 Safari/537.36","WebKit","Chrome","126.0.0.0","Windows","10.0","https://app.prolific.com/","en-US,en;q=0.9","664e413a5f3eb7f99d90e15b","683db6dfa200031b80f2a654","686507765aebf360ba7bf447","664e413a5f3eb7f99d90e15b","2025-07-02T10:50:47.147Z","","","","","","","","","","","","","","","","win-only","3","g1:SW,g2:NE","0.8","3","0","1802413.5","3396.4","8400.8","31780.6","1","4","4","6","2","-4","-4","8","12","0.06060606060606061","1659.5","3000","-2460","[""up"",""right""]","{""num_key_presses"":8,""num_perfect"":6,""num_errors"":0,""num_randdir"":2,""num_randdir_good_moves"":0,""num_whilered"":0,""num_whileblue"":0,""num_blue"":0,""num_good_moves"":6}","[295.22232142857143,300.12857142857143,0.4,295.22232142857143,300.12857142857143,106.1,295.22232142857143,300.12857142857143,209.1,295.22232142857143,300.12857142857143,310.6,296.22232142857143,297.12857142857143,415.1,322.22232142857143,279.12857142857143,516.3,322.22232142857143,325.12857142857143,618.9,248.22232142857143,433.12857142857143,726.4,241.22232142857143,436.12857142857143,829.7,439.22232142857143,97.12857142857143,933.8,497.22232142857143,42.128571428571426,1042.2,497.22232142857143,42.128571428571426,1145,497.22232142857143,42.128571428571426,1254.4,519.2223214285714,40.128571428571426,1357.4,527.2223214285714,41.128571428571426,1460.1,527.2223214285714,41.128571428571426,1564.2,527.2223214285714,41.128571428571426,1664.2,527.2223214285714,41.128571428571426,1764.3,527.2223214285714,41.128571428571426,1864.6,527.2223214285714,41.128571428571426,1966.2,527.2223214285714,41.128571428571426,2070.5,527.2223214285714,41.128571428571426,2174,527.2223214285714,41.128571428571426,2274,527.2223214285714,41.128571428571426,2374.7,527.2223214285714,41.128571428571426,2482.5,527.2223214285714,41.128571428571426,2587.1,527.2223214285714,41.128571428571426,2690.6,527.2223214285714,41.128571428571426,2790.8,527.2223214285714,41.128571428571426,2894.2,527.2223214285714,41.128571428571426,2995.1,527.2223214285714,41.128571428571426,3104.3,527.2223214285714,41.128571428571426,3204.4,527.2223214285714,41.128571428571426,3304.4,527.2223214285714,41.128571428571426,3409.2,527.2223214285714,41.128571428571426,3514.5,527.2223214285714,41.128571428571426,3619.9,527.2223214285714,41.128571428571426,3719.9,527.2223214285714,41.128571428571426,3825.2,527.2223214285714,41.128571428571426,3929.2,527.2223214285714,41.128571428571426,4030.1,527.2223214285714,41.128571428571426,4131.5,527.2223214285714,41.128571428571426,4240.8,527.2223214285714,41.128571428571426,4344.6,527.2223214285714,41.128571428571426,4455.1,527.2223214285714,41.128571428571426,4558,527.2223214285714,41.128571428571426,4659.6,527.2223214285714,41.128571428571426,4759.7,527.2223214285714,41.128571428571426,4871.7,527.2223214285714,41.128571428571426,4975.4]","[1466,1466,1000,0,466,""smooth"",""up"",""up"",""good_move"",4185.3,2718.2,2375.1,1467.1,343.1,""smooth"",""up"",""up"",""good_move"",7308.1,3122.5,2779.9,4185.6,342.6,""smooth"",""up"",""up"",""good_move"",9587.1,2278.7,1950.8,7308.5,327.9,""oops"",""right"",""down"",""bad_move"",12487.6,2900.1,1841.4,9587.5,1058.7,""smooth"",""right"",""right"",""good_move"",15132.3,2644.3,2321.1,12488,323.2,""smooth"",""right"",""right"",""good_move"",17626.7,2494.2,2106.7,15132.5,387.5,""oops"",""right"",""left"",""bad_move"",20198.5,2571.4,2249.4,17627.2,322,""smooth"",""right"",""right"",""good_move""]","",""
"6111","","<div style=""width:500px;"">
  <p>What determined the result of this run?</p>
  </div>","76","html-slider-response","52","1829902","0.0-10.0-1.2","128","1","2025-07-02 10:20:13","80fe4187154257d5fb01684ea91b68b9","154.159.238.41","Mozilla/5.0 (Windows NT 10.0; Win64; x64) AppleWebKit/537.36 (KHTML, like Gecko) Chrome/126.0.0.0 Safari/537.36","WebKit","Chrome","126.0.0.0","Windows","10.0","https://app.prolific.com/","en-US,en;q=0.9","664e413a5f3eb7f99d90e15b","683db6dfa200031b80f2a654","686507765aebf360ba7bf447","664e413a5f3eb7f99d90e15b","2025-07-02T10:50:53.261Z","","","","","","AttribQ","","","","","","","","","","","","","","","","","","","","","","","","","","","","","","","","","","","","","","50"
"3851","","<div style=""width:500px;"">
  <p>How much control did you have over the ball?</p>
  </div>","87","html-slider-response","53","1833755","0.0-10.0-2.2","128","1","2025-07-02 10:20:13","80fe4187154257d5fb01684ea91b68b9","154.159.238.41","Mozilla/5.0 (Windows NT 10.0; Win64; x64) AppleWebKit/537.36 (KHTML, like Gecko) Chrome/126.0.0.0 Safari/537.36","WebKit","Chrome","126.0.0.0","Windows","10.0","https://app.prolific.com/","en-US,en;q=0.9","664e413a5f3eb7f99d90e15b","683db6dfa200031b80f2a654","686507765aebf360ba7bf447","664e413a5f3eb7f99d90e15b","2025-07-02T10:50:57.117Z","","","","","","ControlQ","","","","","","","","","","","","","","","","","","","","","","","","","","","","","","","","","","","","","","50"
"4202","","<div style=""width:500px;"">
  <p>How would you describe your current emotional state?</p>
  </div>","11","html-slider-response","54","1837963","0.0-10.0-3.2","128","1","2025-07-02 10:20:13","80fe4187154257d5fb01684ea91b68b9","154.159.238.41","Mozilla/5.0 (Windows NT 10.0; Win64; x64) AppleWebKit/537.36 (KHTML, like Gecko) Chrome/126.0.0.0 Safari/537.36","WebKit","Chrome","126.0.0.0","Windows","10.0","https://app.prolific.com/","en-US,en;q=0.9","664e413a5f3eb7f99d90e15b","683db6dfa200031b80f2a654","686507765aebf360ba7bf447","664e413a5f3eb7f99d90e15b","2025-07-02T10:51:01.322Z","","","","","","StressQ","","","","","","","","","","","","","","","","","","","","","","","","","","","","","","","","","","","","","","50"
"4664","","<div style=""width:500px;"">
  <p>What best describes how you currently feel?</p>
  </div>","94","html-slider-response","55","1842630","0.0-10.0-4.2","128","1","2025-07-02 10:20:13","80fe4187154257d5fb01684ea91b68b9","154.159.238.41","Mozilla/5.0 (Windows NT 10.0; Win64; x64) AppleWebKit/537.36 (KHTML, like Gecko) Chrome/126.0.0.0 Safari/537.36","WebKit","Chrome","126.0.0.0","Windows","10.0","https://app.prolific.com/","en-US,en;q=0.9","664e413a5f3eb7f99d90e15b","683db6dfa200031b80f2a654","686507765aebf360ba7bf447","664e413a5f3eb7f99d90e15b","2025-07-02T10:51:05.990Z","","","","","","MotivationQ","","","","","","","","","","","","","","","","","","","","","","","","","","","","","","","","","","","","","","50"
"","","","","ctl-task-cpt","56","1874690","0.0-10.0-0.3","128","1","2025-07-02 10:20:13","80fe4187154257d5fb01684ea91b68b9","154.159.238.41","Mozilla/5.0 (Windows NT 10.0; Win64; x64) AppleWebKit/537.36 (KHTML, like Gecko) Chrome/126.0.0.0 Safari/537.36","WebKit","Chrome","126.0.0.0","Windows","10.0","https://app.prolific.com/","en-US,en;q=0.9","664e413a5f3eb7f99d90e15b","683db6dfa200031b80f2a654","686507765aebf360ba7bf447","664e413a5f3eb7f99d90e15b","2025-07-02T10:51:38.049Z","","","","","","","","","","","","","","","","win-only","0","g1:NW,g2:SE","0.7","4","0","1856067.3","2106.8","7109.5","29046.1","1","4","8","6","2","8","8","16","8","0.12121212121212122","1431.7","3000","650","[""down"",""right""]","{""num_key_presses"":8,""num_perfect"":6,""num_errors"":0,""num_randdir"":2,""num_randdir_good_moves"":1,""num_whilered"":0,""num_whileblue"":0,""num_blue"":0,""num_good_moves"":7}","[295.22232142857143,298.12857142857143,0.4,295.22232142857143,298.12857142857143,105,295.22232142857143,298.12857142857143,205.7,295.22232142857143,298.12857142857143,308.8,295.22232142857143,298.12857142857143,410,294.22232142857143,299.12857142857143,510.6,290.22232142857143,315.12857142857143,614.7,534.2223214285714,524.1285714285714,729.2,534.2223214285714,524.1285714285714,832.5,534.2223214285714,524.1285714285714,944.8,534.2223214285714,526.1285714285714,1049.3,544.2223214285714,541.1285714285714,1162.3,545.2223214285714,542.1285714285714,1264.5,545.2223214285714,542.1285714285714,1369.4,545.2223214285714,542.1285714285714,1470.4,545.2223214285714,542.1285714285714,1571.4,545.2223214285714,542.1285714285714,1674.7,545.2223214285714,542.1285714285714,1780,545.2223214285714,542.1285714285714,1897.6,545.2223214285714,542.1285714285714,1999.4,545.2223214285714,542.1285714285714,2105.5,545.2223214285714,542.1285714285714,2210,545.2223214285714,542.1285714285714,2311.9,545.2223214285714,542.1285714285714,2414.5,545.2223214285714,542.1285714285714,2525.3,545.2223214285714,542.1285714285714,2626,545.2223214285714,542.1285714285714,2732.4,545.2223214285714,542.1285714285714,2835.1,545.2223214285714,542.1285714285714,2935.4,545.2223214285714,542.1285714285714,3040.7,545.2223214285714,542.1285714285714,3144.1,545.2223214285714,542.1285714285714,3259.1,545.2223214285714,542.1285714285714,3359.5,545.2223214285714,542.1285714285714,3462.2,545.2223214285714,542.1285714285714,3563.7,545.2223214285714,542.1285714285714,3669.1,545.2223214285714,542.1285714285714,3769.7,545.2223214285714,542.1285714285714,3874.3,545.2223214285714,542.1285714285714,3978.7,545.2223214285714,542.1285714285714,4079,545.2223214285714,542.1285714285714,4193.6,545.2223214285714,542.1285714285714,4295.6,545.2223214285714,542.1285714285714,4399.6,545.2223214285714,542.1285714285714,4499.6,545.2223214285714,542.1285714285714,4616.4,545.2223214285714,542.1285714285714,4719.2,545.2223214285714,542.1285714285714,4827.2,545.2223214285714,542.1285714285714,4929.1]","[1370.6,1370.6,1000,0,370.6,""smooth"",""right"",""right"",""good_move"",4377.5,3006.5,2607.8,1371.1,398.6,""oops"",""right"",""left"",""bad_move"",6813.4,2435,1973.1,4378.4,461.9,""oops"",""down"",""right"",""good_move"",9665.8,2851.6,2478.8,6814.2,372.8,""smooth"",""down"",""down"",""good_move"",13425.7,3759.3,3290.3,9666.4,469,""smooth"",""down"",""down"",""good_move"",15863,2437.1,1866,13425.9,571.1,""smooth"",""right"",""right"",""good_move"",18309.4,2445.1,2037.7,15864.3,407.4,""smooth"",""right"",""right"",""good_move"",21817.8,3508.2,3107.4,18309.7,400.7,""smooth"",""down"",""down"",""good_move""]","",""
"6894","","<div style=""width:500px;"">
  <p>What determined the result of this run?</p>
  </div>","99","html-slider-response","57","1881586","0.0-10.0-1.3","128","1","2025-07-02 10:20:13","80fe4187154257d5fb01684ea91b68b9","154.159.238.41","Mozilla/5.0 (Windows NT 10.0; Win64; x64) AppleWebKit/537.36 (KHTML, like Gecko) Chrome/126.0.0.0 Safari/537.36","WebKit","Chrome","126.0.0.0","Windows","10.0","https://app.prolific.com/","en-US,en;q=0.9","664e413a5f3eb7f99d90e15b","683db6dfa200031b80f2a654","686507765aebf360ba7bf447","664e413a5f3eb7f99d90e15b","2025-07-02T10:51:44.946Z","","","","","","AttribQ","","","","","","","","","","","","","","","","","","","","","","","","","","","","","","","","","","","","","","50"
"3268","","<div style=""width:500px;"">
  <p>How much control did you have over the ball?</p>
  </div>","97","html-slider-response","58","1884858","0.0-10.0-2.3","128","1","2025-07-02 10:20:13","80fe4187154257d5fb01684ea91b68b9","154.159.238.41","Mozilla/5.0 (Windows NT 10.0; Win64; x64) AppleWebKit/537.36 (KHTML, like Gecko) Chrome/126.0.0.0 Safari/537.36","WebKit","Chrome","126.0.0.0","Windows","10.0","https://app.prolific.com/","en-US,en;q=0.9","664e413a5f3eb7f99d90e15b","683db6dfa200031b80f2a654","686507765aebf360ba7bf447","664e413a5f3eb7f99d90e15b","2025-07-02T10:51:48.217Z","","","","","","ControlQ","","","","","","","","","","","","","","","","","","","","","","","","","","","","","","","","","","","","","","50"
"4384","","<div style=""width:500px;"">
  <p>How would you describe your current emotional state?</p>
  </div>","2","html-slider-response","59","1889246","0.0-10.0-3.3","128","1","2025-07-02 10:20:13","80fe4187154257d5fb01684ea91b68b9","154.159.238.41","Mozilla/5.0 (Windows NT 10.0; Win64; x64) AppleWebKit/537.36 (KHTML, like Gecko) Chrome/126.0.0.0 Safari/537.36","WebKit","Chrome","126.0.0.0","Windows","10.0","https://app.prolific.com/","en-US,en;q=0.9","664e413a5f3eb7f99d90e15b","683db6dfa200031b80f2a654","686507765aebf360ba7bf447","664e413a5f3eb7f99d90e15b","2025-07-02T10:51:52.605Z","","","","","","StressQ","","","","","","","","","","","","","","","","","","","","","","","","","","","","","","","","","","","","","","50"
"5027","","<div style=""width:500px;"">
  <p>What best describes how you currently feel?</p>
  </div>","96","html-slider-response","60","1894275","0.0-10.0-4.3","128","1","2025-07-02 10:20:13","80fe4187154257d5fb01684ea91b68b9","154.159.238.41","Mozilla/5.0 (Windows NT 10.0; Win64; x64) AppleWebKit/537.36 (KHTML, like Gecko) Chrome/126.0.0.0 Safari/537.36","WebKit","Chrome","126.0.0.0","Windows","10.0","https://app.prolific.com/","en-US,en;q=0.9","664e413a5f3eb7f99d90e15b","683db6dfa200031b80f2a654","686507765aebf360ba7bf447","664e413a5f3eb7f99d90e15b","2025-07-02T10:51:57.635Z","","","","","","MotivationQ","","","","","","","","","","","","","","","","","","","","","","","","","","","","","","","","","","","","","","50"
"","","","","ctl-task-cpt","61","1921036","0.0-10.0-0.4","128","1","2025-07-02 10:20:13","80fe4187154257d5fb01684ea91b68b9","154.159.238.41","Mozilla/5.0 (Windows NT 10.0; Win64; x64) AppleWebKit/537.36 (KHTML, like Gecko) Chrome/126.0.0.0 Safari/537.36","WebKit","Chrome","126.0.0.0","Windows","10.0","https://app.prolific.com/","en-US,en;q=0.9","664e413a5f3eb7f99d90e15b","683db6dfa200031b80f2a654","686507765aebf360ba7bf447","664e413a5f3eb7f99d90e15b","2025-07-02T10:52:24.395Z","","","","","","","","","","","","","","","","win-only","3","g1:SW,g2:NE","0.6","5","0","1907714.1","2266.5","7273.5","23722.3","1","4","8","6","2","8","8","24","16","0.18181818181818182","1292.6","3000","1460","[""up"",""right""]","{""num_key_presses"":6,""num_perfect"":5,""num_errors"":0,""num_randdir"":1,""num_randdir_good_moves"":1,""num_whilered"":0,""num_whileblue"":0,""num_blue"":0,""num_good_moves"":6}","[291.22232142857143,293.12857142857143,0.6,291.22232142857143,293.12857142857143,101.5,291.22232142857143,293.12857142857143,205.1,291.22232142857143,293.12857142857143,309.2,296.22232142857143,289.12857142857143,414.6,487.22232142857143,163.12857142857143,522,513.2223214285714,147.12857142857143,624.3,523.2223214285714,132.12857142857143,724.7,531.2223214285714,108.12857142857143,825.1,546.2223214285714,34.128571428571426,925.1,546.2223214285714,34.128571428571426,1026.1,546.2223214285714,34.128571428571426,1140,546.2223214285714,34.128571428571426,1242.5,546.2223214285714,34.128571428571426,1346.7,546.2223214285714,34.128571428571426,1459.1,546.2223214285714,34.128571428571426,1559.9,546.2223214285714,34.128571428571426,1662.1,546.2223214285714,34.128571428571426,1766.4,546.2223214285714,34.128571428571426,1869.1,546.2223214285714,34.128571428571426,1971.7,546.2223214285714,34.128571428571426,2074.2,546.2223214285714,34.128571428571426,2180.9,546.2223214285714,34.128571428571426,2295.1,546.2223214285714,34.128571428571426,2395.7,546.2223214285714,34.128571428571426,2496.7,546.2223214285714,34.128571428571426,2597.1,546.2223214285714,34.128571428571426,2700.6,546.2223214285714,34.128571428571426,2800.8,546.2223214285714,34.128571428571426,2905,546.2223214285714,34.128571428571426,3027.6,546.2223214285714,34.128571428571426,3140.2,546.2223214285714,34.128571428571426,3256.3,546.2223214285714,34.128571428571426,3356.5,546.2223214285714,34.128571428571426,3470.3,546.2223214285714,34.128571428571426,3570.4,546.2223214285714,34.128571428571426,3674.1,546.2223214285714,34.128571428571426,3786.2,546.2223214285714,34.128571428571426,3889.1,546.2223214285714,34.128571428571426,3990.7,546.2223214285714,34.128571428571426,4106.2,546.2223214285714,34.128571428571426,4212,546.2223214285714,34.128571428571426,4312.5,546.2223214285714,34.128571428571426,4415.3,546.2223214285714,34.128571428571426,4516.5,546.2223214285714,34.128571428571426,4621.3,546.2223214285714,34.128571428571426,4730.9,546.2223214285714,34.128571428571426,4831.2,546.2223214285714,34.128571428571426,4932.4]","[1429.5,1429.5,1000,0,429.5,""oops"",""up"",""right"",""good_move"",4254.6,2824.6,2375.4,1430,449.2,""smooth"",""up"",""up"",""good_move"",7784,3528.4,3128.2,4255.6,400.2,""smooth"",""up"",""up"",""good_move"",10762.2,2977.9,2609,7784.3,368.9,""smooth"",""right"",""right"",""good_move"",14027.4,3264.8,2919.9,10762.6,344.9,""smooth"",""right"",""right"",""good_move"",16311.5,2283.4,1952.9,14028.1,330.5,""smooth"",""up"",""up"",""good_move""]","",""
"6136","","<div style=""width:500px;"">
  <p>What determined the result of this run?</p>
  </div>","97","html-slider-response","62","1927174","0.0-10.0-1.4","128","1","2025-07-02 10:20:13","80fe4187154257d5fb01684ea91b68b9","154.159.238.41","Mozilla/5.0 (Windows NT 10.0; Win64; x64) AppleWebKit/537.36 (KHTML, like Gecko) Chrome/126.0.0.0 Safari/537.36","WebKit","Chrome","126.0.0.0","Windows","10.0","https://app.prolific.com/","en-US,en;q=0.9","664e413a5f3eb7f99d90e15b","683db6dfa200031b80f2a654","686507765aebf360ba7bf447","664e413a5f3eb7f99d90e15b","2025-07-02T10:52:30.533Z","","","","","","AttribQ","","","","","","","","","","","","","","","","","","","","","","","","","","","","","","","","","","","","","","50"
"3363","","<div style=""width:500px;"">
  <p>How much control did you have over the ball?</p>
  </div>","98","html-slider-response","63","1930539","0.0-10.0-2.4","128","1","2025-07-02 10:20:13","80fe4187154257d5fb01684ea91b68b9","154.159.238.41","Mozilla/5.0 (Windows NT 10.0; Win64; x64) AppleWebKit/537.36 (KHTML, like Gecko) Chrome/126.0.0.0 Safari/537.36","WebKit","Chrome","126.0.0.0","Windows","10.0","https://app.prolific.com/","en-US,en;q=0.9","664e413a5f3eb7f99d90e15b","683db6dfa200031b80f2a654","686507765aebf360ba7bf447","664e413a5f3eb7f99d90e15b","2025-07-02T10:52:33.899Z","","","","","","ControlQ","","","","","","","","","","","","","","","","","","","","","","","","","","","","","","","","","","","","","","50"
"4623","","<div style=""width:500px;"">
  <p>How would you describe your current emotional state?</p>
  </div>","3","html-slider-response","64","1935168","0.0-10.0-3.4","128","1","2025-07-02 10:20:13","80fe4187154257d5fb01684ea91b68b9","154.159.238.41","Mozilla/5.0 (Windows NT 10.0; Win64; x64) AppleWebKit/537.36 (KHTML, like Gecko) Chrome/126.0.0.0 Safari/537.36","WebKit","Chrome","126.0.0.0","Windows","10.0","https://app.prolific.com/","en-US,en;q=0.9","664e413a5f3eb7f99d90e15b","683db6dfa200031b80f2a654","686507765aebf360ba7bf447","664e413a5f3eb7f99d90e15b","2025-07-02T10:52:38.527Z","","","","","","StressQ","","","","","","","","","","","","","","","","","","","","","","","","","","","","","","","","","","","","","","50"
"4212","","<div style=""width:500px;"">
  <p>What best describes how you currently feel?</p>
  </div>","96","html-slider-response","65","1939383","0.0-10.0-4.4","128","1","2025-07-02 10:20:13","80fe4187154257d5fb01684ea91b68b9","154.159.238.41","Mozilla/5.0 (Windows NT 10.0; Win64; x64) AppleWebKit/537.36 (KHTML, like Gecko) Chrome/126.0.0.0 Safari/537.36","WebKit","Chrome","126.0.0.0","Windows","10.0","https://app.prolific.com/","en-US,en;q=0.9","664e413a5f3eb7f99d90e15b","683db6dfa200031b80f2a654","686507765aebf360ba7bf447","664e413a5f3eb7f99d90e15b","2025-07-02T10:52:42.743Z","","","","","","MotivationQ","","","","","","","","","","","","","","","","","","","","","","","","","","","","","","","","","","","","","","50"
"","","","","ctl-task-cpt","66","1989475","0.0-10.0-0.5","128","1","2025-07-02 10:20:13","80fe4187154257d5fb01684ea91b68b9","154.159.238.41","Mozilla/5.0 (Windows NT 10.0; Win64; x64) AppleWebKit/537.36 (KHTML, like Gecko) Chrome/126.0.0.0 Safari/537.36","WebKit","Chrome","126.0.0.0","Windows","10.0","https://app.prolific.com/","en-US,en;q=0.9","664e413a5f3eb7f99d90e15b","683db6dfa200031b80f2a654","686507765aebf360ba7bf447","664e413a5f3eb7f99d90e15b","2025-07-02T10:53:32.834Z","","","","","","","","","","","","","","","","win-only","2","g1:SE,g2:NW","0.5","6","0","1952818.9","2186.6","7192.4","47080.6","1","4","4","6","2","-4","-5","19","24","0.14393939393939395","1795.9","3000","-2150","[""left"",""up""]","{""num_key_presses"":11,""num_perfect"":5,""num_errors"":1,""num_randdir"":5,""num_randdir_good_moves"":2,""num_whilered"":0,""num_whileblue"":0,""num_blue"":2,""num_good_moves"":7}","[297.22232142857143,291.12857142857143,0.9,297.22232142857143,291.12857142857143,107.4,297.22232142857143,291.12857142857143,229.7,297.22232142857143,291.12857142857143,331.5,297.22232142857143,291.12857142857143,434.6,297.22232142857143,291.12857142857143,540.8,297.22232142857143,291.12857142857143,645.1,297.22232142857143,291.12857142857143,746.4,297.22232142857143,291.12857142857143,850,293.22232142857143,288.12857142857143,954.1,31.222321428571426,28.128571428571426,1054.7,19.222321428571426,14.128571428571426,1162.4,19.222321428571426,14.128571428571426,1267,24.222321428571426,15.128571428571426,1374.6,42.222321428571426,28.128571428571426,1492.9,46.222321428571426,33.128571428571426,1605.8,46.222321428571426,33.128571428571426,1709.9,46.222321428571426,33.128571428571426,1812,46.222321428571426,33.128571428571426,1916.5,46.222321428571426,33.128571428571426,2021.3,46.222321428571426,33.128571428571426,2127.4,46.222321428571426,33.128571428571426,2231.2,46.222321428571426,33.128571428571426,2332.2,46.222321428571426,33.128571428571426,2437,46.222321428571426,33.128571428571426,2545.7,46.222321428571426,33.128571428571426,2655.3,46.222321428571426,33.128571428571426,2760.6,46.222321428571426,33.128571428571426,2863.3,46.222321428571426,33.128571428571426,2965.6,46.222321428571426,33.128571428571426,3070.8,46.222321428571426,33.128571428571426,3176.6,46.222321428571426,33.128571428571426,3277,46.222321428571426,33.128571428571426,3377.4,46.222321428571426,33.128571428571426,3480.4,46.222321428571426,33.128571428571426,3581.3,46.222321428571426,33.128571428571426,3686.2,46.222321428571426,33.128571428571426,3795,46.222321428571426,33.128571428571426,3895.5,46.222321428571426,33.128571428571426,4001.9,46.222321428571426,33.128571428571426,4104.2,46.222321428571426,33.128571428571426,4214.1,46.222321428571426,33.128571428571426,4321.3,46.222321428571426,33.128571428571426,4427,46.222321428571426,33.128571428571426,4527.3,46.222321428571426,33.128571428571426,4634.1,46.222321428571426,33.128571428571426,4736,46.222321428571426,33.128571428571426,4841.5,46.222321428571426,33.128571428571426,4943.5]","[430.9,430.9,1000,0,-569.1,""error"",""-"",""-"",""no_move"",4754,4320,2701.5,1446.3,606.2,""oops"",""up"",""down"",""bad_move"",11265.7,6510.4,2540.1,8167.3,558.3,""smooth"",""left"",""left"",""good_move"",13890.5,2622.3,2230.3,11268.2,392,""smooth"",""up"",""up"",""good_move"",17007.4,3116.5,2710.9,13891,405.5,""smooth"",""up"",""up"",""good_move"",19837.4,2829.2,2344.7,17008.2,484.5,""oops"",""up"",""down"",""bad_move"",23036.1,3197.4,2766.2,19838.7,431.2,""oops"",""left"",""down"",""bad_move"",29073.7,6037.5,2735.1,25928.7,409.9,""smooth"",""left"",""left"",""good_move"",31887.4,2813.3,2251.2,29074.1,562.1,""smooth"",""left"",""left"",""good_move"",34642,2754.2,2333.9,31887.8,420.3,""oops"",""up"",""up"",""good_move"",37308.3,2664.5,2279,34643.8,385.5,""oops"",""up"",""up"",""good_move""]","",""
"3276","","<div style=""width:500px;"">
  <p>What determined the result of this run?</p>
  </div>","95","html-slider-response","67","1992754","0.0-10.0-1.5","128","1","2025-07-02 10:20:13","80fe4187154257d5fb01684ea91b68b9","154.159.238.41","Mozilla/5.0 (Windows NT 10.0; Win64; x64) AppleWebKit/537.36 (KHTML, like Gecko) Chrome/126.0.0.0 Safari/537.36","WebKit","Chrome","126.0.0.0","Windows","10.0","https://app.prolific.com/","en-US,en;q=0.9","664e413a5f3eb7f99d90e15b","683db6dfa200031b80f2a654","686507765aebf360ba7bf447","664e413a5f3eb7f99d90e15b","2025-07-02T10:53:36.113Z","","","","","","AttribQ","","","","","","","","","","","","","","","","","","","","","","","","","","","","","","","","","","","","","","50"
"2454","","<div style=""width:500px;"">
  <p>How much control did you have over the ball?</p>
  </div>","94","html-slider-response","68","1995210","0.0-10.0-2.5","128","1","2025-07-02 10:20:13","80fe4187154257d5fb01684ea91b68b9","154.159.238.41","Mozilla/5.0 (Windows NT 10.0; Win64; x64) AppleWebKit/537.36 (KHTML, like Gecko) Chrome/126.0.0.0 Safari/537.36","WebKit","Chrome","126.0.0.0","Windows","10.0","https://app.prolific.com/","en-US,en;q=0.9","664e413a5f3eb7f99d90e15b","683db6dfa200031b80f2a654","686507765aebf360ba7bf447","664e413a5f3eb7f99d90e15b","2025-07-02T10:53:38.570Z","","","","","","ControlQ","","","","","","","","","","","","","","","","","","","","","","","","","","","","","","","","","","","","","","50"
"6747","","<div style=""width:500px;"">
  <p>How would you describe your current emotional state?</p>
  </div>","4","html-slider-response","69","2001962","0.0-10.0-3.5","128","1","2025-07-02 10:20:13","80fe4187154257d5fb01684ea91b68b9","154.159.238.41","Mozilla/5.0 (Windows NT 10.0; Win64; x64) AppleWebKit/537.36 (KHTML, like Gecko) Chrome/126.0.0.0 Safari/537.36","WebKit","Chrome","126.0.0.0","Windows","10.0","https://app.prolific.com/","en-US,en;q=0.9","664e413a5f3eb7f99d90e15b","683db6dfa200031b80f2a654","686507765aebf360ba7bf447","664e413a5f3eb7f99d90e15b","2025-07-02T10:53:45.322Z","","","","","","StressQ","","","","","","","","","","","","","","","","","","","","","","","","","","","","","","","","","","","","","","50"
"7109","","<div style=""width:500px;"">
  <p>What best describes how you currently feel?</p>
  </div>","100","html-slider-response","70","2009076","0.0-10.0-4.5","128","1","2025-07-02 10:20:13","80fe4187154257d5fb01684ea91b68b9","154.159.238.41","Mozilla/5.0 (Windows NT 10.0; Win64; x64) AppleWebKit/537.36 (KHTML, like Gecko) Chrome/126.0.0.0 Safari/537.36","WebKit","Chrome","126.0.0.0","Windows","10.0","https://app.prolific.com/","en-US,en;q=0.9","664e413a5f3eb7f99d90e15b","683db6dfa200031b80f2a654","686507765aebf360ba7bf447","664e413a5f3eb7f99d90e15b","2025-07-02T10:53:52.436Z","","","","","","MotivationQ","","","","","","","","","","","","","","","","","","","","","","","","","","","","","","","","","","","","","","50"
"","","","","ctl-task-cpt","71","2076326","0.0-10.0-0.6","128","1","2025-07-02 10:20:13","80fe4187154257d5fb01684ea91b68b9","154.159.238.41","Mozilla/5.0 (Windows NT 10.0; Win64; x64) AppleWebKit/537.36 (KHTML, like Gecko) Chrome/126.0.0.0 Safari/537.36","WebKit","Chrome","126.0.0.0","Windows","10.0","https://app.prolific.com/","en-US,en;q=0.9","664e413a5f3eb7f99d90e15b","683db6dfa200031b80f2a654","686507765aebf360ba7bf447","664e413a5f3eb7f99d90e15b","2025-07-02T10:54:59.685Z","","","","","","","","","","","","","","","","win-only","2","g1:SE,g2:NW","0.4","7","0","2022512.8","1869.2","6880","64230.4","1","4","8","6","2","-8","-8","11","19","0.08333333333333333","1710.1","3000","-1890","[""left"",""up""]","{""num_key_presses"":10,""num_perfect"":4,""num_errors"":0,""num_randdir"":6,""num_randdir_good_moves"":3,""num_whilered"":0,""num_whileblue"":0,""num_blue"":7,""num_good_moves"":7}","[298.22232142857143,292.12857142857143,0.5,298.22232142857143,292.12857142857143,103.8,298.22232142857143,292.12857142857143,205.5,298.22232142857143,292.12857142857143,309.2,298.22232142857143,292.12857142857143,413.2,302.22232142857143,305.12857142857143,520.7,308.22232142857143,326.12857142857143,627.7,280.22232142857143,300.12857142857143,728.4,-2.7776785714285737,13.128571428571426,837.3,-10.777678571428574,5.128571428571426,943.4,-10.777678571428574,5.128571428571426,1045.4,-10.777678571428574,5.128571428571426,1149.7,-10.777678571428574,5.128571428571426,1252.2,12.222321428571426,22.128571428571426,1352.5,23.222321428571426,35.128571428571426,1453.3,23.222321428571426,35.128571428571426,1564.3,23.222321428571426,35.128571428571426,1668.4,23.222321428571426,35.128571428571426,1772,23.222321428571426,35.128571428571426,1881.4,23.222321428571426,35.128571428571426,1998.8,23.222321428571426,35.128571428571426,2103.4,23.222321428571426,35.128571428571426,2214.3,23.222321428571426,35.128571428571426,2319,23.222321428571426,35.128571428571426,2419.6,23.222321428571426,35.128571428571426,2527.2,23.222321428571426,35.128571428571426,2634.1,23.222321428571426,35.128571428571426,2735.6,23.222321428571426,35.128571428571426,2837.3,23.222321428571426,35.128571428571426,2941.3,23.222321428571426,35.128571428571426,3042.4,23.222321428571426,35.128571428571426,3148.3,23.222321428571426,35.128571428571426,3252,23.222321428571426,35.128571428571426,3358.6,23.222321428571426,35.128571428571426,3460.4,23.222321428571426,35.128571428571426,3560.4,23.222321428571426,35.128571428571426,3665.1,23.222321428571426,35.128571428571426,3779,23.222321428571426,35.128571428571426,3882.7,23.222321428571426,35.128571428571426,3983.7,23.222321428571426,35.128571428571426,4092.4,23.222321428571426,35.128571428571426,4195.6,23.222321428571426,35.128571428571426,4296.2,23.222321428571426,35.128571428571426,4399.8,23.222321428571426,35.128571428571426,4502.9,23.222321428571426,35.128571428571426,4606.2,23.222321428571426,35.128571428571426,4709.3,23.222321428571426,35.128571428571426,4809.4,23.222321428571426,35.128571428571426,4929.7]","[1490.1,1490.1,1000,0,490.1,""smooth"",""up"",""up"",""good_move"",7731.7,6240,2393.8,4861.8,476.1,""smooth"",""up"",""up"",""good_move"",10685.1,2953,2412.9,7732.1,540.1,""oops"",""up"",""down"",""bad_move"",28743.3,18057.6,2725.5,25578.4,439.4,""oops"",""left"",""down"",""bad_move"",35250,6506.2,2043.1,32774.5,432.5,""oops"",""up"",""up"",""good_move"",38527.7,3276.5,2836.5,35251.2,440,""oops"",""up"",""up"",""good_move"",41571.1,3042.9,2607.6,38528.3,435.2,""smooth"",""up"",""up"",""good_move"",44349.5,2778.3,2411.3,41571.2,367.1,""oops"",""left"",""left"",""good_move"",48066.3,3715.7,3273.7,44350.6,442,""oops"",""left"",""right"",""bad_move"",54843.1,6775.7,2750.6,51723.9,368.6,""smooth"",""left"",""left"",""good_move""]","",""
"3831","","<div style=""width:500px;"">
  <p>What determined the result of this run?</p>
  </div>","91","html-slider-response","72","2080160","0.0-10.0-1.6","128","1","2025-07-02 10:20:13","80fe4187154257d5fb01684ea91b68b9","154.159.238.41","Mozilla/5.0 (Windows NT 10.0; Win64; x64) AppleWebKit/537.36 (KHTML, like Gecko) Chrome/126.0.0.0 Safari/537.36","WebKit","Chrome","126.0.0.0","Windows","10.0","https://app.prolific.com/","en-US,en;q=0.9","664e413a5f3eb7f99d90e15b","683db6dfa200031b80f2a654","686507765aebf360ba7bf447","664e413a5f3eb7f99d90e15b","2025-07-02T10:55:03.519Z","","","","","","AttribQ","","","","","","","","","","","","","","","","","","","","","","","","","","","","","","","","","","","","","","50"
"7025","","<div style=""width:500px;"">
  <p>How much control did you have over the ball?</p>
  </div>","28","html-slider-response","73","2087188","0.0-10.0-2.6","128","1","2025-07-02 10:20:13","80fe4187154257d5fb01684ea91b68b9","154.159.238.41","Mozilla/5.0 (Windows NT 10.0; Win64; x64) AppleWebKit/537.36 (KHTML, like Gecko) Chrome/126.0.0.0 Safari/537.36","WebKit","Chrome","126.0.0.0","Windows","10.0","https://app.prolific.com/","en-US,en;q=0.9","664e413a5f3eb7f99d90e15b","683db6dfa200031b80f2a654","686507765aebf360ba7bf447","664e413a5f3eb7f99d90e15b","2025-07-02T10:55:10.548Z","","","","","","ControlQ","","","","","","","","","","","","","","","","","","","","","","","","","","","","","","","","","","","","","","50"
"21973","","<div style=""width:500px;"">
  <p>How would you describe your current emotional state?</p>
  </div>","4","html-slider-response","74","2109168","0.0-10.0-3.6","128","1","2025-07-02 10:20:13","80fe4187154257d5fb01684ea91b68b9","154.159.238.41","Mozilla/5.0 (Windows NT 10.0; Win64; x64) AppleWebKit/537.36 (KHTML, like Gecko) Chrome/126.0.0.0 Safari/537.36","WebKit","Chrome","126.0.0.0","Windows","10.0","https://app.prolific.com/","en-US,en;q=0.9","664e413a5f3eb7f99d90e15b","683db6dfa200031b80f2a654","686507765aebf360ba7bf447","664e413a5f3eb7f99d90e15b","2025-07-02T10:55:32.527Z","","","","","","StressQ","","","","","","","","","","","","","","","","","","","","","","","","","","","","","","","","","","","","","","50"
"5653","","<div style=""width:500px;"">
  <p>What best describes how you currently feel?</p>
  </div>","95","html-slider-response","75","2114826","0.0-10.0-4.6","128","1","2025-07-02 10:20:13","80fe4187154257d5fb01684ea91b68b9","154.159.238.41","Mozilla/5.0 (Windows NT 10.0; Win64; x64) AppleWebKit/537.36 (KHTML, like Gecko) Chrome/126.0.0.0 Safari/537.36","WebKit","Chrome","126.0.0.0","Windows","10.0","https://app.prolific.com/","en-US,en;q=0.9","664e413a5f3eb7f99d90e15b","683db6dfa200031b80f2a654","686507765aebf360ba7bf447","664e413a5f3eb7f99d90e15b","2025-07-02T10:55:38.186Z","","","","","","MotivationQ","","","","","","","","","","","","","","","","","","","","","","","","","","","","","","","","","","","","","","50"
"","","","","ctl-task-cpt","76","2172562","0.0-10.0-0.7","128","1","2025-07-02 10:20:13","80fe4187154257d5fb01684ea91b68b9","154.159.238.41","Mozilla/5.0 (Windows NT 10.0; Win64; x64) AppleWebKit/537.36 (KHTML, like Gecko) Chrome/126.0.0.0 Safari/537.36","WebKit","Chrome","126.0.0.0","Windows","10.0","https://app.prolific.com/","en-US,en;q=0.9","664e413a5f3eb7f99d90e15b","683db6dfa200031b80f2a654","686507765aebf360ba7bf447","664e413a5f3eb7f99d90e15b","2025-07-02T10:56:35.922Z","","","","","","","","","","","","","","","","win-only","2","g1:SE,g2:NW","0.3","8","0","2128262.6","11844.1","16850.3","54708.9","1","4","4","6","2","-4","-5","6","11","0.045454545454545456","1395.8","3000","-1810","[""left"",""up""]","{""num_key_presses"":11,""num_perfect"":3,""num_errors"":1,""num_randdir"":7,""num_randdir_good_moves"":2,""num_whilered"":0,""num_whileblue"":1,""num_blue"":2,""num_good_moves"":6}","[294.22232142857143,298.12857142857143,1.1,294.22232142857143,298.12857142857143,106,294.22232142857143,298.12857142857143,206.8,294.22232142857143,298.12857142857143,309.7,294.22232142857143,298.12857142857143,427.8,289.22232142857143,289.12857142857143,530.7,127.22232142857143,50.128571428571426,633.8,69.22232142857143,6.128571428571426,734.5,60.222321428571426,3.1285714285714263,847.5,54.222321428571426,12.128571428571426,960.3,51.222321428571426,26.128571428571426,1063.3,51.222321428571426,37.128571428571426,1166.2,51.222321428571426,37.128571428571426,1274.5,51.222321428571426,37.128571428571426,1387.3,51.222321428571426,37.128571428571426,1487.6,51.222321428571426,37.128571428571426,1591.9,51.222321428571426,37.128571428571426,1707.8,51.222321428571426,37.128571428571426,1811.9,51.222321428571426,37.128571428571426,1915.4,51.222321428571426,37.128571428571426,2027.1,51.222321428571426,37.128571428571426,2131.9,51.222321428571426,37.128571428571426,2234.1,51.222321428571426,37.128571428571426,2338.8,51.222321428571426,37.128571428571426,2443.2,51.222321428571426,37.128571428571426,2547.7,51.222321428571426,37.128571428571426,2650,51.222321428571426,37.128571428571426,2751,51.222321428571426,37.128571428571426,2852.2,51.222321428571426,37.128571428571426,2952.9,51.222321428571426,37.128571428571426,3054.4,51.222321428571426,37.128571428571426,3155.2,51.222321428571426,37.128571428571426,3256.9,51.222321428571426,37.128571428571426,3375.1,51.222321428571426,37.128571428571426,3476.3,51.222321428571426,37.128571428571426,3580.2,51.222321428571426,37.128571428571426,3680.4,51.222321428571426,37.128571428571426,3783.2,51.222321428571426,37.128571428571426,3887.2,51.222321428571426,37.128571428571426,3994.7,51.222321428571426,37.128571428571426,4096.4,51.222321428571426,37.128571428571426,4200.4,51.222321428571426,37.128571428571426,4302.8,51.222321428571426,37.128571428571426,4408.8,51.222321428571426,37.128571428571426,4512.1,51.222321428571426,37.128571428571426,4612.4,51.222321428571426,37.128571428571426,4713.3,51.222321428571426,37.128571428571426,4815.4,51.222321428571426,37.128571428571426,4917.2]","[1446.5,1446.5,1000,0,446.5,""smooth"",""up"",""up"",""good_move"",3663.6,2216.6,1815.2,1447,401.4,""smooth"",""up"",""up"",""good_move"",6329,2664.5,2294.2,3664.6,370.2,""smooth"",""left"",""left"",""good_move"",9434.7,3104.4,2680.7,6330.3,423.7,""oops"",""left"",""down"",""bad_move"",12889.3,3452.7,3041.5,9436.6,411.2,""oops"",""up"",""down"",""bad_move"",19602.7,6712.8,2662.9,16436.8,503.1,""oops"",""up"",""left"",""good_move"",22698.5,3095.1,2732.3,19603.5,362.8,""while_blue"",""left"",""left"",""good_move"",25671.4,2972.4,2476.3,22699.1,496,""oops"",""up"",""down"",""bad_move"",28949.1,3277.1,2849.2,25672,427.9,""oops"",""up"",""right"",""bad_move"",32165.5,3216.1,2749.9,28949.4,466.2,""oops"",""up"",""down"",""bad_move"",35228.1,3061.2,2366.9,32167,694.3,""oops"",""left"",""left"",""good_move""]","",""
"6224","","<div style=""width:500px;"">
  <p>What determined the result of this run?</p>
  </div>","92","html-slider-response","77","2178789","0.0-10.0-1.7","128","1","2025-07-02 10:20:13","80fe4187154257d5fb01684ea91b68b9","154.159.238.41","Mozilla/5.0 (Windows NT 10.0; Win64; x64) AppleWebKit/537.36 (KHTML, like Gecko) Chrome/126.0.0.0 Safari/537.36","WebKit","Chrome","126.0.0.0","Windows","10.0","https://app.prolific.com/","en-US,en;q=0.9","664e413a5f3eb7f99d90e15b","683db6dfa200031b80f2a654","686507765aebf360ba7bf447","664e413a5f3eb7f99d90e15b","2025-07-02T10:56:42.149Z","","","","","","AttribQ","","","","","","","","","","","","","","","","","","","","","","","","","","","","","","","","","","","","","","50"
"4241","","<div style=""width:500px;"">
  <p>How much control did you have over the ball?</p>
  </div>","5","html-slider-response","78","2183034","0.0-10.0-2.7","128","1","2025-07-02 10:20:13","80fe4187154257d5fb01684ea91b68b9","154.159.238.41","Mozilla/5.0 (Windows NT 10.0; Win64; x64) AppleWebKit/537.36 (KHTML, like Gecko) Chrome/126.0.0.0 Safari/537.36","WebKit","Chrome","126.0.0.0","Windows","10.0","https://app.prolific.com/","en-US,en;q=0.9","664e413a5f3eb7f99d90e15b","683db6dfa200031b80f2a654","686507765aebf360ba7bf447","664e413a5f3eb7f99d90e15b","2025-07-02T10:56:46.394Z","","","","","","ControlQ","","","","","","","","","","","","","","","","","","","","","","","","","","","","","","","","","","","","","","50"
"4780","","<div style=""width:500px;"">
  <p>How would you describe your current emotional state?</p>
  </div>","5","html-slider-response","79","2187819","0.0-10.0-3.7","128","1","2025-07-02 10:20:13","80fe4187154257d5fb01684ea91b68b9","154.159.238.41","Mozilla/5.0 (Windows NT 10.0; Win64; x64) AppleWebKit/537.36 (KHTML, like Gecko) Chrome/126.0.0.0 Safari/537.36","WebKit","Chrome","126.0.0.0","Windows","10.0","https://app.prolific.com/","en-US,en;q=0.9","664e413a5f3eb7f99d90e15b","683db6dfa200031b80f2a654","686507765aebf360ba7bf447","664e413a5f3eb7f99d90e15b","2025-07-02T10:56:51.178Z","","","","","","StressQ","","","","","","","","","","","","","","","","","","","","","","","","","","","","","","","","","","","","","","50"
"4407","","<div style=""width:500px;"">
  <p>What best describes how you currently feel?</p>
  </div>","98","html-slider-response","80","2192232","0.0-10.0-4.7","128","1","2025-07-02 10:20:13","80fe4187154257d5fb01684ea91b68b9","154.159.238.41","Mozilla/5.0 (Windows NT 10.0; Win64; x64) AppleWebKit/537.36 (KHTML, like Gecko) Chrome/126.0.0.0 Safari/537.36","WebKit","Chrome","126.0.0.0","Windows","10.0","https://app.prolific.com/","en-US,en;q=0.9","664e413a5f3eb7f99d90e15b","683db6dfa200031b80f2a654","686507765aebf360ba7bf447","664e413a5f3eb7f99d90e15b","2025-07-02T10:56:55.591Z","","","","","","MotivationQ","","","","","","","","","","","","","","","","","","","","","","","","","","","","","","","","","","","","","","50"
"","","","","ctl-task-cpt","81","2233807","0.0-10.0-0.8","128","1","2025-07-02 10:20:13","80fe4187154257d5fb01684ea91b68b9","154.159.238.41","Mozilla/5.0 (Windows NT 10.0; Win64; x64) AppleWebKit/537.36 (KHTML, like Gecko) Chrome/126.0.0.0 Safari/537.36","WebKit","Chrome","126.0.0.0","Windows","10.0","https://app.prolific.com/","en-US,en;q=0.9","664e413a5f3eb7f99d90e15b","683db6dfa200031b80f2a654","686507765aebf360ba7bf447","664e413a5f3eb7f99d90e15b","2025-07-02T10:57:37.166Z","","","","","","","","","","","","","","","","win-only","3","g1:SW,g2:NE","0.4","9","0","2205668.8","2282","7285.7","38540.4","1","4","4","6","1","1","1","7","6","0.05303030303030303","2686","3000","1455","[""down"",""left""]","{""num_key_presses"":6,""num_perfect"":2,""num_errors"":0,""num_randdir"":4,""num_randdir_good_moves"":3,""num_whilered"":0,""num_whileblue"":0,""num_blue"":4,""num_good_moves"":5}","[291.22232142857143,291.12857142857143,0.7,291.22232142857143,291.12857142857143,104.8,291.22232142857143,291.12857142857143,210.9,291.22232142857143,291.12857142857143,323.8,291.22232142857143,291.12857142857143,428.2,291.22232142857143,291.12857142857143,529.9,291.22232142857143,291.12857142857143,649.5,291.22232142857143,291.12857142857143,765.8,291.22232142857143,291.12857142857143,869,291.22232142857143,291.12857142857143,970.2,291.22232142857143,291.12857142857143,1075.4,291.22232142857143,291.12857142857143,1178.5,291.22232142857143,291.12857142857143,1279.1,292.22232142857143,291.12857142857143,1385.5,297.22232142857143,289.12857142857143,1506.1,271.22232142857143,334.12857142857143,1608.4,197.22232142857143,412.12857142857143,1708.5,197.22232142857143,412.12857142857143,1816.5,196.22232142857143,414.12857142857143,1924.2,111.22232142857143,542.1285714285714,2029.3,80.22232142857143,561.1285714285714,2135,68.22232142857143,563.1285714285714,2243.8,61.222321428571426,563.1285714285714,2344.6,58.222321428571426,562.1285714285714,2452.6,58.222321428571426,562.1285714285714,2555.6,58.222321428571426,562.1285714285714,2660.4,58.222321428571426,562.1285714285714,2764.3,58.222321428571426,562.1285714285714,2867.8,58.222321428571426,562.1285714285714,2974.7,58.222321428571426,562.1285714285714,3081.2,58.222321428571426,562.1285714285714,3185.2,58.222321428571426,562.1285714285714,3302.8,58.222321428571426,562.1285714285714,3404.4,58.222321428571426,562.1285714285714,3506.1,58.222321428571426,562.1285714285714,3609.5,58.222321428571426,562.1285714285714,3716.1,58.222321428571426,562.1285714285714,3823,58.222321428571426,562.1285714285714,3929.9,58.222321428571426,562.1285714285714,4041.8,58.222321428571426,562.1285714285714,4152.1,58.222321428571426,562.1285714285714,4255.5,58.222321428571426,562.1285714285714,4369.9,58.222321428571426,562.1285714285714,4473.7,58.222321428571426,562.1285714285714,4574.8,58.222321428571426,562.1285714285714,4675.2,58.222321428571426,562.1285714285714,4775.7,58.222321428571426,562.1285714285714,4876.1,58.222321428571426,562.1285714285714,4980.8]","[4769.2,4769.2,2234.4,2001.4,533.4,""oops"",""down"",""right"",""bad_move"",18696.1,13926.1,2302.2,15906.5,487.4,""oops"",""left"",""down"",""good_move"",22259.1,3562.2,3094,18696.9,468.2,""oops"",""down"",""down"",""good_move"",25736.1,3474.5,3038,22261.6,436.5,""smooth"",""left"",""left"",""good_move"",28098.9,2361.9,1877.3,25737.1,484.6,""oops"",""left"",""left"",""good_move"",31072.1,2971.6,2542.4,28100.5,429.2,""smooth"",""left"",""left"",""good_move""]","",""
"4725","","<div style=""width:500px;"">
  <p>What determined the result of this run?</p>
  </div>","100","html-slider-response","82","2238535","0.0-10.0-1.8","128","1","2025-07-02 10:20:13","80fe4187154257d5fb01684ea91b68b9","154.159.238.41","Mozilla/5.0 (Windows NT 10.0; Win64; x64) AppleWebKit/537.36 (KHTML, like Gecko) Chrome/126.0.0.0 Safari/537.36","WebKit","Chrome","126.0.0.0","Windows","10.0","https://app.prolific.com/","en-US,en;q=0.9","664e413a5f3eb7f99d90e15b","683db6dfa200031b80f2a654","686507765aebf360ba7bf447","664e413a5f3eb7f99d90e15b","2025-07-02T10:57:41.895Z","","","","","","AttribQ","","","","","","","","","","","","","","","","","","","","","","","","","","","","","","","","","","","","","","50"
"2721","","<div style=""width:500px;"">
  <p>How much control did you have over the ball?</p>
  </div>","99","html-slider-response","83","2241260","0.0-10.0-2.8","128","1","2025-07-02 10:20:13","80fe4187154257d5fb01684ea91b68b9","154.159.238.41","Mozilla/5.0 (Windows NT 10.0; Win64; x64) AppleWebKit/537.36 (KHTML, like Gecko) Chrome/126.0.0.0 Safari/537.36","WebKit","Chrome","126.0.0.0","Windows","10.0","https://app.prolific.com/","en-US,en;q=0.9","664e413a5f3eb7f99d90e15b","683db6dfa200031b80f2a654","686507765aebf360ba7bf447","664e413a5f3eb7f99d90e15b","2025-07-02T10:57:44.620Z","","","","","","ControlQ","","","","","","","","","","","","","","","","","","","","","","","","","","","","","","","","","","","","","","50"
"2854","","<div style=""width:500px;"">
  <p>How would you describe your current emotional state?</p>
  </div>","96","html-slider-response","84","2244117","0.0-10.0-3.8","128","1","2025-07-02 10:20:13","80fe4187154257d5fb01684ea91b68b9","154.159.238.41","Mozilla/5.0 (Windows NT 10.0; Win64; x64) AppleWebKit/537.36 (KHTML, like Gecko) Chrome/126.0.0.0 Safari/537.36","WebKit","Chrome","126.0.0.0","Windows","10.0","https://app.prolific.com/","en-US,en;q=0.9","664e413a5f3eb7f99d90e15b","683db6dfa200031b80f2a654","686507765aebf360ba7bf447","664e413a5f3eb7f99d90e15b","2025-07-02T10:57:47.476Z","","","","","","StressQ","","","","","","","","","","","","","","","","","","","","","","","","","","","","","","","","","","","","","","50"
"4939","","<div style=""width:500px;"">
  <p>What best describes how you currently feel?</p>
  </div>","100","html-slider-response","85","2249061","0.0-10.0-4.8","128","1","2025-07-02 10:20:13","80fe4187154257d5fb01684ea91b68b9","154.159.238.41","Mozilla/5.0 (Windows NT 10.0; Win64; x64) AppleWebKit/537.36 (KHTML, like Gecko) Chrome/126.0.0.0 Safari/537.36","WebKit","Chrome","126.0.0.0","Windows","10.0","https://app.prolific.com/","en-US,en;q=0.9","664e413a5f3eb7f99d90e15b","683db6dfa200031b80f2a654","686507765aebf360ba7bf447","664e413a5f3eb7f99d90e15b","2025-07-02T10:57:52.420Z","","","","","","MotivationQ","","","","","","","","","","","","","","","","","","","","","","","","","","","","","","","","","","","","","","50"
