"rt","response_timestamp","stimulus","response","trial_type","trial_index","time_elapsed","internal_node_id","run_id","condition","recorded_at","source_code_version","ip","user_agent","device","browser","browser_version","platform","platform_version","referer","accept_language","PROLIFIC_PID","STUDY_ID","SESSION_ID","prolific_id","realtime","view_history","question_order","consent","success","question_id","eventType","responses","item_order","radio_event_ids","radio_event_times","key_event_times","mouse_event_times","straightlining","zigzagging","honeypot","which_type","canvas_config","goals_layout","control_level","trial_number","tutorial_trial_number","trial_start_time","phase1_start_time","phase2_start_time","phase3_start_time","goal_1_value","goal_1_distance","goal_2_value","goal_2_distance","goal_selected","outcome","outcome_total","participant_final_score","participant_initial_score","participant_final_score_prop","goal_choice_rt","allocated_time","allocated_time_remaining","goal_direction","counts","mouse_movements","key_presses"
"8452","1751451551673","<p style='font-size:40px;line-height:1.25'><strong>Welcome to the experiment!</strong></p><p style='font-size:1.1em;line-height:1.25'>Thank you for your interest in our experiment! Before you begin, it is important that we obtain your informed consent to participate in the study.</p><p style='font-size:1.1em;line-height:1.25'>On the next screen will be an <strong>information sheet</strong> for you to read. To participate in the study we need you to read this information sheet and the following consent form carefully. If you agree with all the statements, please click the <strong>I agree</strong> button.</p><p style='font-size:1.1em;line-height:1.25'>Press <strong>Next</strong> to read the information sheet.</p>","0","custom-html-button-response","0","8464","0.0-0.0","73","1","2025-07-02 10:19:02","80fe4187154257d5fb01684ea91b68b9","41.150.34.241","Mozilla/5.0 (X11; Linux x86_64) AppleWebKit/537.36 (KHTML, like Gecko) SamsungBrowser/28.0 Chrome/130.0.0.0 Safari/537.36","WebKit","Chrome","130.0.0.0","Linux","","https://app.prolific.com/","en-ZA,en-GB;q=0.9,en-US;q=0.8,en;q=0.7","6655d79f5a1490365f1e92de","683db6dfa200031b80f2a654","686507635122917e2020b8aa","6655d79f5a1490365f1e92de","2025-07-02T10:19:11.678Z","","","","","","","","","","","","","","","","","","","","","","","","","","","","","","","","","","","","","","","","","",""
"9042","","","","instructions","1","17514","0.0-1.0","73","1","2025-07-02 10:19:02","80fe4187154257d5fb01684ea91b68b9","41.150.34.241","Mozilla/5.0 (X11; Linux x86_64) AppleWebKit/537.36 (KHTML, like Gecko) SamsungBrowser/28.0 Chrome/130.0.0.0 Safari/537.36","WebKit","Chrome","130.0.0.0","Linux","","https://app.prolific.com/","en-ZA,en-GB;q=0.9,en-US;q=0.8,en;q=0.7","6655d79f5a1490365f1e92de","683db6dfa200031b80f2a654","686507635122917e2020b8aa","6655d79f5a1490365f1e92de","","[{""page_index"":0,""viewing_time"":7281},{""page_index"":1,""viewing_time"":1760}]","","","","","","","","","","","","","","","","","","","","","","","","","","","","","","","","","","","","","","","","",""
"2695","","","{""Q0"":"""",""Q1"":"""",""Q2"":"""",""Q3"":"""",""Q4"":"""",""Q5"":"""",""Q6"":""I agree""}","survey-multi-choice","2","20219","0.0-2.0","73","1","2025-07-02 10:19:02","80fe4187154257d5fb01684ea91b68b9","41.150.34.241","Mozilla/5.0 (X11; Linux x86_64) AppleWebKit/537.36 (KHTML, like Gecko) SamsungBrowser/28.0 Chrome/130.0.0.0 Safari/537.36","WebKit","Chrome","130.0.0.0","Linux","","https://app.prolific.com/","en-ZA,en-GB;q=0.9,en-US;q=0.8,en;q=0.7","6655d79f5a1490365f1e92de","683db6dfa200031b80f2a654","686507635122917e2020b8aa","6655d79f5a1490365f1e92de","","","[0,1,2,3,4,5,6]","true","","","","","","","","","","","","","","","","","","","","","","","","","","","","","","","","","","","","","","",""
"5686","","","","fullscreen","3","26916","0.0-4.0","73","1","2025-07-02 10:19:02","80fe4187154257d5fb01684ea91b68b9","41.150.34.241","Mozilla/5.0 (X11; Linux x86_64) AppleWebKit/537.36 (KHTML, like Gecko) SamsungBrowser/28.0 Chrome/130.0.0.0 Safari/537.36","WebKit","Chrome","130.0.0.0","Linux","","https://app.prolific.com/","en-ZA,en-GB;q=0.9,en-US;q=0.8,en;q=0.7","6655d79f5a1490365f1e92de","683db6dfa200031b80f2a654","686507635122917e2020b8aa","6655d79f5a1490365f1e92de","","","","","true","","","","","","","","","","","","","","","","","","","","","","","","","","","","","","","","","","","","","",""
"5622","1751451575755"," <p style='font-size:1.1em;line-height:1.25'>Thank you for completing the consent form and closing all other tabs.</p><p style='font-size:1.1em;line-height:1.25'>We will now invite you to fill in some demographic information and questionnaires, before starting the game.<br>This will take about 5 minutes.<br></p><p style='font-size:1.1em;line-height:1.25'>Press the <strong>Next</strong> button to continue.</p>","0","custom-html-button-response","4","32544","0.0-5.0","73","1","2025-07-02 10:19:02","80fe4187154257d5fb01684ea91b68b9","41.150.34.241","Mozilla/5.0 (X11; Linux x86_64) AppleWebKit/537.36 (KHTML, like Gecko) SamsungBrowser/28.0 Chrome/130.0.0.0 Safari/537.36","WebKit","Chrome","130.0.0.0","Linux","","https://app.prolific.com/","en-ZA,en-GB;q=0.9,en-US;q=0.8,en;q=0.7","6655d79f5a1490365f1e92de","683db6dfa200031b80f2a654","686507635122917e2020b8aa","6655d79f5a1490365f1e92de","2025-07-02T10:19:35.757Z","","","","","","","","","","","","","","","","","","","","","","","","","","","","","","","","","","","","","","","","","",""
"4625","","","{""age"":""26""}","survey-text","5","37178","0.0-6.0-0.0","73","1","2025-07-02 10:19:02","80fe4187154257d5fb01684ea91b68b9","41.150.34.241","Mozilla/5.0 (X11; Linux x86_64) AppleWebKit/537.36 (KHTML, like Gecko) SamsungBrowser/28.0 Chrome/130.0.0.0 Safari/537.36","WebKit","Chrome","130.0.0.0","Linux","","https://app.prolific.com/","en-ZA,en-GB;q=0.9,en-US;q=0.8,en;q=0.7","6655d79f5a1490365f1e92de","683db6dfa200031b80f2a654","686507635122917e2020b8aa","6655d79f5a1490365f1e92de","","","","","","0","demographics","","","","","","","","","","","","","","","","","","","","","","","","","","","","","","","","","","","",""
"2391","","","{""gender_identity"":""female/woman""}","survey-multi-choice","6","39573","0.0-6.0-1.0","73","1","2025-07-02 10:19:02","80fe4187154257d5fb01684ea91b68b9","41.150.34.241","Mozilla/5.0 (X11; Linux x86_64) AppleWebKit/537.36 (KHTML, like Gecko) SamsungBrowser/28.0 Chrome/130.0.0.0 Safari/537.36","WebKit","Chrome","130.0.0.0","Linux","","https://app.prolific.com/","en-ZA,en-GB;q=0.9,en-US;q=0.8,en;q=0.7","6655d79f5a1490365f1e92de","683db6dfa200031b80f2a654","686507635122917e2020b8aa","6655d79f5a1490365f1e92de","","","[0]","","","1","demographics","","","","","","","","","","","","","","","","","","","","","","","","","","","","","","","","","","","",""
"1614","","","{""assigned_sex"":""female""}","survey-multi-choice","7","41192","0.0-6.0-2.0","73","1","2025-07-02 10:19:02","80fe4187154257d5fb01684ea91b68b9","41.150.34.241","Mozilla/5.0 (X11; Linux x86_64) AppleWebKit/537.36 (KHTML, like Gecko) SamsungBrowser/28.0 Chrome/130.0.0.0 Safari/537.36","WebKit","Chrome","130.0.0.0","Linux","","https://app.prolific.com/","en-ZA,en-GB;q=0.9,en-US;q=0.8,en;q=0.7","6655d79f5a1490365f1e92de","683db6dfa200031b80f2a654","686507635122917e2020b8aa","6655d79f5a1490365f1e92de","","","[0]","","","2","demographics","","","","","","","","","","","","","","","","","","","","","","","","","","","","","","","","","","","",""
"2808","","","{""menstrual_cycle"":""Yes""}","survey-multi-choice","8","44005","0.0-6.0-3.0","73","1","2025-07-02 10:19:02","80fe4187154257d5fb01684ea91b68b9","41.150.34.241","Mozilla/5.0 (X11; Linux x86_64) AppleWebKit/537.36 (KHTML, like Gecko) SamsungBrowser/28.0 Chrome/130.0.0.0 Safari/537.36","WebKit","Chrome","130.0.0.0","Linux","","https://app.prolific.com/","en-ZA,en-GB;q=0.9,en-US;q=0.8,en;q=0.7","6655d79f5a1490365f1e92de","683db6dfa200031b80f2a654","686507635122917e2020b8aa","6655d79f5a1490365f1e92de","","","[0]","","","4","demographics","","","","","","","","","","","","","","","","","","","","","","","","","","","","","","","","","","","",""
"3593","","","{""education"":""Bachelor's Degree (e.g., BA)""}","survey-multi-choice","9","47603","0.0-6.0-4.0","73","1","2025-07-02 10:19:02","80fe4187154257d5fb01684ea91b68b9","41.150.34.241","Mozilla/5.0 (X11; Linux x86_64) AppleWebKit/537.36 (KHTML, like Gecko) SamsungBrowser/28.0 Chrome/130.0.0.0 Safari/537.36","WebKit","Chrome","130.0.0.0","Linux","","https://app.prolific.com/","en-ZA,en-GB;q=0.9,en-US;q=0.8,en;q=0.7","6655d79f5a1490365f1e92de","683db6dfa200031b80f2a654","686507635122917e2020b8aa","6655d79f5a1490365f1e92de","","","[0]","","","5","demographics","","","","","","","","","","","","","","","","","","","","","","","","","","","","","","","","","","","",""
"7930","","","{""education"":""Master's Degree (e.g., MSc)""}","survey-multi-choice","10","55540","0.0-6.0-5.0","73","1","2025-07-02 10:19:02","80fe4187154257d5fb01684ea91b68b9","41.150.34.241","Mozilla/5.0 (X11; Linux x86_64) AppleWebKit/537.36 (KHTML, like Gecko) SamsungBrowser/28.0 Chrome/130.0.0.0 Safari/537.36","WebKit","Chrome","130.0.0.0","Linux","","https://app.prolific.com/","en-ZA,en-GB;q=0.9,en-US;q=0.8,en;q=0.7","6655d79f5a1490365f1e92de","683db6dfa200031b80f2a654","686507635122917e2020b8aa","6655d79f5a1490365f1e92de","2025-07-02T10:19:58.753Z","","[0]","","","6","demographics","","","","","","","","","","","","","","","","","","","","","","","","","","","","","","","","","","","",""
"134740","","","{""mental_health_condition"":""Anxiety"",""mental_health_treatment"":""Yes, anxiety meds"",""psychiatric_medication"":""No""}","survey-text","11","190292","0.0-7.0-0.0","73","1","2025-07-02 10:19:02","80fe4187154257d5fb01684ea91b68b9","41.150.34.241","Mozilla/5.0 (X11; Linux x86_64) AppleWebKit/537.36 (KHTML, like Gecko) SamsungBrowser/28.0 Chrome/130.0.0.0 Safari/537.36","WebKit","Chrome","130.0.0.0","Linux","","https://app.prolific.com/","en-ZA,en-GB;q=0.9,en-US;q=0.8,en;q=0.7","6655d79f5a1490365f1e92de","683db6dfa200031b80f2a654","686507635122917e2020b8aa","6655d79f5a1490365f1e92de","2025-07-02T10:22:13.506Z","","","","","1","mental_health","","","","","","","","","","","","","","","","","","","","","","","","","","","","","","","","","","","",""
"5182","","","{""depression_history"":[""Yes""]}","survey-multi-select","12","195491","0.0-7.0-1.0","73","1","2025-07-02 10:19:02","80fe4187154257d5fb01684ea91b68b9","41.150.34.241","Mozilla/5.0 (X11; Linux x86_64) AppleWebKit/537.36 (KHTML, like Gecko) SamsungBrowser/28.0 Chrome/130.0.0.0 Safari/537.36","WebKit","Chrome","130.0.0.0","Linux","","https://app.prolific.com/","en-ZA,en-GB;q=0.9,en-US;q=0.8,en;q=0.7","6655d79f5a1490365f1e92de","683db6dfa200031b80f2a654","686507635122917e2020b8aa","6655d79f5a1490365f1e92de","","","[0]","","","","mental_health","","","","","","","","","","","","","","","","","","","","","","","","","","","","","","","","","","","",""
"21200","","","{""depression_episodes"":""3-5"",""depression_recent"":""Within the past year""}","survey-multi-choice","13","216696","0.0-7.0-2.0-0.0","73","1","2025-07-02 10:19:02","80fe4187154257d5fb01684ea91b68b9","41.150.34.241","Mozilla/5.0 (X11; Linux x86_64) AppleWebKit/537.36 (KHTML, like Gecko) SamsungBrowser/28.0 Chrome/130.0.0.0 Safari/537.36","WebKit","Chrome","130.0.0.0","Linux","","https://app.prolific.com/","en-ZA,en-GB;q=0.9,en-US;q=0.8,en;q=0.7","6655d79f5a1490365f1e92de","683db6dfa200031b80f2a654","686507635122917e2020b8aa","6655d79f5a1490365f1e92de","2025-07-02T10:22:39.910Z","","[0,1]","","","3","mental_health","","","","","","","","","","","","","","","","","","","","","","","","","","","","","","","","","","","",""
"388246.7000000477","","","","survey-template","14","605000","0.0-7.0-3.0","73","1","2025-07-02 10:19:02","80fe4187154257d5fb01684ea91b68b9","41.150.34.241","Mozilla/5.0 (X11; Linux x86_64) AppleWebKit/537.36 (KHTML, like Gecko) SamsungBrowser/28.0 Chrome/130.0.0.0 Safari/537.36","WebKit","Chrome","130.0.0.0","Linux","","https://app.prolific.com/","en-ZA,en-GB;q=0.9,en-US;q=0.8,en;q=0.7","6655d79f5a1490365f1e92de","683db6dfa200031b80f2a654","686507635122917e2020b8aa","6655d79f5a1490365f1e92de","2025-07-02T10:29:08.217Z","","","","","","ius","{""Q01"":""2"",""Q02"":""1"",""Q03"":""0"",""Q04"":""2"",""Q05"":""0"",""Q06"":""0"",""Q07"":""1"",""Q08"":""0"",""Q09"":""3"",""Q10"":""1"",""Q11"":""0"",""Q12"":""0"",""Q13"":""0""}","[0,1,2,3,4,5,6,7,8,9,10,11,12]","[""Q01"",""Q02"",""Q03"",""Q03"",""Q01"",""Q04"",""Q05"",""Q06"",""Q06"",""Q07"",""Q08"",""Q09"",""Q10"",""Q11"",""Q12"",""Q13""]","[111657.60000002384,112948.29999995232,114048.10000002384,115626.79999995232,119916.10000002384,172206.79999995232,175727.89999997616,354192.5,355022.89999997616,359920.5,363302.2000000477,367705.7999999523,371095.89999997616,373650.39999997616,385151.7999999523,386051.2000000477]","[]","[111657.60000002384,112948.29999995232,114048.10000002384,115626.79999995232,119010.39999997616,119916.10000002384,172206.79999995232,175727.89999997616,354192.5,355022.89999997616,359920.5,363302.2000000477,367705.7999999523,371095.89999997616,373650.39999997616,385151.7999999523,386051.2000000477,388220.2999999523]","0.5384615384615384","0.4166666666666667","0","","","","","","","","","","","","","","","","","","","","","","","","","","",""
"69059","1751452217304","<p style='font-size:1.1em;line-height:1.25'>In the following, we will ask you a few questions relating to your experiences over the past month.<br></p><p style='font-size:1.1em;line-height:1.25'>Press the <strong>Next</strong> button to continue.</p>","0","custom-html-button-response","15","674101","0.0-7.0-4.0","73","1","2025-07-02 10:19:02","80fe4187154257d5fb01684ea91b68b9","41.150.34.241","Mozilla/5.0 (X11; Linux x86_64) AppleWebKit/537.36 (KHTML, like Gecko) SamsungBrowser/28.0 Chrome/130.0.0.0 Safari/537.36","WebKit","Chrome","130.0.0.0","Linux","","https://app.prolific.com/","en-ZA,en-GB;q=0.9,en-US;q=0.8,en;q=0.7","6655d79f5a1490365f1e92de","683db6dfa200031b80f2a654","686507635122917e2020b8aa","6655d79f5a1490365f1e92de","2025-07-02T10:30:17.318Z","","","","","","","","","","","","","","","","","","","","","","","","","","","","","","","","","","","","","","","","","",""
"299068.60000002384","","","","survey-template","16","973236","0.0-7.0-5.0","73","1","2025-07-02 10:19:02","80fe4187154257d5fb01684ea91b68b9","41.150.34.241","Mozilla/5.0 (X11; Linux x86_64) AppleWebKit/537.36 (KHTML, like Gecko) SamsungBrowser/28.0 Chrome/130.0.0.0 Safari/537.36","WebKit","Chrome","130.0.0.0","Linux","","https://app.prolific.com/","en-ZA,en-GB;q=0.9,en-US;q=0.8,en;q=0.7","6655d79f5a1490365f1e92de","683db6dfa200031b80f2a654","686507635122917e2020b8aa","6655d79f5a1490365f1e92de","2025-07-02T10:35:16.465Z","","","","","","pss","{""Q01"":""4"",""Q02"":""1"",""Q03"":""2"",""Q04"":""1"",""Q05"":""1"",""Q06"":""2"",""Q07"":""3"",""Q08"":""1"",""Q09"":""4"",""Q10"":""1""}","[0,1,2,3,4,5,6,7,8,9]","[""Q01"",""Q01"",""Q01"",""Q02"",""Q03"",""Q02"",""Q03"",""Q04"",""Q05"",""Q06"",""Q05"",""Q04"",""Q03"",""Q07"",""Q07"",""Q08"",""Q08"",""Q09"",""Q09"",""Q10""]","[9794.5,12138.899999976158,13089.5,14091,15260,20118.300000071526,32455.399999976158,219495.89999997616,254498.10000002384,259846.70000004768,262376,266156,270956.10000002384,278801.3000000715,281329.7000000477,285637.89999997616,286276.89999997616,291210.89999997616,292062,298272.5]","[]","[0.30000007152557373,9794.5,12138.899999976158,13089.5,14091,15260,20118.300000071526,32455.399999976158,219495.89999997616,254498.10000002384,259846.70000004768,262376,266156,270956.10000002384,278801.3000000715,281329.7000000477,285637.89999997616,286276.89999997616,291210.89999997616,292062,298272.5,299055.8000000715]","0.3","0.5555555555555556","0","","","","","","","","","","","","","","","","","","","","","","","","","","",""
"3472","1751452519973","<p style='font-size:1.1em;line-height:1.25'>Thank you for your answers! Now we will ask you a few more questions relating to your feelings in the last 24 hours.<br></p><p style='font-size:1.1em;line-height:1.25'>Press the <strong>Next</strong> button to continue.</p>","0","custom-html-button-response","17","976765","0.0-7.0-6.0","73","1","2025-07-02 10:19:02","80fe4187154257d5fb01684ea91b68b9","41.150.34.241","Mozilla/5.0 (X11; Linux x86_64) AppleWebKit/537.36 (KHTML, like Gecko) SamsungBrowser/28.0 Chrome/130.0.0.0 Safari/537.36","WebKit","Chrome","130.0.0.0","Linux","","https://app.prolific.com/","en-ZA,en-GB;q=0.9,en-US;q=0.8,en;q=0.7","6655d79f5a1490365f1e92de","683db6dfa200031b80f2a654","686507635122917e2020b8aa","6655d79f5a1490365f1e92de","2025-07-02T10:35:19.980Z","","","","","","","","","","","","","","","","","","","","","","","","","","","","","","","","","","","","","","","","","",""
"105029.10000002384","","","","survey-template","18","1081829","0.0-7.0-7.0","73","1","2025-07-02 10:19:02","80fe4187154257d5fb01684ea91b68b9","41.150.34.241","Mozilla/5.0 (X11; Linux x86_64) AppleWebKit/537.36 (KHTML, like Gecko) SamsungBrowser/28.0 Chrome/130.0.0.0 Safari/537.36","WebKit","Chrome","130.0.0.0","Linux","","https://app.prolific.com/","en-ZA,en-GB;q=0.9,en-US;q=0.8,en;q=0.7","6655d79f5a1490365f1e92de","683db6dfa200031b80f2a654","686507635122917e2020b8aa","6655d79f5a1490365f1e92de","2025-07-02T10:37:05.042Z","","","","","","drsp","{""Q01"":""4"",""Q02"":""2"",""Q03"":""2"",""Q04"":""3"",""Q05"":""4"",""Q06"":""5"",""Q07"":""3"",""Q08"":""4"",""Q09"":""0"",""Q10"":""3"",""Q11"":""4"",""Q12"":""0"",""Q13"":""1"",""Q14"":""0"",""Q15"":""5"",""Q16"":""4"",""Q17"":""3"",""Q18"":""1"",""Q19"":""3"",""Q20"":""1"",""Q21"":""3""}","[0,1,2,3,4,5,6,7,8,9,10,11,12,13,14,15,16,17,18,19,20]","[""Q01"",""Q02"",""Q03"",""Q04"",""Q05"",""Q06"",""Q07"",""Q07"",""Q08"",""Q09"",""Q10"",""Q10"",""Q11"",""Q12"",""Q13"",""Q13"",""Q14"",""Q15"",""Q16"",""Q17"",""Q17"",""Q18"",""Q19"",""Q20"",""Q21""]","[6291.100000023842,8168.100000023842,10029.100000023842,12274.5,14936.600000023842,19301.5,25628.399999976158,26846.5,29283,33488.5,42895.89999997616,45216.39999997616,48870.300000071526,57301.60000002384,64904.200000047684,68593.10000002384,73619,76120.89999997616,78015.89999997616,87304.70000004768,88865.10000002384,92454.60000002384,96471.60000002384,100666.5,104313.30000007153]","[]","[0.10000002384185791,6291.100000023842,8168.100000023842,10029.100000023842,12274.5,14936.600000023842,19301.5,25628.399999976158,26846.5,29283,33488.5,42895.89999997616,45216.39999997616,48870.300000071526,57301.60000002384,64904.200000047684,68593.10000002384,73619,76120.89999997616,78015.89999997616,87304.70000004768,88865.10000002384,92454.60000002384,96471.60000002384,100666.5,104313.30000007153,105019.39999997616]","0.2857142857142857","0.5","0","","","","","","","","","","","","","","","","","","","","","","","","","","",""
"106189","","","","survey-template","19","1188025","0.0-7.0-8.0","73","1","2025-07-02 10:19:02","80fe4187154257d5fb01684ea91b68b9","41.150.34.241","Mozilla/5.0 (X11; Linux x86_64) AppleWebKit/537.36 (KHTML, like Gecko) SamsungBrowser/28.0 Chrome/130.0.0.0 Safari/537.36","WebKit","Chrome","130.0.0.0","Linux","","https://app.prolific.com/","en-ZA,en-GB;q=0.9,en-US;q=0.8,en;q=0.7","6655d79f5a1490365f1e92de","683db6dfa200031b80f2a654","686507635122917e2020b8aa","6655d79f5a1490365f1e92de","2025-07-02T10:38:51.244Z","","","","","","stress","{""Q01"":""4"",""Q02"":""3"",""Q03"":""5""}","[0,1,2]","[""Q01"",""Q02"",""Q03""]","[20858,101351.39999997616,104988.39999997616]","[]","[20858,101351.39999997616,104988.39999997616,106187]","0.3333333333333333","0","0","","","","","","","","","","","","","","","","","","","","","","","","","","",""
"377474","","","","instructions","20","1565533","0.0-8.0-0.0","73","1","2025-07-02 10:19:02","80fe4187154257d5fb01684ea91b68b9","41.150.34.241","Mozilla/5.0 (X11; Linux x86_64) AppleWebKit/537.36 (KHTML, like Gecko) SamsungBrowser/28.0 Chrome/130.0.0.0 Safari/537.36","WebKit","Chrome","130.0.0.0","Linux","","https://app.prolific.com/","en-ZA,en-GB;q=0.9,en-US;q=0.8,en;q=0.7","6655d79f5a1490365f1e92de","683db6dfa200031b80f2a654","686507635122917e2020b8aa","6655d79f5a1490365f1e92de","","[{""page_index"":0,""viewing_time"":331222},{""page_index"":1,""viewing_time"":23448},{""page_index"":2,""viewing_time"":16526},{""page_index"":3,""viewing_time"":6275}]","","","","","","","","","","","","","","","","","","","","","","","","","","","","","","","","","","","","","","","","",""
"","","","","ctl-task-cpt","21","1802310","0.0-8.0-1.0","73","1","2025-07-02 10:19:02","80fe4187154257d5fb01684ea91b68b9","41.150.34.241","Mozilla/5.0 (X11; Linux x86_64) AppleWebKit/537.36 (KHTML, like Gecko) SamsungBrowser/28.0 Chrome/130.0.0.0 Safari/537.36","WebKit","Chrome","130.0.0.0","Linux","","https://app.prolific.com/","en-ZA,en-GB;q=0.9,en-US;q=0.8,en;q=0.7","6655d79f5a1490365f1e92de","683db6dfa200031b80f2a654","686507635122917e2020b8aa","6655d79f5a1490365f1e92de","","","","","","","","","","","","","","","","","win-only","1","g1:NE,g2:SW","1","0","1","1567739.2","7956.8","12025.6","233507","2","4","4","6","1","-2","-2","0","0","0","4068.7","4000","-245","[""up"",""right""]","{""num_key_presses"":0,""num_perfect"":0,""num_errors"":0,""num_randdir"":0,""num_randdir_good_moves"":0,""num_whilered"":0,""num_whileblue"":0,""num_blue"":0,""num_good_moves"":0}","[1961.1361607142858,1910.9330400058202,1.1,1961.1361607142858,1910.9330400058202,128.6,1961.1361607142858,1910.9330400058202,249.6,1961.1361607142858,1910.9330400058202,446.3,1961.1361607142858,1910.9330400058202,715,1961.1361607142858,1910.9330400058202,973.1,1961.1361607142858,1910.9330400058202,1235.6,1961.1361607142858,1910.9330400058202,1470.5,1961.1361607142858,1910.9330400058202,1703.3,1961.1361607142858,1910.9330400058202,2025.6,1961.1361607142858,1910.9330400058202,2284.4,1961.1361607142858,1910.9330400058202,2543,1961.1361607142858,1910.9330400058202,2802.8,1961.1361607142858,1910.9330400058202,3056.6,1961.1361607142858,1910.9330400058202,3557.4,1961.1361607142858,1910.9330400058202,3818.7,1961.1361607142858,1910.9330400058202,3935.7]","[]"