"rt","response_timestamp","stimulus","response","trial_type","trial_index","time_elapsed","internal_node_id","run_id","condition","recorded_at","source_code_version","ip","user_agent","device","browser","browser_version","platform","platform_version","referer","accept_language","PROLIFIC_PID","STUDY_ID","SESSION_ID","prolific_id","realtime","view_history","question_order","consent","success","question_id","eventType","responses","item_order","radio_event_ids","radio_event_times","key_event_times","mouse_event_times","straightlining","zigzagging","honeypot","which_type","canvas_config","goals_layout","control_level","trial_number","tutorial_trial_number","trial_start_time","phase1_start_time","phase2_start_time","phase3_start_time","goal_1_value","goal_1_distance","goal_2_value","goal_2_distance","goal_selected","outcome","outcome_total","participant_final_score","participant_initial_score","participant_final_score_prop","goal_choice_rt","allocated_time","allocated_time_remaining","goal_direction","counts","mouse_movements","key_presses","correct","slider_start"
"2692","1751451516941","<p style='font-size:40px;line-height:1.25'><strong>Welcome to the experiment!</strong></p><p style='font-size:1.1em;line-height:1.25'>Thank you for your interest in our experiment! Before you begin, it is important that we obtain your informed consent to participate in the study.</p><p style='font-size:1.1em;line-height:1.25'>On the next screen will be an <strong>information sheet</strong> for you to read. To participate in the study we need you to read this information sheet and the following consent form carefully. If you agree with all the statements, please click the <strong>I agree</strong> button.</p><p style='font-size:1.1em;line-height:1.25'>Press <strong>Next</strong> to read the information sheet.</p>","0","custom-html-button-response","0","2696","0.0-0.0","26","1","2025-07-02 10:18:33","80fe4187154257d5fb01684ea91b68b9","45.80.193.156","Mozilla/5.0 (Windows NT 10.0; Win64; x64) AppleWebKit/537.36 (KHTML, like Gecko) Chrome/137.0.0.0 Safari/537.36","WebKit","Chrome","137.0.0.0","Windows","10.0","https://app.prolific.com/","en-US,en;q=0.9,de;q=0.8","66565f702a8c21be63eb93ce","683db6dfa200031b80f2a654","68650763212518160e457f3b","66565f702a8c21be63eb93ce","2025-07-02T10:18:36.943Z","","","","","","","","","","","","","","","","","","","","","","","","","","","","","","","","","","","","","","","","","","","",""
"8286","","","","instructions","1","10984","0.0-1.0","26","1","2025-07-02 10:18:33","80fe4187154257d5fb01684ea91b68b9","45.80.193.156","Mozilla/5.0 (Windows NT 10.0; Win64; x64) AppleWebKit/537.36 (KHTML, like Gecko) Chrome/137.0.0.0 Safari/537.36","WebKit","Chrome","137.0.0.0","Windows","10.0","https://app.prolific.com/","en-US,en;q=0.9,de;q=0.8","66565f702a8c21be63eb93ce","683db6dfa200031b80f2a654","68650763212518160e457f3b","66565f702a8c21be63eb93ce","","[{""page_index"":0,""viewing_time"":5094},{""page_index"":1,""viewing_time"":3191}]","","","","","","","","","","","","","","","","","","","","","","","","","","","","","","","","","","","","","","","","","","",""
"4362","","","{""Q0"":"""",""Q1"":"""",""Q2"":"""",""Q3"":"""",""Q4"":"""",""Q5"":"""",""Q6"":""I agree""}","survey-multi-choice","2","15350","0.0-2.0","26","1","2025-07-02 10:18:33","80fe4187154257d5fb01684ea91b68b9","45.80.193.156","Mozilla/5.0 (Windows NT 10.0; Win64; x64) AppleWebKit/537.36 (KHTML, like Gecko) Chrome/137.0.0.0 Safari/537.36","WebKit","Chrome","137.0.0.0","Windows","10.0","https://app.prolific.com/","en-US,en;q=0.9,de;q=0.8","66565f702a8c21be63eb93ce","683db6dfa200031b80f2a654","68650763212518160e457f3b","66565f702a8c21be63eb93ce","","","[0,1,2,3,4,5,6]","true","","","","","","","","","","","","","","","","","","","","","","","","","","","","","","","","","","","","","","","","",""
"31934","","","","fullscreen","3","48290","0.0-4.0","26","1","2025-07-02 10:18:33","80fe4187154257d5fb01684ea91b68b9","45.80.193.156","Mozilla/5.0 (Windows NT 10.0; Win64; x64) AppleWebKit/537.36 (KHTML, like Gecko) Chrome/137.0.0.0 Safari/537.36","WebKit","Chrome","137.0.0.0","Windows","10.0","https://app.prolific.com/","en-US,en;q=0.9,de;q=0.8","66565f702a8c21be63eb93ce","683db6dfa200031b80f2a654","68650763212518160e457f3b","66565f702a8c21be63eb93ce","","","","","true","","","","","","","","","","","","","","","","","","","","","","","","","","","","","","","","","","","","","","","",""
"20406","1751451582945"," <p style='font-size:1.1em;line-height:1.25'>Thank you for completing the consent form and closing all other tabs.</p><p style='font-size:1.1em;line-height:1.25'>We will now invite you to fill in some demographic information and questionnaires, before starting the game.<br>This will take about 5 minutes.<br></p><p style='font-size:1.1em;line-height:1.25'>Press the <strong>Next</strong> button to continue.</p>","0","custom-html-button-response","4","68699","0.0-5.0","26","1","2025-07-02 10:18:33","80fe4187154257d5fb01684ea91b68b9","45.80.193.156","Mozilla/5.0 (Windows NT 10.0; Win64; x64) AppleWebKit/537.36 (KHTML, like Gecko) Chrome/137.0.0.0 Safari/537.36","WebKit","Chrome","137.0.0.0","Windows","10.0","https://app.prolific.com/","en-US,en;q=0.9,de;q=0.8","66565f702a8c21be63eb93ce","683db6dfa200031b80f2a654","68650763212518160e457f3b","66565f702a8c21be63eb93ce","2025-07-02T10:19:42.946Z","","","","","","","","","","","","","","","","","","","","","","","","","","","","","","","","","","","","","","","","","","","",""
"6984","","","{""age"":""27""}","survey-text","5","75689","0.0-6.0-0.0","26","1","2025-07-02 10:18:33","80fe4187154257d5fb01684ea91b68b9","45.80.193.156","Mozilla/5.0 (Windows NT 10.0; Win64; x64) AppleWebKit/537.36 (KHTML, like Gecko) Chrome/137.0.0.0 Safari/537.36","WebKit","Chrome","137.0.0.0","Windows","10.0","https://app.prolific.com/","en-US,en;q=0.9,de;q=0.8","66565f702a8c21be63eb93ce","683db6dfa200031b80f2a654","68650763212518160e457f3b","66565f702a8c21be63eb93ce","","","","","","0","demographics","","","","","","","","","","","","","","","","","","","","","","","","","","","","","","","","","","","","","",""
"3148","","","{""gender_identity"":""male/man""}","survey-multi-choice","6","78841","0.0-6.0-1.0","26","1","2025-07-02 10:18:33","80fe4187154257d5fb01684ea91b68b9","45.80.193.156","Mozilla/5.0 (Windows NT 10.0; Win64; x64) AppleWebKit/537.36 (KHTML, like Gecko) Chrome/137.0.0.0 Safari/537.36","WebKit","Chrome","137.0.0.0","Windows","10.0","https://app.prolific.com/","en-US,en;q=0.9,de;q=0.8","66565f702a8c21be63eb93ce","683db6dfa200031b80f2a654","68650763212518160e457f3b","66565f702a8c21be63eb93ce","","","[0]","","","1","demographics","","","","","","","","","","","","","","","","","","","","","","","","","","","","","","","","","","","","","",""
"9539","","","{""assigned_sex"":""male""}","survey-multi-choice","7","88381","0.0-6.0-2.0","26","1","2025-07-02 10:18:33","80fe4187154257d5fb01684ea91b68b9","45.80.193.156","Mozilla/5.0 (Windows NT 10.0; Win64; x64) AppleWebKit/537.36 (KHTML, like Gecko) Chrome/137.0.0.0 Safari/537.36","WebKit","Chrome","137.0.0.0","Windows","10.0","https://app.prolific.com/","en-US,en;q=0.9,de;q=0.8","66565f702a8c21be63eb93ce","683db6dfa200031b80f2a654","68650763212518160e457f3b","66565f702a8c21be63eb93ce","","","[0]","","","2","demographics","","","","","","","","","","","","","","","","","","","","","","","","","","","","","","","","","","","","","",""
"8542","","","{""menstrual_cycle"":""No""}","survey-multi-choice","8","96926","0.0-6.0-3.0","26","1","2025-07-02 10:18:33","80fe4187154257d5fb01684ea91b68b9","45.80.193.156","Mozilla/5.0 (Windows NT 10.0; Win64; x64) AppleWebKit/537.36 (KHTML, like Gecko) Chrome/137.0.0.0 Safari/537.36","WebKit","Chrome","137.0.0.0","Windows","10.0","https://app.prolific.com/","en-US,en;q=0.9,de;q=0.8","66565f702a8c21be63eb93ce","683db6dfa200031b80f2a654","68650763212518160e457f3b","66565f702a8c21be63eb93ce","","","[0]","","","4","demographics","","","","","","","","","","","","","","","","","","","","","","","","","","","","","","","","","","","","","",""
"6148","","","{""education"":""Master's Degree (e.g., MSc)""}","survey-multi-choice","9","103077","0.0-6.0-4.0","26","1","2025-07-02 10:18:33","80fe4187154257d5fb01684ea91b68b9","45.80.193.156","Mozilla/5.0 (Windows NT 10.0; Win64; x64) AppleWebKit/537.36 (KHTML, like Gecko) Chrome/137.0.0.0 Safari/537.36","WebKit","Chrome","137.0.0.0","Windows","10.0","https://app.prolific.com/","en-US,en;q=0.9,de;q=0.8","66565f702a8c21be63eb93ce","683db6dfa200031b80f2a654","68650763212518160e457f3b","66565f702a8c21be63eb93ce","","","[0]","","","5","demographics","","","","","","","","","","","","","","","","","","","","","","","","","","","","","","","","","","","","","",""
"13482","","","{""education"":""Others""}","survey-multi-choice","10","116562","0.0-6.0-5.0","26","1","2025-07-02 10:18:33","80fe4187154257d5fb01684ea91b68b9","45.80.193.156","Mozilla/5.0 (Windows NT 10.0; Win64; x64) AppleWebKit/537.36 (KHTML, like Gecko) Chrome/137.0.0.0 Safari/537.36","WebKit","Chrome","137.0.0.0","Windows","10.0","https://app.prolific.com/","en-US,en;q=0.9,de;q=0.8","66565f702a8c21be63eb93ce","683db6dfa200031b80f2a654","68650763212518160e457f3b","66565f702a8c21be63eb93ce","2025-07-02T10:20:30.809Z","","[0]","","","6","demographics","","","","","","","","","","","","","","","","","","","","","","","","","","","","","","","","","","","","","",""
"24444","","","{""mental_health_condition"":""no"",""mental_health_treatment"":""no"",""psychiatric_medication"":""no""}","survey-text","11","141011","0.0-7.0-0.0","26","1","2025-07-02 10:18:33","80fe4187154257d5fb01684ea91b68b9","45.80.193.156","Mozilla/5.0 (Windows NT 10.0; Win64; x64) AppleWebKit/537.36 (KHTML, like Gecko) Chrome/137.0.0.0 Safari/537.36","WebKit","Chrome","137.0.0.0","Windows","10.0","https://app.prolific.com/","en-US,en;q=0.9,de;q=0.8","66565f702a8c21be63eb93ce","683db6dfa200031b80f2a654","68650763212518160e457f3b","66565f702a8c21be63eb93ce","2025-07-02T10:20:55.259Z","","","","","1","mental_health","","","","","","","","","","","","","","","","","","","","","","","","","","","","","","","","","","","","","",""
"13090","","","{""depression_history"":[""No""]}","survey-multi-select","12","154121","0.0-7.0-1.0","26","1","2025-07-02 10:18:33","80fe4187154257d5fb01684ea91b68b9","45.80.193.156","Mozilla/5.0 (Windows NT 10.0; Win64; x64) AppleWebKit/537.36 (KHTML, like Gecko) Chrome/137.0.0.0 Safari/537.36","WebKit","Chrome","137.0.0.0","Windows","10.0","https://app.prolific.com/","en-US,en;q=0.9,de;q=0.8","66565f702a8c21be63eb93ce","683db6dfa200031b80f2a654","68650763212518160e457f3b","66565f702a8c21be63eb93ce","","","[0]","","","","mental_health","","","","","","","","","","","","","","","","","","","","","","","","","","","","","","","","","","","","","",""
"96456","","","","survey-template","13","250584","0.0-7.0-3.0","26","1","2025-07-02 10:18:33","80fe4187154257d5fb01684ea91b68b9","45.80.193.156","Mozilla/5.0 (Windows NT 10.0; Win64; x64) AppleWebKit/537.36 (KHTML, like Gecko) Chrome/137.0.0.0 Safari/537.36","WebKit","Chrome","137.0.0.0","Windows","10.0","https://app.prolific.com/","en-US,en;q=0.9,de;q=0.8","66565f702a8c21be63eb93ce","683db6dfa200031b80f2a654","68650763212518160e457f3b","66565f702a8c21be63eb93ce","2025-07-02T10:22:44.832Z","","","","","","ius","{""Q01"":""2"",""Q02"":""2"",""Q03"":""2"",""Q04"":""2"",""Q05"":""3"",""Q06"":""2"",""Q07"":""1"",""Q08"":""0"",""Q09"":""3"",""Q10"":""2"",""Q11"":""2"",""Q12"":""1"",""Q13"":""2""}","[0,1,2,3,4,5,6,7,8,9,10,11,12]","[""Q01"",""Q02"",""Q03"",""Q04"",""Q04"",""Q05"",""Q06"",""Q07"",""Q07"",""Q08"",""Q09"",""Q10"",""Q11"",""Q12"",""Q13""]","[8042,13647,21021,30775,33278,38516,45651,52728,57652,66728,73369,77967,82462,89919,95202]","[]","[8042,13647,21021,30775,33278,38516,45651,52728,57652,66728,73369,77967,82462,89919,95202,96453]","0.6153846153846154","0.5833333333333334","0","","","","","","","","","","","","","","","","","","","","","","","","","","","","",""
"4232","1751451769067","<p style='font-size:1.1em;line-height:1.25'>In the following, we will ask you a few questions relating to your experiences over the past month.<br></p><p style='font-size:1.1em;line-height:1.25'>Press the <strong>Next</strong> button to continue.</p>","0","custom-html-button-response","14","254821","0.0-7.0-4.0","26","1","2025-07-02 10:18:33","80fe4187154257d5fb01684ea91b68b9","45.80.193.156","Mozilla/5.0 (Windows NT 10.0; Win64; x64) AppleWebKit/537.36 (KHTML, like Gecko) Chrome/137.0.0.0 Safari/537.36","WebKit","Chrome","137.0.0.0","Windows","10.0","https://app.prolific.com/","en-US,en;q=0.9,de;q=0.8","66565f702a8c21be63eb93ce","683db6dfa200031b80f2a654","68650763212518160e457f3b","66565f702a8c21be63eb93ce","2025-07-02T10:22:49.068Z","","","","","","","","","","","","","","","","","","","","","","","","","","","","","","","","","","","","","","","","","","","",""
"104013","","","","survey-template","15","358836","0.0-7.0-5.0","26","1","2025-07-02 10:18:33","80fe4187154257d5fb01684ea91b68b9","45.80.193.156","Mozilla/5.0 (Windows NT 10.0; Win64; x64) AppleWebKit/537.36 (KHTML, like Gecko) Chrome/137.0.0.0 Safari/537.36","WebKit","Chrome","137.0.0.0","Windows","10.0","https://app.prolific.com/","en-US,en;q=0.9,de;q=0.8","66565f702a8c21be63eb93ce","683db6dfa200031b80f2a654","68650763212518160e457f3b","66565f702a8c21be63eb93ce","2025-07-02T10:24:33.083Z","","","","","","pss","{""Q01"":""2"",""Q02"":""2"",""Q03"":""2"",""Q04"":""1"",""Q05"":""2"",""Q06"":""2"",""Q07"":""2"",""Q08"":""3"",""Q09"":""2"",""Q10"":""2""}","[0,1,2,3,4,5,6,7,8,9]","[""Q01"",""Q02"",""Q03"",""Q04"",""Q05"",""Q06"",""Q07"",""Q08"",""Q09"",""Q10""]","[8708,17547,41370,50517,57342,64610,76216,84406,94057,102344]","[]","[0,8708,17547,41370,50517,57342,64610,76216,84406,94057,102344,104011]","0.8","0.4444444444444444","0","","","","","","","","","","","","","","","","","","","","","","","","","","","","",""
"5075","1751451878160","<p style='font-size:1.1em;line-height:1.25'>Thank you for your answers! Now we will ask you a few more questions relating to your feelings in the last 24 hours.<br></p><p style='font-size:1.1em;line-height:1.25'>Press the <strong>Next</strong> button to continue.</p>","0","custom-html-button-response","16","363914","0.0-7.0-6.0","26","1","2025-07-02 10:18:33","80fe4187154257d5fb01684ea91b68b9","45.80.193.156","Mozilla/5.0 (Windows NT 10.0; Win64; x64) AppleWebKit/537.36 (KHTML, like Gecko) Chrome/137.0.0.0 Safari/537.36","WebKit","Chrome","137.0.0.0","Windows","10.0","https://app.prolific.com/","en-US,en;q=0.9,de;q=0.8","66565f702a8c21be63eb93ce","683db6dfa200031b80f2a654","68650763212518160e457f3b","66565f702a8c21be63eb93ce","2025-07-02T10:24:38.161Z","","","","","","","","","","","","","","","","","","","","","","","","","","","","","","","","","","","","","","","","","","","",""
"190196","","","","survey-template","17","554114","0.0-7.0-7.0","26","1","2025-07-02 10:18:33","80fe4187154257d5fb01684ea91b68b9","45.80.193.156","Mozilla/5.0 (Windows NT 10.0; Win64; x64) AppleWebKit/537.36 (KHTML, like Gecko) Chrome/137.0.0.0 Safari/537.36","WebKit","Chrome","137.0.0.0","Windows","10.0","https://app.prolific.com/","en-US,en;q=0.9,de;q=0.8","66565f702a8c21be63eb93ce","683db6dfa200031b80f2a654","68650763212518160e457f3b","66565f702a8c21be63eb93ce","2025-07-02T10:27:48.362Z","","","","","","drsp","{""Q01"":""2"",""Q02"":""1"",""Q03"":""1"",""Q04"":""2"",""Q05"":""1"",""Q06"":""1"",""Q07"":""2"",""Q08"":""2"",""Q09"":""0"",""Q10"":""2"",""Q11"":""1"",""Q12"":""1"",""Q13"":""3"",""Q14"":""2"",""Q15"":""2"",""Q16"":""2"",""Q17"":""1"",""Q18"":""1"",""Q19"":""1"",""Q20"":""1"",""Q21"":""1""}","[0,1,2,3,4,5,6,7,8,9,10,11,12,13,14,15,16,17,18,19,20]","[""Q01"",""Q03"",""Q02"",""Q04"",""Q05"",""Q06"",""Q07"",""Q08"",""Q09"",""Q10"",""Q12"",""Q13"",""Q14"",""Q15"",""Q16"",""Q17"",""Q18"",""Q19"",""Q20"",""Q21"",""Q11""]","[5494,9698,12671,32047,34370,37798,46626,50049,64342,68705,81992,87878,96178,101046,103710,107045,156500,164145,170393,175648,186838]","[]","[0,5494,9698,12671,32047,34370,37798,46626,50049,64342,68705,80796,81992,87878,96178,101046,103710,107045,156500,164145,170393,175648,176858,186838,190189]","0.5238095238095238","0.35","0","","","","","","","","","","","","","","","","","","","","","","","","","","","","",""
"25794","","","","survey-template","18","579916","0.0-7.0-8.0","26","1","2025-07-02 10:18:33","80fe4187154257d5fb01684ea91b68b9","45.80.193.156","Mozilla/5.0 (Windows NT 10.0; Win64; x64) AppleWebKit/537.36 (KHTML, like Gecko) Chrome/137.0.0.0 Safari/537.36","WebKit","Chrome","137.0.0.0","Windows","10.0","https://app.prolific.com/","en-US,en;q=0.9,de;q=0.8","66565f702a8c21be63eb93ce","683db6dfa200031b80f2a654","68650763212518160e457f3b","66565f702a8c21be63eb93ce","2025-07-02T10:28:14.163Z","","","","","","stress","{""Q01"":""1"",""Q02"":""3"",""Q03"":""1""}","[0,1,2]","[""Q01"",""Q02"",""Q03""]","[5753,9626,24632]","[]","[5753,9626,24632,25794]","0.6666666666666666","1","0","","","","","","","","","","","","","","","","","","","","","","","","","","","","",""
"40109","","","","instructions","19","620026","0.0-8.0-0.0","26","1","2025-07-02 10:18:33","80fe4187154257d5fb01684ea91b68b9","45.80.193.156","Mozilla/5.0 (Windows NT 10.0; Win64; x64) AppleWebKit/537.36 (KHTML, like Gecko) Chrome/137.0.0.0 Safari/537.36","WebKit","Chrome","137.0.0.0","Windows","10.0","https://app.prolific.com/","en-US,en;q=0.9,de;q=0.8","66565f702a8c21be63eb93ce","683db6dfa200031b80f2a654","68650763212518160e457f3b","66565f702a8c21be63eb93ce","","[{""page_index"":0,""viewing_time"":15847},{""page_index"":1,""viewing_time"":3877},{""page_index"":2,""viewing_time"":5332},{""page_index"":3,""viewing_time"":15051}]","","","","","","","","","","","","","","","","","","","","","","","","","","","","","","","","","","","","","","","","","","",""
"","","","","ctl-task-cpt","20","659144","0.0-8.0-1.0","26","1","2025-07-02 10:18:33","80fe4187154257d5fb01684ea91b68b9","45.80.193.156","Mozilla/5.0 (Windows NT 10.0; Win64; x64) AppleWebKit/537.36 (KHTML, like Gecko) Chrome/137.0.0.0 Safari/537.36","WebKit","Chrome","137.0.0.0","Windows","10.0","https://app.prolific.com/","en-US,en;q=0.9,de;q=0.8","66565f702a8c21be63eb93ce","683db6dfa200031b80f2a654","68650763212518160e457f3b","66565f702a8c21be63eb93ce","","","","","","","","","","","","","","","","","win-only","0","g1:NW,g2:SE","1","0","1","621319","4375","8376","36104","2","4","4","6","1","2","-1","0","0","0","4001","4000","15","[""left"",""up""]","{""num_key_presses"":10,""num_perfect"":7,""num_errors"":3,""num_randdir"":0,""num_randdir_good_moves"":0,""num_whilered"":0,""num_whileblue"":1,""num_blue"":2,""num_good_moves"":6}","[409.0714133126395,414.07142761775424,1,409.0714133126395,414.07142761775424,101,409.0714133126395,414.07142761775424,201,409.0714133126395,414.07142761775424,306,409.0714133126395,414.07142761775424,406,409.0714133126395,414.07142761775424,510,409.0714133126395,414.07142761775424,611,409.0714133126395,414.07142761775424,716,409.0714133126395,414.07142761775424,821,409.0714133126395,414.07142761775424,925,409.0714133126395,414.07142761775424,1026,409.0714133126395,414.07142761775424,1127,409.0714133126395,414.07142761775424,1230,409.0714133126395,414.07142761775424,1331,409.0714133126395,414.07142761775424,1431,409.0714133126395,414.07142761775424,1531,409.0714133126395,414.07142761775424,1635,409.0714133126395,414.07142761775424,1736,409.0714133126395,414.07142761775424,1836,409.0714133126395,414.07142761775424,1941,409.0714133126395,414.07142761775424,2041,409.0714133126395,414.07142761775424,2145,409.0714133126395,414.07142761775424,2246,409.0714133126395,414.07142761775424,2346,409.0714133126395,414.07142761775424,2447,409.0714133126395,414.07142761775424,2551,409.0714133126395,414.07142761775424,2656,409.0714133126395,414.07142761775424,2756,409.0714133126395,414.07142761775424,2856,409.0714133126395,414.07142761775424,2961,409.0714133126395,414.07142761775424,3061,409.0714133126395,414.07142761775424,3161,409.0714133126395,414.07142761775424,3261,409.0714133126395,414.07142761775424,3366,409.0714133126395,414.07142761775424,3470,409.0714133126395,414.07142761775424,3570,409.0714133126395,414.07142761775424,3670,409.0714133126395,414.07142761775424,3770,409.0714133126395,414.07142761775424,3871,409.0714133126395,414.07142761775424,3971]","[1737,1737,1000,0,737,""smooth"",""down"",""down"",""bad_move"",2219,482,2165.1,1738,-1683.1,""error"",""-"",""-"",""no_move"",8385,6165,2373.1,5830,181.9,""smooth"",""up"",""up"",""good_move"",11004,2618,1956.3,8386,661.7,""smooth"",""up"",""up"",""good_move"",14058,3054,2407.8,11004,646.2,""smooth"",""up"",""up"",""good_move"",16813,2754,2082,14059,672,""while_blue"",""left"",""right"",""bad_move"",17018,203,1940.8,16815,-1737.8,""error"",""-"",""-"",""no_move"",21103,4085,2476,18019,608,""smooth"",""left"",""left"",""good_move"",24237,3128,2644.2,21109,483.8,""smooth"",""left"",""left"",""good_move"",27625,3386,2683.1,24239,702.9,""smooth"",""left"",""left"",""good_move""]","",""
"3584","","","","instructions","21","662729","0.0-8.0-2.0","26","1","2025-07-02 10:18:33","80fe4187154257d5fb01684ea91b68b9","45.80.193.156","Mozilla/5.0 (Windows NT 10.0; Win64; x64) AppleWebKit/537.36 (KHTML, like Gecko) Chrome/137.0.0.0 Safari/537.36","WebKit","Chrome","137.0.0.0","Windows","10.0","https://app.prolific.com/","en-US,en;q=0.9,de;q=0.8","66565f702a8c21be63eb93ce","683db6dfa200031b80f2a654","68650763212518160e457f3b","66565f702a8c21be63eb93ce","","[{""page_index"":0,""viewing_time"":3583}]","","","","","","","","","","","","","","","","","","","","","","","","","","","","","","","","","","","","","","","","","","",""
"","","","","ctl-task-cpt","22","698976","0.0-8.0-3.0","26","1","2025-07-02 10:18:33","80fe4187154257d5fb01684ea91b68b9","45.80.193.156","Mozilla/5.0 (Windows NT 10.0; Win64; x64) AppleWebKit/537.36 (KHTML, like Gecko) Chrome/137.0.0.0 Safari/537.36","WebKit","Chrome","137.0.0.0","Windows","10.0","https://app.prolific.com/","en-US,en;q=0.9,de;q=0.8","66565f702a8c21be63eb93ce","683db6dfa200031b80f2a654","68650763212518160e457f3b","66565f702a8c21be63eb93ce","","","","","","","","","","","","","","","","","win-only","0","g1:NW,g2:SE","0.35","0","3","664014","2404","6407","33237","2","4","8","6","2","-8","-9","0","0","0","4003","4000","-2995","[""down"",""right""]","{""num_key_presses"":7,""num_perfect"":1,""num_errors"":1,""num_randdir"":5,""num_randdir_good_moves"":3,""num_whilered"":0,""num_whileblue"":0,""num_blue"":1,""num_good_moves"":4}","[415.3214133126395,412.82142761775424,2,415.3214133126395,412.82142761775424,103,415.3214133126395,412.82142761775424,204,415.3214133126395,412.82142761775424,309,415.3214133126395,412.82142761775424,414,415.3214133126395,412.82142761775424,519,415.3214133126395,412.82142761775424,620,415.3214133126395,412.82142761775424,723,415.3214133126395,412.82142761775424,823,415.3214133126395,412.82142761775424,928,415.3214133126395,412.82142761775424,1033,415.3214133126395,412.82142761775424,1133,415.3214133126395,412.82142761775424,1234,415.3214133126395,412.82142761775424,1336,415.3214133126395,412.82142761775424,1437,415.3214133126395,412.82142761775424,1542,415.3214133126395,412.82142761775424,1646,415.3214133126395,412.82142761775424,1746,415.3214133126395,412.82142761775424,1846,415.3214133126395,412.82142761775424,1946,415.3214133126395,412.82142761775424,2047,415.3214133126395,412.82142761775424,2152,415.3214133126395,412.82142761775424,2257,415.3214133126395,412.82142761775424,2362,415.3214133126395,412.82142761775424,2462,415.3214133126395,412.82142761775424,2562,415.3214133126395,412.82142761775424,2662,415.3214133126395,412.82142761775424,2766,415.3214133126395,412.82142761775424,2866,415.3214133126395,412.82142761775424,2967,415.3214133126395,412.82142761775424,3071,415.3214133126395,412.82142761775424,3171,415.3214133126395,412.82142761775424,3272,415.3214133126395,412.82142761775424,3376,415.3214133126395,412.82142761775424,3477,415.3214133126395,412.82142761775424,3578,415.3214133126395,412.82142761775424,3678,415.3214133126395,412.82142761775424,3783,415.3214133126395,412.82142761775424,3887,415.3214133126395,412.82142761775424,3989]","[5971,5971,3392.8,2005,573.2,""oops"",""down"",""left"",""bad_move"",9532,3560,2806.9,5972,753.1,""oops"",""right"",""right"",""good_move"",12431,2898,2113.8,9533,784.2,""oops"",""down"",""right"",""good_move"",16264,3832,3116.7,12432,715.3,""oops"",""down"",""right"",""good_move"",19432,3166,2555.6,16266,610.4,""oops"",""down"",""left"",""bad_move"",20390,957,2485.2,19433,-1528.2,""error"",""-"",""-"",""no_move"",24283,3892,2323.8,21393,566.2,""smooth"",""right"",""right"",""good_move""]","",""
"11833","","","","instructions","23","710810","0.0-8.0-4.0","26","1","2025-07-02 10:18:33","80fe4187154257d5fb01684ea91b68b9","45.80.193.156","Mozilla/5.0 (Windows NT 10.0; Win64; x64) AppleWebKit/537.36 (KHTML, like Gecko) Chrome/137.0.0.0 Safari/537.36","WebKit","Chrome","137.0.0.0","Windows","10.0","https://app.prolific.com/","en-US,en;q=0.9,de;q=0.8","66565f702a8c21be63eb93ce","683db6dfa200031b80f2a654","68650763212518160e457f3b","66565f702a8c21be63eb93ce","","[{""page_index"":0,""viewing_time"":4045},{""page_index"":1,""viewing_time"":7787}]","","","","","","","","","","","","","","","","","","","","","","","","","","","","","","","","","","","","","","","","","","",""
"10131","","","{""green_ball"":[""Ball always moves in the direction I press""]}","survey-multi-select","24","720947","0.0-8.0-5.0-0.0","26","1","2025-07-02 10:18:33","80fe4187154257d5fb01684ea91b68b9","45.80.193.156","Mozilla/5.0 (Windows NT 10.0; Win64; x64) AppleWebKit/537.36 (KHTML, like Gecko) Chrome/137.0.0.0 Safari/537.36","WebKit","Chrome","137.0.0.0","Windows","10.0","https://app.prolific.com/","en-US,en;q=0.9,de;q=0.8","66565f702a8c21be63eb93ce","683db6dfa200031b80f2a654","68650763212518160e457f3b","66565f702a8c21be63eb93ce","","","[0]","","","","quiz","","","","","","","","","","","","","","","","","","","","","","","","","","","","","","","","","","","","","false",""
"7519","","<p align='center'><b>INCORRECT.</b> Usually the green ball moves in the indicated direction, but sometimes it shakes and moves randomly. </p>","0","html-button-response","25","728471","0.0-8.0-5.0-1.0","26","1","2025-07-02 10:18:33","80fe4187154257d5fb01684ea91b68b9","45.80.193.156","Mozilla/5.0 (Windows NT 10.0; Win64; x64) AppleWebKit/537.36 (KHTML, like Gecko) Chrome/137.0.0.0 Safari/537.36","WebKit","Chrome","137.0.0.0","Windows","10.0","https://app.prolific.com/","en-US,en;q=0.9,de;q=0.8","66565f702a8c21be63eb93ce","683db6dfa200031b80f2a654","68650763212518160e457f3b","66565f702a8c21be63eb93ce","","","","","","","","","","","","","","","","","","","","","","","","","","","","","","","","","","","","","","","","","","","","",""
"9188","","","{""green_ball"":[""Ball sometimes shakes and moves in a random direction""]}","survey-multi-select","26","737663","0.0-8.0-5.1-0.1","26","1","2025-07-02 10:18:33","80fe4187154257d5fb01684ea91b68b9","45.80.193.156","Mozilla/5.0 (Windows NT 10.0; Win64; x64) AppleWebKit/537.36 (KHTML, like Gecko) Chrome/137.0.0.0 Safari/537.36","WebKit","Chrome","137.0.0.0","Windows","10.0","https://app.prolific.com/","en-US,en;q=0.9,de;q=0.8","66565f702a8c21be63eb93ce","683db6dfa200031b80f2a654","68650763212518160e457f3b","66565f702a8c21be63eb93ce","","","[0]","","","","quiz","","","","","","","","","","","","","","","","","","","","","","","","","","","","","","","","","","","","","true",""
"4355","","<p align='center'><b>CORRECT!</b> Indeed, the green ball may sometimes shake and move in a random direction.</p>","0","html-button-response","27","742021","0.0-8.0-5.1-1.1","26","1","2025-07-02 10:18:33","80fe4187154257d5fb01684ea91b68b9","45.80.193.156","Mozilla/5.0 (Windows NT 10.0; Win64; x64) AppleWebKit/537.36 (KHTML, like Gecko) Chrome/137.0.0.0 Safari/537.36","WebKit","Chrome","137.0.0.0","Windows","10.0","https://app.prolific.com/","en-US,en;q=0.9,de;q=0.8","66565f702a8c21be63eb93ce","683db6dfa200031b80f2a654","68650763212518160e457f3b","66565f702a8c21be63eb93ce","","","","","","","","","","","","","","","","","","","","","","","","","","","","","","","","","","","","","","","","","","","","",""
"10816","","","{""yellow_ball"":[""Ball doesn‘t move and I get -1 penalty point""]}","survey-multi-select","28","752845","0.0-8.0-6.0-0.0","26","1","2025-07-02 10:18:33","80fe4187154257d5fb01684ea91b68b9","45.80.193.156","Mozilla/5.0 (Windows NT 10.0; Win64; x64) AppleWebKit/537.36 (KHTML, like Gecko) Chrome/137.0.0.0 Safari/537.36","WebKit","Chrome","137.0.0.0","Windows","10.0","https://app.prolific.com/","en-US,en;q=0.9,de;q=0.8","66565f702a8c21be63eb93ce","683db6dfa200031b80f2a654","68650763212518160e457f3b","66565f702a8c21be63eb93ce","","","[0]","","","","quiz","","","","","","","","","","","","","","","","","","","","","","","","","","","","","","","","","","","","","true",""
"2545","","<p align='center'><b>CORRECT!</b> Indeed, the yellow ball never moves and you receive a penalty.</p>","0","html-button-response","29","755394","0.0-8.0-6.0-1.0","26","1","2025-07-02 10:18:33","80fe4187154257d5fb01684ea91b68b9","45.80.193.156","Mozilla/5.0 (Windows NT 10.0; Win64; x64) AppleWebKit/537.36 (KHTML, like Gecko) Chrome/137.0.0.0 Safari/537.36","WebKit","Chrome","137.0.0.0","Windows","10.0","https://app.prolific.com/","en-US,en;q=0.9,de;q=0.8","66565f702a8c21be63eb93ce","683db6dfa200031b80f2a654","68650763212518160e457f3b","66565f702a8c21be63eb93ce","","","","","","","","","","","","","","","","","","","","","","","","","","","","","","","","","","","","","","","","","","","","",""
"7839","","","{""blue_ball"":[""Ball always shakes and moves in a random direction""]}","survey-multi-select","30","763237","0.0-8.0-7.0-0.0","26","1","2025-07-02 10:18:33","80fe4187154257d5fb01684ea91b68b9","45.80.193.156","Mozilla/5.0 (Windows NT 10.0; Win64; x64) AppleWebKit/537.36 (KHTML, like Gecko) Chrome/137.0.0.0 Safari/537.36","WebKit","Chrome","137.0.0.0","Windows","10.0","https://app.prolific.com/","en-US,en;q=0.9,de;q=0.8","66565f702a8c21be63eb93ce","683db6dfa200031b80f2a654","68650763212518160e457f3b","66565f702a8c21be63eb93ce","","","[0]","","","","quiz","","","","","","","","","","","","","","","","","","","","","","","","","","","","","","","","","","","","","true",""
"2354","","<p align='center'><b>CORRECT!</b> Indeed, the blue ball always shakes and moves in a random direction. Also there is a penalty of -1 point.</p>","0","html-button-response","31","765593","0.0-8.0-7.0-1.0","26","1","2025-07-02 10:18:33","80fe4187154257d5fb01684ea91b68b9","45.80.193.156","Mozilla/5.0 (Windows NT 10.0; Win64; x64) AppleWebKit/537.36 (KHTML, like Gecko) Chrome/137.0.0.0 Safari/537.36","WebKit","Chrome","137.0.0.0","Windows","10.0","https://app.prolific.com/","en-US,en;q=0.9,de;q=0.8","66565f702a8c21be63eb93ce","683db6dfa200031b80f2a654","68650763212518160e457f3b","66565f702a8c21be63eb93ce","","","","","","","","","","","","","","","","","","","","","","","","","","","","","","","","","","","","","","","","","","","","",""
"9345","","","{""bonus"":[""When I reach 80% of points""]}","survey-multi-select","32","774943","0.0-8.0-8.0-0.0","26","1","2025-07-02 10:18:33","80fe4187154257d5fb01684ea91b68b9","45.80.193.156","Mozilla/5.0 (Windows NT 10.0; Win64; x64) AppleWebKit/537.36 (KHTML, like Gecko) Chrome/137.0.0.0 Safari/537.36","WebKit","Chrome","137.0.0.0","Windows","10.0","https://app.prolific.com/","en-US,en;q=0.9,de;q=0.8","66565f702a8c21be63eb93ce","683db6dfa200031b80f2a654","68650763212518160e457f3b","66565f702a8c21be63eb93ce","","","[0]","","","","quiz","","","","","","","","","","","","","","","","","","","","","","","","","","","","","","","","","","","","","false",""
"2724","","<p align='center'><b>INCORRECT.</b> You receive 2 pounds extra when you reach 50% of points </p>","0","html-button-response","33","777671","0.0-8.0-8.0-1.0","26","1","2025-07-02 10:18:33","80fe4187154257d5fb01684ea91b68b9","45.80.193.156","Mozilla/5.0 (Windows NT 10.0; Win64; x64) AppleWebKit/537.36 (KHTML, like Gecko) Chrome/137.0.0.0 Safari/537.36","WebKit","Chrome","137.0.0.0","Windows","10.0","https://app.prolific.com/","en-US,en;q=0.9,de;q=0.8","66565f702a8c21be63eb93ce","683db6dfa200031b80f2a654","68650763212518160e457f3b","66565f702a8c21be63eb93ce","","","","","","","","","","","","","","","","","","","","","","","","","","","","","","","","","","","","","","","","","","","","",""
"1693","","","{""bonus"":[""When I reach 50% of points""]}","survey-multi-select","34","779368","0.0-8.0-8.1-0.1","26","1","2025-07-02 10:18:33","80fe4187154257d5fb01684ea91b68b9","45.80.193.156","Mozilla/5.0 (Windows NT 10.0; Win64; x64) AppleWebKit/537.36 (KHTML, like Gecko) Chrome/137.0.0.0 Safari/537.36","WebKit","Chrome","137.0.0.0","Windows","10.0","https://app.prolific.com/","en-US,en;q=0.9,de;q=0.8","66565f702a8c21be63eb93ce","683db6dfa200031b80f2a654","68650763212518160e457f3b","66565f702a8c21be63eb93ce","","","[0]","","","","quiz","","","","","","","","","","","","","","","","","","","","","","","","","","","","","","","","","","","","","true",""
"1683","","<p align='center'><b>CORRECT!</b> Indeed, you receive 2 pounds extra when you reach 50% of points.</p>","0","html-button-response","35","781053","0.0-8.0-8.1-1.1","26","1","2025-07-02 10:18:33","80fe4187154257d5fb01684ea91b68b9","45.80.193.156","Mozilla/5.0 (Windows NT 10.0; Win64; x64) AppleWebKit/537.36 (KHTML, like Gecko) Chrome/137.0.0.0 Safari/537.36","WebKit","Chrome","137.0.0.0","Windows","10.0","https://app.prolific.com/","en-US,en;q=0.9,de;q=0.8","66565f702a8c21be63eb93ce","683db6dfa200031b80f2a654","68650763212518160e457f3b","66565f702a8c21be63eb93ce","","","","","","","","","","","","","","","","","","","","","","","","","","","","","","","","","","","","","","","","","","","","",""
"1770","","","","instructions","36","782827","0.0-8.0-9.0","26","1","2025-07-02 10:18:33","80fe4187154257d5fb01684ea91b68b9","45.80.193.156","Mozilla/5.0 (Windows NT 10.0; Win64; x64) AppleWebKit/537.36 (KHTML, like Gecko) Chrome/137.0.0.0 Safari/537.36","WebKit","Chrome","137.0.0.0","Windows","10.0","https://app.prolific.com/","en-US,en;q=0.9,de;q=0.8","66565f702a8c21be63eb93ce","683db6dfa200031b80f2a654","68650763212518160e457f3b","66565f702a8c21be63eb93ce","","[{""page_index"":0,""viewing_time"":1768}]","","","","","","","","","","","","","","","","","","","","","","","","","","","","","","","","","","","","","","","","","","",""
"15017","","<p>Before you start with this game please answer the following three questions yourself. </p>
  <p>Through this game, we measure several aspects of your cognitive performance, such as reaction times, multi-tasking capabilities </p>
  <p>and the ability to assess the situation you are in.</p>
  <p></p>
  <p><b>How good do you usually are in such tasks?</b></p>","69","html-slider-response","37","797847","0.0-9.0-0.0","26","1","2025-07-02 10:18:33","80fe4187154257d5fb01684ea91b68b9","45.80.193.156","Mozilla/5.0 (Windows NT 10.0; Win64; x64) AppleWebKit/537.36 (KHTML, like Gecko) Chrome/137.0.0.0 Safari/537.36","WebKit","Chrome","137.0.0.0","Windows","10.0","https://app.prolific.com/","en-US,en;q=0.9,de;q=0.8","66565f702a8c21be63eb93ce","683db6dfa200031b80f2a654","68650763212518160e457f3b","66565f702a8c21be63eb93ce","2025-07-02T10:31:52.094Z","","","","","","PreSkillQ","","","","","","","","","","","","","","","","","","","","","","","","","","","","","","","","","","","","","","50"
"5573","","<div style=""width:500px;"">
  <p>How well do you think you will perform in this task compared to other participants?</p>
  </div>","63","html-slider-response","38","803423","0.0-9.0-1.0","26","1","2025-07-02 10:18:33","80fe4187154257d5fb01684ea91b68b9","45.80.193.156","Mozilla/5.0 (Windows NT 10.0; Win64; x64) AppleWebKit/537.36 (KHTML, like Gecko) Chrome/137.0.0.0 Safari/537.36","WebKit","Chrome","137.0.0.0","Windows","10.0","https://app.prolific.com/","en-US,en;q=0.9,de;q=0.8","66565f702a8c21be63eb93ce","683db6dfa200031b80f2a654","68650763212518160e457f3b","66565f702a8c21be63eb93ce","2025-07-02T10:31:57.670Z","","","","","","PrePerfQ","","","","","","","","","","","","","","","","","","","","","","","","","","","","","","","","","","","","","","50"
"4716","","<div style=""width:500px;"">
  <p>What best describes how you currently feel?</p>
  </div>","69","html-slider-response","39","808142","0.0-9.0-2.0","26","1","2025-07-02 10:18:33","80fe4187154257d5fb01684ea91b68b9","45.80.193.156","Mozilla/5.0 (Windows NT 10.0; Win64; x64) AppleWebKit/537.36 (KHTML, like Gecko) Chrome/137.0.0.0 Safari/537.36","WebKit","Chrome","137.0.0.0","Windows","10.0","https://app.prolific.com/","en-US,en;q=0.9,de;q=0.8","66565f702a8c21be63eb93ce","683db6dfa200031b80f2a654","68650763212518160e457f3b","66565f702a8c21be63eb93ce","2025-07-02T10:32:02.389Z","","","","","","PreMotivationQ","","","","","","","","","","","","","","","","","","","","","","","","","","","","","","","","","","","","","","50"
"","","","","ctl-task-cpt","40","834971","0.0-10.0-0.0","26","1","2025-07-02 10:18:33","80fe4187154257d5fb01684ea91b68b9","45.80.193.156","Mozilla/5.0 (Windows NT 10.0; Win64; x64) AppleWebKit/537.36 (KHTML, like Gecko) Chrome/137.0.0.0 Safari/537.36","WebKit","Chrome","137.0.0.0","Windows","10.0","https://app.prolific.com/","en-US,en;q=0.9,de;q=0.8","66565f702a8c21be63eb93ce","683db6dfa200031b80f2a654","68650763212518160e457f3b","66565f702a8c21be63eb93ce","2025-07-02T10:32:29.219Z","","","","","","","","","","","","","","","","win-only","2","g1:SE,g2:NW","1","1","0","809430","1702","6703","23813","1","4","8","6","2","-8","-8","0","0","0","5001","3000","-2865","[""left"",""up""]","{""num_key_presses"":5,""num_perfect"":5,""num_errors"":0,""num_randdir"":0,""num_randdir_good_moves"":0,""num_whilered"":0,""num_whileblue"":0,""num_blue"":0,""num_good_moves"":5}","[420.3214133126395,407.82142761775424,0,420.3214133126395,407.82142761775424,105,420.3214133126395,407.82142761775424,209,420.3214133126395,407.82142761775424,310,420.3214133126395,407.82142761775424,410,420.3214133126395,407.82142761775424,510,420.3214133126395,407.82142761775424,615,420.3214133126395,407.82142761775424,716,420.3214133126395,407.82142761775424,816,420.3214133126395,407.82142761775424,921,420.3214133126395,407.82142761775424,1025,420.3214133126395,407.82142761775424,1125,420.3214133126395,407.82142761775424,1230,420.3214133126395,407.82142761775424,1334,420.3214133126395,407.82142761775424,1436,420.3214133126395,407.82142761775424,1540,420.3214133126395,407.82142761775424,1642,420.3214133126395,407.82142761775424,1747,420.3214133126395,407.82142761775424,1851,420.3214133126395,407.82142761775424,1951,420.3214133126395,407.82142761775424,2051,420.3214133126395,407.82142761775424,2157,420.3214133126395,407.82142761775424,2261,420.3214133126395,407.82142761775424,2361,420.3214133126395,407.82142761775424,2467,420.3214133126395,407.82142761775424,2571,420.3214133126395,407.82142761775424,2673,420.3214133126395,407.82142761775424,2776,420.3214133126395,407.82142761775424,2880,420.3214133126395,407.82142761775424,2985,420.3214133126395,407.82142761775424,3086,420.3214133126395,407.82142761775424,3188,420.3214133126395,407.82142761775424,3293,420.3214133126395,407.82142761775424,3395,420.3214133126395,407.82142761775424,3496,420.3214133126395,407.82142761775424,3601,420.3214133126395,407.82142761775424,3704,420.3214133126395,407.82142761775424,3805,420.3214133126395,407.82142761775424,3906,420.3214133126395,407.82142761775424,4012,420.3214133126395,407.82142761775424,4116,420.3214133126395,407.82142761775424,4217,420.3214133126395,407.82142761775424,4317,420.3214133126395,407.82142761775424,4420,420.3214133126395,407.82142761775424,4522,420.3214133126395,407.82142761775424,4622,420.3214133126395,407.82142761775424,4724,420.3214133126395,407.82142761775424,4831,420.3214133126395,407.82142761775424,4932]","[1629,1629,1000,0,629,""smooth"",""up"",""up"",""good_move"",4599,2968,2424.8,1631,543.2,""smooth"",""up"",""up"",""good_move"",8479,3878,3317.8,4601,560.2,""smooth"",""left"",""left"",""good_move"",11792,3311,2742.1,8481,568.9,""smooth"",""left"",""left"",""good_move"",15003,3210,2563.1,11793,646.9,""smooth"",""left"",""left"",""good_move""]","",""
"9195","","<div style=""width:500px;"">
  <p>What determined the result of this run?</p>
  </div>","20","html-slider-response","41","844169","0.0-10.0-1.0","26","1","2025-07-02 10:18:33","80fe4187154257d5fb01684ea91b68b9","45.80.193.156","Mozilla/5.0 (Windows NT 10.0; Win64; x64) AppleWebKit/537.36 (KHTML, like Gecko) Chrome/137.0.0.0 Safari/537.36","WebKit","Chrome","137.0.0.0","Windows","10.0","https://app.prolific.com/","en-US,en;q=0.9,de;q=0.8","66565f702a8c21be63eb93ce","683db6dfa200031b80f2a654","68650763212518160e457f3b","66565f702a8c21be63eb93ce","2025-07-02T10:32:38.417Z","","","","","","AttribQ","","","","","","","","","","","","","","","","","","","","","","","","","","","","","","","","","","","","","","50"
"5006","","<div style=""width:500px;"">
  <p>How much control did you have over the ball?</p>
  </div>","62","html-slider-response","42","849179","0.0-10.0-2.0","26","1","2025-07-02 10:18:33","80fe4187154257d5fb01684ea91b68b9","45.80.193.156","Mozilla/5.0 (Windows NT 10.0; Win64; x64) AppleWebKit/537.36 (KHTML, like Gecko) Chrome/137.0.0.0 Safari/537.36","WebKit","Chrome","137.0.0.0","Windows","10.0","https://app.prolific.com/","en-US,en;q=0.9,de;q=0.8","66565f702a8c21be63eb93ce","683db6dfa200031b80f2a654","68650763212518160e457f3b","66565f702a8c21be63eb93ce","2025-07-02T10:32:43.426Z","","","","","","ControlQ","","","","","","","","","","","","","","","","","","","","","","","","","","","","","","","","","","","","","","50"
"5878","","<div style=""width:500px;"">
  <p>How would you describe your current emotional state?</p>
  </div>","52","html-slider-response","43","855058","0.0-10.0-3.0","26","1","2025-07-02 10:18:33","80fe4187154257d5fb01684ea91b68b9","45.80.193.156","Mozilla/5.0 (Windows NT 10.0; Win64; x64) AppleWebKit/537.36 (KHTML, like Gecko) Chrome/137.0.0.0 Safari/537.36","WebKit","Chrome","137.0.0.0","Windows","10.0","https://app.prolific.com/","en-US,en;q=0.9,de;q=0.8","66565f702a8c21be63eb93ce","683db6dfa200031b80f2a654","68650763212518160e457f3b","66565f702a8c21be63eb93ce","2025-07-02T10:32:49.305Z","","","","","","StressQ","","","","","","","","","","","","","","","","","","","","","","","","","","","","","","","","","","","","","","50"
"10230","","<div style=""width:500px;"">
  <p>What best describes how you currently feel?</p>
  </div>","59","html-slider-response","44","865289","0.0-10.0-4.0","26","1","2025-07-02 10:18:33","80fe4187154257d5fb01684ea91b68b9","45.80.193.156","Mozilla/5.0 (Windows NT 10.0; Win64; x64) AppleWebKit/537.36 (KHTML, like Gecko) Chrome/137.0.0.0 Safari/537.36","WebKit","Chrome","137.0.0.0","Windows","10.0","https://app.prolific.com/","en-US,en;q=0.9,de;q=0.8","66565f702a8c21be63eb93ce","683db6dfa200031b80f2a654","68650763212518160e457f3b","66565f702a8c21be63eb93ce","2025-07-02T10:32:59.537Z","","","","","","MotivationQ","","","","","","","","","","","","","","","","","","","","","","","","","","","","","","","","","","","","","","50"
"","","","","ctl-task-cpt","45","885841","0.0-10.0-0.1","26","1","2025-07-02 10:18:33","80fe4187154257d5fb01684ea91b68b9","45.80.193.156","Mozilla/5.0 (Windows NT 10.0; Win64; x64) AppleWebKit/537.36 (KHTML, like Gecko) Chrome/137.0.0.0 Safari/537.36","WebKit","Chrome","137.0.0.0","Windows","10.0","https://app.prolific.com/","en-US,en;q=0.9,de;q=0.8","66565f702a8c21be63eb93ce","683db6dfa200031b80f2a654","68650763212518160e457f3b","66565f702a8c21be63eb93ce","2025-07-02T10:33:20.089Z","","","","","","","","","","","","","","","","win-only","1","g1:NE,g2:SW","0.9","2","0","866577","2023","7027","17535","1","4","4","6","1","1","0","0","0","0","5004","3000","815","[""up"",""right""]","{""num_key_presses"":4,""num_perfect"":3,""num_errors"":1,""num_randdir"":0,""num_randdir_good_moves"":0,""num_whilered"":0,""num_whileblue"":1,""num_blue"":1,""num_good_moves"":4}","[406.5714133126395,414.07142761775424,1,406.5714133126395,414.07142761775424,103,406.5714133126395,414.07142761775424,208,406.5714133126395,414.07142761775424,310,406.5714133126395,414.07142761775424,411,406.5714133126395,414.07142761775424,512,406.5714133126395,414.07142761775424,615,406.5714133126395,414.07142761775424,717,406.5714133126395,414.07142761775424,819,406.5714133126395,414.07142761775424,919,406.5714133126395,414.07142761775424,1019,406.5714133126395,414.07142761775424,1122,406.5714133126395,414.07142761775424,1222,406.5714133126395,414.07142761775424,1326,406.5714133126395,414.07142761775424,1426,406.5714133126395,414.07142761775424,1530,406.5714133126395,414.07142761775424,1635,406.5714133126395,414.07142761775424,1737,406.5714133126395,414.07142761775424,1842,406.5714133126395,414.07142761775424,1945,406.5714133126395,414.07142761775424,2052,406.5714133126395,414.07142761775424,2155,406.5714133126395,414.07142761775424,2259,406.5714133126395,414.07142761775424,2364,406.5714133126395,414.07142761775424,2467,406.5714133126395,414.07142761775424,2567,406.5714133126395,414.07142761775424,2670,406.5714133126395,414.07142761775424,2774,406.5714133126395,414.07142761775424,2875,406.5714133126395,414.07142761775424,2980,406.5714133126395,414.07142761775424,3080,406.5714133126395,414.07142761775424,3180,406.5714133126395,414.07142761775424,3284,406.5714133126395,414.07142761775424,3387,406.5714133126395,414.07142761775424,3490,406.5714133126395,414.07142761775424,3590,406.5714133126395,414.07142761775424,3696,406.5714133126395,414.07142761775424,3801,406.5714133126395,414.07142761775424,3903,406.5714133126395,414.07142761775424,4003,406.5714133126395,414.07142761775424,4105,406.5714133126395,414.07142761775424,4209,406.5714133126395,414.07142761775424,4310,406.5714133126395,414.07142761775424,4411,406.5714133126395,414.07142761775424,4517,406.5714133126395,414.07142761775424,4625,406.5714133126395,414.07142761775424,4733,406.5714133126395,414.07142761775424,4835,406.5714133126395,414.07142761775424,4935]","[2828,2828,1000,0,1828,""smooth"",""up"",""up"",""good_move"",5411,2582,2098.8,2829,483.2,""smooth"",""up"",""up"",""good_move"",8077,2665,2415,5412,250,""while_blue"",""right"",""right"",""good_move"",10400,2322,1746.7,8078,575.3,""smooth"",""right"",""right"",""good_move""]","",""
"4445","","<div style=""width:500px;"">
  <p>What determined the result of this run?</p>
  </div>","62","html-slider-response","46","890290","0.0-10.0-1.1","26","1","2025-07-02 10:18:33","80fe4187154257d5fb01684ea91b68b9","45.80.193.156","Mozilla/5.0 (Windows NT 10.0; Win64; x64) AppleWebKit/537.36 (KHTML, like Gecko) Chrome/137.0.0.0 Safari/537.36","WebKit","Chrome","137.0.0.0","Windows","10.0","https://app.prolific.com/","en-US,en;q=0.9,de;q=0.8","66565f702a8c21be63eb93ce","683db6dfa200031b80f2a654","68650763212518160e457f3b","66565f702a8c21be63eb93ce","2025-07-02T10:33:24.537Z","","","","","","AttribQ","","","","","","","","","","","","","","","","","","","","","","","","","","","","","","","","","","","","","","50"
"2797","","<div style=""width:500px;"">
  <p>How much control did you have over the ball?</p>
  </div>","64","html-slider-response","47","893089","0.0-10.0-2.1","26","1","2025-07-02 10:18:33","80fe4187154257d5fb01684ea91b68b9","45.80.193.156","Mozilla/5.0 (Windows NT 10.0; Win64; x64) AppleWebKit/537.36 (KHTML, like Gecko) Chrome/137.0.0.0 Safari/537.36","WebKit","Chrome","137.0.0.0","Windows","10.0","https://app.prolific.com/","en-US,en;q=0.9,de;q=0.8","66565f702a8c21be63eb93ce","683db6dfa200031b80f2a654","68650763212518160e457f3b","66565f702a8c21be63eb93ce","2025-07-02T10:33:27.336Z","","","","","","ControlQ","","","","","","","","","","","","","","","","","","","","","","","","","","","","","","","","","","","","","","50"
"3355","","<div style=""width:500px;"">
  <p>How would you describe your current emotional state?</p>
  </div>","38","html-slider-response","48","896446","0.0-10.0-3.1","26","1","2025-07-02 10:18:33","80fe4187154257d5fb01684ea91b68b9","45.80.193.156","Mozilla/5.0 (Windows NT 10.0; Win64; x64) AppleWebKit/537.36 (KHTML, like Gecko) Chrome/137.0.0.0 Safari/537.36","WebKit","Chrome","137.0.0.0","Windows","10.0","https://app.prolific.com/","en-US,en;q=0.9,de;q=0.8","66565f702a8c21be63eb93ce","683db6dfa200031b80f2a654","68650763212518160e457f3b","66565f702a8c21be63eb93ce","2025-07-02T10:33:30.693Z","","","","","","StressQ","","","","","","","","","","","","","","","","","","","","","","","","","","","","","","","","","","","","","","50"
"4297","","<div style=""width:500px;"">
  <p>What best describes how you currently feel?</p>
  </div>","59","html-slider-response","49","900745","0.0-10.0-4.1","26","1","2025-07-02 10:18:33","80fe4187154257d5fb01684ea91b68b9","45.80.193.156","Mozilla/5.0 (Windows NT 10.0; Win64; x64) AppleWebKit/537.36 (KHTML, like Gecko) Chrome/137.0.0.0 Safari/537.36","WebKit","Chrome","137.0.0.0","Windows","10.0","https://app.prolific.com/","en-US,en;q=0.9,de;q=0.8","66565f702a8c21be63eb93ce","683db6dfa200031b80f2a654","68650763212518160e457f3b","66565f702a8c21be63eb93ce","2025-07-02T10:33:34.992Z","","","","","","MotivationQ","","","","","","","","","","","","","","","","","","","","","","","","","","","","","","","","","","","","","","50"
"","","","","ctl-task-cpt","50","935341","0.0-10.0-0.2","26","1","2025-07-02 10:18:33","80fe4187154257d5fb01684ea91b68b9","45.80.193.156","Mozilla/5.0 (Windows NT 10.0; Win64; x64) AppleWebKit/537.36 (KHTML, like Gecko) Chrome/137.0.0.0 Safari/537.36","WebKit","Chrome","137.0.0.0","Windows","10.0","https://app.prolific.com/","en-US,en;q=0.9,de;q=0.8","66565f702a8c21be63eb93ce","683db6dfa200031b80f2a654","68650763212518160e457f3b","66565f702a8c21be63eb93ce","2025-07-02T10:34:09.589Z","","","","","","","","","","","","","","","","win-only","0","g1:NW,g2:SE","0.8","3","0","902034","3449","8457","31577","1","4","4","6","1","1","0","0","0","0","5008","3000","1145","[""left"",""up""]","{""num_key_presses"":7,""num_perfect"":5,""num_errors"":1,""num_randdir"":1,""num_randdir_good_moves"":0,""num_whilered"":0,""num_whileblue"":0,""num_blue"":1,""num_good_moves"":5}","[407.8214133126395,415.32142761775424,0,407.8214133126395,415.32142761775424,105,407.8214133126395,415.32142761775424,205,407.8214133126395,415.32142761775424,307,407.8214133126395,415.32142761775424,408,407.8214133126395,415.32142761775424,516,407.8214133126395,415.32142761775424,618,407.8214133126395,415.32142761775424,720,407.8214133126395,415.32142761775424,822,407.8214133126395,415.32142761775424,927,407.8214133126395,415.32142761775424,1033,407.8214133126395,415.32142761775424,1140,407.8214133126395,415.32142761775424,1245,407.8214133126395,415.32142761775424,1354,407.8214133126395,415.32142761775424,1454,407.8214133126395,415.32142761775424,1564,407.8214133126395,415.32142761775424,1669,407.8214133126395,415.32142761775424,1770,407.8214133126395,415.32142761775424,1871,407.8214133126395,415.32142761775424,1972,407.8214133126395,415.32142761775424,2075,407.8214133126395,415.32142761775424,2181,407.8214133126395,415.32142761775424,2287,407.8214133126395,415.32142761775424,2388,407.8214133126395,415.32142761775424,2495,407.8214133126395,415.32142761775424,2600,407.8214133126395,415.32142761775424,2707,407.8214133126395,415.32142761775424,2812,407.8214133126395,415.32142761775424,2915,407.8214133126395,415.32142761775424,3023,407.8214133126395,415.32142761775424,3132,407.8214133126395,415.32142761775424,3234,407.8214133126395,415.32142761775424,3337,407.8214133126395,415.32142761775424,3437,407.8214133126395,415.32142761775424,3538,407.8214133126395,415.32142761775424,3644,407.8214133126395,415.32142761775424,3744,407.8214133126395,415.32142761775424,3849,407.8214133126395,415.32142761775424,3950,407.8214133126395,415.32142761775424,4056,407.8214133126395,415.32142761775424,4156,407.8214133126395,415.32142761775424,4258,407.8214133126395,415.32142761775424,4365,407.8214133126395,415.32142761775424,4465,407.8214133126395,415.32142761775424,4572,407.8214133126395,415.32142761775424,4673,407.8214133126395,415.32142761775424,4785,407.8214133126395,415.32142761775424,4886,407.8214133126395,415.32142761775424,4988]","[660,660,1000,0,-340,""error"",""-"",""-"",""no_move"",4111,3450,1882.9,1665,563.1,""smooth"",""up"",""up"",""good_move"",7379,3267,2688.2,4112,578.8,""smooth"",""up"",""up"",""good_move"",10577,3198,2624.6,7379,573.4,""smooth"",""left"",""left"",""good_move"",13799,3220,2557.6,10579,662.4,""oops"",""left"",""down"",""bad_move"",16843,3041,2077.5,13802,963.5,""smooth"",""left"",""left"",""good_move"",22900,6056,2495.2,19802,602.8,""smooth"",""up"",""up"",""good_move""]","",""
"3083","","<div style=""width:500px;"">
  <p>What determined the result of this run?</p>
  </div>","63","html-slider-response","51","938427","0.0-10.0-1.2","26","1","2025-07-02 10:18:33","80fe4187154257d5fb01684ea91b68b9","45.80.193.156","Mozilla/5.0 (Windows NT 10.0; Win64; x64) AppleWebKit/537.36 (KHTML, like Gecko) Chrome/137.0.0.0 Safari/537.36","WebKit","Chrome","137.0.0.0","Windows","10.0","https://app.prolific.com/","en-US,en;q=0.9,de;q=0.8","66565f702a8c21be63eb93ce","683db6dfa200031b80f2a654","68650763212518160e457f3b","66565f702a8c21be63eb93ce","2025-07-02T10:34:12.674Z","","","","","","AttribQ","","","","","","","","","","","","","","","","","","","","","","","","","","","","","","","","","","","","","","50"
"2334","","<div style=""width:500px;"">
  <p>How much control did you have over the ball?</p>
  </div>","66","html-slider-response","52","940764","0.0-10.0-2.2","26","1","2025-07-02 10:18:33","80fe4187154257d5fb01684ea91b68b9","45.80.193.156","Mozilla/5.0 (Windows NT 10.0; Win64; x64) AppleWebKit/537.36 (KHTML, like Gecko) Chrome/137.0.0.0 Safari/537.36","WebKit","Chrome","137.0.0.0","Windows","10.0","https://app.prolific.com/","en-US,en;q=0.9,de;q=0.8","66565f702a8c21be63eb93ce","683db6dfa200031b80f2a654","68650763212518160e457f3b","66565f702a8c21be63eb93ce","2025-07-02T10:34:15.011Z","","","","","","ControlQ","","","","","","","","","","","","","","","","","","","","","","","","","","","","","","","","","","","","","","50"
"2597","","<div style=""width:500px;"">
  <p>How would you describe your current emotional state?</p>
  </div>","32","html-slider-response","53","943362","0.0-10.0-3.2","26","1","2025-07-02 10:18:33","80fe4187154257d5fb01684ea91b68b9","45.80.193.156","Mozilla/5.0 (Windows NT 10.0; Win64; x64) AppleWebKit/537.36 (KHTML, like Gecko) Chrome/137.0.0.0 Safari/537.36","WebKit","Chrome","137.0.0.0","Windows","10.0","https://app.prolific.com/","en-US,en;q=0.9,de;q=0.8","66565f702a8c21be63eb93ce","683db6dfa200031b80f2a654","68650763212518160e457f3b","66565f702a8c21be63eb93ce","2025-07-02T10:34:17.609Z","","","","","","StressQ","","","","","","","","","","","","","","","","","","","","","","","","","","","","","","","","","","","","","","50"
"2196","","<div style=""width:500px;"">
  <p>What best describes how you currently feel?</p>
  </div>","72","html-slider-response","54","945561","0.0-10.0-4.2","26","1","2025-07-02 10:18:33","80fe4187154257d5fb01684ea91b68b9","45.80.193.156","Mozilla/5.0 (Windows NT 10.0; Win64; x64) AppleWebKit/537.36 (KHTML, like Gecko) Chrome/137.0.0.0 Safari/537.36","WebKit","Chrome","137.0.0.0","Windows","10.0","https://app.prolific.com/","en-US,en;q=0.9,de;q=0.8","66565f702a8c21be63eb93ce","683db6dfa200031b80f2a654","68650763212518160e457f3b","66565f702a8c21be63eb93ce","2025-07-02T10:34:19.808Z","","","","","","MotivationQ","","","","","","","","","","","","","","","","","","","","","","","","","","","","","","","","","","","","","","50"
"","","","","ctl-task-cpt","55","975380","0.0-10.0-0.3","26","1","2025-07-02 10:18:33","80fe4187154257d5fb01684ea91b68b9","45.80.193.156","Mozilla/5.0 (Windows NT 10.0; Win64; x64) AppleWebKit/537.36 (KHTML, like Gecko) Chrome/137.0.0.0 Safari/537.36","WebKit","Chrome","137.0.0.0","Windows","10.0","https://app.prolific.com/","en-US,en;q=0.9,de;q=0.8","66565f702a8c21be63eb93ce","683db6dfa200031b80f2a654","68650763212518160e457f3b","66565f702a8c21be63eb93ce","2025-07-02T10:34:49.627Z","","","","","","","","","","","","","","","","win-only","2","g1:SE,g2:NW","0.7","4","0","946851","3586","8592","26791","1","4","8","6","1","1","1","1","0","0.007575757575757576","5006","3000","2025","[""down"",""right""]","{""num_key_presses"":4,""num_perfect"":3,""num_errors"":0,""num_randdir"":1,""num_randdir_good_moves"":1,""num_whilered"":0,""num_whileblue"":0,""num_blue"":2,""num_good_moves"":4}","[417.8214133126395,429.07142761775424,1,417.8214133126395,429.07142761775424,103,417.8214133126395,429.07142761775424,203,417.8214133126395,429.07142761775424,308,417.8214133126395,429.07142761775424,419,417.8214133126395,429.07142761775424,520,417.8214133126395,429.07142761775424,624,417.8214133126395,429.07142761775424,724,417.8214133126395,429.07142761775424,829,417.8214133126395,429.07142761775424,935,417.8214133126395,429.07142761775424,1038,417.8214133126395,429.07142761775424,1141,417.8214133126395,429.07142761775424,1241,417.8214133126395,429.07142761775424,1346,417.8214133126395,429.07142761775424,1453,417.8214133126395,429.07142761775424,1561,417.8214133126395,429.07142761775424,1662,417.8214133126395,429.07142761775424,1766,417.8214133126395,429.07142761775424,1870,417.8214133126395,429.07142761775424,1981,417.8214133126395,429.07142761775424,2086,417.8214133126395,429.07142761775424,2188,417.8214133126395,429.07142761775424,2291,417.8214133126395,429.07142761775424,2398,417.8214133126395,429.07142761775424,2502,417.8214133126395,429.07142761775424,2604,417.8214133126395,429.07142761775424,2712,417.8214133126395,429.07142761775424,2816,417.8214133126395,429.07142761775424,2919,417.8214133126395,429.07142761775424,3031,417.8214133126395,429.07142761775424,3132,417.8214133126395,429.07142761775424,3240,417.8214133126395,429.07142761775424,3342,417.8214133126395,429.07142761775424,3450,417.8214133126395,429.07142761775424,3562,417.8214133126395,429.07142761775424,3665,417.8214133126395,429.07142761775424,3765,417.8214133126395,429.07142761775424,3870,417.8214133126395,429.07142761775424,3970,417.8214133126395,429.07142761775424,4076,417.8214133126395,429.07142761775424,4188,417.8214133126395,429.07142761775424,4293,417.8214133126395,429.07142761775424,4400,417.8214133126395,429.07142761775424,4509,417.8214133126395,429.07142761775424,4615,417.8214133126395,429.07142761775424,4717,417.8214133126395,429.07142761775424,4824,417.8214133126395,429.07142761775424,4928]","[1761,1761,1000,0,761,""oops"",""down"",""right"",""good_move"",5153,3391,2797.1,1763,592.9,""smooth"",""down"",""down"",""good_move"",15173,10020,2143.4,12408,622.6,""smooth"",""down"",""down"",""good_move"",17880,2706,2140.4,15174,565.6,""smooth"",""right"",""right"",""good_move""]","",""
"4105","","<div style=""width:500px;"">
  <p>What determined the result of this run?</p>
  </div>","71","html-slider-response","56","979489","0.0-10.0-1.3","26","1","2025-07-02 10:18:33","80fe4187154257d5fb01684ea91b68b9","45.80.193.156","Mozilla/5.0 (Windows NT 10.0; Win64; x64) AppleWebKit/537.36 (KHTML, like Gecko) Chrome/137.0.0.0 Safari/537.36","WebKit","Chrome","137.0.0.0","Windows","10.0","https://app.prolific.com/","en-US,en;q=0.9,de;q=0.8","66565f702a8c21be63eb93ce","683db6dfa200031b80f2a654","68650763212518160e457f3b","66565f702a8c21be63eb93ce","2025-07-02T10:34:53.736Z","","","","","","AttribQ","","","","","","","","","","","","","","","","","","","","","","","","","","","","","","","","","","","","","","50"
"2223","","<div style=""width:500px;"">
  <p>How much control did you have over the ball?</p>
  </div>","67","html-slider-response","57","981713","0.0-10.0-2.3","26","1","2025-07-02 10:18:33","80fe4187154257d5fb01684ea91b68b9","45.80.193.156","Mozilla/5.0 (Windows NT 10.0; Win64; x64) AppleWebKit/537.36 (KHTML, like Gecko) Chrome/137.0.0.0 Safari/537.36","WebKit","Chrome","137.0.0.0","Windows","10.0","https://app.prolific.com/","en-US,en;q=0.9,de;q=0.8","66565f702a8c21be63eb93ce","683db6dfa200031b80f2a654","68650763212518160e457f3b","66565f702a8c21be63eb93ce","2025-07-02T10:34:55.961Z","","","","","","ControlQ","","","","","","","","","","","","","","","","","","","","","","","","","","","","","","","","","","","","","","50"
"2369","","<div style=""width:500px;"">
  <p>How would you describe your current emotional state?</p>
  </div>","23","html-slider-response","58","984086","0.0-10.0-3.3","26","1","2025-07-02 10:18:33","80fe4187154257d5fb01684ea91b68b9","45.80.193.156","Mozilla/5.0 (Windows NT 10.0; Win64; x64) AppleWebKit/537.36 (KHTML, like Gecko) Chrome/137.0.0.0 Safari/537.36","WebKit","Chrome","137.0.0.0","Windows","10.0","https://app.prolific.com/","en-US,en;q=0.9,de;q=0.8","66565f702a8c21be63eb93ce","683db6dfa200031b80f2a654","68650763212518160e457f3b","66565f702a8c21be63eb93ce","2025-07-02T10:34:58.333Z","","","","","","StressQ","","","","","","","","","","","","","","","","","","","","","","","","","","","","","","","","","","","","","","50"
"1783","","<div style=""width:500px;"">
  <p>What best describes how you currently feel?</p>
  </div>","74","html-slider-response","59","985870","0.0-10.0-4.3","26","1","2025-07-02 10:18:33","80fe4187154257d5fb01684ea91b68b9","45.80.193.156","Mozilla/5.0 (Windows NT 10.0; Win64; x64) AppleWebKit/537.36 (KHTML, like Gecko) Chrome/137.0.0.0 Safari/537.36","WebKit","Chrome","137.0.0.0","Windows","10.0","https://app.prolific.com/","en-US,en;q=0.9,de;q=0.8","66565f702a8c21be63eb93ce","683db6dfa200031b80f2a654","68650763212518160e457f3b","66565f702a8c21be63eb93ce","2025-07-02T10:35:00.117Z","","","","","","MotivationQ","","","","","","","","","","","","","","","","","","","","","","","","","","","","","","","","","","","","","","50"
"","","","","ctl-task-cpt","60","1013354","0.0-10.0-0.4","26","1","2025-07-02 10:18:33","80fe4187154257d5fb01684ea91b68b9","45.80.193.156","Mozilla/5.0 (Windows NT 10.0; Win64; x64) AppleWebKit/537.36 (KHTML, like Gecko) Chrome/137.0.0.0 Safari/537.36","WebKit","Chrome","137.0.0.0","Windows","10.0","https://app.prolific.com/","en-US,en;q=0.9,de;q=0.8","66565f702a8c21be63eb93ce","683db6dfa200031b80f2a654","68650763212518160e457f3b","66565f702a8c21be63eb93ce","2025-07-02T10:35:27.601Z","","","","","","","","","","","","","","","","win-only","2","g1:SE,g2:NW","0.6","5","0","987159","5071","10074","24468","1","4","4","6","1","1","1","2","1","0.015151515151515152","2196","3000","2055","[""down"",""right""]","{""num_key_presses"":4,""num_perfect"":3,""num_errors"":0,""num_randdir"":1,""num_randdir_good_moves"":1,""num_whilered"":0,""num_whileblue"":0,""num_blue"":1,""num_good_moves"":4}","[406.5714133126395,425.32142761775424,1,406.5714133126395,425.32142761775424,102,406.5714133126395,425.32142761775424,210,406.5714133126395,425.32142761775424,310,406.5714133126395,425.32142761775424,418,406.5714133126395,425.32142761775424,529,406.5714133126395,425.32142761775424,632,406.5714133126395,425.32142761775424,742,406.5714133126395,425.32142761775424,848,406.5714133126395,425.32142761775424,959,406.5714133126395,425.32142761775424,1069,406.5714133126395,425.32142761775424,1175,406.5714133126395,425.32142761775424,1275,406.5714133126395,425.32142761775424,1387,406.5714133126395,425.32142761775424,1496,406.5714133126395,425.32142761775424,1615,406.5714133126395,425.32142761775424,1725,406.5714133126395,425.32142761775424,1830,406.5714133126395,425.32142761775424,1936,406.5714133126395,425.32142761775424,2156,777.8214133126395,774.0714276177542,2269,777.8214133126395,774.0714276177542,2384,777.8214133126395,774.0714276177542,2491,777.8214133126395,774.0714276177542,2597,777.8214133126395,774.0714276177542,2703,777.8214133126395,774.0714276177542,2817,777.8214133126395,774.0714276177542,2931,777.8214133126395,774.0714276177542,3034,777.8214133126395,774.0714276177542,3140,777.8214133126395,774.0714276177542,3245,777.8214133126395,774.0714276177542,3346,777.8214133126395,774.0714276177542,3459,777.8214133126395,774.0714276177542,3573,777.8214133126395,774.0714276177542,3686,777.8214133126395,774.0714276177542,3791,777.8214133126395,774.0714276177542,3904,777.8214133126395,774.0714276177542,4012,777.8214133126395,774.0714276177542,4127,777.8214133126395,774.0714276177542,4232,777.8214133126395,774.0714276177542,4333,777.8214133126395,774.0714276177542,4439,777.8214133126395,774.0714276177542,4539,777.8214133126395,774.0714276177542,4641,777.8214133126395,774.0714276177542,4749,777.8214133126395,774.0714276177542,4854,777.8214133126395,774.0714276177542,4956]","[1555,1555,1000,0,555,""oops"",""down"",""right"",""good_move"",4483,2925,2268.9,1558,656.1,""smooth"",""down"",""down"",""good_move"",10776,6291,2538.2,7582,655.8,""smooth"",""down"",""down"",""good_move"",14126,3349,2656,10777,693,""smooth"",""right"",""right"",""good_move""]","",""
"3616","","<div style=""width:500px;"">
  <p>What determined the result of this run?</p>
  </div>","63","html-slider-response","61","1016973","0.0-10.0-1.4","26","1","2025-07-02 10:18:33","80fe4187154257d5fb01684ea91b68b9","45.80.193.156","Mozilla/5.0 (Windows NT 10.0; Win64; x64) AppleWebKit/537.36 (KHTML, like Gecko) Chrome/137.0.0.0 Safari/537.36","WebKit","Chrome","137.0.0.0","Windows","10.0","https://app.prolific.com/","en-US,en;q=0.9,de;q=0.8","66565f702a8c21be63eb93ce","683db6dfa200031b80f2a654","68650763212518160e457f3b","66565f702a8c21be63eb93ce","2025-07-02T10:35:31.220Z","","","","","","AttribQ","","","","","","","","","","","","","","","","","","","","","","","","","","","","","","","","","","","","","","50"
"3035","","<div style=""width:500px;"">
  <p>How much control did you have over the ball?</p>
  </div>","65","html-slider-response","62","1020012","0.0-10.0-2.4","26","1","2025-07-02 10:18:33","80fe4187154257d5fb01684ea91b68b9","45.80.193.156","Mozilla/5.0 (Windows NT 10.0; Win64; x64) AppleWebKit/537.36 (KHTML, like Gecko) Chrome/137.0.0.0 Safari/537.36","WebKit","Chrome","137.0.0.0","Windows","10.0","https://app.prolific.com/","en-US,en;q=0.9,de;q=0.8","66565f702a8c21be63eb93ce","683db6dfa200031b80f2a654","68650763212518160e457f3b","66565f702a8c21be63eb93ce","2025-07-02T10:35:34.259Z","","","","","","ControlQ","","","","","","","","","","","","","","","","","","","","","","","","","","","","","","","","","","","","","","50"
"2081","","<div style=""width:500px;"">
  <p>How would you describe your current emotional state?</p>
  </div>","28","html-slider-response","63","1022095","0.0-10.0-3.4","26","1","2025-07-02 10:18:33","80fe4187154257d5fb01684ea91b68b9","45.80.193.156","Mozilla/5.0 (Windows NT 10.0; Win64; x64) AppleWebKit/537.36 (KHTML, like Gecko) Chrome/137.0.0.0 Safari/537.36","WebKit","Chrome","137.0.0.0","Windows","10.0","https://app.prolific.com/","en-US,en;q=0.9,de;q=0.8","66565f702a8c21be63eb93ce","683db6dfa200031b80f2a654","68650763212518160e457f3b","66565f702a8c21be63eb93ce","2025-07-02T10:35:36.342Z","","","","","","StressQ","","","","","","","","","","","","","","","","","","","","","","","","","","","","","","","","","","","","","","50"
"2578","","<div style=""width:500px;"">
  <p>What best describes how you currently feel?</p>
  </div>","67","html-slider-response","64","1024676","0.0-10.0-4.4","26","1","2025-07-02 10:18:33","80fe4187154257d5fb01684ea91b68b9","45.80.193.156","Mozilla/5.0 (Windows NT 10.0; Win64; x64) AppleWebKit/537.36 (KHTML, like Gecko) Chrome/137.0.0.0 Safari/537.36","WebKit","Chrome","137.0.0.0","Windows","10.0","https://app.prolific.com/","en-US,en;q=0.9,de;q=0.8","66565f702a8c21be63eb93ce","683db6dfa200031b80f2a654","68650763212518160e457f3b","66565f702a8c21be63eb93ce","2025-07-02T10:35:38.924Z","","","","","","MotivationQ","","","","","","","","","","","","","","","","","","","","","","","","","","","","","","","","","","","","","","50"
"","","","","ctl-task-cpt","65","1074904","0.0-10.0-0.5","26","1","2025-07-02 10:18:33","80fe4187154257d5fb01684ea91b68b9","45.80.193.156","Mozilla/5.0 (Windows NT 10.0; Win64; x64) AppleWebKit/537.36 (KHTML, like Gecko) Chrome/137.0.0.0 Safari/537.36","WebKit","Chrome","137.0.0.0","Windows","10.0","https://app.prolific.com/","en-US,en;q=0.9,de;q=0.8","66565f702a8c21be63eb93ce","683db6dfa200031b80f2a654","68650763212518160e457f3b","66565f702a8c21be63eb93ce","2025-07-02T10:36:29.151Z","","","","","","","","","","","","","","","","win-only","3","g1:SW,g2:NE","0.5","6","0","1025966","1797","6811","47195","1","4","8","6","2","8","8","10","2","0.07575757575757576","2485","3000","2080","[""up"",""right""]","{""num_key_presses"":8,""num_perfect"":4,""num_errors"":0,""num_randdir"":4,""num_randdir_good_moves"":3,""num_whilered"":0,""num_whileblue"":0,""num_blue"":2,""num_good_moves"":7}","[419.0714133126395,427.82142761775424,0,419.0714133126395,427.82142761775424,104,419.0714133126395,427.82142761775424,205,419.0714133126395,427.82142761775424,316,419.0714133126395,427.82142761775424,426,419.0714133126395,427.82142761775424,528,419.0714133126395,427.82142761775424,630,419.0714133126395,427.82142761775424,732,419.0714133126395,427.82142761775424,844,419.0714133126395,427.82142761775424,963,419.0714133126395,427.82142761775424,1071,419.0714133126395,427.82142761775424,1191,419.0714133126395,427.82142761775424,1304,419.0714133126395,427.82142761775424,1418,419.0714133126395,427.82142761775424,1525,419.0714133126395,427.82142761775424,1639,419.0714133126395,427.82142761775424,1748,419.0714133126395,427.82142761775424,1855,419.0714133126395,427.82142761775424,1969,419.0714133126395,427.82142761775424,2070,419.0714133126395,427.82142761775424,2170,419.0714133126395,427.82142761775424,2277,419.0714133126395,427.82142761775424,2379,419.0714133126395,427.82142761775424,2481,779.0714133126395,50.32142761775425,2594,779.0714133126395,50.32142761775425,2710,779.0714133126395,50.32142761775425,2823,779.0714133126395,50.32142761775425,2936,779.0714133126395,50.32142761775425,3052,779.0714133126395,50.32142761775425,3155,779.0714133126395,50.32142761775425,3261,779.0714133126395,50.32142761775425,3367,779.0714133126395,50.32142761775425,3488,779.0714133126395,50.32142761775425,3604,779.0714133126395,50.32142761775425,3704,779.0714133126395,50.32142761775425,3811,779.0714133126395,50.32142761775425,3913,779.0714133126395,50.32142761775425,4013,779.0714133126395,50.32142761775425,4124,779.0714133126395,50.32142761775425,4230,779.0714133126395,50.32142761775425,4356,779.0714133126395,50.32142761775425,4482,779.0714133126395,50.32142761775425,4605,779.0714133126395,50.32142761775425,4712,779.0714133126395,50.32142761775425,4812,779.0714133126395,50.32142761775425,4917]","[1552,1552,1000,0,552,""oops"",""up"",""right"",""good_move"",4782,3230,2660.8,1552,569.2,""smooth"",""right"",""right"",""good_move"",8035,3252,2602.9,4783,649.1,""smooth"",""right"",""right"",""good_move"",18262,10226,2523.1,14982,756.9,""smooth"",""up"",""up"",""good_move"",24560,6297,2941.8,18263,3355.2,""oops"",""up"",""down"",""bad_move"",27953,3392,2604.3,24561,787.7,""oops"",""up"",""up"",""good_move"",33711,5757,2994.8,27954,2762.2,""smooth"",""up"",""up"",""good_move"",39751,6039,2388.7,33712,3650.3,""oops"",""up"",""up"",""good_move""]","",""
"4887","","<div style=""width:500px;"">
  <p>What determined the result of this run?</p>
  </div>","74","html-slider-response","66","1079795","0.0-10.0-1.5","26","1","2025-07-02 10:18:33","80fe4187154257d5fb01684ea91b68b9","45.80.193.156","Mozilla/5.0 (Windows NT 10.0; Win64; x64) AppleWebKit/537.36 (KHTML, like Gecko) Chrome/137.0.0.0 Safari/537.36","WebKit","Chrome","137.0.0.0","Windows","10.0","https://app.prolific.com/","en-US,en;q=0.9,de;q=0.8","66565f702a8c21be63eb93ce","683db6dfa200031b80f2a654","68650763212518160e457f3b","66565f702a8c21be63eb93ce","2025-07-02T10:36:34.042Z","","","","","","AttribQ","","","","","","","","","","","","","","","","","","","","","","","","","","","","","","","","","","","","","","50"
"2101","","<div style=""width:500px;"">
  <p>How much control did you have over the ball?</p>
  </div>","81","html-slider-response","67","1081897","0.0-10.0-2.5","26","1","2025-07-02 10:18:33","80fe4187154257d5fb01684ea91b68b9","45.80.193.156","Mozilla/5.0 (Windows NT 10.0; Win64; x64) AppleWebKit/537.36 (KHTML, like Gecko) Chrome/137.0.0.0 Safari/537.36","WebKit","Chrome","137.0.0.0","Windows","10.0","https://app.prolific.com/","en-US,en;q=0.9,de;q=0.8","66565f702a8c21be63eb93ce","683db6dfa200031b80f2a654","68650763212518160e457f3b","66565f702a8c21be63eb93ce","2025-07-02T10:36:36.144Z","","","","","","ControlQ","","","","","","","","","","","","","","","","","","","","","","","","","","","","","","","","","","","","","","50"
"2445","","<div style=""width:500px;"">
  <p>How would you describe your current emotional state?</p>
  </div>","14","html-slider-response","68","1084343","0.0-10.0-3.5","26","1","2025-07-02 10:18:33","80fe4187154257d5fb01684ea91b68b9","45.80.193.156","Mozilla/5.0 (Windows NT 10.0; Win64; x64) AppleWebKit/537.36 (KHTML, like Gecko) Chrome/137.0.0.0 Safari/537.36","WebKit","Chrome","137.0.0.0","Windows","10.0","https://app.prolific.com/","en-US,en;q=0.9,de;q=0.8","66565f702a8c21be63eb93ce","683db6dfa200031b80f2a654","68650763212518160e457f3b","66565f702a8c21be63eb93ce","2025-07-02T10:36:38.591Z","","","","","","StressQ","","","","","","","","","","","","","","","","","","","","","","","","","","","","","","","","","","","","","","50"
"2724","","<div style=""width:500px;"">
  <p>What best describes how you currently feel?</p>
  </div>","85","html-slider-response","69","1087070","0.0-10.0-4.5","26","1","2025-07-02 10:18:33","80fe4187154257d5fb01684ea91b68b9","45.80.193.156","Mozilla/5.0 (Windows NT 10.0; Win64; x64) AppleWebKit/537.36 (KHTML, like Gecko) Chrome/137.0.0.0 Safari/537.36","WebKit","Chrome","137.0.0.0","Windows","10.0","https://app.prolific.com/","en-US,en;q=0.9,de;q=0.8","66565f702a8c21be63eb93ce","683db6dfa200031b80f2a654","68650763212518160e457f3b","66565f702a8c21be63eb93ce","2025-07-02T10:36:41.317Z","","","","","","MotivationQ","","","","","","","","","","","","","","","","","","","","","","","","","","","","","","","","","","","","","","50"
"","","","","ctl-task-cpt","70","1171426","0.0-10.0-0.6","26","1","2025-07-02 10:18:33","80fe4187154257d5fb01684ea91b68b9","45.80.193.156","Mozilla/5.0 (Windows NT 10.0; Win64; x64) AppleWebKit/537.36 (KHTML, like Gecko) Chrome/137.0.0.0 Safari/537.36","WebKit","Chrome","137.0.0.0","Windows","10.0","https://app.prolific.com/","en-US,en;q=0.9,de;q=0.8","66565f702a8c21be63eb93ce","683db6dfa200031b80f2a654","68650763212518160e457f3b","66565f702a8c21be63eb93ce","2025-07-02T10:38:05.673Z","","","","","","","","","","","","","","","","win-only","2","g1:SE,g2:NW","0.4","7","0","1088363","1704","6716","81329","1","4","8","6","2","-8","-8","2","10","0.015151515151515152","1457","3000","-1115","[""left"",""up""]","{""num_key_presses"":19,""num_perfect"":8,""num_errors"":0,""num_randdir"":11,""num_randdir_good_moves"":4,""num_whilered"":0,""num_whileblue"":0,""num_blue"":0,""num_good_moves"":12}","[417.8214133126395,416.57142761775424,0,417.8214133126395,416.57142761775424,106,417.8214133126395,416.57142761775424,208,417.8214133126395,416.57142761775424,312,417.8214133126395,416.57142761775424,417,417.8214133126395,416.57142761775424,522,417.8214133126395,416.57142761775424,634,417.8214133126395,416.57142761775424,743,417.8214133126395,416.57142761775424,851,417.8214133126395,416.57142761775424,966,417.8214133126395,416.57142761775424,1075,417.8214133126395,416.57142761775424,1187,417.8214133126395,416.57142761775424,1298,417.8214133126395,416.57142761775424,1454,51.57141331263951,41.57142761775425,1562,51.57141331263951,41.57142761775425,1665,51.57141331263951,41.57142761775425,1777,51.57141331263951,41.57142761775425,1886,51.57141331263951,41.57142761775425,1995,51.57141331263951,41.57142761775425,2106,51.57141331263951,41.57142761775425,2211,51.57141331263951,41.57142761775425,2313,51.57141331263951,41.57142761775425,2420,51.57141331263951,41.57142761775425,2531,51.57141331263951,41.57142761775425,2642,51.57141331263951,41.57142761775425,2749,51.57141331263951,41.57142761775425,2861,51.57141331263951,41.57142761775425,2962,51.57141331263951,41.57142761775425,3070,51.57141331263951,41.57142761775425,3170,51.57141331263951,41.57142761775425,3272,51.57141331263951,41.57142761775425,3382,51.57141331263951,41.57142761775425,3483,51.57141331263951,41.57142761775425,3593,51.57141331263951,41.57142761775425,3693,51.57141331263951,41.57142761775425,3797,51.57141331263951,41.57142761775425,3908,51.57141331263951,41.57142761775425,4013,51.57141331263951,41.57142761775425,4127,51.57141331263951,41.57142761775425,4240,51.57141331263951,41.57142761775425,4346,51.57141331263951,41.57142761775425,4453,51.57141331263951,41.57142761775425,4560,51.57141331263951,41.57142761775425,4660,51.57141331263951,41.57142761775425,4769,51.57141331263951,41.57142761775425,4872,51.57141331263951,41.57142761775425,4984]","[1619,1619,1000,0,619,""smooth"",""left"",""left"",""good_move"",5459,3839,2471.6,1620,1367.4,""smooth"",""left"",""left"",""good_move"",9580,4119,2493.4,5461,1625.6,""oops"",""left"",""left"",""good_move"",13163,3581,3012.2,9582,568.8,""smooth"",""up"",""up"",""good_move"",16912,3747,3165.8,13165,581.2,""oops"",""up"",""down"",""bad_move"",19809,2896,2097.2,16913,798.8,""oops"",""up"",""up"",""good_move"",23464,3653,2833.7,19811,819.3,""smooth"",""up"",""up"",""good_move"",27688,4223,2684.6,23465,1538.4,""oops"",""up"",""down"",""bad_move"",31291,3602,2966.9,27689,635.1,""oops"",""up"",""down"",""bad_move"",34965,3674,3068.8,31291,605.2,""oops"",""up"",""down"",""bad_move"",37705,2739,2065.3,34966,673.7,""oops"",""down"",""right"",""bad_move"",40814,3108,2554.6,37706,553.4,""smooth"",""up"",""up"",""good_move"",45995,5179,3108.6,40816,2070.4,""smooth"",""up"",""up"",""good_move"",51432,5436,2369,45996,3067,""oops"",""up"",""down"",""bad_move"",55022,3589,2626.6,51433,962.4,""smooth"",""up"",""up"",""good_move"",60471,5448,2193.8,55023,3254.2,""oops"",""up"",""up"",""good_move"",64010,3538,2881.3,60472,656.7,""oops"",""left"",""right"",""bad_move"",67500,3489,2751.4,64011,737.6,""smooth"",""left"",""left"",""good_move"",71425,3922,2561.9,67503,1360.1,""oops"",""left"",""left"",""good_move""]","",""
"4548","","<div style=""width:500px;"">
  <p>What determined the result of this run?</p>
  </div>","17","html-slider-response","71","1175976","0.0-10.0-1.6","26","1","2025-07-02 10:18:33","80fe4187154257d5fb01684ea91b68b9","45.80.193.156","Mozilla/5.0 (Windows NT 10.0; Win64; x64) AppleWebKit/537.36 (KHTML, like Gecko) Chrome/137.0.0.0 Safari/537.36","WebKit","Chrome","137.0.0.0","Windows","10.0","https://app.prolific.com/","en-US,en;q=0.9,de;q=0.8","66565f702a8c21be63eb93ce","683db6dfa200031b80f2a654","68650763212518160e457f3b","66565f702a8c21be63eb93ce","2025-07-02T10:38:10.224Z","","","","","","AttribQ","","","","","","","","","","","","","","","","","","","","","","","","","","","","","","","","","","","","","","50"
"2384","","<div style=""width:500px;"">
  <p>How much control did you have over the ball?</p>
  </div>","83","html-slider-response","72","1178362","0.0-10.0-2.6","26","1","2025-07-02 10:18:33","80fe4187154257d5fb01684ea91b68b9","45.80.193.156","Mozilla/5.0 (Windows NT 10.0; Win64; x64) AppleWebKit/537.36 (KHTML, like Gecko) Chrome/137.0.0.0 Safari/537.36","WebKit","Chrome","137.0.0.0","Windows","10.0","https://app.prolific.com/","en-US,en;q=0.9,de;q=0.8","66565f702a8c21be63eb93ce","683db6dfa200031b80f2a654","68650763212518160e457f3b","66565f702a8c21be63eb93ce","2025-07-02T10:38:12.609Z","","","","","","ControlQ","","","","","","","","","","","","","","","","","","","","","","","","","","","","","","","","","","","","","","50"
"3532","","<div style=""width:500px;"">
  <p>How would you describe your current emotional state?</p>
  </div>","58","html-slider-response","73","1181897","0.0-10.0-3.6","26","1","2025-07-02 10:18:33","80fe4187154257d5fb01684ea91b68b9","45.80.193.156","Mozilla/5.0 (Windows NT 10.0; Win64; x64) AppleWebKit/537.36 (KHTML, like Gecko) Chrome/137.0.0.0 Safari/537.36","WebKit","Chrome","137.0.0.0","Windows","10.0","https://app.prolific.com/","en-US,en;q=0.9,de;q=0.8","66565f702a8c21be63eb93ce","683db6dfa200031b80f2a654","68650763212518160e457f3b","66565f702a8c21be63eb93ce","2025-07-02T10:38:16.144Z","","","","","","StressQ","","","","","","","","","","","","","","","","","","","","","","","","","","","","","","","","","","","","","","50"
"2351","","<div style=""width:500px;"">
  <p>What best describes how you currently feel?</p>
  </div>","81","html-slider-response","74","1184250","0.0-10.0-4.6","26","1","2025-07-02 10:18:33","80fe4187154257d5fb01684ea91b68b9","45.80.193.156","Mozilla/5.0 (Windows NT 10.0; Win64; x64) AppleWebKit/537.36 (KHTML, like Gecko) Chrome/137.0.0.0 Safari/537.36","WebKit","Chrome","137.0.0.0","Windows","10.0","https://app.prolific.com/","en-US,en;q=0.9,de;q=0.8","66565f702a8c21be63eb93ce","683db6dfa200031b80f2a654","68650763212518160e457f3b","66565f702a8c21be63eb93ce","2025-07-02T10:38:18.497Z","","","","","","MotivationQ","","","","","","","","","","","","","","","","","","","","","","","","","","","","","","","","","","","","","","50"
"","","","","ctl-task-cpt","75","1230000","0.0-10.0-0.7","26","1","2025-07-02 10:18:33","80fe4187154257d5fb01684ea91b68b9","45.80.193.156","Mozilla/5.0 (Windows NT 10.0; Win64; x64) AppleWebKit/537.36 (KHTML, like Gecko) Chrome/137.0.0.0 Safari/537.36","WebKit","Chrome","137.0.0.0","Windows","10.0","https://app.prolific.com/","en-US,en;q=0.9,de;q=0.8","66565f702a8c21be63eb93ce","683db6dfa200031b80f2a654","68650763212518160e457f3b","66565f702a8c21be63eb93ce","2025-07-02T10:39:04.247Z","","","","","","","","","","","","","","","","win-only","1","g1:NE,g2:SW","0.3","8","0","1185540","1272","6287","42718","1","4","4","6","2","4","4","6","2","0.045454545454545456","2382","3000","1560","[""down"",""left""]","{""num_key_presses"":10,""num_perfect"":3,""num_errors"":0,""num_randdir"":7,""num_randdir_good_moves"":5,""num_whilered"":0,""num_whileblue"":0,""num_blue"":0,""num_good_moves"":8}","[420.3214133126395,409.07142761775424,1,420.3214133126395,409.07142761775424,109,420.3214133126395,409.07142761775424,225,420.3214133126395,409.07142761775424,338,420.3214133126395,409.07142761775424,443,420.3214133126395,409.07142761775424,554,420.3214133126395,409.07142761775424,661,420.3214133126395,409.07142761775424,769,420.3214133126395,409.07142761775424,876,420.3214133126395,409.07142761775424,985,420.3214133126395,409.07142761775424,1098,420.3214133126395,409.07142761775424,1205,420.3214133126395,409.07142761775424,1311,420.3214133126395,409.07142761775424,1411,420.3214133126395,409.07142761775424,1517,420.3214133126395,409.07142761775424,1627,420.3214133126395,409.07142761775424,1740,420.3214133126395,409.07142761775424,1840,420.3214133126395,409.07142761775424,1940,420.3214133126395,409.07142761775424,2042,420.3214133126395,409.07142761775424,2156,420.3214133126395,409.07142761775424,2301,40.32141331263951,780.3214276177542,2411,40.32141331263951,780.3214276177542,2515,40.32141331263951,780.3214276177542,2616,40.32141331263951,780.3214276177542,2733,40.32141331263951,780.3214276177542,2839,40.32141331263951,780.3214276177542,2947,40.32141331263951,780.3214276177542,3063,40.32141331263951,780.3214276177542,3171,40.32141331263951,780.3214276177542,3274,40.32141331263951,780.3214276177542,3384,40.32141331263951,780.3214276177542,3488,40.32141331263951,780.3214276177542,3596,40.32141331263951,780.3214276177542,3702,40.32141331263951,780.3214276177542,3815,40.32141331263951,780.3214276177542,3925,40.32141331263951,780.3214276177542,4025,40.32141331263951,780.3214276177542,4130,40.32141331263951,780.3214276177542,4239,40.32141331263951,780.3214276177542,4342,40.32141331263951,780.3214276177542,4455,40.32141331263951,780.3214276177542,4565,40.32141331263951,780.3214276177542,4675,40.32141331263951,780.3214276177542,4806,40.32141331263951,780.3214276177542,4920]","[1600,1600,1000,0,600,""oops"",""down"",""down"",""good_move"",4605,3004,2409.9,1601,594.1,""oops"",""down"",""left"",""good_move"",9117,4509,2925.6,4608,1583.4,""smooth"",""down"",""down"",""good_move"",13159,4040,3462.3,9119,577.7,""oops"",""down"",""right"",""bad_move"",16088,2927,2369.3,13161,557.7,""oops"",""down"",""up"",""bad_move"",21125,5036,2691,16089,2345,""smooth"",""left"",""left"",""good_move"",24592,3466,2689.4,21126,776.6,""oops"",""left"",""down"",""good_move"",28128,3535,2953.4,24593,581.6,""smooth"",""left"",""left"",""good_move"",31924,3795,2671.7,28129,1123.3,""oops"",""left"",""left"",""good_move"",36006,4081,1656.1,31926,2423.9,""oops"",""down"",""down"",""good_move""]","",""
"3124","","<div style=""width:500px;"">
  <p>What determined the result of this run?</p>
  </div>","79","html-slider-response","76","1233127","0.0-10.0-1.7","26","1","2025-07-02 10:18:33","80fe4187154257d5fb01684ea91b68b9","45.80.193.156","Mozilla/5.0 (Windows NT 10.0; Win64; x64) AppleWebKit/537.36 (KHTML, like Gecko) Chrome/137.0.0.0 Safari/537.36","WebKit","Chrome","137.0.0.0","Windows","10.0","https://app.prolific.com/","en-US,en;q=0.9,de;q=0.8","66565f702a8c21be63eb93ce","683db6dfa200031b80f2a654","68650763212518160e457f3b","66565f702a8c21be63eb93ce","2025-07-02T10:39:07.374Z","","","","","","AttribQ","","","","","","","","","","","","","","","","","","","","","","","","","","","","","","","","","","","","","","50"
"3326","","<div style=""width:500px;"">
  <p>How much control did you have over the ball?</p>
  </div>","73","html-slider-response","77","1236457","0.0-10.0-2.7","26","1","2025-07-02 10:18:33","80fe4187154257d5fb01684ea91b68b9","45.80.193.156","Mozilla/5.0 (Windows NT 10.0; Win64; x64) AppleWebKit/537.36 (KHTML, like Gecko) Chrome/137.0.0.0 Safari/537.36","WebKit","Chrome","137.0.0.0","Windows","10.0","https://app.prolific.com/","en-US,en;q=0.9,de;q=0.8","66565f702a8c21be63eb93ce","683db6dfa200031b80f2a654","68650763212518160e457f3b","66565f702a8c21be63eb93ce","2025-07-02T10:39:10.704Z","","","","","","ControlQ","","","","","","","","","","","","","","","","","","","","","","","","","","","","","","","","","","","","","","50"
"2322","","<div style=""width:500px;"">
  <p>How would you describe your current emotional state?</p>
  </div>","23","html-slider-response","78","1238782","0.0-10.0-3.7","26","1","2025-07-02 10:18:33","80fe4187154257d5fb01684ea91b68b9","45.80.193.156","Mozilla/5.0 (Windows NT 10.0; Win64; x64) AppleWebKit/537.36 (KHTML, like Gecko) Chrome/137.0.0.0 Safari/537.36","WebKit","Chrome","137.0.0.0","Windows","10.0","https://app.prolific.com/","en-US,en;q=0.9,de;q=0.8","66565f702a8c21be63eb93ce","683db6dfa200031b80f2a654","68650763212518160e457f3b","66565f702a8c21be63eb93ce","2025-07-02T10:39:13.029Z","","","","","","StressQ","","","","","","","","","","","","","","","","","","","","","","","","","","","","","","","","","","","","","","50"
"2671","","<div style=""width:500px;"">
  <p>What best describes how you currently feel?</p>
  </div>","79","html-slider-response","79","1241455","0.0-10.0-4.7","26","1","2025-07-02 10:18:33","80fe4187154257d5fb01684ea91b68b9","45.80.193.156","Mozilla/5.0 (Windows NT 10.0; Win64; x64) AppleWebKit/537.36 (KHTML, like Gecko) Chrome/137.0.0.0 Safari/537.36","WebKit","Chrome","137.0.0.0","Windows","10.0","https://app.prolific.com/","en-US,en;q=0.9,de;q=0.8","66565f702a8c21be63eb93ce","683db6dfa200031b80f2a654","68650763212518160e457f3b","66565f702a8c21be63eb93ce","2025-07-02T10:39:15.702Z","","","","","","MotivationQ","","","","","","","","","","","","","","","","","","","","","","","","","","","","","","","","","","","","","","50"
"","","","","ctl-task-cpt","80","1296976","0.0-10.0-0.8","26","1","2025-07-02 10:18:33","80fe4187154257d5fb01684ea91b68b9","45.80.193.156","Mozilla/5.0 (Windows NT 10.0; Win64; x64) AppleWebKit/537.36 (KHTML, like Gecko) Chrome/137.0.0.0 Safari/537.36","WebKit","Chrome","137.0.0.0","Windows","10.0","https://app.prolific.com/","en-US,en;q=0.9,de;q=0.8","66565f702a8c21be63eb93ce","683db6dfa200031b80f2a654","68650763212518160e457f3b","66565f702a8c21be63eb93ce","2025-07-02T10:40:11.223Z","","","","","","","","","","","","","","","","win-only","0","g1:NW,g2:SE","0.4","9","0","1242745","2028","7046","52487","1","4","8","6","2","8","8","14","6","0.10606060606060606","1800","3000","1075","[""down"",""right""]","{""num_key_presses"":12,""num_perfect"":6,""num_errors"":0,""num_randdir"":6,""num_randdir_good_moves"":3,""num_whilered"":0,""num_whileblue"":0,""num_blue"":1,""num_good_moves"":9}","[422.8214133126395,411.57142761775424,1,422.8214133126395,411.57142761775424,101,422.8214133126395,411.57142761775424,213,422.8214133126395,411.57142761775424,317,422.8214133126395,411.57142761775424,417,422.8214133126395,411.57142761775424,519,422.8214133126395,411.57142761775424,633,422.8214133126395,411.57142761775424,741,422.8214133126395,411.57142761775424,858,422.8214133126395,411.57142761775424,967,422.8214133126395,411.57142761775424,1082,422.8214133126395,411.57142761775424,1198,422.8214133126395,411.57142761775424,1312,422.8214133126395,411.57142761775424,1428,422.8214133126395,411.57142761775424,1544,422.8214133126395,411.57142761775424,1644,422.8214133126395,411.57142761775424,1750,749.0714133126395,752.8214276177542,1857,749.0714133126395,752.8214276177542,1959,749.0714133126395,752.8214276177542,2073,749.0714133126395,752.8214276177542,2175,749.0714133126395,752.8214276177542,2293,749.0714133126395,752.8214276177542,2410,749.0714133126395,752.8214276177542,2510,749.0714133126395,752.8214276177542,2615,749.0714133126395,752.8214276177542,2723,749.0714133126395,752.8214276177542,2844,749.0714133126395,752.8214276177542,2946,749.0714133126395,752.8214276177542,3052,749.0714133126395,752.8214276177542,3171,749.0714133126395,752.8214276177542,3273,749.0714133126395,752.8214276177542,3380,749.0714133126395,752.8214276177542,3493,749.0714133126395,752.8214276177542,3614,749.0714133126395,752.8214276177542,3719,749.0714133126395,752.8214276177542,3832,749.0714133126395,752.8214276177542,3949,749.0714133126395,752.8214276177542,4059,749.0714133126395,752.8214276177542,4172,749.0714133126395,752.8214276177542,4272,749.0714133126395,752.8214276177542,4380,749.0714133126395,752.8214276177542,4483,749.0714133126395,752.8214276177542,4589,749.0714133126395,752.8214276177542,4703,749.0714133126395,752.8214276177542,4815,749.0714133126395,752.8214276177542,4917]","[1838,1838,1000,0,838,""smooth"",""down"",""down"",""good_move"",5579,3740,2808.5,1839,931.5,""smooth"",""down"",""down"",""good_move"",9362,3782,3104,5580,678,""oops"",""down"",""up"",""bad_move"",13810,4446,1863.3,9364,2582.7,""smooth"",""right"",""right"",""good_move"",16294,2481,1767.4,13813,713.6,""oops"",""right"",""up"",""bad_move"",20623,4329,2610.3,16294,1718.7,""oops"",""right"",""up"",""bad_move"",25667,5044,1613.4,20623,3430.6,""oops"",""down"",""down"",""good_move"",28638,2970,2369.8,25668,600.2,""oops"",""down"",""down"",""good_move"",31876,3237,2652.6,28639,584.4,""smooth"",""down"",""down"",""good_move"",34850,2972,2291.5,31878,680.5,""oops"",""down"",""down"",""good_move"",38059,3202,2553.3,34857,648.7,""smooth"",""right"",""right"",""good_move"",45054,6995,2122.2,42264,667.8,""smooth"",""right"",""right"",""good_move""]","",""
"8480","","<div style=""width:500px;"">
  <p>What determined the result of this run?</p>
  </div>","86","html-slider-response","81","1305459","0.0-10.0-1.8","26","1","2025-07-02 10:18:33","80fe4187154257d5fb01684ea91b68b9","45.80.193.156","Mozilla/5.0 (Windows NT 10.0; Win64; x64) AppleWebKit/537.36 (KHTML, like Gecko) Chrome/137.0.0.0 Safari/537.36","WebKit","Chrome","137.0.0.0","Windows","10.0","https://app.prolific.com/","en-US,en;q=0.9,de;q=0.8","66565f702a8c21be63eb93ce","683db6dfa200031b80f2a654","68650763212518160e457f3b","66565f702a8c21be63eb93ce","2025-07-02T10:40:19.706Z","","","","","","AttribQ","","","","","","","","","","","","","","","","","","","","","","","","","","","","","","","","","","","","","","50"
"4237","","<div style=""width:500px;"">
  <p>How much control did you have over the ball?</p>
  </div>","78","html-slider-response","82","1309698","0.0-10.0-2.8","26","1","2025-07-02 10:18:33","80fe4187154257d5fb01684ea91b68b9","45.80.193.156","Mozilla/5.0 (Windows NT 10.0; Win64; x64) AppleWebKit/537.36 (KHTML, like Gecko) Chrome/137.0.0.0 Safari/537.36","WebKit","Chrome","137.0.0.0","Windows","10.0","https://app.prolific.com/","en-US,en;q=0.9,de;q=0.8","66565f702a8c21be63eb93ce","683db6dfa200031b80f2a654","68650763212518160e457f3b","66565f702a8c21be63eb93ce","2025-07-02T10:40:23.945Z","","","","","","ControlQ","","","","","","","","","","","","","","","","","","","","","","","","","","","","","","","","","","","","","","50"
"3440","","<div style=""width:500px;"">
  <p>How would you describe your current emotional state?</p>
  </div>","13","html-slider-response","83","1313141","0.0-10.0-3.8","26","1","2025-07-02 10:18:33","80fe4187154257d5fb01684ea91b68b9","45.80.193.156","Mozilla/5.0 (Windows NT 10.0; Win64; x64) AppleWebKit/537.36 (KHTML, like Gecko) Chrome/137.0.0.0 Safari/537.36","WebKit","Chrome","137.0.0.0","Windows","10.0","https://app.prolific.com/","en-US,en;q=0.9,de;q=0.8","66565f702a8c21be63eb93ce","683db6dfa200031b80f2a654","68650763212518160e457f3b","66565f702a8c21be63eb93ce","2025-07-02T10:40:27.388Z","","","","","","StressQ","","","","","","","","","","","","","","","","","","","","","","","","","","","","","","","","","","","","","","50"
"3174","","<div style=""width:500px;"">
  <p>What best describes how you currently feel?</p>
  </div>","76","html-slider-response","84","1316316","0.0-10.0-4.8","26","1","2025-07-02 10:18:33","80fe4187154257d5fb01684ea91b68b9","45.80.193.156","Mozilla/5.0 (Windows NT 10.0; Win64; x64) AppleWebKit/537.36 (KHTML, like Gecko) Chrome/137.0.0.0 Safari/537.36","WebKit","Chrome","137.0.0.0","Windows","10.0","https://app.prolific.com/","en-US,en;q=0.9,de;q=0.8","66565f702a8c21be63eb93ce","683db6dfa200031b80f2a654","68650763212518160e457f3b","66565f702a8c21be63eb93ce","2025-07-02T10:40:30.564Z","","","","","","MotivationQ","","","","","","","","","","","","","","","","","","","","","","","","","","","","","","","","","","","","","","50"
"","","","","ctl-task-cpt","85","1369297","0.0-10.0-0.9","26","1","2025-07-02 10:18:33","80fe4187154257d5fb01684ea91b68b9","45.80.193.156","Mozilla/5.0 (Windows NT 10.0; Win64; x64) AppleWebKit/537.36 (KHTML, like Gecko) Chrome/137.0.0.0 Safari/537.36","WebKit","Chrome","137.0.0.0","Windows","10.0","https://app.prolific.com/","en-US,en;q=0.9,de;q=0.8","66565f702a8c21be63eb93ce","683db6dfa200031b80f2a654","68650763212518160e457f3b","66565f702a8c21be63eb93ce","2025-07-02T10:41:23.545Z","","","","","","","","","","","","","","","","win-only","2","g1:SE,g2:NW","0.5","10","0","1317608","3560","8570","49939","1","4","4","6","2","4","4","18","14","0.13636363636363635","1519","3000","1870","[""left"",""up""]","{""num_key_presses"":8,""num_perfect"":4,""num_errors"":0,""num_randdir"":4,""num_randdir_good_moves"":3,""num_whilered"":0,""num_whileblue"":0,""num_blue"":2,""num_good_moves"":7}","[414.0714133126395,426.57142761775424,1,414.0714133126395,426.57142761775424,108,414.0714133126395,426.57142761775424,212,414.0714133126395,426.57142761775424,317,414.0714133126395,426.57142761775424,422,414.0714133126395,426.57142761775424,537,414.0714133126395,426.57142761775424,647,414.0714133126395,426.57142761775424,764,414.0714133126395,426.57142761775424,874,414.0714133126395,426.57142761775424,981,414.0714133126395,426.57142761775424,1091,414.0714133126395,426.57142761775424,1202,414.0714133126395,426.57142761775424,1324,414.0714133126395,426.57142761775424,1436,84.0714133126395,120.32142761775425,1550,84.0714133126395,120.32142761775425,1654,84.0714133126395,120.32142761775425,1770,84.0714133126395,120.32142761775425,1882,84.0714133126395,120.32142761775425,1998,84.0714133126395,120.32142761775425,2117,84.0714133126395,120.32142761775425,2238,84.0714133126395,120.32142761775425,2360,84.0714133126395,120.32142761775425,2474,84.0714133126395,120.32142761775425,2591,84.0714133126395,120.32142761775425,2719,84.0714133126395,120.32142761775425,2837,84.0714133126395,120.32142761775425,2945,84.0714133126395,120.32142761775425,3069,84.0714133126395,120.32142761775425,3189,84.0714133126395,120.32142761775425,3312,84.0714133126395,120.32142761775425,3434,84.0714133126395,120.32142761775425,3537,84.0714133126395,120.32142761775425,3653,84.0714133126395,120.32142761775425,3753,84.0714133126395,120.32142761775425,3869,84.0714133126395,120.32142761775425,3983,84.0714133126395,120.32142761775425,4091,84.0714133126395,120.32142761775425,4212,84.0714133126395,120.32142761775425,4331,84.0714133126395,120.32142761775425,4431,84.0714133126395,120.32142761775425,4548,84.0714133126395,120.32142761775425,4662,84.0714133126395,120.32142761775425,4763,84.0714133126395,120.32142761775425,4869,84.0714133126395,120.32142761775425,4975]","[5522,5522,2866.2,2033,622.8,""oops"",""left"",""up"",""good_move"",9473,3950,2225.6,5523,1724.4,""oops"",""left"",""up"",""good_move"",14427,4953,2921.1,9474,2031.9,""smooth"",""left"",""left"",""good_move"",19594,5166,2334.6,14428,2831.4,""smooth"",""left"",""left"",""good_move"",25551,5956,2579.4,19595,3376.6,""oops"",""left"",""down"",""bad_move"",28754,3202,2255.8,25552,946.2,""smooth"",""up"",""up"",""good_move"",32673,3918,2394.8,28755,1523.2,""oops"",""up"",""left"",""good_move"",40972,8298,2826.1,37460,685.9,""smooth"",""up"",""up"",""good_move""]","",""
"4480","","<div style=""width:500px;"">
  <p>What determined the result of this run?</p>
  </div>","84","html-slider-response","86","1373780","0.0-10.0-1.9","26","1","2025-07-02 10:18:33","80fe4187154257d5fb01684ea91b68b9","45.80.193.156","Mozilla/5.0 (Windows NT 10.0; Win64; x64) AppleWebKit/537.36 (KHTML, like Gecko) Chrome/137.0.0.0 Safari/537.36","WebKit","Chrome","137.0.0.0","Windows","10.0","https://app.prolific.com/","en-US,en;q=0.9,de;q=0.8","66565f702a8c21be63eb93ce","683db6dfa200031b80f2a654","68650763212518160e457f3b","66565f702a8c21be63eb93ce","2025-07-02T10:41:28.027Z","","","","","","AttribQ","","","","","","","","","","","","","","","","","","","","","","","","","","","","","","","","","","","","","","50"
"2419","","<div style=""width:500px;"">
  <p>How much control did you have over the ball?</p>
  </div>","73","html-slider-response","87","1376201","0.0-10.0-2.9","26","1","2025-07-02 10:18:33","80fe4187154257d5fb01684ea91b68b9","45.80.193.156","Mozilla/5.0 (Windows NT 10.0; Win64; x64) AppleWebKit/537.36 (KHTML, like Gecko) Chrome/137.0.0.0 Safari/537.36","WebKit","Chrome","137.0.0.0","Windows","10.0","https://app.prolific.com/","en-US,en;q=0.9,de;q=0.8","66565f702a8c21be63eb93ce","683db6dfa200031b80f2a654","68650763212518160e457f3b","66565f702a8c21be63eb93ce","2025-07-02T10:41:30.448Z","","","","","","ControlQ","","","","","","","","","","","","","","","","","","","","","","","","","","","","","","","","","","","","","","50"
"2354","","<div style=""width:500px;"">
  <p>How would you describe your current emotional state?</p>
  </div>","18","html-slider-response","88","1378557","0.0-10.0-3.9","26","1","2025-07-02 10:18:33","80fe4187154257d5fb01684ea91b68b9","45.80.193.156","Mozilla/5.0 (Windows NT 10.0; Win64; x64) AppleWebKit/537.36 (KHTML, like Gecko) Chrome/137.0.0.0 Safari/537.36","WebKit","Chrome","137.0.0.0","Windows","10.0","https://app.prolific.com/","en-US,en;q=0.9,de;q=0.8","66565f702a8c21be63eb93ce","683db6dfa200031b80f2a654","68650763212518160e457f3b","66565f702a8c21be63eb93ce","2025-07-02T10:41:32.804Z","","","","","","StressQ","","","","","","","","","","","","","","","","","","","","","","","","","","","","","","","","","","","","","","50"
"2982","","<div style=""width:500px;"">
  <p>What best describes how you currently feel?</p>
