"rt","response_timestamp","stimulus","response","trial_type","trial_index","time_elapsed","internal_node_id","run_id","condition","recorded_at","source_code_version","ip","user_agent","device","browser","browser_version","platform","platform_version","referer","accept_language","PROLIFIC_PID","STUDY_ID","SESSION_ID","prolific_id","realtime","view_history","question_order","consent","success","question_id","eventType","responses","item_order","radio_event_ids","radio_event_times","key_event_times","mouse_event_times","straightlining","zigzagging","honeypot","which_type","canvas_config","goals_layout","control_level","trial_number","tutorial_trial_number","trial_start_time","phase1_start_time","phase2_start_time","phase3_start_time","goal_1_value","goal_1_distance","goal_2_value","goal_2_distance","goal_selected","outcome","outcome_total","participant_final_score","participant_initial_score","participant_final_score_prop","goal_choice_rt","allocated_time","allocated_time_remaining","goal_direction","counts","mouse_movements","key_presses","correct","slider_start"
"8036","1751451695103","<p style='font-size:40px;line-height:1.25'><strong>Welcome to the experiment!</strong></p><p style='font-size:1.1em;line-height:1.25'>Thank you for your interest in our experiment! Before you begin, it is important that we obtain your informed consent to participate in the study.</p><p style='font-size:1.1em;line-height:1.25'>On the next screen will be an <strong>information sheet</strong> for you to read. To participate in the study we need you to read this information sheet and the following consent form carefully. If you agree with all the statements, please click the <strong>I agree</strong> button.</p><p style='font-size:1.1em;line-height:1.25'>Press <strong>Next</strong> to read the information sheet.</p>","0","custom-html-button-response","0","8037","0.0-0.0","152","1","2025-07-02 10:21:26","80fe4187154257d5fb01684ea91b68b9","82.42.137.12","Mozilla/5.0 (Windows NT 10.0; Win64; x64) AppleWebKit/537.36 (KHTML, like Gecko) Chrome/137.0.0.0 Safari/537.36","WebKit","Chrome","137.0.0.0","Windows","10.0","https://app.prolific.com/","en-GB,en-US;q=0.9,en;q=0.8","665af4a3c2815b2a7850332e","683db6dfa200031b80f2a654","68650791318766eacc0ac99a","665af4a3c2815b2a7850332e","2025-07-02T10:21:35.103Z","","","","","","","","","","","","","","","","","","","","","","","","","","","","","","","","","","","","","","","","","","","",""
"25151","","","","instructions","1","33189","0.0-1.0","152","1","2025-07-02 10:21:26","80fe4187154257d5fb01684ea91b68b9","82.42.137.12","Mozilla/5.0 (Windows NT 10.0; Win64; x64) AppleWebKit/537.36 (KHTML, like Gecko) Chrome/137.0.0.0 Safari/537.36","WebKit","Chrome","137.0.0.0","Windows","10.0","https://app.prolific.com/","en-GB,en-US;q=0.9,en;q=0.8","665af4a3c2815b2a7850332e","683db6dfa200031b80f2a654","68650791318766eacc0ac99a","665af4a3c2815b2a7850332e","","[{""page_index"":0,""viewing_time"":15063},{""page_index"":1,""viewing_time"":10088}]","","","","","","","","","","","","","","","","","","","","","","","","","","","","","","","","","","","","","","","","","","",""
"8199","","","{""Q0"":"""",""Q1"":"""",""Q2"":"""",""Q3"":"""",""Q4"":"""",""Q5"":"""",""Q6"":""I agree""}","survey-multi-choice","2","41390","0.0-2.0","152","1","2025-07-02 10:21:26","80fe4187154257d5fb01684ea91b68b9","82.42.137.12","Mozilla/5.0 (Windows NT 10.0; Win64; x64) AppleWebKit/537.36 (KHTML, like Gecko) Chrome/137.0.0.0 Safari/537.36","WebKit","Chrome","137.0.0.0","Windows","10.0","https://app.prolific.com/","en-GB,en-US;q=0.9,en;q=0.8","665af4a3c2815b2a7850332e","683db6dfa200031b80f2a654","68650791318766eacc0ac99a","665af4a3c2815b2a7850332e","","","[0,1,2,3,4,5,6]","true","","","","","","","","","","","","","","","","","","","","","","","","","","","","","","","","","","","","","","","","",""
"11486","","","","fullscreen","3","53886","0.0-4.0","152","1","2025-07-02 10:21:26","80fe4187154257d5fb01684ea91b68b9","82.42.137.12","Mozilla/5.0 (Windows NT 10.0; Win64; x64) AppleWebKit/537.36 (KHTML, like Gecko) Chrome/137.0.0.0 Safari/537.36","WebKit","Chrome","137.0.0.0","Windows","10.0","https://app.prolific.com/","en-GB,en-US;q=0.9,en;q=0.8","665af4a3c2815b2a7850332e","683db6dfa200031b80f2a654","68650791318766eacc0ac99a","665af4a3c2815b2a7850332e","","","","","true","","","","","","","","","","","","","","","","","","","","","","","","","","","","","","","","","","","","","","","",""
"5230","1751451746183"," <p style='font-size:1.1em;line-height:1.25'>Thank you for completing the consent form and closing all other tabs.</p><p style='font-size:1.1em;line-height:1.25'>We will now invite you to fill in some demographic information and questionnaires, before starting the game.<br>This will take about 5 minutes.<br></p><p style='font-size:1.1em;line-height:1.25'>Press the <strong>Next</strong> button to continue.</p>","0","custom-html-button-response","4","59117","0.0-5.0","152","1","2025-07-02 10:21:26","80fe4187154257d5fb01684ea91b68b9","82.42.137.12","Mozilla/5.0 (Windows NT 10.0; Win64; x64) AppleWebKit/537.36 (KHTML, like Gecko) Chrome/137.0.0.0 Safari/537.36","WebKit","Chrome","137.0.0.0","Windows","10.0","https://app.prolific.com/","en-GB,en-US;q=0.9,en;q=0.8","665af4a3c2815b2a7850332e","683db6dfa200031b80f2a654","68650791318766eacc0ac99a","665af4a3c2815b2a7850332e","2025-07-02T10:22:26.183Z","","","","","","","","","","","","","","","","","","","","","","","","","","","","","","","","","","","","","","","","","","","",""
"3142","","","{""age"":""24""}","survey-text","5","62262","0.0-6.0-0.0","152","1","2025-07-02 10:21:26","80fe4187154257d5fb01684ea91b68b9","82.42.137.12","Mozilla/5.0 (Windows NT 10.0; Win64; x64) AppleWebKit/537.36 (KHTML, like Gecko) Chrome/137.0.0.0 Safari/537.36","WebKit","Chrome","137.0.0.0","Windows","10.0","https://app.prolific.com/","en-GB,en-US;q=0.9,en;q=0.8","665af4a3c2815b2a7850332e","683db6dfa200031b80f2a654","68650791318766eacc0ac99a","665af4a3c2815b2a7850332e","","","","","","0","demographics","","","","","","","","","","","","","","","","","","","","","","","","","","","","","","","","","","","","","",""
"4447","","","{""gender_identity"":""male/man""}","survey-multi-choice","6","66709","0.0-6.0-1.0","152","1","2025-07-02 10:21:26","80fe4187154257d5fb01684ea91b68b9","82.42.137.12","Mozilla/5.0 (Windows NT 10.0; Win64; x64) AppleWebKit/537.36 (KHTML, like Gecko) Chrome/137.0.0.0 Safari/537.36","WebKit","Chrome","137.0.0.0","Windows","10.0","https://app.prolific.com/","en-GB,en-US;q=0.9,en;q=0.8","665af4a3c2815b2a7850332e","683db6dfa200031b80f2a654","68650791318766eacc0ac99a","665af4a3c2815b2a7850332e","","","[0]","","","1","demographics","","","","","","","","","","","","","","","","","","","","","","","","","","","","","","","","","","","","","",""
"4088","","","{""assigned_sex"":""male""}","survey-multi-choice","7","70797","0.0-6.0-2.0","152","1","2025-07-02 10:21:26","80fe4187154257d5fb01684ea91b68b9","82.42.137.12","Mozilla/5.0 (Windows NT 10.0; Win64; x64) AppleWebKit/537.36 (KHTML, like Gecko) Chrome/137.0.0.0 Safari/537.36","WebKit","Chrome","137.0.0.0","Windows","10.0","https://app.prolific.com/","en-GB,en-US;q=0.9,en;q=0.8","665af4a3c2815b2a7850332e","683db6dfa200031b80f2a654","68650791318766eacc0ac99a","665af4a3c2815b2a7850332e","","","[0]","","","2","demographics","","","","","","","","","","","","","","","","","","","","","","","","","","","","","","","","","","","","","",""
"4247","","","{""menstrual_cycle"":""No""}","survey-multi-choice","8","75045","0.0-6.0-3.0","152","1","2025-07-02 10:21:26","80fe4187154257d5fb01684ea91b68b9","82.42.137.12","Mozilla/5.0 (Windows NT 10.0; Win64; x64) AppleWebKit/537.36 (KHTML, like Gecko) Chrome/137.0.0.0 Safari/537.36","WebKit","Chrome","137.0.0.0","Windows","10.0","https://app.prolific.com/","en-GB,en-US;q=0.9,en;q=0.8","665af4a3c2815b2a7850332e","683db6dfa200031b80f2a654","68650791318766eacc0ac99a","665af4a3c2815b2a7850332e","","","[0]","","","4","demographics","","","","","","","","","","","","","","","","","","","","","","","","","","","","","","","","","","","","","",""
"19208","","","{""education"":""A-level/National Diploma/Highers""}","survey-multi-choice","9","94254","0.0-6.0-4.0","152","1","2025-07-02 10:21:26","80fe4187154257d5fb01684ea91b68b9","82.42.137.12","Mozilla/5.0 (Windows NT 10.0; Win64; x64) AppleWebKit/537.36 (KHTML, like Gecko) Chrome/137.0.0.0 Safari/537.36","WebKit","Chrome","137.0.0.0","Windows","10.0","https://app.prolific.com/","en-GB,en-US;q=0.9,en;q=0.8","665af4a3c2815b2a7850332e","683db6dfa200031b80f2a654","68650791318766eacc0ac99a","665af4a3c2815b2a7850332e","","","[0]","","","5","demographics","","","","","","","","","","","","","","","","","","","","","","","","","","","","","","","","","","","","","",""
"16503","","","{""education"":""GCSE/Standard Grades""}","survey-multi-choice","10","110757","0.0-6.0-5.0","152","1","2025-07-02 10:21:26","80fe4187154257d5fb01684ea91b68b9","82.42.137.12","Mozilla/5.0 (Windows NT 10.0; Win64; x64) AppleWebKit/537.36 (KHTML, like Gecko) Chrome/137.0.0.0 Safari/537.36","WebKit","Chrome","137.0.0.0","Windows","10.0","https://app.prolific.com/","en-GB,en-US;q=0.9,en;q=0.8","665af4a3c2815b2a7850332e","683db6dfa200031b80f2a654","68650791318766eacc0ac99a","665af4a3c2815b2a7850332e","2025-07-02T10:23:17.823Z","","[0]","","","6","demographics","","","","","","","","","","","","","","","","","","","","","","","","","","","","","","","","","","","","","",""
"16566","","","{""mental_health_condition"":""No"",""mental_health_treatment"":""No"",""psychiatric_medication"":""N/A""}","survey-text","11","127325","0.0-7.0-0.0","152","1","2025-07-02 10:21:26","80fe4187154257d5fb01684ea91b68b9","82.42.137.12","Mozilla/5.0 (Windows NT 10.0; Win64; x64) AppleWebKit/537.36 (KHTML, like Gecko) Chrome/137.0.0.0 Safari/537.36","WebKit","Chrome","137.0.0.0","Windows","10.0","https://app.prolific.com/","en-GB,en-US;q=0.9,en;q=0.8","665af4a3c2815b2a7850332e","683db6dfa200031b80f2a654","68650791318766eacc0ac99a","665af4a3c2815b2a7850332e","2025-07-02T10:23:34.391Z","","","","","1","mental_health","","","","","","","","","","","","","","","","","","","","","","","","","","","","","","","","","","","","","",""
"14007","","","{""depression_history"":[""No""]}","survey-multi-select","12","141333","0.0-7.0-1.0","152","1","2025-07-02 10:21:26","80fe4187154257d5fb01684ea91b68b9","82.42.137.12","Mozilla/5.0 (Windows NT 10.0; Win64; x64) AppleWebKit/537.36 (KHTML, like Gecko) Chrome/137.0.0.0 Safari/537.36","WebKit","Chrome","137.0.0.0","Windows","10.0","https://app.prolific.com/","en-GB,en-US;q=0.9,en;q=0.8","665af4a3c2815b2a7850332e","683db6dfa200031b80f2a654","68650791318766eacc0ac99a","665af4a3c2815b2a7850332e","","","[0]","","","","mental_health","","","","","","","","","","","","","","","","","","","","","","","","","","","","","","","","","","","","","",""
"86815.90000000596","","","","survey-template","13","228152","0.0-7.0-3.0","152","1","2025-07-02 10:21:26","80fe4187154257d5fb01684ea91b68b9","82.42.137.12","Mozilla/5.0 (Windows NT 10.0; Win64; x64) AppleWebKit/537.36 (KHTML, like Gecko) Chrome/137.0.0.0 Safari/537.36","WebKit","Chrome","137.0.0.0","Windows","10.0","https://app.prolific.com/","en-GB,en-US;q=0.9,en;q=0.8","665af4a3c2815b2a7850332e","683db6dfa200031b80f2a654","68650791318766eacc0ac99a","665af4a3c2815b2a7850332e","2025-07-02T10:25:15.218Z","","","","","","ius","{""Q01"":""1"",""Q02"":""2"",""Q03"":""1"",""Q04"":""3"",""Q05"":""2"",""Q06"":""2"",""Q07"":""2"",""Q08"":""0"",""Q09"":""3"",""Q10"":""1"",""Q11"":""2"",""Q12"":""3"",""Q13"":""1""}","[0,1,2,3,4,5,6,7,8,9,10,11,12]","[""Q01"",""Q02"",""Q03"",""Q04"",""Q05"",""Q06"",""Q07"",""Q08"",""Q09"",""Q10"",""Q11"",""Q12"",""Q13""]","[12718.09999999404,19413.69999998808,37973.30000001192,43357.30000001192,48349.19999998808,55221.30000001192,62925.69999998808,65629.5,69629.59999999404,74221.5,77645.30000001192,81781.09999999404,84309.40000000596]","[]","[12718.09999999404,19413.69999998808,37973.30000001192,43357.30000001192,48349.19999998808,53077.90000000596,53893.5,54757.5,55221.30000001192,62925.69999998808,65629.5,69629.59999999404,74221.5,77645.30000001192,81781.09999999404,84309.40000000596,86813.90000000596]","0.38461538461538464","0.4166666666666667","0","","","","","","","","","","","","","","","","","","","","","","","","","","","","",""
"3932","1751451919150","<p style='font-size:1.1em;line-height:1.25'>In the following, we will ask you a few questions relating to your experiences over the past month.<br></p><p style='font-size:1.1em;line-height:1.25'>Press the <strong>Next</strong> button to continue.</p>","0","custom-html-button-response","14","232085","0.0-7.0-4.0","152","1","2025-07-02 10:21:26","80fe4187154257d5fb01684ea91b68b9","82.42.137.12","Mozilla/5.0 (Windows NT 10.0; Win64; x64) AppleWebKit/537.36 (KHTML, like Gecko) Chrome/137.0.0.0 Safari/537.36","WebKit","Chrome","137.0.0.0","Windows","10.0","https://app.prolific.com/","en-GB,en-US;q=0.9,en;q=0.8","665af4a3c2815b2a7850332e","683db6dfa200031b80f2a654","68650791318766eacc0ac99a","665af4a3c2815b2a7850332e","2025-07-02T10:25:19.151Z","","","","","","","","","","","","","","","","","","","","","","","","","","","","","","","","","","","","","","","","","","","",""
"97384.59999999404","","","","survey-template","15","329471","0.0-7.0-5.0","152","1","2025-07-02 10:21:26","80fe4187154257d5fb01684ea91b68b9","82.42.137.12","Mozilla/5.0 (Windows NT 10.0; Win64; x64) AppleWebKit/537.36 (KHTML, like Gecko) Chrome/137.0.0.0 Safari/537.36","WebKit","Chrome","137.0.0.0","Windows","10.0","https://app.prolific.com/","en-GB,en-US;q=0.9,en;q=0.8","665af4a3c2815b2a7850332e","683db6dfa200031b80f2a654","68650791318766eacc0ac99a","665af4a3c2815b2a7850332e","2025-07-02T10:26:56.537Z","","","","","","pss","{""Q01"":""1"",""Q02"":""3"",""Q03"":""1"",""Q04"":""2"",""Q05"":""3"",""Q06"":""0"",""Q07"":""2"",""Q08"":""2"",""Q09"":""1"",""Q10"":""2""}","[0,1,2,3,4,5,6,7,8,9]","[""Q01"",""Q02"",""Q03"",""Q04"",""Q05"",""Q06"",""Q07"",""Q08"",""Q09"",""Q10""]","[22574.69999998808,29262.899999976158,39206.09999999404,48166.79999998212,52590.29999998212,60438.59999999404,72678.59999999404,81966,89302.5,94189.89999997616]","[]","[6,21870.69999998808,22574.69999998808,29262.899999976158,39206.09999999404,48166.79999998212,52590.29999998212,60438.59999999404,72678.59999999404,81966,89302.5,94189.89999997616,97382.59999999404]","0.4","0.5555555555555556","0","","","","","","","","","","","","","","","","","","","","","","","","","","","","",""
"2725","1751452019262","<p style='font-size:1.1em;line-height:1.25'>Thank you for your answers! Now we will ask you a few more questions relating to your feelings in the last 24 hours.<br></p><p style='font-size:1.1em;line-height:1.25'>Press the <strong>Next</strong> button to continue.</p>","0","custom-html-button-response","16","332197","0.0-7.0-6.0","152","1","2025-07-02 10:21:26","80fe4187154257d5fb01684ea91b68b9","82.42.137.12","Mozilla/5.0 (Windows NT 10.0; Win64; x64) AppleWebKit/537.36 (KHTML, like Gecko) Chrome/137.0.0.0 Safari/537.36","WebKit","Chrome","137.0.0.0","Windows","10.0","https://app.prolific.com/","en-GB,en-US;q=0.9,en;q=0.8","665af4a3c2815b2a7850332e","683db6dfa200031b80f2a654","68650791318766eacc0ac99a","665af4a3c2815b2a7850332e","2025-07-02T10:26:59.263Z","","","","","","","","","","","","","","","","","","","","","","","","","","","","","","","","","","","","","","","","","","","",""
"131466.29999998212","","","","survey-template","17","463665","0.0-7.0-7.0","152","1","2025-07-02 10:21:26","80fe4187154257d5fb01684ea91b68b9","82.42.137.12","Mozilla/5.0 (Windows NT 10.0; Win64; x64) AppleWebKit/537.36 (KHTML, like Gecko) Chrome/137.0.0.0 Safari/537.36","WebKit","Chrome","137.0.0.0","Windows","10.0","https://app.prolific.com/","en-GB,en-US;q=0.9,en;q=0.8","665af4a3c2815b2a7850332e","683db6dfa200031b80f2a654","68650791318766eacc0ac99a","665af4a3c2815b2a7850332e","2025-07-02T10:29:10.731Z","","","","","","drsp","{""Q01"":""1"",""Q02"":""1"",""Q03"":""0"",""Q04"":""1"",""Q05"":""1"",""Q06"":""0"",""Q07"":""2"",""Q08"":""0"",""Q09"":""0"",""Q10"":""0"",""Q11"":""0"",""Q12"":""0"",""Q13"":""2"",""Q14"":""0"",""Q15"":""0"",""Q16"":""1"",""Q17"":""1"",""Q18"":""3"",""Q19"":""0"",""Q20"":""0"",""Q21"":""0""}","[0,1,2,3,4,5,6,7,8,9,10,11,12,13,14,15,16,17,18,19,20]","[""Q01"",""Q02"",""Q03"",""Q05"",""Q06"",""Q07"",""Q04"",""Q08"",""Q09"",""Q10"",""Q11"",""Q12"",""Q13"",""Q14"",""Q15"",""Q16"",""Q17"",""Q18"",""Q19"",""Q20"",""Q21""]","[15606.199999988079,21654.40000000596,25278.40000000596,34278.59999999404,35294.29999998212,46238.40000000596,49838.40000000596,53462.19999998808,56558,59262.69999998808,61502.40000000596,66246.40000000596,73678.19999998808,76974.19999998808,78774.5,99254.19999998808,101286.09999999404,111702.29999998212,118022.29999998212,124958.29999998212,126757.90000000596]","[]","[8.299999982118607,15022.40000000596,15606.199999988079,21654.40000000596,25278.40000000596,34278.59999999404,35294.29999998212,44382.59999999404,45214.19999998808,46238.40000000596,49838.40000000596,53462.19999998808,56558,59262.69999998808,61502.40000000596,66246.40000000596,73678.19999998808,76974.19999998808,78774.5,99254.19999998808,101286.09999999404,110886.29999998212,111702.29999998212,118022.29999998212,122806.40000000596,124958.29999998212,125654.29999998212,126141.79999998212,126757.90000000596,131462.09999999404]","0.5714285714285714","0.2","0","","","","","","","","","","","","","","","","","","","","","","","","","","","","",""
"28218.70000001788","","","","survey-template","18","491885","0.0-7.0-8.0","152","1","2025-07-02 10:21:26","80fe4187154257d5fb01684ea91b68b9","82.42.137.12","Mozilla/5.0 (Windows NT 10.0; Win64; x64) AppleWebKit/537.36 (KHTML, like Gecko) Chrome/137.0.0.0 Safari/537.36","WebKit","Chrome","137.0.0.0","Windows","10.0","https://app.prolific.com/","en-GB,en-US;q=0.9,en;q=0.8","665af4a3c2815b2a7850332e","683db6dfa200031b80f2a654","68650791318766eacc0ac99a","665af4a3c2815b2a7850332e","2025-07-02T10:29:38.951Z","","","","","","stress","{""Q01"":""2"",""Q02"":""3"",""Q03"":""0""}","[0,1,2]","[""Q01"",""Q03"",""Q02""]","[15489.90000000596,20970.09999999404,25785.80000001192]","[]","[15489.90000000596,20970.09999999404,25785.80000001192,28218]","0.6666666666666666","0","0","","","","","","","","","","","","","","","","","","","","","","","","","","","","",""
"83070","","","","instructions","19","574956","0.0-8.0-0.0","152","1","2025-07-02 10:21:26","80fe4187154257d5fb01684ea91b68b9","82.42.137.12","Mozilla/5.0 (Windows NT 10.0; Win64; x64) AppleWebKit/537.36 (KHTML, like Gecko) Chrome/137.0.0.0 Safari/537.36","WebKit","Chrome","137.0.0.0","Windows","10.0","https://app.prolific.com/","en-GB,en-US;q=0.9,en;q=0.8","665af4a3c2815b2a7850332e","683db6dfa200031b80f2a654","68650791318766eacc0ac99a","665af4a3c2815b2a7850332e","","[{""page_index"":0,""viewing_time"":18846},{""page_index"":1,""viewing_time"":32856},{""page_index"":2,""viewing_time"":8392},{""page_index"":3,""viewing_time"":22976}]","","","","","","","","","","","","","","","","","","","","","","","","","","","","","","","","","","","","","","","","","","",""
"","","","","ctl-task-cpt","20","614055","0.0-8.0-1.0","152","1","2025-07-02 10:21:26","80fe4187154257d5fb01684ea91b68b9","82.42.137.12","Mozilla/5.0 (Windows NT 10.0; Win64; x64) AppleWebKit/537.36 (KHTML, like Gecko) Chrome/137.0.0.0 Safari/537.36","WebKit","Chrome","137.0.0.0","Windows","10.0","https://app.prolific.com/","en-GB,en-US;q=0.9,en;q=0.8","665af4a3c2815b2a7850332e","683db6dfa200031b80f2a654","68650791318766eacc0ac99a","665af4a3c2815b2a7850332e","","","","","","","","","","","","","","","","","win-only","3","g1:SW,g2:NE","1","0","1","576279.7","4694","8695.9","36091.1","2","4","4","6","2","4","3","3","0","0.022727272727272728","2431.9","4000","2180","[""up"",""right""]","{""num_key_presses"":9,""num_perfect"":6,""num_errors"":1,""num_randdir"":0,""num_randdir_good_moves"":0,""num_whilered"":2,""num_whileblue"":0,""num_blue"":3,""num_good_moves"":6}","[840.8928189958845,830.7991042818342,0.3,840.8928189958845,830.7991042818342,120.1,840.8928189958845,830.7991042818342,222.5,901.6428189958845,950.0491042818342,322.5,901.6428189958845,952.2991042818342,425.7,901.6428189958845,952.2991042818342,526.7,901.6428189958845,952.2991042818342,627.2,901.6428189958845,952.2991042818342,732,901.6428189958845,952.2991042818342,832.7,989.3928189958845,878.0491042818342,942.3,1151.3928189958845,713.7991042818342,1043.3,1164.8928189958845,711.5491042818342,1146.9,1164.8928189958845,731.7991042818342,1248.3,1135.6428189958845,797.0491042818342,1352.4,1135.6428189958845,797.0491042818342,1458,1135.6428189958845,797.0491042818342,1561.9,1187.3928189958845,747.5491042818342,1661.9,1414.6428189958845,536.0491042818342,1763.6,1531.6428189958845,362.79910428183416,1876.7,1533.8928189958845,293.04910428183416,1982.2,1540.6428189958845,245.7991042818342,2084.6,1524.8928189958845,203.0491042818342,2193.5,1522.6428189958845,203.0491042818342,2296.9,1522.6428189958845,203.0491042818342,2398.3,1522.6428189958845,203.0491042818342,2502.3,1531.6428189958845,216.5491042818342,2610.5,1531.6428189958845,239.0491042818342,2712.1,1531.6428189958845,239.0491042818342,2812.6,1531.6428189958845,239.0491042818342,2925.8,1531.6428189958845,239.0491042818342,3026.2,1531.6428189958845,239.0491042818342,3126.4,1531.6428189958845,239.0491042818342,3231.7,1531.6428189958845,239.0491042818342,3331.8,1531.6428189958845,239.0491042818342,3442.5,1531.6428189958845,239.0491042818342,3548,1531.6428189958845,239.0491042818342,3651.8,1531.6428189958845,239.0491042818342,3759.8,1531.6428189958845,239.0491042818342,3862.4,1531.6428189958845,239.0491042818342,3962.5]","[5123.7,5123.7,2693.2,2007.7,422.8,""smooth"",""right"",""right"",""good_move"",5240.6,116.7,2774.4,5123.9,-2657.7,""error"",""-"",""-"",""no_move"",5390,148.9,2774.4,5123.9,-2508.3,""while_red"",""-"",""-"",""no_move"",5523.9,282.8,2774.4,5123.9,-2374.4,""while_red"",""-"",""-"",""no_move"",15976.4,10735.3,2570.7,12999.7,406,""smooth"",""right"",""right"",""good_move"",19045.5,3068.9,2693.2,15976.6,375.7,""smooth"",""right"",""right"",""good_move"",21324.9,2279.2,1870.8,19045.7,408.4,""smooth"",""up"",""up"",""good_move"",24240.1,2914.9,2537.5,21325.2,377.4,""smooth"",""up"",""up"",""good_move"",27258,3017.8,2644.1,24240.3,373.7,""smooth"",""up"",""up"",""good_move""]","",""
"15156","","","","instructions","21","629212","0.0-8.0-2.0","152","1","2025-07-02 10:21:26","80fe4187154257d5fb01684ea91b68b9","82.42.137.12","Mozilla/5.0 (Windows NT 10.0; Win64; x64) AppleWebKit/537.36 (KHTML, like Gecko) Chrome/137.0.0.0 Safari/537.36","WebKit","Chrome","137.0.0.0","Windows","10.0","https://app.prolific.com/","en-GB,en-US;q=0.9,en;q=0.8","665af4a3c2815b2a7850332e","683db6dfa200031b80f2a654","68650791318766eacc0ac99a","665af4a3c2815b2a7850332e","","[{""page_index"":0,""viewing_time"":15156}]","","","","","","","","","","","","","","","","","","","","","","","","","","","","","","","","","","","","","","","","","","",""
"","","","","ctl-task-cpt","22","691466","0.0-8.0-3.0","152","1","2025-07-02 10:21:26","80fe4187154257d5fb01684ea91b68b9","82.42.137.12","Mozilla/5.0 (Windows NT 10.0; Win64; x64) AppleWebKit/537.36 (KHTML, like Gecko) Chrome/137.0.0.0 Safari/537.36","WebKit","Chrome","137.0.0.0","Windows","10.0","https://app.prolific.com/","en-GB,en-US;q=0.9,en;q=0.8","665af4a3c2815b2a7850332e","683db6dfa200031b80f2a654","68650791318766eacc0ac99a","665af4a3c2815b2a7850332e","","","","","","","","","","","","","","","","","win-only","3","g1:SW,g2:NE","0.35","0","3","630535.5","3119.8","7123.1","59239.7","2","4","8","6","1","-2","-2","0","0","0","2423.5","4000","-1935","[""down"",""left""]","{""num_key_presses"":16,""num_perfect"":7,""num_errors"":0,""num_randdir"":9,""num_randdir_good_moves"":1,""num_whilered"":0,""num_whileblue"":0,""num_blue"":1,""num_good_moves"":8}","[843.1428189958845,833.0491042818342,0.5,843.1428189958845,833.0491042818342,103.4,843.1428189958845,833.0491042818342,206.3,852.1428189958845,860.0491042818342,306.4,874.6428189958845,916.2991042818342,411.3,883.6428189958845,963.5491042818342,511.8,892.6428189958845,979.2991042818342,615.6,890.3928189958845,986.0491042818342,720.7,890.3928189958845,990.5491042818342,821.2,890.3928189958845,990.5491042818342,921.2,890.3928189958845,1001.7991042818342,1021.3,775.6428189958845,1195.2991042818342,1125.8,595.6428189958845,1357.2991042818342,1225.9,447.14281899588445,1485.5491042818342,1326.1,316.64281899588445,1571.0491042818342,1432.2,179.39281899588448,1620.5491042818342,1532.7,138.89281899588448,1622.7991042818342,1656.1,123.14281899588448,1616.0491042818342,1773,125.39281899588448,1598.0491042818342,1878.1,136.64281899588448,1580.0491042818342,1983,145.64281899588448,1568.7991042818342,2086.1,154.64281899588448,1557.5491042818342,2186.4,159.14281899588448,1550.7991042818342,2286.9,159.14281899588448,1548.5491042818342,2390.7,159.14281899588448,1548.5491042818342,2491.6,159.14281899588448,1548.5491042818342,2603.3,413.39281899588445,1555.2991042818342,2706.5,730.6428189958845,1418.0491042818342,2815.9,775.6428189958845,1366.2991042818342,2916.8,780.1428189958845,1364.0491042818342,3031.5,780.1428189958845,1364.0491042818342,3143.2,780.1428189958845,1364.0491042818342,3249.5,780.1428189958845,1364.0491042818342,3351.1,780.1428189958845,1364.0491042818342,3456.2,780.1428189958845,1364.0491042818342,3556.5,780.1428189958845,1364.0491042818342,3664,780.1428189958845,1364.0491042818342,3764.1,780.1428189958845,1364.0491042818342,3866.7,780.1428189958845,1364.0491042818342,3970.2]","[1440.6,1440.6,1000,0,440.6,""smooth"",""down"",""down"",""good_move"",4487.7,3046.8,2639.3,1440.9,407.5,""smooth"",""left"",""left"",""good_move"",7358.7,2870.1,2525.4,4488.6,344.7,""oops"",""down"",""up"",""bad_move"",10166.2,2807.2,2364.3,7359.1,442.8,""oops"",""down"",""right"",""bad_move"",16731,6564.4,2352.5,14017.8,360.7,""oops"",""left"",""up"",""bad_move"",19890.3,3158.9,2725.8,16731.4,433.1,""smooth"",""left"",""left"",""good_move"",22781.7,2891.2,2521.4,19890.6,369.8,""smooth"",""down"",""down"",""good_move"",25232.5,2450.4,2091.1,22782.1,359.3,""oops"",""down"",""left"",""good_move"",27747.7,2515,2123.9,25232.7,391.1,""oops"",""down"",""right"",""bad_move"",31228.3,3480.4,3100.5,27747.9,379.9,""oops"",""down"",""up"",""bad_move"",33681.2,2452.6,2048.6,31228.6,404,""smooth"",""down"",""down"",""good_move"",37182.8,3501.3,3061.7,33681.5,439.6,""smooth"",""down"",""down"",""good_move"",40702.1,3519.1,3129.8,37183,389.3,""oops"",""left"",""up"",""bad_move"",43558.6,2856.3,2404,40702.3,452.3,""smooth"",""down"",""down"",""good_move"",46595.1,3036.5,2645.7,43558.6,390.8,""oops"",""left"",""up"",""bad_move"",49503.4,2908.2,2532.5,46595.2,375.7,""oops"",""down"",""right"",""bad_move""]","",""
"35151","","","","instructions","23","726619","0.0-8.0-4.0","152","1","2025-07-02 10:21:26","80fe4187154257d5fb01684ea91b68b9","82.42.137.12","Mozilla/5.0 (Windows NT 10.0; Win64; x64) AppleWebKit/537.36 (KHTML, like Gecko) Chrome/137.0.0.0 Safari/537.36","WebKit","Chrome","137.0.0.0","Windows","10.0","https://app.prolific.com/","en-GB,en-US;q=0.9,en;q=0.8","665af4a3c2815b2a7850332e","683db6dfa200031b80f2a654","68650791318766eacc0ac99a","665af4a3c2815b2a7850332e","","[{""page_index"":0,""viewing_time"":13023},{""page_index"":1,""viewing_time"":22128}]","","","","","","","","","","","","","","","","","","","","","","","","","","","","","","","","","","","","","","","","","","",""
"17303","","","{""green_ball"":[""Ball sometimes shakes and moves in a random direction""]}","survey-multi-select","24","743924","0.0-8.0-5.0-0.0","152","1","2025-07-02 10:21:26","80fe4187154257d5fb01684ea91b68b9","82.42.137.12","Mozilla/5.0 (Windows NT 10.0; Win64; x64) AppleWebKit/537.36 (KHTML, like Gecko) Chrome/137.0.0.0 Safari/537.36","WebKit","Chrome","137.0.0.0","Windows","10.0","https://app.prolific.com/","en-GB,en-US;q=0.9,en;q=0.8","665af4a3c2815b2a7850332e","683db6dfa200031b80f2a654","68650791318766eacc0ac99a","665af4a3c2815b2a7850332e","","","[0]","","","","quiz","","","","","","","","","","","","","","","","","","","","","","","","","","","","","","","","","","","","","true",""
"1918","","<p align='center'><b>CORRECT!</b> Indeed, the green ball may sometimes shake and move in a random direction.</p>","0","html-button-response","25","745843","0.0-8.0-5.0-1.0","152","1","2025-07-02 10:21:26","80fe4187154257d5fb01684ea91b68b9","82.42.137.12","Mozilla/5.0 (Windows NT 10.0; Win64; x64) AppleWebKit/537.36 (KHTML, like Gecko) Chrome/137.0.0.0 Safari/537.36","WebKit","Chrome","137.0.0.0","Windows","10.0","https://app.prolific.com/","en-GB,en-US;q=0.9,en;q=0.8","665af4a3c2815b2a7850332e","683db6dfa200031b80f2a654","68650791318766eacc0ac99a","665af4a3c2815b2a7850332e","","","","","","","","","","","","","","","","","","","","","","","","","","","","","","","","","","","","","","","","","","","","",""
"7927","","","{""yellow_ball"":[""Ball doesn‘t move and I get -1 penalty point""]}","survey-multi-select","26","753772","0.0-8.0-6.0-0.0","152","1","2025-07-02 10:21:26","80fe4187154257d5fb01684ea91b68b9","82.42.137.12","Mozilla/5.0 (Windows NT 10.0; Win64; x64) AppleWebKit/537.36 (KHTML, like Gecko) Chrome/137.0.0.0 Safari/537.36","WebKit","Chrome","137.0.0.0","Windows","10.0","https://app.prolific.com/","en-GB,en-US;q=0.9,en;q=0.8","665af4a3c2815b2a7850332e","683db6dfa200031b80f2a654","68650791318766eacc0ac99a","665af4a3c2815b2a7850332e","","","[0]","","","","quiz","","","","","","","","","","","","","","","","","","","","","","","","","","","","","","","","","","","","","true",""
"1054","","<p align='center'><b>CORRECT!</b> Indeed, the yellow ball never moves and you receive a penalty.</p>","0","html-button-response","27","754827","0.0-8.0-6.0-1.0","152","1","2025-07-02 10:21:26","80fe4187154257d5fb01684ea91b68b9","82.42.137.12","Mozilla/5.0 (Windows NT 10.0; Win64; x64) AppleWebKit/537.36 (KHTML, like Gecko) Chrome/137.0.0.0 Safari/537.36","WebKit","Chrome","137.0.0.0","Windows","10.0","https://app.prolific.com/","en-GB,en-US;q=0.9,en;q=0.8","665af4a3c2815b2a7850332e","683db6dfa200031b80f2a654","68650791318766eacc0ac99a","665af4a3c2815b2a7850332e","","","","","","","","","","","","","","","","","","","","","","","","","","","","","","","","","","","","","","","","","","","","",""
"11872","","","{""blue_ball"":[""Ball always shakes and moves in a random direction""]}","survey-multi-select","28","766700","0.0-8.0-7.0-0.0","152","1","2025-07-02 10:21:26","80fe4187154257d5fb01684ea91b68b9","82.42.137.12","Mozilla/5.0 (Windows NT 10.0; Win64; x64) AppleWebKit/537.36 (KHTML, like Gecko) Chrome/137.0.0.0 Safari/537.36","WebKit","Chrome","137.0.0.0","Windows","10.0","https://app.prolific.com/","en-GB,en-US;q=0.9,en;q=0.8","665af4a3c2815b2a7850332e","683db6dfa200031b80f2a654","68650791318766eacc0ac99a","665af4a3c2815b2a7850332e","","","[0]","","","","quiz","","","","","","","","","","","","","","","","","","","","","","","","","","","","","","","","","","","","","true",""
"1622","","<p align='center'><b>CORRECT!</b> Indeed, the blue ball always shakes and moves in a random direction. Also there is a penalty of -1 point.</p>","0","html-button-response","29","768323","0.0-8.0-7.0-1.0","152","1","2025-07-02 10:21:26","80fe4187154257d5fb01684ea91b68b9","82.42.137.12","Mozilla/5.0 (Windows NT 10.0; Win64; x64) AppleWebKit/537.36 (KHTML, like Gecko) Chrome/137.0.0.0 Safari/537.36","WebKit","Chrome","137.0.0.0","Windows","10.0","https://app.prolific.com/","en-GB,en-US;q=0.9,en;q=0.8","665af4a3c2815b2a7850332e","683db6dfa200031b80f2a654","68650791318766eacc0ac99a","665af4a3c2815b2a7850332e","","","","","","","","","","","","","","","","","","","","","","","","","","","","","","","","","","","","","","","","","","","","",""
"5023","","","{""bonus"":[""When I reach 50% of points""]}","survey-multi-select","30","773348","0.0-8.0-8.0-0.0","152","1","2025-07-02 10:21:26","80fe4187154257d5fb01684ea91b68b9","82.42.137.12","Mozilla/5.0 (Windows NT 10.0; Win64; x64) AppleWebKit/537.36 (KHTML, like Gecko) Chrome/137.0.0.0 Safari/537.36","WebKit","Chrome","137.0.0.0","Windows","10.0","https://app.prolific.com/","en-GB,en-US;q=0.9,en;q=0.8","665af4a3c2815b2a7850332e","683db6dfa200031b80f2a654","68650791318766eacc0ac99a","665af4a3c2815b2a7850332e","","","[0]","","","","quiz","","","","","","","","","","","","","","","","","","","","","","","","","","","","","","","","","","","","","true",""
"1879","","<p align='center'><b>CORRECT!</b> Indeed, you receive 2 pounds extra when you reach 50% of points.</p>","0","html-button-response","31","775228","0.0-8.0-8.0-1.0","152","1","2025-07-02 10:21:26","80fe4187154257d5fb01684ea91b68b9","82.42.137.12","Mozilla/5.0 (Windows NT 10.0; Win64; x64) AppleWebKit/537.36 (KHTML, like Gecko) Chrome/137.0.0.0 Safari/537.36","WebKit","Chrome","137.0.0.0","Windows","10.0","https://app.prolific.com/","en-GB,en-US;q=0.9,en;q=0.8","665af4a3c2815b2a7850332e","683db6dfa200031b80f2a654","68650791318766eacc0ac99a","665af4a3c2815b2a7850332e","","","","","","","","","","","","","","","","","","","","","","","","","","","","","","","","","","","","","","","","","","","","",""
"2103","","","","instructions","32","777332","0.0-8.0-9.0","152","1","2025-07-02 10:21:26","80fe4187154257d5fb01684ea91b68b9","82.42.137.12","Mozilla/5.0 (Windows NT 10.0; Win64; x64) AppleWebKit/537.36 (KHTML, like Gecko) Chrome/137.0.0.0 Safari/537.36","WebKit","Chrome","137.0.0.0","Windows","10.0","https://app.prolific.com/","en-GB,en-US;q=0.9,en;q=0.8","665af4a3c2815b2a7850332e","683db6dfa200031b80f2a654","68650791318766eacc0ac99a","665af4a3c2815b2a7850332e","","[{""page_index"":0,""viewing_time"":2103}]","","","","","","","","","","","","","","","","","","","","","","","","","","","","","","","","","","","","","","","","","","",""
"21637","","<p>Before you start with this game please answer the following three questions yourself. </p>
  <p>Through this game, we measure several aspects of your cognitive performance, such as reaction times, multi-tasking capabilities </p>
  <p>and the ability to assess the situation you are in.</p>
  <p></p>
  <p><b>How good do you usually are in such tasks?</b></p>","76","html-slider-response","33","798971","0.0-9.0-0.0","152","1","2025-07-02 10:21:26","80fe4187154257d5fb01684ea91b68b9","82.42.137.12","Mozilla/5.0 (Windows NT 10.0; Win64; x64) AppleWebKit/537.36 (KHTML, like Gecko) Chrome/137.0.0.0 Safari/537.36","WebKit","Chrome","137.0.0.0","Windows","10.0","https://app.prolific.com/","en-GB,en-US;q=0.9,en;q=0.8","665af4a3c2815b2a7850332e","683db6dfa200031b80f2a654","68650791318766eacc0ac99a","665af4a3c2815b2a7850332e","2025-07-02T10:34:46.037Z","","","","","","PreSkillQ","","","","","","","","","","","","","","","","","","","","","","","","","","","","","","","","","","","","","","50"
"6127","","<div style=""width:500px;"">
  <p>How well do you think you will perform in this task compared to other participants?</p>
  </div>","62","html-slider-response","34","805100","0.0-9.0-1.0","152","1","2025-07-02 10:21:26","80fe4187154257d5fb01684ea91b68b9","82.42.137.12","Mozilla/5.0 (Windows NT 10.0; Win64; x64) AppleWebKit/537.36 (KHTML, like Gecko) Chrome/137.0.0.0 Safari/537.36","WebKit","Chrome","137.0.0.0","Windows","10.0","https://app.prolific.com/","en-GB,en-US;q=0.9,en;q=0.8","665af4a3c2815b2a7850332e","683db6dfa200031b80f2a654","68650791318766eacc0ac99a","665af4a3c2815b2a7850332e","2025-07-02T10:34:52.166Z","","","","","","PrePerfQ","","","","","","","","","","","","","","","","","","","","","","","","","","","","","","","","","","","","","","50"
"4863","","<div style=""width:500px;"">
  <p>What best describes how you currently feel?</p>
  </div>","63","html-slider-response","35","809964","0.0-9.0-2.0","152","1","2025-07-02 10:21:26","80fe4187154257d5fb01684ea91b68b9","82.42.137.12","Mozilla/5.0 (Windows NT 10.0; Win64; x64) AppleWebKit/537.36 (KHTML, like Gecko) Chrome/137.0.0.0 Safari/537.36","WebKit","Chrome","137.0.0.0","Windows","10.0","https://app.prolific.com/","en-GB,en-US;q=0.9,en;q=0.8","665af4a3c2815b2a7850332e","683db6dfa200031b80f2a654","68650791318766eacc0ac99a","665af4a3c2815b2a7850332e","2025-07-02T10:34:57.030Z","","","","","","PreMotivationQ","","","","","","","","","","","","","","","","","","","","","","","","","","","","","","","","","","","","","","50"
"","","","","ctl-task-cpt","36","848491","0.0-10.0-0.0","152","1","2025-07-02 10:21:26","80fe4187154257d5fb01684ea91b68b9","82.42.137.12","Mozilla/5.0 (Windows NT 10.0; Win64; x64) AppleWebKit/537.36 (KHTML, like Gecko) Chrome/137.0.0.0 Safari/537.36","WebKit","Chrome","137.0.0.0","Windows","10.0","https://app.prolific.com/","en-GB,en-US;q=0.9,en;q=0.8","665af4a3c2815b2a7850332e","683db6dfa200031b80f2a654","68650791318766eacc0ac99a","665af4a3c2815b2a7850332e","2025-07-02T10:35:35.557Z","","","","","","","","","","","","","","","","win-only","0","g1:NW,g2:SE","1","1","0","811287.5","1455.4","6465.3","35501.7","1","4","8","6","2","8","8","8","0","0.06060606060606061","2712.1","3000","1615","[""down"",""right""]","{""num_key_presses"":6,""num_perfect"":6,""num_errors"":0,""num_randdir"":0,""num_randdir_good_moves"":0,""num_whilered"":0,""num_whileblue"":0,""num_blue"":4,""num_good_moves"":6}","[840.8928189958845,844.2991042818342,0.3,840.8928189958845,844.2991042818342,115.7,838.6428189958845,844.2991042818342,226.3,867.8928189958845,968.0491042818342,338.9,892.6428189958845,1076.0491042818342,439.1,901.6428189958845,1114.2991042818342,539.8,901.6428189958845,1114.2991042818342,640.8,901.6428189958845,1114.2991042818342,751.4,901.6428189958845,1114.2991042818342,872,901.6428189958845,1114.2991042818342,976.2,901.6428189958845,1114.2991042818342,1089.7,901.6428189958845,1114.2991042818342,1202.4,901.6428189958845,1114.2991042818342,1306.3,901.6428189958845,1118.7991042818342,1410.8,1032.1428189958845,1150.2991042818342,1511.3,1072.6428189958845,1159.2991042818342,1615.6,1072.6428189958845,1159.2991042818342,1719,1162.6428189958845,1175.0491042818342,1820.6,1306.6428189958845,1213.2991042818342,1935.1,1401.1428189958845,1341.5491042818342,2040.9,1459.6428189958845,1494.5491042818342,2145.6,1500.1428189958845,1566.5491042818342,2251.3,1527.1428189958845,1571.0491042818342,2366.7,1533.8928189958845,1555.2991042818342,2470.9,1533.8928189958845,1550.7991042818342,2572.5,1533.8928189958845,1550.7991042818342,2676.2,1533.8928189958845,1550.7991042818342,2776.8,1527.1428189958845,1577.7991042818342,2884.2,1452.8928189958845,1591.2991042818342,2986.6,1342.6428189958845,1404.5491042818342,3096.7,1371.8928189958845,1118.7991042818342,3205.5,1374.1428189958845,1094.0491042818342,3305.5,1371.8928189958845,1125.5491042818342,3414.5,1371.8928189958845,1125.5491042818342,3522.7,1371.8928189958845,1125.5491042818342,3630.1,1371.8928189958845,1125.5491042818342,3745.8,1371.8928189958845,1125.5491042818342,3847.5,1371.8928189958845,1125.5491042818342,3950.3,1371.8928189958845,1125.5491042818342,4050.6,1371.8928189958845,1125.5491042818342,4150.7,1371.8928189958845,1125.5491042818342,4253.7,1371.8928189958845,1125.5491042818342,4362.6,1371.8928189958845,1125.5491042818342,4465.5,1371.8928189958845,1125.5491042818342,4588.5,1371.8928189958845,1125.5491042818342,4698.6,1371.8928189958845,1125.5491042818342,4810.2,1371.8928189958845,1125.5491042818342,4910.6]","[1389.5,1389.5,1000,0,389.5,""smooth"",""down"",""down"",""good_move"",3985.5,2595.7,2246.3,1389.8,349.4,""smooth"",""right"",""right"",""good_move"",7014.7,3029,2678,3985.7,351,""smooth"",""down"",""down"",""good_move"",8975.8,1960.9,1550.9,7014.9,410,""smooth"",""down"",""down"",""good_move"",25387.8,16411.9,3187.5,21751.8,448.5,""smooth"",""right"",""right"",""good_move"",28909.7,3521.8,3087.1,25387.9,434.7,""smooth"",""right"",""right"",""good_move""]","",""
"7590","","<div style=""width:500px;"">
  <p>What determined the result of this run?</p>
  </div>","100","html-slider-response","37","856084","0.0-10.0-1.0","152","1","2025-07-02 10:21:26","80fe4187154257d5fb01684ea91b68b9","82.42.137.12","Mozilla/5.0 (Windows NT 10.0; Win64; x64) AppleWebKit/537.36 (KHTML, like Gecko) Chrome/137.0.0.0 Safari/537.36","WebKit","Chrome","137.0.0.0","Windows","10.0","https://app.prolific.com/","en-GB,en-US;q=0.9,en;q=0.8","665af4a3c2815b2a7850332e","683db6dfa200031b80f2a654","68650791318766eacc0ac99a","665af4a3c2815b2a7850332e","2025-07-02T10:35:43.150Z","","","","","","AttribQ","","","","","","","","","","","","","","","","","","","","","","","","","","","","","","","","","","","","","","50"
"3679","","<div style=""width:500px;"">
  <p>How much control did you have over the ball?</p>
  </div>","100","html-slider-response","38","859763","0.0-10.0-2.0","152","1","2025-07-02 10:21:26","80fe4187154257d5fb01684ea91b68b9","82.42.137.12","Mozilla/5.0 (Windows NT 10.0; Win64; x64) AppleWebKit/537.36 (KHTML, like Gecko) Chrome/137.0.0.0 Safari/537.36","WebKit","Chrome","137.0.0.0","Windows","10.0","https://app.prolific.com/","en-GB,en-US;q=0.9,en;q=0.8","665af4a3c2815b2a7850332e","683db6dfa200031b80f2a654","68650791318766eacc0ac99a","665af4a3c2815b2a7850332e","2025-07-02T10:35:46.829Z","","","","","","ControlQ","","","","","","","","","","","","","","","","","","","","","","","","","","","","","","","","","","","","","","50"
"4767","","<div style=""width:500px;"">
  <p>How would you describe your current emotional state?</p>
  </div>","32","html-slider-response","39","864531","0.0-10.0-3.0","152","1","2025-07-02 10:21:26","80fe4187154257d5fb01684ea91b68b9","82.42.137.12","Mozilla/5.0 (Windows NT 10.0; Win64; x64) AppleWebKit/537.36 (KHTML, like Gecko) Chrome/137.0.0.0 Safari/537.36","WebKit","Chrome","137.0.0.0","Windows","10.0","https://app.prolific.com/","en-GB,en-US;q=0.9,en;q=0.8","665af4a3c2815b2a7850332e","683db6dfa200031b80f2a654","68650791318766eacc0ac99a","665af4a3c2815b2a7850332e","2025-07-02T10:35:51.597Z","","","","","","StressQ","","","","","","","","","","","","","","","","","","","","","","","","","","","","","","","","","","","","","","50"
"4791","","<div style=""width:500px;"">
  <p>What best describes how you currently feel?</p>
  </div>","66","html-slider-response","40","869323","0.0-10.0-4.0","152","1","2025-07-02 10:21:26","80fe4187154257d5fb01684ea91b68b9","82.42.137.12","Mozilla/5.0 (Windows NT 10.0; Win64; x64) AppleWebKit/537.36 (KHTML, like Gecko) Chrome/137.0.0.0 Safari/537.36","WebKit","Chrome","137.0.0.0","Windows","10.0","https://app.prolific.com/","en-GB,en-US;q=0.9,en;q=0.8","665af4a3c2815b2a7850332e","683db6dfa200031b80f2a654","68650791318766eacc0ac99a","665af4a3c2815b2a7850332e","2025-07-02T10:35:56.389Z","","","","","","MotivationQ","","","","","","","","","","","","","","","","","","","","","","","","","","","","","","","","","","","","","","50"
"","","","","ctl-task-cpt","41","892973","0.0-10.0-0.1","152","1","2025-07-02 10:21:26","80fe4187154257d5fb01684ea91b68b9","82.42.137.12","Mozilla/5.0 (Windows NT 10.0; Win64; x64) AppleWebKit/537.36 (KHTML, like Gecko) Chrome/137.0.0.0 Safari/537.36","WebKit","Chrome","137.0.0.0","Windows","10.0","https://app.prolific.com/","en-GB,en-US;q=0.9,en;q=0.8","665af4a3c2815b2a7850332e","683db6dfa200031b80f2a654","68650791318766eacc0ac99a","665af4a3c2815b2a7850332e","2025-07-02T10:36:20.040Z","","","","","","","","","","","","","","","","win-only","0","g1:NW,g2:SE","0.9","2","0","870647","1230.8","6235.4","20621","1","4","4","6","1","1","1","9","8","0.06818181818181818","2672.1","3000","1910","[""left"",""up""]","{""num_key_presses"":4,""num_perfect"":3,""num_errors"":0,""num_randdir"":1,""num_randdir_good_moves"":1,""num_whilered"":0,""num_whileblue"":0,""num_blue"":1,""num_good_moves"":4}","[831.8928189958845,853.2991042818342,0.2,831.8928189958845,853.2991042818342,101.6,831.8928189958845,855.5491042818342,205.2,876.8928189958845,977.0491042818342,325.3,894.8928189958845,1035.5491042818342,429.1,894.8928189958845,1085.0491042818342,542.4,899.3928189958845,1103.0491042818342,644.4,897.1428189958845,1118.7991042818342,745.5,897.1428189958845,1121.0491042818342,849.7,897.1428189958845,1121.0491042818342,949.7,892.6428189958845,1121.0491042818342,1050,892.6428189958845,1121.0491042818342,1150.2,892.6428189958845,1121.0491042818342,1250.3,777.8928189958845,1055.7991042818342,1351.3,741.8928189958845,959.0491042818342,1454.5,636.1428189958845,830.7991042818342,1554.8,480.89281899588445,716.0491042818342,1655.8,467.39281899588445,698.0491042818342,1760.6,460.64281899588445,689.0491042818342,1860.8,462.89281899588445,740.7991042818342,1972.1,465.14281899588445,765.5491042818342,2078.7,363.89281899588445,623.7991042818342,2186.8,273.89281899588445,412.29910428183416,2294.2,186.14281899588448,254.7991042818342,2410.7,172.64281899588448,203.0491042818342,2513.6,168.14281899588448,185.0491042818342,2630.8,168.14281899588448,185.0491042818342,2745.4,201.89281899588448,266.04910428183416,2858.3,422.39281899588445,601.2991042818342,2983.6,478.64281899588445,704.7991042818342,3085.3,476.39281899588445,716.0491042818342,3193.6,469.64281899588445,736.2991042818342,3295.1,469.64281899588445,736.2991042818342,3415.5,469.64281899588445,736.2991042818342,3531.2,469.64281899588445,736.2991042818342,3632.6,469.64281899588445,736.2991042818342,3735.2,469.64281899588445,736.2991042818342,3835.2,469.64281899588445,736.2991042818342,3948.2,469.64281899588445,736.2991042818342,4049.6,469.64281899588445,736.2991042818342,4150.6,469.64281899588445,736.2991042818342,4255.9,469.64281899588445,736.2991042818342,4379.5,469.64281899588445,736.2991042818342,4479.9,469.64281899588445,736.2991042818342,4580.1,469.64281899588445,736.2991042818342,4699.1,469.64281899588445,736.2991042818342,4799.2,469.64281899588445,736.2991042818342,4899.4,469.64281899588445,736.2991042818342,4999.6]","[1569.2,1569.2,1000,0,569.2,""smooth"",""up"",""up"",""good_move"",8120.6,6551.2,3015.3,4678,427.3,""oops"",""up"",""up"",""good_move"",11108.6,2987.9,2586.9,8120.7,401,""smooth"",""left"",""left"",""good_move"",14214.3,3105.2,2581,11109.1,524.2,""smooth"",""left"",""left"",""good_move""]","",""
"5318","","<div style=""width:500px;"">
  <p>What determined the result of this run?</p>
  </div>","78","html-slider-response","42","898293","0.0-10.0-1.1","152","1","2025-07-02 10:21:26","80fe4187154257d5fb01684ea91b68b9","82.42.137.12","Mozilla/5.0 (Windows NT 10.0; Win64; x64) AppleWebKit/537.36 (KHTML, like Gecko) Chrome/137.0.0.0 Safari/537.36","WebKit","Chrome","137.0.0.0","Windows","10.0","https://app.prolific.com/","en-GB,en-US;q=0.9,en;q=0.8","665af4a3c2815b2a7850332e","683db6dfa200031b80f2a654","68650791318766eacc0ac99a","665af4a3c2815b2a7850332e","2025-07-02T10:36:25.359Z","","","","","","AttribQ","","","","","","","","","","","","","","","","","","","","","","","","","","","","","","","","","","","","","","50"
"3710","","<div style=""width:500px;"">
  <p>How much control did you have over the ball?</p>
  </div>","64","html-slider-response","43","902004","0.0-10.0-2.1","152","1","2025-07-02 10:21:26","80fe4187154257d5fb01684ea91b68b9","82.42.137.12","Mozilla/5.0 (Windows NT 10.0; Win64; x64) AppleWebKit/537.36 (KHTML, like Gecko) Chrome/137.0.0.0 Safari/537.36","WebKit","Chrome","137.0.0.0","Windows","10.0","https://app.prolific.com/","en-GB,en-US;q=0.9,en;q=0.8","665af4a3c2815b2a7850332e","683db6dfa200031b80f2a654","68650791318766eacc0ac99a","665af4a3c2815b2a7850332e","2025-07-02T10:36:29.071Z","","","","","","ControlQ","","","","","","","","","","","","","","","","","","","","","","","","","","","","","","","","","","","","","","50"
"3815","","<div style=""width:500px;"">
  <p>How would you describe your current emotional state?</p>
  </div>","36","html-slider-response","44","905820","0.0-10.0-3.1","152","1","2025-07-02 10:21:26","80fe4187154257d5fb01684ea91b68b9","82.42.137.12","Mozilla/5.0 (Windows NT 10.0; Win64; x64) AppleWebKit/537.36 (KHTML, like Gecko) Chrome/137.0.0.0 Safari/537.36","WebKit","Chrome","137.0.0.0","Windows","10.0","https://app.prolific.com/","en-GB,en-US;q=0.9,en;q=0.8","665af4a3c2815b2a7850332e","683db6dfa200031b80f2a654","68650791318766eacc0ac99a","665af4a3c2815b2a7850332e","2025-07-02T10:36:32.886Z","","","","","","StressQ","","","","","","","","","","","","","","","","","","","","","","","","","","","","","","","","","","","","","","50"
"3607","","<div style=""width:500px;"">
  <p>What best describes how you currently feel?</p>
  </div>","64","html-slider-response","45","909429","0.0-10.0-4.1","152","1","2025-07-02 10:21:26","80fe4187154257d5fb01684ea91b68b9","82.42.137.12","Mozilla/5.0 (Windows NT 10.0; Win64; x64) AppleWebKit/537.36 (KHTML, like Gecko) Chrome/137.0.0.0 Safari/537.36","WebKit","Chrome","137.0.0.0","Windows","10.0","https://app.prolific.com/","en-GB,en-US;q=0.9,en;q=0.8","665af4a3c2815b2a7850332e","683db6dfa200031b80f2a654","68650791318766eacc0ac99a","665af4a3c2815b2a7850332e","2025-07-02T10:36:36.495Z","","","","","","MotivationQ","","","","","","","","","","","","","","","","","","","","","","","","","","","","","","","","","","","","","","50"
"","","","","ctl-task-cpt","46","935626","0.0-10.0-0.2","152","1","2025-07-02 10:21:26","80fe4187154257d5fb01684ea91b68b9","82.42.137.12","Mozilla/5.0 (Windows NT 10.0; Win64; x64) AppleWebKit/537.36 (KHTML, like Gecko) Chrome/137.0.0.0 Safari/537.36","WebKit","Chrome","137.0.0.0","Windows","10.0","https://app.prolific.com/","en-GB,en-US;q=0.9,en;q=0.8","665af4a3c2815b2a7850332e","683db6dfa200031b80f2a654","68650791318766eacc0ac99a","665af4a3c2815b2a7850332e","2025-07-02T10:37:02.692Z","","","","","","","","","","","","","","","","win-only","2","g1:SE,g2:NW","0.8","3","0","910752.8","1316.4","6320.8","23182","1","4","8","6","2","8","8","17","9","0.12878787878787878","1788.9","3000","1690","[""left"",""up""]","{""num_key_presses"":6,""num_perfect"":4,""num_errors"":0,""num_randdir"":2,""num_randdir_good_moves"":2,""num_whilered"":0,""num_whileblue"":0,""num_blue"":0,""num_good_moves"":6}","[827.3928189958845,826.2991042818342,0.4,827.3928189958845,826.2991042818342,104.6,847.6428189958845,905.0491042818342,224.9,865.6428189958845,1064.7991042818342,342.7,865.6428189958845,1094.0491042818342,444.2,870.1428189958845,1103.0491042818342,545.2,870.1428189958845,1103.0491042818342,649.2,870.1428189958845,1103.0491042818342,749.8,870.1428189958845,1103.0491042818342,851.9,870.1428189958845,1103.0491042818342,954.5,865.6428189958845,1098.5491042818342,1054.8,654.1428189958845,945.5491042818342,1172.3,460.64281899588445,740.7991042818342,1277.8,381.89281899588445,538.2991042818342,1378.5,384.14281899588445,455.04910428183416,1480,312.14281899588445,338.04910428183416,1584.9,192.89281899588448,198.5491042818342,1691.4,172.64281899588448,158.0491042818342,1795,172.64281899588448,158.0491042818342,1898.9,219.89281899588448,245.7991042818342,1999,291.89281899588445,459.54910428183416,2104.6,325.64281899588445,709.2991042818342,2228.9,280.64281899588445,747.5491042818342,2329.6,278.39281899588445,749.7991042818342,2429.9,278.39281899588445,749.7991042818342,2534.3,278.39281899588445,749.7991042818342,2635.5,278.39281899588445,749.7991042818342,2740.3,278.39281899588445,749.7991042818342,2844.5,278.39281899588445,749.7991042818342,2944.7,278.39281899588445,749.7991042818342,3049.3,278.39281899588445,749.7991042818342,3149.3,278.39281899588445,749.7991042818342,3249.7,278.39281899588445,749.7991042818342,3350.3,278.39281899588445,749.7991042818342,3464.9,278.39281899588445,749.7991042818342,3589.4,278.39281899588445,749.7991042818342,3699.2,278.39281899588445,749.7991042818342,3803.9,278.39281899588445,749.7991042818342,3904.1,278.39281899588445,749.7991042818342,4004.2,278.39281899588445,749.7991042818342,4125.2,278.39281899588445,749.7991042818342,4228.4,278.39281899588445,749.7991042818342,4328.9,278.39281899588445,749.7991042818342,4448.1,278.39281899588445,749.7991042818342,4549.4,278.39281899588445,749.7991042818342,4669.3,278.39281899588445,749.7991042818342,4774.1,278.39281899588445,749.7991042818342,4892.3,278.39281899588445,749.7991042818342,4995.9]","[1613,1613,1000,0,613,""smooth"",""up"",""up"",""good_move"",4085,2471.8,2023.9,1613.2,447.9,""oops"",""up"",""up"",""good_move"",8198.9,4113.8,3743.3,4085.1,370.5,""oops"",""up"",""left"",""good_move"",11288.1,3088.9,2701.9,8199.2,387,""smooth"",""up"",""up"",""good_move"",14294.4,3006.1,2543.3,11288.3,462.8,""smooth"",""left"",""left"",""good_move"",16669.8,2375.3,1922,14294.5,453.3,""smooth"",""left"",""left"",""good_move""]","",""
"2769","","<div style=""width:500px;"">
  <p>What determined the result of this run?</p>
  </div>","58","html-slider-response","47","938396","0.0-10.0-1.2","152","1","2025-07-02 10:21:26","80fe4187154257d5fb01684ea91b68b9","82.42.137.12","Mozilla/5.0 (Windows NT 10.0; Win64; x64) AppleWebKit/537.36 (KHTML, like Gecko) Chrome/137.0.0.0 Safari/537.36","WebKit","Chrome","137.0.0.0","Windows","10.0","https://app.prolific.com/","en-GB,en-US;q=0.9,en;q=0.8","665af4a3c2815b2a7850332e","683db6dfa200031b80f2a654","68650791318766eacc0ac99a","665af4a3c2815b2a7850332e","2025-07-02T10:37:05.462Z","","","","","","AttribQ","","","","","","","","","","","","","","","","","","","","","","","","","","","","","","","","","","","","","","50"
"2998","","<div style=""width:500px;"">
  <p>How much control did you have over the ball?</p>
  </div>","57","html-slider-response","48","941395","0.0-10.0-2.2","152","1","2025-07-02 10:21:26","80fe4187154257d5fb01684ea91b68b9","82.42.137.12","Mozilla/5.0 (Windows NT 10.0; Win64; x64) AppleWebKit/537.36 (KHTML, like Gecko) Chrome/137.0.0.0 Safari/537.36","WebKit","Chrome","137.0.0.0","Windows","10.0","https://app.prolific.com/","en-GB,en-US;q=0.9,en;q=0.8","665af4a3c2815b2a7850332e","683db6dfa200031b80f2a654","68650791318766eacc0ac99a","665af4a3c2815b2a7850332e","2025-07-02T10:37:08.461Z","","","","","","ControlQ","","","","","","","","","","","","","","","","","","","","","","","","","","","","","","","","","","","","","","50"
"4049","","<div style=""width:500px;"">
  <p>How would you describe your current emotional state?</p>
  </div>","18","html-slider-response","49","945445","0.0-10.0-3.2","152","1","2025-07-02 10:21:26","80fe4187154257d5fb01684ea91b68b9","82.42.137.12","Mozilla/5.0 (Windows NT 10.0; Win64; x64) AppleWebKit/537.36 (KHTML, like Gecko) Chrome/137.0.0.0 Safari/537.36","WebKit","Chrome","137.0.0.0","Windows","10.0","https://app.prolific.com/","en-GB,en-US;q=0.9,en;q=0.8","665af4a3c2815b2a7850332e","683db6dfa200031b80f2a654","68650791318766eacc0ac99a","665af4a3c2815b2a7850332e","2025-07-02T10:37:12.511Z","","","","","","StressQ","","","","","","","","","","","","","","","","","","","","","","","","","","","","","","","","","","","","","","50"
"4286","","<div style=""width:500px;"">
  <p>What best describes how you currently feel?</p>
  </div>","71","html-slider-response","50","949733","0.0-10.0-4.2","152","1","2025-07-02 10:21:26","80fe4187154257d5fb01684ea91b68b9","82.42.137.12","Mozilla/5.0 (Windows NT 10.0; Win64; x64) AppleWebKit/537.36 (KHTML, like Gecko) Chrome/137.0.0.0 Safari/537.36","WebKit","Chrome","137.0.0.0","Windows","10.0","https://app.prolific.com/","en-GB,en-US;q=0.9,en;q=0.8","665af4a3c2815b2a7850332e","683db6dfa200031b80f2a654","68650791318766eacc0ac99a","665af4a3c2815b2a7850332e","2025-07-02T10:37:16.799Z","","","","","","MotivationQ","","","","","","","","","","","","","","","","","","","","","","","","","","","","","","","","","","","","","","50"
"","","","","ctl-task-cpt","51","995380","0.0-10.0-0.3","152","1","2025-07-02 10:21:26","80fe4187154257d5fb01684ea91b68b9","82.42.137.12","Mozilla/5.0 (Windows NT 10.0; Win64; x64) AppleWebKit/537.36 (KHTML, like Gecko) Chrome/137.0.0.0 Safari/537.36","WebKit","Chrome","137.0.0.0","Windows","10.0","https://app.prolific.com/","en-GB,en-US;q=0.9,en;q=0.8","665af4a3c2815b2a7850332e","683db6dfa200031b80f2a654","68650791318766eacc0ac99a","665af4a3c2815b2a7850332e","2025-07-02T10:38:02.446Z","","","","","","","","","","","","","","","","win-only","3","g1:SW,g2:NE","0.7","4","0","951059","2572.1","7594.2","42616.3","1","4","4","6","1","1","1","18","17","0.13636363636363635","2344.7","3000","230","[""down"",""left""]","{""num_key_presses"":10,""num_perfect"":7,""num_errors"":0,""num_randdir"":3,""num_randdir_good_moves"":0,""num_whilered"":0,""num_whileblue"":0,""num_blue"":2,""num_good_moves"":7}","[825.1428189958845,824.0491042818342,0.2,825.1428189958845,824.0491042818342,106.1,836.3928189958845,862.2991042818342,208.4,856.6428189958845,961.2991042818342,309.3,845.3928189958845,1062.5491042818342,414.5,838.6428189958845,1089.5491042818342,527.2,838.6428189958845,1089.5491042818342,634.3,838.6428189958845,1089.5491042818342,741.2,838.6428189958845,1089.5491042818342,843.7,838.6428189958845,1089.5491042818342,944.3,838.6428189958845,1089.5491042818342,1064.7,838.6428189958845,1089.5491042818342,1169,838.6428189958845,1089.5491042818342,1280.5,838.6428189958845,1089.5491042818342,1384,838.6428189958845,1089.5491042818342,1484,838.6428189958845,1089.5491042818342,1588.7,804.8928189958845,1096.2991042818342,1693.8,438.14281899588445,1262.7991042818342,1794.5,267.14281899588445,1402.2991042818342,1900.3,172.64281899588448,1505.7991042818342,2012,147.89281899588448,1548.5491042818342,2131.5,145.64281899588448,1553.0491042818342,2242.2,145.64281899588448,1553.0491042818342,2347.6,145.64281899588448,1553.0491042818342,2462.7,170.39281899588448,1526.0491042818342,2570.3,420.14281899588445,1332.5491042818342,2673.9,834.1428189958845,1208.7991042818342,2774.2,1018.6428189958845,1195.2991042818342,2878.5,1018.6428189958845,1195.2991042818342,2993.1,1018.6428189958845,1195.2991042818342,3104.4,1018.6428189958845,1195.2991042818342,3219.7,1018.6428189958845,1195.2991042818342,3323.9,1018.6428189958845,1195.2991042818342,3433.2,1018.6428189958845,1195.2991042818342,3550.2,1018.6428189958845,1195.2991042818342,3652.5,1018.6428189958845,1195.2991042818342,3753.4,1018.6428189958845,1195.2991042818342,3859.1,1018.6428189958845,1195.2991042818342,3959.1,1018.6428189958845,1195.2991042818342,4082.2,1018.6428189958845,1195.2991042818342,4194.7,1018.6428189958845,1195.2991042818342,4302.7,1018.6428189958845,1195.2991042818342,4403.3,1018.6428189958845,1195.2991042818342,4503.7,1018.6428189958845,1195.2991042818342,4608.5,1018.6428189958845,1195.2991042818342,4709.1,1018.6428189958845,1195.2991042818342,4813.6,1018.6428189958845,1195.2991042818342,4924.1]","[5187.7,5187.7,2688.6,2002.1,497,""oops"",""down"",""up"",""bad_move"",8035.9,2848,2358.8,5187.9,489.2,""smooth"",""down"",""down"",""good_move"",11180.5,3144.1,2680,8036.4,464.1,""smooth"",""down"",""down"",""good_move"",14898.5,3717.7,3278,11180.8,439.7,""smooth"",""down"",""down"",""good_move"",17297.8,2399.1,1918.7,14898.7,480.4,""smooth"",""left"",""left"",""good_move"",19281.6,1983.3,1324.7,17298.3,658.6,""oops"",""left"",""up"",""bad_move"",22489.9,3208.1,2790.9,19281.8,417.2,""smooth"",""down"",""down"",""good_move"",25698.3,3208.3,2692.9,22490,515.4,""oops"",""left"",""up"",""bad_move"",28475.1,2776.3,2213.9,25698.8,562.4,""smooth"",""down"",""down"",""good_move"",34890.9,6415.7,2409.9,31906.2,574.8,""smooth"",""left"",""left"",""good_move""]","",""
"3887","","<div style=""width:500px;"">
  <p>What determined the result of this run?</p>
  </div>","59","html-slider-response","52","999269","0.0-10.0-1.3","152","1","2025-07-02 10:21:26","80fe4187154257d5fb01684ea91b68b9","82.42.137.12","Mozilla/5.0 (Windows NT 10.0; Win64; x64) AppleWebKit/537.36 (KHTML, like Gecko) Chrome/137.0.0.0 Safari/537.36","WebKit","Chrome","137.0.0.0","Windows","10.0","https://app.prolific.com/","en-GB,en-US;q=0.9,en;q=0.8","665af4a3c2815b2a7850332e","683db6dfa200031b80f2a654","68650791318766eacc0ac99a","665af4a3c2815b2a7850332e","2025-07-02T10:38:06.335Z","","","","","","AttribQ","","","","","","","","","","","","","","","","","","","","","","","","","","","","","","","","","","","","","","50"
"5542","","<div style=""width:500px;"">
  <p>How much control did you have over the ball?</p>
  </div>","65","html-slider-response","53","1004813","0.0-10.0-2.3","152","1","2025-07-02 10:21:26","80fe4187154257d5fb01684ea91b68b9","82.42.137.12","Mozilla/5.0 (Windows NT 10.0; Win64; x64) AppleWebKit/537.36 (KHTML, like Gecko) Chrome/137.0.0.0 Safari/537.36","WebKit","Chrome","137.0.0.0","Windows","10.0","https://app.prolific.com/","en-GB,en-US;q=0.9,en;q=0.8","665af4a3c2815b2a7850332e","683db6dfa200031b80f2a654","68650791318766eacc0ac99a","665af4a3c2815b2a7850332e","2025-07-02T10:38:11.880Z","","","","","","ControlQ","","","","","","","","","","","","","","","","","","","","","","","","","","","","","","","","","","","","","","50"
"4372","","<div style=""width:500px;"">
  <p>How would you describe your current emotional state?</p>
  </div>","18","html-slider-response","54","1009187","0.0-10.0-3.3","152","1","2025-07-02 10:21:26","80fe4187154257d5fb01684ea91b68b9","82.42.137.12","Mozilla/5.0 (Windows NT 10.0; Win64; x64) AppleWebKit/537.36 (KHTML, like Gecko) Chrome/137.0.0.0 Safari/537.36","WebKit","Chrome","137.0.0.0","Windows","10.0","https://app.prolific.com/","en-GB,en-US;q=0.9,en;q=0.8","665af4a3c2815b2a7850332e","683db6dfa200031b80f2a654","68650791318766eacc0ac99a","665af4a3c2815b2a7850332e","2025-07-02T10:38:16.253Z","","","","","","StressQ","","","","","","","","","","","","","","","","","","","","","","","","","","","","","","","","","","","","","","50"
"3464","","<div style=""width:500px;"">
  <p>What best describes how you currently feel?</p>
  </div>","57","html-slider-response","55","1012653","0.0-10.0-4.3","152","1","2025-07-02 10:21:26","80fe4187154257d5fb01684ea91b68b9","82.42.137.12","Mozilla/5.0 (Windows NT 10.0; Win64; x64) AppleWebKit/537.36 (KHTML, like Gecko) Chrome/137.0.0.0 Safari/537.36","WebKit","Chrome","137.0.0.0","Windows","10.0","https://app.prolific.com/","en-GB,en-US;q=0.9,en;q=0.8","665af4a3c2815b2a7850332e","683db6dfa200031b80f2a654","68650791318766eacc0ac99a","665af4a3c2815b2a7850332e","2025-07-02T10:38:19.720Z","","","","","","MotivationQ","","","","","","","","","","","","","","","","","","","","","","","","","","","","","","","","","","","","","","50"
"","","","","ctl-task-cpt","56","1039907","0.0-10.0-0.4","152","1","2025-07-02 10:21:26","80fe4187154257d5fb01684ea91b68b9","82.42.137.12","Mozilla/5.0 (Windows NT 10.0; Win64; x64) AppleWebKit/537.36 (KHTML, like Gecko) Chrome/137.0.0.0 Safari/537.36","WebKit","Chrome","137.0.0.0","Windows","10.0","https://app.prolific.com/","en-GB,en-US;q=0.9,en;q=0.8","665af4a3c2815b2a7850332e","683db6dfa200031b80f2a654","68650791318766eacc0ac99a","665af4a3c2815b2a7850332e","2025-07-02T10:38:46.973Z","","","","","","","","","","","","","","","","win-only","0","g1:NW,g2:SE","0.6","5","0","1013979.9","1396.5","6404","24244.4","1","4","4","6","1","1","1","19","18","0.14393939393939395","2511.4","3000","1530","[""left"",""up""]","{""num_key_presses"":6,""num_perfect"":5,""num_errors"":0,""num_randdir"":1,""num_randdir_good_moves"":0,""num_whilered"":0,""num_whileblue"":0,""num_blue"":0,""num_good_moves"":5}","[829.6428189958845,833.0491042818342,0.2,829.6428189958845,833.0491042818342,106,843.1428189958845,884.7991042818342,212.9,858.8928189958845,999.5491042818342,313.8,861.1428189958845,1112.0491042818342,414.9,861.1428189958845,1163.7991042818342,520.8,861.1428189958845,1179.5491042818342,637.3,861.1428189958845,1179.5491042818342,737.7,861.1428189958845,1179.5491042818342,841.9,861.1428189958845,1179.5491042818342,948,861.1428189958845,1179.5491042818342,1051.9,861.1428189958845,1179.5491042818342,1154.1,861.1428189958845,1179.5491042818342,1257,861.1428189958845,1179.5491042818342,1373.9,861.1428189958845,1179.5491042818342,1474.3,861.1428189958845,1179.5491042818342,1574.3,861.1428189958845,1179.5491042818342,1691.8,861.1428189958845,1184.0491042818342,1794.9,696.8928189958845,1035.5491042818342,1895.3,244.64281899588448,527.0491042818342,2012.6,231.14281899588448,446.04910428183416,2114.5,217.64281899588448,349.29910428183416,2222.9,195.14281899588448,230.0491042818342,2337.2,186.14281899588448,182.7991042818342,2445.7,186.14281899588448,180.5491042818342,2558.8,192.89281899588448,194.0491042818342,2661.7,269.39281899588445,369.54910428183416,2764,350.39281899588445,617.0491042818342,2869.4,422.39281899588445,830.7991042818342,2974.7,451.64281899588445,925.2991042818342,3094.5,453.89281899588445,936.5491042818342,3197.1,447.14281899588445,941.0491042818342,3299.7,447.14281899588445,941.0491042818342,3404.9,447.14281899588445,941.0491042818342,3512.4,447.14281899588445,941.0491042818342,3614.5,447.14281899588445,941.0491042818342,3718.5,447.14281899588445,941.0491042818342,3818.9,447.14281899588445,941.0491042818342,3921.1,447.14281899588445,941.0491042818342,4026.6,447.14281899588445,941.0491042818342,4132.3,447.14281899588445,941.0491042818342,4236.4,447.14281899588445,941.0491042818342,4338.6,447.14281899588445,941.0491042818342,4441.8,447.14281899588445,941.0491042818342,4543.6,447.14281899588445,941.0491042818342,4645.1,447.14281899588445,941.0491042818342,4748.6,447.14281899588445,941.0491042818342,4861.1,447.14281899588445,941.0491042818342,4968.9]","[1496.8,1496.8,1000,0,496.8,""smooth"",""up"",""up"",""good_move"",5320.4,3823.3,3422.4,1497.1,400.9,""oops"",""up"",""right"",""bad_move"",8598.8,3277.9,2852.6,5321,425.2,""smooth"",""up"",""up"",""good_move"",11453.6,2854.3,2479.3,8599.4,374.9,""smooth"",""left"",""left"",""good_move"",14433.1,2979,2565.4,11454.1,413.6,""smooth"",""left"",""left"",""good_move"",17678.5,3245.3,2834.7,14433.2,410.6,""smooth"",""left"",""left"",""good_move""]","",""
"4200","","<div style=""width:500px;"">
  <p>What determined the result of this run?</p>
  </div>","83","html-slider-response","57","1044109","0.0-10.0-1.4","152","1","2025-07-02 10:21:26","80fe4187154257d5fb01684ea91b68b9","82.42.137.12","Mozilla/5.0 (Windows NT 10.0; Win64; x64) AppleWebKit/537.36 (KHTML, like Gecko) Chrome/137.0.0.0 Safari/537.36","WebKit","Chrome","137.0.0.0","Windows","10.0","https://app.prolific.com/","en-GB,en-US;q=0.9,en;q=0.8","665af4a3c2815b2a7850332e","683db6dfa200031b80f2a654","68650791318766eacc0ac99a","665af4a3c2815b2a7850332e","2025-07-02T10:38:51.175Z","","","","","","AttribQ","","","","","","","","","","","","","","","","","","","","","","","","","","","","","","","","","","","","","","50"
"3375","","<div style=""width:500px;"">
  <p>How much control did you have over the ball?</p>
  </div>","83","html-slider-response","58","1047486","0.0-10.0-2.4","152","1","2025-07-02 10:21:26","80fe4187154257d5fb01684ea91b68b9","82.42.137.12","Mozilla/5.0 (Windows NT 10.0; Win64; x64) AppleWebKit/537.36 (KHTML, like Gecko) Chrome/137.0.0.0 Safari/537.36","WebKit","Chrome","137.0.0.0","Windows","10.0","https://app.prolific.com/","en-GB,en-US;q=0.9,en;q=0.8","665af4a3c2815b2a7850332e","683db6dfa200031b80f2a654","68650791318766eacc0ac99a","665af4a3c2815b2a7850332e","2025-07-02T10:38:54.552Z","","","","","","ControlQ","","","","","","","","","","","","","","","","","","","","","","","","","","","","","","","","","","","","","","50"
"2949","","<div style=""width:500px;"">
  <p>How would you describe your current emotional state?</p>
  </div>","19","html-slider-response","59","1050437","0.0-10.0-3.4","152","1","2025-07-02 10:21:26","80fe4187154257d5fb01684ea91b68b9","82.42.137.12","Mozilla/5.0 (Windows NT 10.0; Win64; x64) AppleWebKit/537.36 (KHTML, like Gecko) Chrome/137.0.0.0 Safari/537.36","WebKit","Chrome","137.0.0.0","Windows","10.0","https://app.prolific.com/","en-GB,en-US;q=0.9,en;q=0.8","665af4a3c2815b2a7850332e","683db6dfa200031b80f2a654","68650791318766eacc0ac99a","665af4a3c2815b2a7850332e","2025-07-02T10:38:57.503Z","","","","","","StressQ","","","","","","","","","","","","","","","","","","","","","","","","","","","","","","","","","","","","","","50"
"4510","","<div style=""width:500px;"">
  <p>What best describes how you currently feel?</p>
  </div>","65","html-slider-response","60","1054949","0.0-10.0-4.4","152","1","2025-07-02 10:21:26","80fe4187154257d5fb01684ea91b68b9","82.42.137.12","Mozilla/5.0 (Windows NT 10.0; Win64; x64) AppleWebKit/537.36 (KHTML, like Gecko) Chrome/137.0.0.0 Safari/537.36","WebKit","Chrome","137.0.0.0","Windows","10.0","https://app.prolific.com/","en-GB,en-US;q=0.9,en;q=0.8","665af4a3c2815b2a7850332e","683db6dfa200031b80f2a654","68650791318766eacc0ac99a","665af4a3c2815b2a7850332e","2025-07-02T10:39:02.015Z","","","","","","MotivationQ","","","","","","","","","","","","","","","","","","","","","","","","","","","","","","","","","","","","","","50"
"","","","","ctl-task-cpt","61","1107047","0.0-10.0-0.5","152","1","2025-07-02 10:21:26","80fe4187154257d5fb01684ea91b68b9","82.42.137.12","Mozilla/5.0 (Windows NT 10.0; Win64; x64) AppleWebKit/537.36 (KHTML, like Gecko) Chrome/137.0.0.0 Safari/537.36","WebKit","Chrome","137.0.0.0","Windows","10.0","https://app.prolific.com/","en-GB,en-US;q=0.9,en;q=0.8","665af4a3c2815b2a7850332e","683db6dfa200031b80f2a654","68650791318766eacc0ac99a","665af4a3c2815b2a7850332e","2025-07-02T10:39:54.113Z","","","","","","","","","","","","","","","","win-only","3","g1:SW,g2:NE","0.5","6","0","1056274.4","1344","6355.6","49080.8","1","4","8","6","2","-8","-8","11","19","0.08333333333333333","2008.8","3000","-1750","[""up"",""right""]","{""num_key_presses"":12,""num_perfect"":6,""num_errors"":0,""num_randdir"":6,""num_randdir_good_moves"":2,""num_whilered"":0,""num_whileblue"":0,""num_blue"":1,""num_good_moves"":8}","[840.8928189958845,833.0491042818342,0,840.8928189958845,833.0491042818342,103,847.6428189958845,880.2991042818342,215,856.6428189958845,974.7991042818342,316.2,856.6428189958845,1033.2991042818342,416.2,856.6428189958845,1042.2991042818342,527.1,856.6428189958845,1042.2991042818342,627.2,856.6428189958845,1042.2991042818342,728.9,856.6428189958845,1042.2991042818342,835.6,856.6428189958845,1042.2991042818342,937.9,856.6428189958845,1042.2991042818342,1042.1,1041.1428189958845,893.7991042818342,1144,1196.3928189958845,731.7991042818342,1253.3,1333.6428189958845,576.5491042818342,1356.6,1443.8928189958845,446.04910428183416,1463.9,1482.1428189958845,374.04910428183416,1565.2,1522.6428189958845,279.54910428183416,1666.4,1529.3928189958845,243.5491042818342,1768.2,1522.6428189958845,205.2991042818342,1882.6,1522.6428189958845,194.0491042818342,1983.2,1522.6428189958845,196.2991042818342,2088.6,1545.1428189958845,288.54910428183416,2190.5,1556.3928189958845,475.29910428183416,2292.4,1540.6428189958845,574.2991042818342,2400.6,1540.6428189958845,578.7991042818342,2509.2,1511.3928189958845,599.0491042818342,2621.8,1511.3928189958845,599.0491042818342,2728.8,1511.3928189958845,599.0491042818342,2832.6,1511.3928189958845,599.0491042818342,2938.2,1511.3928189958845,599.0491042818342,3041.9,1511.3928189958845,599.0491042818342,3151.3,1511.3928189958845,599.0491042818342,3255.8,1511.3928189958845,599.0491042818342,3359.1,1511.3928189958845,599.0491042818342,3459.2,1511.3928189958845,599.0491042818342,3561.9,1511.3928189958845,599.0491042818342,3672.6,1511.3928189958845,599.0491042818342,3774.7,1511.3928189958845,599.0491042818342,3883.6,1511.3928189958845,599.0491042818342,3996.3,1511.3928189958845,599.0491042818342,4096.8,1511.3928189958845,599.0491042818342,4212.2,1511.3928189958845,599.0491042818342,4321,1511.3928189958845,599.0491042818342,4425,1511.3928189958845,599.0491042818342,4531.7,1511.3928189958845,599.0491042818342,4637.4,1511.3928189958845,599.0491042818342,4739.3,1511.3928189958845,599.0491042818342,4843.5,1511.3928189958845,599.0491042818342,4949.2]","[1400.4,1400.5,1000,0,400.5,""smooth"",""up"",""up"",""good_move"",4506.6,3105.2,2666.9,1401.4,438.3,""smooth"",""up"",""up"",""good_move"",7572.7,3066,2658.5,4506.7,407.5,""oops"",""up"",""up"",""good_move"",10284.7,2711.9,2329.9,7572.8,382,""oops"",""right"",""left"",""bad_move"",14053.2,3767.7,3340.4,10285.5,427.3,""smooth"",""right"",""right"",""good_move"",16692.2,2638.7,2185.2,14053.5,453.5,""smooth"",""right"",""right"",""good_move"",24052.9,7360.6,2930,20603,519.9,""smooth"",""right"",""right"",""good_move"",27353.3,3300.3,2776.2,24053,524.1,""oops"",""right"",""left"",""bad_move"",30196.8,2843.4,2340,27353.4,503.4,""oops"",""right"",""down"",""bad_move"",33062.8,2865.9,2495,30197,370.9,""oops"",""up"",""left"",""bad_move"",36812.1,3748.6,3389.3,33063.5,359.3,""oops"",""up"",""up"",""good_move"",39782,2969.3,2601.9,36812.7,367.4,""smooth"",""right"",""right"",""good_move""]","",""
"5108","","<div style=""width:500px;"">
  <p>What determined the result of this run?</p>
  </div>","10","html-slider-response","62","1112156","0.0-10.0-1.5","152","1","2025-07-02 10:21:26","80fe4187154257d5fb01684ea91b68b9","82.42.137.12","Mozilla/5.0 (Windows NT 10.0; Win64; x64) AppleWebKit/537.36 (KHTML, like Gecko) Chrome/137.0.0.0 Safari/537.36","WebKit","Chrome","137.0.0.0","Windows","10.0","https://app.prolific.com/","en-GB,en-US;q=0.9,en;q=0.8","665af4a3c2815b2a7850332e","683db6dfa200031b80f2a654","68650791318766eacc0ac99a","665af4a3c2815b2a7850332e","2025-07-02T10:39:59.223Z","","","","","","AttribQ","","","","","","","","","","","","","","","","","","","","","","","","","","","","","","","","","","","","","","50"
"4030","","<div style=""width:500px;"">
  <p>How much control did you have over the ball?</p>
  </div>","16","html-slider-response","63","1116188","0.0-10.0-2.5","152","1","2025-07-02 10:21:26","80fe4187154257d5fb01684ea91b68b9","82.42.137.12","Mozilla/5.0 (Windows NT 10.0; Win64; x64) AppleWebKit/537.36 (KHTML, like Gecko) Chrome/137.0.0.0 Safari/537.36","WebKit","Chrome","137.0.0.0","Windows","10.0","https://app.prolific.com/","en-GB,en-US;q=0.9,en;q=0.8","665af4a3c2815b2a7850332e","683db6dfa200031b80f2a654","68650791318766eacc0ac99a","665af4a3c2815b2a7850332e","2025-07-02T10:40:03.254Z","","","","","","ControlQ","","","","","","","","","","","","","","","","","","","","","","","","","","","","","","","","","","","","","","50"
"4222","","<div style=""width:500px;"">
  <p>How would you describe your current emotional state?</p>
  </div>","42","html-slider-response","64","1120413","0.0-10.0-3.5","152","1","2025-07-02 10:21:26","80fe4187154257d5fb01684ea91b68b9","82.42.137.12","Mozilla/5.0 (Windows NT 10.0; Win64; x64) AppleWebKit/537.36 (KHTML, like Gecko) Chrome/137.0.0.0 Safari/537.36","WebKit","Chrome","137.0.0.0","Windows","10.0","https://app.prolific.com/","en-GB,en-US;q=0.9,en;q=0.8","665af4a3c2815b2a7850332e","683db6dfa200031b80f2a654","68650791318766eacc0ac99a","665af4a3c2815b2a7850332e","2025-07-02T10:40:07.479Z","","","","","","StressQ","","","","","","","","","","","","","","","","","","","","","","","","","","","","","","","","","","","","","","50"
"3102","","<div style=""width:500px;"">
  <p>What best describes how you currently feel?</p>
  </div>","54","html-slider-response","65","1123516","0.0-10.0-4.5","152","1","2025-07-02 10:21:26","80fe4187154257d5fb01684ea91b68b9","82.42.137.12","Mozilla/5.0 (Windows NT 10.0; Win64; x64) AppleWebKit/537.36 (KHTML, like Gecko) Chrome/137.0.0.0 Safari/537.36","WebKit","Chrome","137.0.0.0","Windows","10.0","https://app.prolific.com/","en-GB,en-US;q=0.9,en;q=0.8","665af4a3c2815b2a7850332e","683db6dfa200031b80f2a654","68650791318766eacc0ac99a","665af4a3c2815b2a7850332e","2025-07-02T10:40:10.583Z","","","","","","MotivationQ","","","","","","","","","","","","","","","","","","","","","","","","","","","","","","","","","","","","","","50"
"","","","","ctl-task-cpt","66","1214339","0.0-10.0-0.6","152","1","2025-07-02 10:21:26","80fe4187154257d5fb01684ea91b68b9","82.42.137.12","Mozilla/5.0 (Windows NT 10.0; Win64; x64) AppleWebKit/537.36 (KHTML, like Gecko) Chrome/137.0.0.0 Safari/537.36","WebKit","Chrome","137.0.0.0","Windows","10.0","https://app.prolific.com/","en-GB,en-US;q=0.9,en;q=0.8","665af4a3c2815b2a7850332e","683db6dfa200031b80f2a654","68650791318766eacc0ac99a","665af4a3c2815b2a7850332e","2025-07-02T10:41:41.405Z","","","","","","","","","","","","","","","","win-only","2","g1:SE,g2:NW","0.4","7","0","1124842.8","1370.8","6384.9","87788.5","1","4","8","6","2","8","8","19","11","0.14393939393939395","2057.7","3000","595","[""left"",""up""]","{""num_key_presses"":16,""num_perfect"":6,""num_errors"":0,""num_randdir"":10,""num_randdir_good_moves"":5,""num_whilered"":0,""num_whileblue"":0,""num_blue"":9,""num_good_moves"":11}","[829.6428189958845,833.0491042818342,0,829.6428189958845,833.0491042818342,105.4,829.6428189958845,833.0491042818342,222.9,838.6428189958845,914.0491042818342,325.2,845.3928189958845,983.7991042818342,430.4,838.6428189958845,1010.7991042818342,534.6,829.6428189958845,1028.7991042818342,638.9,829.6428189958845,1031.0491042818342,743.8,825.1428189958845,1053.5491042818342,848.3,820.6428189958845,1076.0491042818342,950.5,820.6428189958845,1078.2991042818342,1055.3,820.6428189958845,1078.2991042818342,1156.4,820.6428189958845,1078.2991042818342,1262.1,818.3928189958845,1078.2991042818342,1381,748.6428189958845,950.0491042818342,1490.7,440.39281899588445,628.2991042818342,1593.3,282.89281899588445,455.04910428183416,1706.8,204.14281899588448,302.04910428183416,1815.3,134.39281899588448,151.2991042818342,1923.8,123.14281899588448,119.79910428183419,2030.1,123.14281899588448,119.79910428183419,2134.2,129.89281899588448,153.5491042818342,2237.6,303.14281899588445,378.54910428183416,2350.1,462.89281899588445,592.2991042818342,2464,487.64281899588445,619.2991042818342,2570.5,487.64281899588445,626.0491042818342,2676.4,487.64281899588445,626.0491042818342,2779.7,487.64281899588445,626.0491042818342,2884.8,487.64281899588445,626.0491042818342,2995,487.64281899588445,626.0491042818342,3099.9,487.64281899588445,626.0491042818342,3212.6,487.64281899588445,626.0491042818342,3319.5,487.64281899588445,626.0491042818342,3426.1,487.64281899588445,626.0491042818342,3537.1,487.64281899588445,626.0491042818342,3645,487.64281899588445,626.0491042818342,3748.4,487.64281899588445,626.0491042818342,3850.2,487.64281899588445,626.0491042818342,3953.4,487.64281899588445,626.0491042818342,4055,487.64281899588445,626.0491042818342,4165.4,487.64281899588445,626.0491042818342,4270.2,487.64281899588445,626.0491042818342,4383.5,487.64281899588445,626.0491042818342,4495.6,487.64281899588445,626.0491042818342,4598.9,487.64281899588445,626.0491042818342,4709.3,487.64281899588445,626.0491042818342,4809.5,487.64281899588445,626.0491042818342,4915.1]","[1436.7,1436.7,1000,0,436.7,""smooth"",""up"",""up"",""good_move"",4560,3123.1,2749.8,1436.9,373.3,""smooth"",""up"",""up"",""good_move"",6667,2106.6,1621.2,4560.4,485.4,""oops"",""up"",""up"",""good_move"",9712.9,3045.7,2670.2,6667.2,375.5,""oops"",""left"",""right"",""bad_move"",21810.1,12096.4,2766.4,18632,411.7,""oops"",""left"",""right"",""bad_move"",24287.2,2476.5,2012.7,21810.7,463.8,""oops"",""left"",""down"",""bad_move"",27638.8,3351.1,2977.6,24287.7,373.5,""smooth"",""up"",""up"",""good_move"",34084.9,6445.9,2409.8,31237.4,437.7,""smooth"",""left"",""left"",""good_move"",37580.8,3495.4,3086.7,34085.4,408.7,""oops"",""left"",""right"",""bad_move"",43916.2,6335.2,1955.2,41599.4,361.6,""oops"",""left"",""left"",""good_move"",54322.9,10406.6,2701.8,51200,421.2,""smooth"",""left"",""left"",""good_move"",57728.7,3405.7,1632.7,54323,1773,""oops"",""left"",""left"",""good_move"",61949.9,4220.9,2005.8,57729,2215.1,""oops"",""left"",""down"",""bad_move"",65240.9,3290.7,2877.6,61950.2,413.1,""oops"",""left"",""up"",""good_move"",69595.3,4354.3,2109.1,65241,2245.2,""smooth"",""left"",""left"",""good_move"",80975.7,11380.3,2148.2,78377.9,449.6,""oops"",""left"",""left"",""good_move""]","",""
"3972","","<div style=""width:500px;"">
  <p>What determined the result of this run?</p>
  </div>","21","html-slider-response","67","1218314","0.0-10.0-1.6","152","1","2025-07-02 10:21:26","80fe4187154257d5fb01684ea91b68b9","82.42.137.12","Mozilla/5.0 (Windows NT 10.0; Win64; x64) AppleWebKit/537.36 (KHTML, like Gecko) Chrome/137.0.0.0 Safari/537.36","WebKit","Chrome","137.0.0.0","Windows","10.0","https://app.prolific.com/","en-GB,en-US;q=0.9,en;q=0.8","665af4a3c2815b2a7850332e","683db6dfa200031b80f2a654","68650791318766eacc0ac99a","665af4a3c2815b2a7850332e","2025-07-02T10:41:45.380Z","","","","","","AttribQ","","","","","","","","","","","","","","","","","","","","","","","","","","","","","","","","","","","","","","50"
"2751","","<div style=""width:500px;"">
  <p>How much control did you have over the ball?</p>
  </div>","30","html-slider-response","68","1221068","0.0-10.0-2.6","152","1","2025-07-02 10:21:26","80fe4187154257d5fb01684ea91b68b9","82.42.137.12","Mozilla/5.0 (Windows NT 10.0; Win64; x64) AppleWebKit/537.36 (KHTML, like Gecko) Chrome/137.0.0.0 Safari/537.36","WebKit","Chrome","137.0.0.0","Windows","10.0","https://app.prolific.com/","en-GB,en-US;q=0.9,en;q=0.8","665af4a3c2815b2a7850332e","683db6dfa200031b80f2a654","68650791318766eacc0ac99a","665af4a3c2815b2a7850332e","2025-07-02T10:41:48.134Z","","","","","","ControlQ","","","","","","","","","","","","","","","","","","","","","","","","","","","","","","","","","","","","","","50"
"4117","","<div style=""width:500px;"">
  <p>How would you describe your current emotional state?</p>
  </div>","30","html-slider-response","69","1225187","0.0-10.0-3.6","152","1","2025-07-02 10:21:26","80fe4187154257d5fb01684ea91b68b9","82.42.137.12","Mozilla/5.0 (Windows NT 10.0; Win64; x64) AppleWebKit/537.36 (KHTML, like Gecko) Chrome/137.0.0.0 Safari/537.36","WebKit","Chrome","137.0.0.0","Windows","10.0","https://app.prolific.com/","en-GB,en-US;q=0.9,en;q=0.8","665af4a3c2815b2a7850332e","683db6dfa200031b80f2a654","68650791318766eacc0ac99a","665af4a3c2815b2a7850332e","2025-07-02T10:41:52.254Z","","","","","","StressQ","","","","","","","","","","","","","","","","","","","","","","","","","","","","","","","","","","","","","","50"
"3084","","<div style=""width:500px;"">
  <p>What best describes how you currently feel?</p>
  </div>","70","html-slider-response","70","1228274","0.0-10.0-4.6","152","1","2025-07-02 10:21:26","80fe4187154257d5fb01684ea91b68b9","82.42.137.12","Mozilla/5.0 (Windows NT 10.0; Win64; x64) AppleWebKit/537.36 (KHTML, like Gecko) Chrome/137.0.0.0 Safari/537.36","WebKit","Chrome","137.0.0.0","Windows","10.0","https://app.prolific.com/","en-GB,en-US;q=0.9,en;q=0.8","665af4a3c2815b2a7850332e","683db6dfa200031b80f2a654","68650791318766eacc0ac99a","665af4a3c2815b2a7850332e","2025-07-02T10:41:55.340Z","","","","","","MotivationQ","","","","","","","","","","","","","","","","","","","","","","","","","","","","","","","","","","","","","","50"
"","","","","ctl-task-cpt","71","1249777","0.0-10.0-0.7","152","1","2025-07-02 10:21:26","80fe4187154257d5fb01684ea91b68b9","82.42.137.12","Mozilla/5.0 (Windows NT 10.0; Win64; x64) AppleWebKit/537.36 (KHTML, like Gecko) Chrome/137.0.0.0 Safari/537.36","WebKit","Chrome","137.0.0.0","Windows","10.0","https://app.prolific.com/","en-GB,en-US;q=0.9,en;q=0.8","665af4a3c2815b2a7850332e","683db6dfa200031b80f2a654","68650791318766eacc0ac99a","665af4a3c2815b2a7850332e","2025-07-02T10:42:16.843Z","","","","","","","","","","","","","","","","win-only","0","g1:NW,g2:SE","0.3","8","0","1229600.3","1694.3","6702.2","18474.8","1","4","4","6","1","1","1","20","19","0.15151515151515152","2327.2","3000","2130","[""left"",""up""]","{""num_key_presses"":4,""num_perfect"":2,""num_errors"":0,""num_randdir"":2,""num_randdir_good_moves"":2,""num_whilered"":0,""num_whileblue"":0,""num_blue"":0,""num_good_moves"":4}","[825.1428189958845,835.2991042818342,0.5,825.1428189958845,835.2991042818342,120.8,825.1428189958845,900.5491042818342,224.6,825.1428189958845,972.5491042818342,326,825.1428189958845,1013.0491042818342,426.1,827.3928189958845,1058.0491042818342,533.2,831.8928189958845,1082.7991042818342,642.3,831.8928189958845,1085.0491042818342,745.5,831.8928189958845,1085.0491042818342,855.4,831.8928189958845,1085.0491042818342,957.4,831.8928189958845,1085.0491042818342,1058.6,831.8928189958845,1085.0491042818342,1170.4,798.1428189958845,1055.7991042818342,1275.1,696.8928189958845,952.2991042818342,1385.8,568.6428189958845,770.0491042818342,1485.9,494.39281899588445,713.7991042818342,1589.6,494.39281899588445,713.7991042818342,1696.6,467.39281899588445,693.5491042818342,1821.4,152.39281899588448,452.79910428183416,1926.9,109.64281899588448,317.79910428183416,2033.6,100.64281899588448,241.2991042818342,2138.4,123.14281899588448,180.5491042818342,2245.2,125.39281899588448,176.0491042818342,2351.6,125.39281899588448,176.0491042818342,2456,152.39281899588448,311.04910428183416,2559.6,217.64281899588448,547.2991042818342,2664.4,237.89281899588448,635.0491042818342,2770,237.89281899588448,648.5491042818342,2879.4,237.89281899588448,648.5491042818342,2980.9,237.89281899588448,648.5491042818342,3086.3,237.89281899588448,648.5491042818342,3187.4,237.89281899588448,648.5491042818342,3288.5,237.89281899588448,648.5491042818342,3388.8,237.89281899588448,648.5491042818342,3491.4,237.89281899588448,648.5491042818342,3599.2,237.89281899588448,648.5491042818342,3704.5,237.89281899588448,648.5491042818342,3810.7,237.89281899588448,648.5491042818342,3919,237.89281899588448,648.5491042818342,4043.8,237.89281899588448,648.5491042818342,4148.8,237.89281899588448,648.5491042818342,4261,237.89281899588448,648.5491042818342,4366.9,237.89281899588448,648.5491042818342,4475.8,237.89281899588448,648.5491042818342,4577.3,237.89281899588448,648.5491042818342,4679.7,237.89281899588448,648.5491042818342,4786.3,237.89281899588448,648.5491042818342,4898.4]","[1600.4,1600.4,1000,0,600.4,""smooth"",""left"",""left"",""good_move"",5462,3861,3391,1601,470,""oops"",""up"",""left"",""good_move"",9083.7,3621.5,3125,5462.2,496.5,""oops"",""up"",""up"",""good_move"",11547.5,2463,2079.4,9084.5,383.6,""smooth"",""up"",""up"",""good_move""]","",""
"3804","","<div style=""width:500px;"">
  <p>What determined the result of this run?</p>
  </div>","56","html-slider-response","72","1253582","0.0-10.0-1.7","152","1","2025-07-02 10:21:26","80fe4187154257d5fb01684ea91b68b9","82.42.137.12","Mozilla/5.0 (Windows NT 10.0; Win64; x64) AppleWebKit/537.36 (KHTML, like Gecko) Chrome/137.0.0.0 Safari/537.36","WebKit","Chrome","137.0.0.0","Windows","10.0","https://app.prolific.com/","en-GB,en-US;q=0.9,en;q=0.8","665af4a3c2815b2a7850332e","683db6dfa200031b80f2a654","68650791318766eacc0ac99a","665af4a3c2815b2a7850332e","2025-07-02T10:42:20.649Z","","","","","","AttribQ","","","","","","","","","","","","","","","","","","","","","","","","","","","","","","","","","","","","","","50"
"2234","","<div style=""width:500px;"">
  <p>How much control did you have over the ball?</p>
  </div>","58","html-slider-response","73","1255819","0.0-10.0-2.7","152","1","2025-07-02 10:21:26","80fe4187154257d5fb01684ea91b68b9","82.42.137.12","Mozilla/5.0 (Windows NT 10.0; Win64; x64) AppleWebKit/537.36 (KHTML, like Gecko) Chrome/137.0.0.0 Safari/537.36","WebKit","Chrome","137.0.0.0","Windows","10.0","https://app.prolific.com/","en-GB,en-US;q=0.9,en;q=0.8","665af4a3c2815b2a7850332e","683db6dfa200031b80f2a654","68650791318766eacc0ac99a","665af4a3c2815b2a7850332e","2025-07-02T10:42:22.885Z","","","","","","ControlQ","","","","","","","","","","","","","","","","","","","","","","","","","","","","","","","","","","","","","","50"
"3373","","<div style=""width:500px;"">
  <p>How would you describe your current emotional state?</p>
  </div>","39","html-slider-response","74","1259193","0.0-10.0-3.7","152","1","2025-07-02 10:21:26","80fe4187154257d5fb01684ea91b68b9","82.42.137.12","Mozilla/5.0 (Windows NT 10.0; Win64; x64) AppleWebKit/537.36 (KHTML, like Gecko) Chrome/137.0.0.0 Safari/537.36","WebKit","Chrome","137.0.0.0","Windows","10.0","https://app.prolific.com/","en-GB,en-US;q=0.9,en;q=0.8","665af4a3c2815b2a7850332e","683db6dfa200031b80f2a654","68650791318766eacc0ac99a","665af4a3c2815b2a7850332e","2025-07-02T10:42:26.260Z","","","","","","StressQ","","","","","","","","","","","","","","","","","","","","","","","","","","","","","","","","","","","","","","50"
"2487","","<div style=""width:500px;"">
  <p>What best describes how you currently feel?</p>
  </div>","66","html-slider-response","75","1261682","0.0-10.0-4.7","152","1","2025-07-02 10:21:26","80fe4187154257d5fb01684ea91b68b9","82.42.137.12","Mozilla/5.0 (Windows NT 10.0; Win64; x64) AppleWebKit/537.36 (KHTML, like Gecko) Chrome/137.0.0.0 Safari/537.36","WebKit","Chrome","137.0.0.0","Windows","10.0","https://app.prolific.com/","en-GB,en-US;q=0.9,en;q=0.8","665af4a3c2815b2a7850332e","683db6dfa200031b80f2a654","68650791318766eacc0ac99a","665af4a3c2815b2a7850332e","2025-07-02T10:42:28.748Z","","","","","","MotivationQ","","","","","","","","","","","","","","","","","","","","","","","","","","","","","","","","","","","","","","50"
"","","","","ctl-task-cpt","76","1387429","0.0-10.0-0.8","152","1","2025-07-02 10:21:26","80fe4187154257d5fb01684ea91b68b9","82.42.137.12","Mozilla/5.0 (Windows NT 10.0; Win64; x64) AppleWebKit/537.36 (KHTML, like Gecko) Chrome/137.0.0.0 Safari/537.36","WebKit","Chrome","137.0.0.0","Windows","10.0","https://app.prolific.com/","en-GB,en-US;q=0.9,en;q=0.8","665af4a3c2815b2a7850332e","683db6dfa200031b80f2a654","68650791318766eacc0ac99a","665af4a3c2815b2a7850332e","2025-07-02T10:44:34.495Z","","","","","","","","","","","","","","","","win-only","0","g1:NW,g2:SE","0.4","9","0","1263005.6","2006.9","7007.6","122711.9","1","4","4","6","2","4","4","24","20","0.18181818181818182","1732.2","3000","490","[""down"",""right""]","{""num_key_presses"":24,""num_perfect"":11,""num_errors"":0,""num_randdir"":13,""num_randdir_good_moves"":4,""num_whilered"":0,""num_whileblue"":0,""num_blue"":10,""num_good_moves"":15}","[831.8928189958845,830.7991042818342,0.2,831.8928189958845,830.7991042818342,102.6,831.8928189958845,830.7991042818342,205.1,831.8928189958845,830.7991042818342,318.6,838.6428189958845,846.5491042818342,428.3,840.8928189958845,851.0491042818342,533,840.8928189958845,851.0491042818342,643.6,840.8928189958845,851.0491042818342,750.9,840.8928189958845,851.0491042818342,850.9,840.8928189958845,851.0491042818342,955.8,847.6428189958845,857.7991042818342,1060.3,883.6428189958845,891.5491042818342,1163.8,1153.6428189958845,1091.7991042818342,1275.7,1389.8928189958845,1391.0491042818342,1383.2,1479.8928189958845,1503.5491042818342,1486.7,1522.6428189958845,1523.7991042818342,1591.5,1527.1428189958845,1523.7991042818342,1737.6,1527.1428189958845,1523.7991042818342,1845.6,1538.3928189958845,1487.7991042818342,1946.8,1556.3928189958845,1391.0491042818342,2049.5,1547.3928189958845,1377.5491042818342,2151,1547.3928189958845,1377.5491042818342,2261.3,1547.3928189958845,1377.5491042818342,2363.8,1547.3928189958845,1377.5491042818342,2463.9,1547.3928189958845,1377.5491042818342,2564.6,1547.3928189958845,1377.5491042818342,2670.2,1547.3928189958845,1377.5491042818342,2779.5,1547.3928189958845,1377.5491042818342,2885.7,1547.3928189958845,1377.5491042818342,2995.7,1547.3928189958845,1377.5491042818342,3104.9,1547.3928189958845,1377.5491042818342,3212.5,1547.3928189958845,1377.5491042818342,3318.9,1547.3928189958845,1377.5491042818342,3423.3,1547.3928189958845,1377.5491042818342,3534,1547.3928189958845,1377.5491042818342,3640.7,1547.3928189958845,1377.5491042818342,3751.1,1547.3928189958845,1377.5491042818342,3855,1547.3928189958845,1377.5491042818342,3963.4,1547.3928189958845,1377.5491042818342,4067.5,1547.3928189958845,1377.5491042818342,4175.4,1547.3928189958845,1377.5491042818342,4285.4,1547.3928189958845,1377.5491042818342,4385.6,1547.3928189958845,1377.5491042818342,4487.6,1547.3928189958845,1377.5491042818342,4589.8,1547.3928189958845,1377.5491042818342,4691.9,1547.3928189958845,1377.5491042818342,4798.7,1547.3928189958845,1377.5491042818342,4908.9]","[1437.7,1437.7,1000,0,437.7,""oops"",""down"",""down"",""good_move"",5113.3,3674.7,3266.2,1438.6,408.5,""smooth"",""right"",""right"",""good_move"",12104.8,6991.3,2778.7,8901.6,424.5,""oops"",""down"",""left"",""bad_move"",15002.8,2898,2356.6,12104.9,541.3,""smooth"",""right"",""right"",""good_move"",17686.4,2683.2,2208.1,15003.3,475.1,""smooth"",""right"",""right"",""good_move"",20886.1,3199.5,2826.5,17686.6,373,""smooth"",""down"",""down"",""good_move"",23625.6,2739.4,2304.9,20886.2,434.5,""oops"",""down"",""left"",""bad_move"",32767.3,9141.6,1367.9,30923.9,475.5,""oops"",""right"",""left"",""bad_move"",36342.1,3574.5,1775.2,32767.6,1799.3,""oops"",""right"",""down"",""good_move"",39045,2702.7,2283.1,36342.3,419.6,""oops"",""right"",""up"",""bad_move"",42723.6,3678.6,2533.9,39045.1,1144.7,""oops"",""right"",""left"",""bad_move"",49673.2,6949.4,2123.5,47058.8,490.9,""smooth"",""right"",""right"",""good_move"",52527.1,2853.8,2409.7,49673.3,444.1,""smooth"",""right"",""right"",""good_move"",55134.9,2607.6,2171.5,52527.3,436.1,""smooth"",""right"",""right"",""good_move"",58572.4,3437.4,2980.8,55135,456.6,""oops"",""down"",""left"",""bad_move"",67319.2,8746.6,2719.8,64148,451.4,""smooth"",""right"",""right"",""good_move"",70259.8,2940.5,2455.4,67319.3,485.1,""oops"",""down"",""left"",""bad_move"",75584.7,5324.6,1545,70260.1,3779.6,""oops"",""down"",""up"",""bad_move"",80844.4,5259.6,2076.4,75584.8,3183.2,""oops"",""down"",""down"",""good_move"",83500.5,2655.9,2098.5,80844.6,557.4,""oops"",""right"",""left"",""bad_move"",95950.7,12450,2359,93085.1,506.6,""smooth"",""right"",""right"",""good_move"",98564.6,2613.7,2096.9,95950.9,516.8,""smooth"",""right"",""right"",""good_move"",102089.4,3524.7,3040.6,98564.7,484.1,""oops"",""right"",""down"",""good_move"",115030.3,12940.8,2112.4,112436.7,481.2,""smooth"",""right"",""right"",""good_move""]","",""
"4067","","<div style=""width:500px;"">
  <p>What determined the result of this run?</p>
  </div>","4","html-slider-response","77","1391498","0.0-10.0-1.8","152","1","2025-07-02 10:21:26","80fe4187154257d5fb01684ea91b68b9","82.42.137.12","Mozilla/5.0 (Windows NT 10.0; Win64; x64) AppleWebKit/537.36 (KHTML, like Gecko) Chrome/137.0.0.0 Safari/537.36","WebKit","Chrome","137.0.0.0","Windows","10.0","https://app.prolific.com/","en-GB,en-US;q=0.9,en;q=0.8","665af4a3c2815b2a7850332e","683db6dfa200031b80f2a654","68650791318766eacc0ac99a","665af4a3c2815b2a7850332e","2025-07-02T10:44:38.564Z","","","","","","AttribQ","","","","","","","","","","","","","","","","","","","","","","","","","","","","","","","","","","","","","","50"
"3382","","<div style=""width:500px;"">
  <p>How much control did you have over the ball?</p>
  </div>","9","html-slider-response","78","1394884","0.0-10.0-2.8","152","1","2025-07-02 10:21:26","80fe4187154257d5fb01684ea91b68b9","82.42.137.12","Mozilla/5.0 (Windows NT 10.0; Win64; x64) AppleWebKit/537.36 (KHTML, like Gecko) Chrome/137.0.0.0 Safari/537.36","WebKit","Chrome","137.0.0.0","Windows","10.0","https://app.prolific.com/","en-GB,en-US;q=0.9,en;q=0.8","665af4a3c2815b2a7850332e","683db6dfa200031b80f2a654","68650791318766eacc0ac99a","665af4a3c2815b2a7850332e","2025-07-02T10:44:41.950Z","","","","","","ControlQ","","","","","","","","","","","","","","","","","","","","","","","","","","","","","","","","","","","","","","50"
"2892","","<div style=""width:500px;"">
  <p>How would you describe your current emotional state?</p>
  </div>","41","html-slider-response","79","1397780","0.0-10.0-3.8","152","1","2025-07-02 10:21:26","80fe4187154257d5fb01684ea91b68b9","82.42.137.12","Mozilla/5.0 (Windows NT 10.0; Win64; x64) AppleWebKit/537.36 (KHTML, like Gecko) Chrome/137.0.0.0 Safari/537.36","WebKit","Chrome","137.0.0.0","Windows","10.0","https://app.prolific.com/","en-GB,en-US;q=0.9,en;q=0.8","665af4a3c2815b2a7850332e","683db6dfa200031b80f2a654","68650791318766eacc0ac99a","665af4a3c2815b2a7850332e","2025-07-02T10:44:44.846Z","","","","","","StressQ","","","","","","","","","","","","","","","","","","","","","","","","","","","","","","","","","","","","","","50"
"3445","","<div style=""width:500px;"">
  <p>What best describes how you currently feel?</p>
  </div>","71","html-slider-response","80","1401228","0.0-10.0-4.8","152","1","2025-07-02 10:21:26","80fe4187154257d5fb01684ea91b68b9","82.42.137.12","Mozilla/5.0 (Windows NT 10.0; Win64; x64) AppleWebKit/537.36 (KHTML, like Gecko) Chrome/137.0.0.0 Safari/537.36","WebKit","Chrome","137.0.0.0","Windows","10.0","https://app.prolific.com/","en-GB,en-US;q=0.9,en;q=0.8","665af4a3c2815b2a7850332e","683db6dfa200031b80f2a654","68650791318766eacc0ac99a","665af4a3c2815b2a7850332e","2025-07-02T10:44:48.294Z","","","","","","MotivationQ","","","","","","","","","","","","","","","","","","","","","","","","","","","","","","","","","","","","","","50"
