"rt","response_timestamp","stimulus","response","trial_type","trial_index","time_elapsed","internal_node_id","run_id","condition","recorded_at","source_code_version","ip","user_agent","device","browser","browser_version","platform","platform_version","referer","accept_language","PROLIFIC_PID","STUDY_ID","SESSION_ID","prolific_id","realtime","view_history","question_order","consent","success","question_id","eventType","responses","item_order","radio_event_ids","radio_event_times","key_event_times","mouse_event_times","straightlining","zigzagging","honeypot","which_type","canvas_config","goals_layout","control_level","trial_number","tutorial_trial_number","trial_start_time","phase1_start_time","phase2_start_time","phase3_start_time","goal_1_value","goal_1_distance","goal_2_value","goal_2_distance","goal_selected","outcome","outcome_total","participant_final_score","participant_initial_score","participant_final_score_prop","goal_choice_rt","allocated_time","allocated_time_remaining","goal_direction","counts","mouse_movements","key_presses","correct","slider_start"
"12131","1751451552527","<p style='font-size:40px;line-height:1.25'><strong>Welcome to the experiment!</strong></p><p style='font-size:1.1em;line-height:1.25'>Thank you for your interest in our experiment! Before you begin, it is important that we obtain your informed consent to participate in the study.</p><p style='font-size:1.1em;line-height:1.25'>On the next screen will be an <strong>information sheet</strong> for you to read. To participate in the study we need you to read this information sheet and the following consent form carefully. If you agree with all the statements, please click the <strong>I agree</strong> button.</p><p style='font-size:1.1em;line-height:1.25'>Press <strong>Next</strong> to read the information sheet.</p>","0","custom-html-button-response","0","12132","0.0-0.0","67","1","2025-07-02 10:18:59","80fe4187154257d5fb01684ea91b68b9","46.205.205.231","Mozilla/5.0 (Windows NT 10.0; Win64; x64) AppleWebKit/537.36 (KHTML, like Gecko) Chrome/137.0.0.0 Safari/537.36","WebKit","Chrome","137.0.0.0","Windows","10.0","https://app.prolific.com/","pl-PL,pl;q=0.9,en-US;q=0.8,en;q=0.7","66699d98d268f725f96b8f4c","683db6dfa200031b80f2a654","68650772752d57764183afa4","66699d98d268f725f96b8f4c","2025-07-02T10:19:12.528Z","","","","","","","","","","","","","","","","","","","","","","","","","","","","","","","","","","","","","","","","","","","",""
"89491","","","","instructions","1","101624","0.0-1.0","67","1","2025-07-02 10:18:59","80fe4187154257d5fb01684ea91b68b9","46.205.205.231","Mozilla/5.0 (Windows NT 10.0; Win64; x64) AppleWebKit/537.36 (KHTML, like Gecko) Chrome/137.0.0.0 Safari/537.36","WebKit","Chrome","137.0.0.0","Windows","10.0","https://app.prolific.com/","pl-PL,pl;q=0.9,en-US;q=0.8,en;q=0.7","66699d98d268f725f96b8f4c","683db6dfa200031b80f2a654","68650772752d57764183afa4","66699d98d268f725f96b8f4c","","[{""page_index"":0,""viewing_time"":72147},{""page_index"":1,""viewing_time"":17344}]","","","","","","","","","","","","","","","","","","","","","","","","","","","","","","","","","","","","","","","","","","",""
"10287","","","{""Q0"":"""",""Q1"":"""",""Q2"":"""",""Q3"":"""",""Q4"":"""",""Q5"":"""",""Q6"":""I agree""}","survey-multi-choice","2","111913","0.0-2.0","67","1","2025-07-02 10:18:59","80fe4187154257d5fb01684ea91b68b9","46.205.205.231","Mozilla/5.0 (Windows NT 10.0; Win64; x64) AppleWebKit/537.36 (KHTML, like Gecko) Chrome/137.0.0.0 Safari/537.36","WebKit","Chrome","137.0.0.0","Windows","10.0","https://app.prolific.com/","pl-PL,pl;q=0.9,en-US;q=0.8,en;q=0.7","66699d98d268f725f96b8f4c","683db6dfa200031b80f2a654","68650772752d57764183afa4","66699d98d268f725f96b8f4c","","","[0,1,2,3,4,5,6]","true","","","","","","","","","","","","","","","","","","","","","","","","","","","","","","","","","","","","","","","","",""
"13449","","","","fullscreen","3","126367","0.0-4.0","67","1","2025-07-02 10:18:59","80fe4187154257d5fb01684ea91b68b9","46.205.205.231","Mozilla/5.0 (Windows NT 10.0; Win64; x64) AppleWebKit/537.36 (KHTML, like Gecko) Chrome/137.0.0.0 Safari/537.36","WebKit","Chrome","137.0.0.0","Windows","10.0","https://app.prolific.com/","pl-PL,pl;q=0.9,en-US;q=0.8,en;q=0.7","66699d98d268f725f96b8f4c","683db6dfa200031b80f2a654","68650772752d57764183afa4","66699d98d268f725f96b8f4c","","","","","true","","","","","","","","","","","","","","","","","","","","","","","","","","","","","","","","","","","","","","","",""
"6419","1751451673181"," <p style='font-size:1.1em;line-height:1.25'>Thank you for completing the consent form and closing all other tabs.</p><p style='font-size:1.1em;line-height:1.25'>We will now invite you to fill in some demographic information and questionnaires, before starting the game.<br>This will take about 5 minutes.<br></p><p style='font-size:1.1em;line-height:1.25'>Press the <strong>Next</strong> button to continue.</p>","0","custom-html-button-response","4","132786","0.0-5.0","67","1","2025-07-02 10:18:59","80fe4187154257d5fb01684ea91b68b9","46.205.205.231","Mozilla/5.0 (Windows NT 10.0; Win64; x64) AppleWebKit/537.36 (KHTML, like Gecko) Chrome/137.0.0.0 Safari/537.36","WebKit","Chrome","137.0.0.0","Windows","10.0","https://app.prolific.com/","pl-PL,pl;q=0.9,en-US;q=0.8,en;q=0.7","66699d98d268f725f96b8f4c","683db6dfa200031b80f2a654","68650772752d57764183afa4","66699d98d268f725f96b8f4c","2025-07-02T10:21:13.181Z","","","","","","","","","","","","","","","","","","","","","","","","","","","","","","","","","","","","","","","","","","","",""
"3809","","","{""age"":""28""}","survey-text","5","136597","0.0-6.0-0.0","67","1","2025-07-02 10:18:59","80fe4187154257d5fb01684ea91b68b9","46.205.205.231","Mozilla/5.0 (Windows NT 10.0; Win64; x64) AppleWebKit/537.36 (KHTML, like Gecko) Chrome/137.0.0.0 Safari/537.36","WebKit","Chrome","137.0.0.0","Windows","10.0","https://app.prolific.com/","pl-PL,pl;q=0.9,en-US;q=0.8,en;q=0.7","66699d98d268f725f96b8f4c","683db6dfa200031b80f2a654","68650772752d57764183afa4","66699d98d268f725f96b8f4c","","","","","","0","demographics","","","","","","","","","","","","","","","","","","","","","","","","","","","","","","","","","","","","","",""
"4965","","","{""gender_identity"":""male/man""}","survey-multi-choice","6","141563","0.0-6.0-1.0","67","1","2025-07-02 10:18:59","80fe4187154257d5fb01684ea91b68b9","46.205.205.231","Mozilla/5.0 (Windows NT 10.0; Win64; x64) AppleWebKit/537.36 (KHTML, like Gecko) Chrome/137.0.0.0 Safari/537.36","WebKit","Chrome","137.0.0.0","Windows","10.0","https://app.prolific.com/","pl-PL,pl;q=0.9,en-US;q=0.8,en;q=0.7","66699d98d268f725f96b8f4c","683db6dfa200031b80f2a654","68650772752d57764183afa4","66699d98d268f725f96b8f4c","","","[0]","","","1","demographics","","","","","","","","","","","","","","","","","","","","","","","","","","","","","","","","","","","","","",""
"2941","","","{""assigned_sex"":""male""}","survey-multi-choice","7","144504","0.0-6.0-2.0","67","1","2025-07-02 10:18:59","80fe4187154257d5fb01684ea91b68b9","46.205.205.231","Mozilla/5.0 (Windows NT 10.0; Win64; x64) AppleWebKit/537.36 (KHTML, like Gecko) Chrome/137.0.0.0 Safari/537.36","WebKit","Chrome","137.0.0.0","Windows","10.0","https://app.prolific.com/","pl-PL,pl;q=0.9,en-US;q=0.8,en;q=0.7","66699d98d268f725f96b8f4c","683db6dfa200031b80f2a654","68650772752d57764183afa4","66699d98d268f725f96b8f4c","","","[0]","","","2","demographics","","","","","","","","","","","","","","","","","","","","","","","","","","","","","","","","","","","","","",""
"2956","","","{""menstrual_cycle"":""No""}","survey-multi-choice","8","147460","0.0-6.0-3.0","67","1","2025-07-02 10:18:59","80fe4187154257d5fb01684ea91b68b9","46.205.205.231","Mozilla/5.0 (Windows NT 10.0; Win64; x64) AppleWebKit/537.36 (KHTML, like Gecko) Chrome/137.0.0.0 Safari/537.36","WebKit","Chrome","137.0.0.0","Windows","10.0","https://app.prolific.com/","pl-PL,pl;q=0.9,en-US;q=0.8,en;q=0.7","66699d98d268f725f96b8f4c","683db6dfa200031b80f2a654","68650772752d57764183afa4","66699d98d268f725f96b8f4c","","","[0]","","","4","demographics","","","","","","","","","","","","","","","","","","","","","","","","","","","","","","","","","","","","","",""
"14753","","","{""education"":""Others""}","survey-multi-choice","9","162215","0.0-6.0-4.0","67","1","2025-07-02 10:18:59","80fe4187154257d5fb01684ea91b68b9","46.205.205.231","Mozilla/5.0 (Windows NT 10.0; Win64; x64) AppleWebKit/537.36 (KHTML, like Gecko) Chrome/137.0.0.0 Safari/537.36","WebKit","Chrome","137.0.0.0","Windows","10.0","https://app.prolific.com/","pl-PL,pl;q=0.9,en-US;q=0.8,en;q=0.7","66699d98d268f725f96b8f4c","683db6dfa200031b80f2a654","68650772752d57764183afa4","66699d98d268f725f96b8f4c","","","[0]","","","5","demographics","","","","","","","","","","","","","","","","","","","","","","","","","","","","","","","","","","","","","",""
"3565","","","{""education"":""Others""}","survey-multi-choice","10","165780","0.0-6.0-5.0","67","1","2025-07-02 10:18:59","80fe4187154257d5fb01684ea91b68b9","46.205.205.231","Mozilla/5.0 (Windows NT 10.0; Win64; x64) AppleWebKit/537.36 (KHTML, like Gecko) Chrome/137.0.0.0 Safari/537.36","WebKit","Chrome","137.0.0.0","Windows","10.0","https://app.prolific.com/","pl-PL,pl;q=0.9,en-US;q=0.8,en;q=0.7","66699d98d268f725f96b8f4c","683db6dfa200031b80f2a654","68650772752d57764183afa4","66699d98d268f725f96b8f4c","2025-07-02T10:21:46.175Z","","[0]","","","6","demographics","","","","","","","","","","","","","","","","","","","","","","","","","","","","","","","","","","","","","",""
"11035","","","{""mental_health_condition"":""No"",""mental_health_treatment"":""No"",""psychiatric_medication"":""No""}","survey-text","11","176816","0.0-7.0-0.0","67","1","2025-07-02 10:18:59","80fe4187154257d5fb01684ea91b68b9","46.205.205.231","Mozilla/5.0 (Windows NT 10.0; Win64; x64) AppleWebKit/537.36 (KHTML, like Gecko) Chrome/137.0.0.0 Safari/537.36","WebKit","Chrome","137.0.0.0","Windows","10.0","https://app.prolific.com/","pl-PL,pl;q=0.9,en-US;q=0.8,en;q=0.7","66699d98d268f725f96b8f4c","683db6dfa200031b80f2a654","68650772752d57764183afa4","66699d98d268f725f96b8f4c","2025-07-02T10:21:57.212Z","","","","","1","mental_health","","","","","","","","","","","","","","","","","","","","","","","","","","","","","","","","","","","","","",""
"11855","","","{""depression_history"":[""No""]}","survey-multi-select","12","188673","0.0-7.0-1.0","67","1","2025-07-02 10:18:59","80fe4187154257d5fb01684ea91b68b9","46.205.205.231","Mozilla/5.0 (Windows NT 10.0; Win64; x64) AppleWebKit/537.36 (KHTML, like Gecko) Chrome/137.0.0.0 Safari/537.36","WebKit","Chrome","137.0.0.0","Windows","10.0","https://app.prolific.com/","pl-PL,pl;q=0.9,en-US;q=0.8,en;q=0.7","66699d98d268f725f96b8f4c","683db6dfa200031b80f2a654","68650772752d57764183afa4","66699d98d268f725f96b8f4c","","","[0]","","","","mental_health","","","","","","","","","","","","","","","","","","","","","","","","","","","","","","","","","","","","","",""
"59153.30000001192","","","","survey-template","13","247828","0.0-7.0-3.0","67","1","2025-07-02 10:18:59","80fe4187154257d5fb01684ea91b68b9","46.205.205.231","Mozilla/5.0 (Windows NT 10.0; Win64; x64) AppleWebKit/537.36 (KHTML, like Gecko) Chrome/137.0.0.0 Safari/537.36","WebKit","Chrome","137.0.0.0","Windows","10.0","https://app.prolific.com/","pl-PL,pl;q=0.9,en-US;q=0.8,en;q=0.7","66699d98d268f725f96b8f4c","683db6dfa200031b80f2a654","68650772752d57764183afa4","66699d98d268f725f96b8f4c","2025-07-02T10:23:08.223Z","","","","","","ius","{""Q01"":""1"",""Q02"":""2"",""Q03"":""1"",""Q04"":""2"",""Q05"":""1"",""Q06"":""0"",""Q07"":""0"",""Q08"":""0"",""Q09"":""1"",""Q10"":""1"",""Q11"":""0"",""Q12"":""0"",""Q13"":""0""}","[0,1,2,3,4,5,6,7,8,9,10,11,12]","[""Q01"",""Q02"",""Q03"",""Q04"",""Q05"",""Q06"",""Q07"",""Q08"",""Q09"",""Q10"",""Q11"",""Q12"",""Q13""]","[9532.40000000596,12850.300000011921,17992.19999998808,23676.40000000596,28586.90000000596,32984.19999998808,36376.19999998808,40716.40000000596,46010.40000000596,49906.90000000596,53059,56350.5,58042.30000001192]","[]","[9532.40000000596,12850.300000011921,17992.19999998808,22136.30000001192,22788.19999998808,23240,23676.40000000596,28586.90000000596,32984.19999998808,36376.19999998808,40716.40000000596,46010.40000000596,49906.90000000596,53059,56350.5,58042.30000001192,59152.19999998808]","0.46153846153846156","0.5833333333333334","0","","","","","","","","","","","","","","","","","","","","","","","","","","","","",""
"4316","1751451792539","<p style='font-size:1.1em;line-height:1.25'>In the following, we will ask you a few questions relating to your experiences over the past month.<br></p><p style='font-size:1.1em;line-height:1.25'>Press the <strong>Next</strong> button to continue.</p>","0","custom-html-button-response","14","252144","0.0-7.0-4.0","67","1","2025-07-02 10:18:59","80fe4187154257d5fb01684ea91b68b9","46.205.205.231","Mozilla/5.0 (Windows NT 10.0; Win64; x64) AppleWebKit/537.36 (KHTML, like Gecko) Chrome/137.0.0.0 Safari/537.36","WebKit","Chrome","137.0.0.0","Windows","10.0","https://app.prolific.com/","pl-PL,pl;q=0.9,en-US;q=0.8,en;q=0.7","66699d98d268f725f96b8f4c","683db6dfa200031b80f2a654","68650772752d57764183afa4","66699d98d268f725f96b8f4c","2025-07-02T10:23:12.539Z","","","","","","","","","","","","","","","","","","","","","","","","","","","","","","","","","","","","","","","","","","","",""
"52884.09999999404","","","","survey-template","15","305030","0.0-7.0-5.0","67","1","2025-07-02 10:18:59","80fe4187154257d5fb01684ea91b68b9","46.205.205.231","Mozilla/5.0 (Windows NT 10.0; Win64; x64) AppleWebKit/537.36 (KHTML, like Gecko) Chrome/137.0.0.0 Safari/537.36","WebKit","Chrome","137.0.0.0","Windows","10.0","https://app.prolific.com/","pl-PL,pl;q=0.9,en-US;q=0.8,en;q=0.7","66699d98d268f725f96b8f4c","683db6dfa200031b80f2a654","68650772752d57764183afa4","66699d98d268f725f96b8f4c","2025-07-02T10:24:05.425Z","","","","","","pss","{""Q01"":""2"",""Q02"":""1"",""Q03"":""2"",""Q04"":""2"",""Q05"":""2"",""Q06"":""2"",""Q07"":""1"",""Q08"":""2"",""Q09"":""2"",""Q10"":""1""}","[0,1,2,3,4,5,6,7,8,9]","[""Q01"",""Q01"",""Q02"",""Q03"",""Q04"",""Q05"",""Q06"",""Q07"",""Q08"",""Q09"",""Q10""]","[7774.9000000059605,9517,13889.09999999404,17756.90000000596,23461.09999999404,28175,33046.90000000596,37969.5,41808.90000000596,46951,52116.79999998212]","[]","[0.09999999403953552,7774.9000000059605,9517,13889.09999999404,17404.90000000596,17756.90000000596,23461.09999999404,28175,33046.90000000596,37969.5,41808.90000000596,46951,51531.09999999404,52116.79999998212,52883.09999999404]","0.7","0.5555555555555556","0","","","","","","","","","","","","","","","","","","","","","","","","","","","","",""
"3386","1751451848811","<p style='font-size:1.1em;line-height:1.25'>Thank you for your answers! Now we will ask you a few more questions relating to your feelings in the last 24 hours.<br></p><p style='font-size:1.1em;line-height:1.25'>Press the <strong>Next</strong> button to continue.</p>","0","custom-html-button-response","16","308416","0.0-7.0-6.0","67","1","2025-07-02 10:18:59","80fe4187154257d5fb01684ea91b68b9","46.205.205.231","Mozilla/5.0 (Windows NT 10.0; Win64; x64) AppleWebKit/537.36 (KHTML, like Gecko) Chrome/137.0.0.0 Safari/537.36","WebKit","Chrome","137.0.0.0","Windows","10.0","https://app.prolific.com/","pl-PL,pl;q=0.9,en-US;q=0.8,en;q=0.7","66699d98d268f725f96b8f4c","683db6dfa200031b80f2a654","68650772752d57764183afa4","66699d98d268f725f96b8f4c","2025-07-02T10:24:08.812Z","","","","","","","","","","","","","","","","","","","","","","","","","","","","","","","","","","","","","","","","","","","",""
"68826.29999998212","","","","survey-template","17","377245","0.0-7.0-7.0","67","1","2025-07-02 10:18:59","80fe4187154257d5fb01684ea91b68b9","46.205.205.231","Mozilla/5.0 (Windows NT 10.0; Win64; x64) AppleWebKit/537.36 (KHTML, like Gecko) Chrome/137.0.0.0 Safari/537.36","WebKit","Chrome","137.0.0.0","Windows","10.0","https://app.prolific.com/","pl-PL,pl;q=0.9,en-US;q=0.8,en;q=0.7","66699d98d268f725f96b8f4c","683db6dfa200031b80f2a654","68650772752d57764183afa4","66699d98d268f725f96b8f4c","2025-07-02T10:25:17.640Z","","","","","","drsp","{""Q01"":""1"",""Q02"":""0"",""Q03"":""0"",""Q04"":""1"",""Q05"":""0"",""Q06"":""0"",""Q07"":""1"",""Q08"":""0"",""Q09"":""0"",""Q10"":""1"",""Q11"":""2"",""Q12"":""2"",""Q13"":""2"",""Q14"":""1"",""Q15"":""1"",""Q16"":""0"",""Q17"":""0"",""Q18"":""0"",""Q19"":""1"",""Q20"":""1"",""Q21"":""0""}","[0,1,2,3,4,5,6,7,8,9,10,11,12,13,14,15,16,17,18,19,20]","[""Q01"",""Q02"",""Q03"",""Q04"",""Q05"",""Q06"",""Q07"",""Q08"",""Q09"",""Q10"",""Q11"",""Q12"",""Q13"",""Q14"",""Q15"",""Q16"",""Q17"",""Q18"",""Q19"",""Q20"",""Q21""]","[3712.699999988079,8278.5,12912.699999988079,15912.5,18824.5,21290.59999999404,23580.69999998808,26024.79999998212,27726.69999998808,33258.5,35114.5,39066.5,41094.5,43708.5,46625.19999998808,48886.59999999404,50150.79999998212,54640.5,61078.5,64980.79999998212,68076.59999999404]","[]","[0.09999999403953552,3712.699999988079,8278.5,11258.299999982119,12912.699999988079,15912.5,18824.5,21290.59999999404,23580.69999998808,26024.79999998212,27726.69999998808,31172.5,33258.5,35114.5,39066.5,41094.5,43708.5,46625.19999998808,48886.59999999404,50150.79999998212,54640.5,61078.5,64980.79999998212,68076.59999999404,68824.59999999404]","0.47619047619047616","0.55","0","","","","","","","","","","","","","","","","","","","","","","","","","","","","",""
"13535.199999988079","","","","survey-template","18","390781","0.0-7.0-8.0","67","1","2025-07-02 10:18:59","80fe4187154257d5fb01684ea91b68b9","46.205.205.231","Mozilla/5.0 (Windows NT 10.0; Win64; x64) AppleWebKit/537.36 (KHTML, like Gecko) Chrome/137.0.0.0 Safari/537.36","WebKit","Chrome","137.0.0.0","Windows","10.0","https://app.prolific.com/","pl-PL,pl;q=0.9,en-US;q=0.8,en;q=0.7","66699d98d268f725f96b8f4c","683db6dfa200031b80f2a654","68650772752d57764183afa4","66699d98d268f725f96b8f4c","2025-07-02T10:25:31.176Z","","","","","","stress","{""Q01"":""1"",""Q02"":""3"",""Q03"":""0""}","[0,1,2]","[""Q01"",""Q02"",""Q03""]","[4156.5999999940395,8666.899999976158,12888.5]","[]","[4156.5999999940395,8666.899999976158,12888.5,13534.799999982119]","0.3333333333333333","0.5","0","","","","","","","","","","","","","","","","","","","","","","","","","","","","",""
"53227","","","","instructions","19","444008","0.0-8.0-0.0","67","1","2025-07-02 10:18:59","80fe4187154257d5fb01684ea91b68b9","46.205.205.231","Mozilla/5.0 (Windows NT 10.0; Win64; x64) AppleWebKit/537.36 (KHTML, like Gecko) Chrome/137.0.0.0 Safari/537.36","WebKit","Chrome","137.0.0.0","Windows","10.0","https://app.prolific.com/","pl-PL,pl;q=0.9,en-US;q=0.8,en;q=0.7","66699d98d268f725f96b8f4c","683db6dfa200031b80f2a654","68650772752d57764183afa4","66699d98d268f725f96b8f4c","","[{""page_index"":0,""viewing_time"":12001},{""page_index"":1,""viewing_time"":21000},{""page_index"":2,""viewing_time"":7367},{""page_index"":3,""viewing_time"":12860}]","","","","","","","","","","","","","","","","","","","","","","","","","","","","","","","","","","","","","","","","","","",""
"","","","","ctl-task-cpt","20","473162","0.0-8.0-1.0","67","1","2025-07-02 10:18:59","80fe4187154257d5fb01684ea91b68b9","46.205.205.231","Mozilla/5.0 (Windows NT 10.0; Win64; x64) AppleWebKit/537.36 (KHTML, like Gecko) Chrome/137.0.0.0 Safari/537.36","WebKit","Chrome","137.0.0.0","Windows","10.0","https://app.prolific.com/","pl-PL,pl;q=0.9,en-US;q=0.8,en;q=0.7","66699d98d268f725f96b8f4c","683db6dfa200031b80f2a654","68650772752d57764183afa4","66699d98d268f725f96b8f4c","","","","","","","","","","","","","","","","","win-only","1","g1:NE,g2:SW","1","0","1","445022.2","1746.8","5750.9","26151.1","2","4","4","6","1","2","2","2","0","0.015151515151515152","2215.9","4000","1675","[""up"",""right""]","{""num_key_presses"":4,""num_perfect"":4,""num_errors"":0,""num_randdir"":0,""num_randdir_good_moves"":0,""num_whilered"":0,""num_whileblue"":0,""num_blue"":2,""num_good_moves"":4}","[277.7142857142857,280.6205357142857,0.1,277.7142857142857,280.6205357142857,117.5,277.7142857142857,280.6205357142857,219.2,277.7142857142857,280.6205357142857,324.3,277.7142857142857,280.6205357142857,429.1,278.7142857142857,274.6205357142857,533.4,278.7142857142857,274.6205357142857,634.1,281.7142857142857,273.6205357142857,734.2,282.7142857142857,273.6205357142857,839.1,282.7142857142857,273.6205357142857,939.4,285.7142857142857,269.6205357142857,1044,297.7142857142857,251.62053571428572,1194.8,308.7142857142857,228.62053571428572,1298.3,319.7142857142857,201.62053571428572,1399.2,333.7142857142857,162.62053571428572,1504.1,338.7142857142857,122.62053571428572,1608.3,355.7142857142857,86.62053571428572,1710.1,477.7142857142857,28.620535714285715,1814.6,492.7142857142857,23.620535714285715,1919.3,508.7142857142857,31.620535714285715,2024.3,508.7142857142857,31.620535714285715,2129.2,508.7142857142857,31.620535714285715,2233.6,508.7142857142857,31.620535714285715,2334.1,508.7142857142857,31.620535714285715,2439.1,508.7142857142857,32.620535714285715,2539.1,508.7142857142857,33.620535714285715,2639.3,508.7142857142857,33.620535714285715,2739.2,508.7142857142857,33.620535714285715,2844.1,508.7142857142857,33.620535714285715,2944.4,508.7142857142857,33.620535714285715,3048.3,508.7142857142857,33.620535714285715,3149.2,508.7142857142857,33.620535714285715,3253.4,508.7142857142857,33.620535714285715,3354.1,508.7142857142857,33.620535714285715,3459,508.7142857142857,33.620535714285715,3559,508.7142857142857,33.620535714285715,3659.1,508.7142857142857,33.620535714285715,3759.1,508.7142857142857,33.620535714285715,3864.3,508.7142857142857,33.620535714285715,3970.1]","[1821.8,1821.8,1000,0,821.8,""smooth"",""up"",""up"",""good_move"",9557.8,7735.8,3487.3,5509.8,560.7,""smooth"",""right"",""right"",""good_move"",12981.6,3423.7,2760.7,9557.9,663,""smooth"",""right"",""right"",""good_move"",20309.7,7327.9,2857.4,17104.2,348.1,""smooth"",""up"",""up"",""good_move""]","",""
"14148","","","","instructions","21","487311","0.0-8.0-2.0","67","1","2025-07-02 10:18:59","80fe4187154257d5fb01684ea91b68b9","46.205.205.231","Mozilla/5.0 (Windows NT 10.0; Win64; x64) AppleWebKit/537.36 (KHTML, like Gecko) Chrome/137.0.0.0 Safari/537.36","WebKit","Chrome","137.0.0.0","Windows","10.0","https://app.prolific.com/","pl-PL,pl;q=0.9,en-US;q=0.8,en;q=0.7","66699d98d268f725f96b8f4c","683db6dfa200031b80f2a654","68650772752d57764183afa4","66699d98d268f725f96b8f4c","","[{""page_index"":0,""viewing_time"":14148}]","","","","","","","","","","","","","","","","","","","","","","","","","","","","","","","","","","","","","","","","","","",""
"","","","","ctl-task-cpt","22","518089","0.0-8.0-3.0","67","1","2025-07-02 10:18:59","80fe4187154257d5fb01684ea91b68b9","46.205.205.231","Mozilla/5.0 (Windows NT 10.0; Win64; x64) AppleWebKit/537.36 (KHTML, like Gecko) Chrome/137.0.0.0 Safari/537.36","WebKit","Chrome","137.0.0.0","Windows","10.0","https://app.prolific.com/","pl-PL,pl;q=0.9,en-US;q=0.8,en;q=0.7","66699d98d268f725f96b8f4c","683db6dfa200031b80f2a654","68650772752d57764183afa4","66699d98d268f725f96b8f4c","","","","","","","","","","","","","","","","","win-only","1","g1:NE,g2:SW","0.35","0","3","488324.1","1238.9","5240.3","27760.7","2","4","8","6","2","-8","-8","0","0","0","1694","4000","-3005","[""down"",""left""]","{""num_key_presses"":7,""num_perfect"":2,""num_errors"":0,""num_randdir"":5,""num_randdir_good_moves"":2,""num_whilered"":0,""num_whileblue"":0,""num_blue"":0,""num_good_moves"":4}","[279.7142857142857,278.6205357142857,0.2,279.7142857142857,278.6205357142857,101.7,279.7142857142857,278.6205357142857,206.9,278.7142857142857,285.6205357142857,307.2,306.7142857142857,297.6205357142857,407.2,338.7142857142857,242.62053571428572,511.6,338.7142857142857,240.62053571428572,611.7,342.7142857142857,226.62053571428572,716.3,342.7142857142857,226.62053571428572,817.2,342.7142857142857,226.62053571428572,921.4,318.7142857142857,258.6205357142857,1021.5,308.7142857142857,274.6205357142857,1122.1,308.7142857142857,274.6205357142857,1226.3,209.71428571428572,333.6205357142857,1327.1,57.714285714285715,470.6205357142857,1427.4,54.714285714285715,477.6205357142857,1527.4,54.714285714285715,491.6205357142857,1631.2,54.714285714285715,491.6205357142857,1732.6,53.714285714285715,491.6205357142857,1836.5,62.714285714285715,487.6205357142857,1937.3,538.7142857142857,411.6205357142857,2041.6,624.7142857142857,393.6205357142857,2146.5,628.7142857142857,385.6205357142857,2246.9,628.7142857142857,385.6205357142857,2351.7,628.7142857142857,385.6205357142857,2456.6,628.7142857142857,385.6205357142857,2556.6,628.7142857142857,385.6205357142857,2656.8,628.7142857142857,385.6205357142857,2757.6,628.7142857142857,385.6205357142857,2862.1,628.7142857142857,385.6205357142857,2966.9,628.7142857142857,385.6205357142857,3066.9,628.7142857142857,385.6205357142857,3171.7,628.7142857142857,385.6205357142857,3276.5,628.7142857142857,385.6205357142857,3377.1,628.7142857142857,385.6205357142857,3481.5,628.7142857142857,385.6205357142857,3581.5,628.7142857142857,385.6205357142857,3681.6,628.7142857142857,385.6205357142857,3782.1,628.7142857142857,385.6205357142857,3882.1,628.7142857142857,385.6205357142857,3986.7]","[1526.6,1526.6,1000,0.1,526.5,""oops"",""down"",""down"",""good_move"",5478.6,3951.9,3402.4,1526.8,549.4,""smooth"",""down"",""down"",""good_move"",8190.3,2711.5,2248.5,5478.8,463,""oops"",""down"",""up"",""bad_move"",10726.4,2535.8,2085.4,8190.6,450.4,""oops"",""left"",""down"",""good_move"",14086.5,3359.9,2753.3,10726.6,606.6,""smooth"",""left"",""left"",""good_move"",17334.5,3247.8,2835.6,14086.7,412.2,""oops"",""left"",""right"",""bad_move"",19798.4,2463.8,1931,17334.7,532.8,""oops"",""right"",""right"",""bad_move""]","",""
"32989","","","","instructions","23","551079","0.0-8.0-4.0","67","1","2025-07-02 10:18:59","80fe4187154257d5fb01684ea91b68b9","46.205.205.231","Mozilla/5.0 (Windows NT 10.0; Win64; x64) AppleWebKit/537.36 (KHTML, like Gecko) Chrome/137.0.0.0 Safari/537.36","WebKit","Chrome","137.0.0.0","Windows","10.0","https://app.prolific.com/","pl-PL,pl;q=0.9,en-US;q=0.8,en;q=0.7","66699d98d268f725f96b8f4c","683db6dfa200031b80f2a654","68650772752d57764183afa4","66699d98d268f725f96b8f4c","","[{""page_index"":0,""viewing_time"":8817},{""page_index"":1,""viewing_time"":24172}]","","","","","","","","","","","","","","","","","","","","","","","","","","","","","","","","","","","","","","","","","","",""
"7701","","","{""green_ball"":[""Ball always moves in the direction I press""]}","survey-multi-select","24","558781","0.0-8.0-5.0-0.0","67","1","2025-07-02 10:18:59","80fe4187154257d5fb01684ea91b68b9","46.205.205.231","Mozilla/5.0 (Windows NT 10.0; Win64; x64) AppleWebKit/537.36 (KHTML, like Gecko) Chrome/137.0.0.0 Safari/537.36","WebKit","Chrome","137.0.0.0","Windows","10.0","https://app.prolific.com/","pl-PL,pl;q=0.9,en-US;q=0.8,en;q=0.7","66699d98d268f725f96b8f4c","683db6dfa200031b80f2a654","68650772752d57764183afa4","66699d98d268f725f96b8f4c","","","[0]","","","","quiz","","","","","","","","","","","","","","","","","","","","","","","","","","","","","","","","","","","","","false",""
"2815","","<p align='center'><b>INCORRECT.</b> Usually the green ball moves in the indicated direction, but sometimes it shakes and moves randomly. </p>","0","html-button-response","25","561597","0.0-8.0-5.0-1.0","67","1","2025-07-02 10:18:59","80fe4187154257d5fb01684ea91b68b9","46.205.205.231","Mozilla/5.0 (Windows NT 10.0; Win64; x64) AppleWebKit/537.36 (KHTML, like Gecko) Chrome/137.0.0.0 Safari/537.36","WebKit","Chrome","137.0.0.0","Windows","10.0","https://app.prolific.com/","pl-PL,pl;q=0.9,en-US;q=0.8,en;q=0.7","66699d98d268f725f96b8f4c","683db6dfa200031b80f2a654","68650772752d57764183afa4","66699d98d268f725f96b8f4c","","","","","","","","","","","","","","","","","","","","","","","","","","","","","","","","","","","","","","","","","","","","",""
"2761","","","{""green_ball"":[""Ball sometimes shakes and moves in a random direction""]}","survey-multi-select","26","564359","0.0-8.0-5.1-0.1","67","1","2025-07-02 10:18:59","80fe4187154257d5fb01684ea91b68b9","46.205.205.231","Mozilla/5.0 (Windows NT 10.0; Win64; x64) AppleWebKit/537.36 (KHTML, like Gecko) Chrome/137.0.0.0 Safari/537.36","WebKit","Chrome","137.0.0.0","Windows","10.0","https://app.prolific.com/","pl-PL,pl;q=0.9,en-US;q=0.8,en;q=0.7","66699d98d268f725f96b8f4c","683db6dfa200031b80f2a654","68650772752d57764183afa4","66699d98d268f725f96b8f4c","","","[0]","","","","quiz","","","","","","","","","","","","","","","","","","","","","","","","","","","","","","","","","","","","","true",""
"1714","","<p align='center'><b>CORRECT!</b> Indeed, the green ball may sometimes shake and move in a random direction.</p>","0","html-button-response","27","566073","0.0-8.0-5.1-1.1","67","1","2025-07-02 10:18:59","80fe4187154257d5fb01684ea91b68b9","46.205.205.231","Mozilla/5.0 (Windows NT 10.0; Win64; x64) AppleWebKit/537.36 (KHTML, like Gecko) Chrome/137.0.0.0 Safari/537.36","WebKit","Chrome","137.0.0.0","Windows","10.0","https://app.prolific.com/","pl-PL,pl;q=0.9,en-US;q=0.8,en;q=0.7","66699d98d268f725f96b8f4c","683db6dfa200031b80f2a654","68650772752d57764183afa4","66699d98d268f725f96b8f4c","","","","","","","","","","","","","","","","","","","","","","","","","","","","","","","","","","","","","","","","","","","","",""
"10607","","","{""yellow_ball"":[""Ball doesn‘t move and I get -1 penalty point""]}","survey-multi-select","28","576681","0.0-8.0-6.0-0.0","67","1","2025-07-02 10:18:59","80fe4187154257d5fb01684ea91b68b9","46.205.205.231","Mozilla/5.0 (Windows NT 10.0; Win64; x64) AppleWebKit/537.36 (KHTML, like Gecko) Chrome/137.0.0.0 Safari/537.36","WebKit","Chrome","137.0.0.0","Windows","10.0","https://app.prolific.com/","pl-PL,pl;q=0.9,en-US;q=0.8,en;q=0.7","66699d98d268f725f96b8f4c","683db6dfa200031b80f2a654","68650772752d57764183afa4","66699d98d268f725f96b8f4c","","","[0]","","","","quiz","","","","","","","","","","","","","","","","","","","","","","","","","","","","","","","","","","","","","true",""
"1143","","<p align='center'><b>CORRECT!</b> Indeed, the yellow ball never moves and you receive a penalty.</p>","0","html-button-response","29","577825","0.0-8.0-6.0-1.0","67","1","2025-07-02 10:18:59","80fe4187154257d5fb01684ea91b68b9","46.205.205.231","Mozilla/5.0 (Windows NT 10.0; Win64; x64) AppleWebKit/537.36 (KHTML, like Gecko) Chrome/137.0.0.0 Safari/537.36","WebKit","Chrome","137.0.0.0","Windows","10.0","https://app.prolific.com/","pl-PL,pl;q=0.9,en-US;q=0.8,en;q=0.7","66699d98d268f725f96b8f4c","683db6dfa200031b80f2a654","68650772752d57764183afa4","66699d98d268f725f96b8f4c","","","","","","","","","","","","","","","","","","","","","","","","","","","","","","","","","","","","","","","","","","","","",""
"6891","","","{""blue_ball"":[""Ball always shakes and moves in a random direction""]}","survey-multi-select","30","584717","0.0-8.0-7.0-0.0","67","1","2025-07-02 10:18:59","80fe4187154257d5fb01684ea91b68b9","46.205.205.231","Mozilla/5.0 (Windows NT 10.0; Win64; x64) AppleWebKit/537.36 (KHTML, like Gecko) Chrome/137.0.0.0 Safari/537.36","WebKit","Chrome","137.0.0.0","Windows","10.0","https://app.prolific.com/","pl-PL,pl;q=0.9,en-US;q=0.8,en;q=0.7","66699d98d268f725f96b8f4c","683db6dfa200031b80f2a654","68650772752d57764183afa4","66699d98d268f725f96b8f4c","","","[0]","","","","quiz","","","","","","","","","","","","","","","","","","","","","","","","","","","","","","","","","","","","","true",""
"2903","","<p align='center'><b>CORRECT!</b> Indeed, the blue ball always shakes and moves in a random direction. Also there is a penalty of -1 point.</p>","0","html-button-response","31","587621","0.0-8.0-7.0-1.0","67","1","2025-07-02 10:18:59","80fe4187154257d5fb01684ea91b68b9","46.205.205.231","Mozilla/5.0 (Windows NT 10.0; Win64; x64) AppleWebKit/537.36 (KHTML, like Gecko) Chrome/137.0.0.0 Safari/537.36","WebKit","Chrome","137.0.0.0","Windows","10.0","https://app.prolific.com/","pl-PL,pl;q=0.9,en-US;q=0.8,en;q=0.7","66699d98d268f725f96b8f4c","683db6dfa200031b80f2a654","68650772752d57764183afa4","66699d98d268f725f96b8f4c","","","","","","","","","","","","","","","","","","","","","","","","","","","","","","","","","","","","","","","","","","","","",""
"4177","","","{""bonus"":[""When I reach 50% of points""]}","survey-multi-select","32","591799","0.0-8.0-8.0-0.0","67","1","2025-07-02 10:18:59","80fe4187154257d5fb01684ea91b68b9","46.205.205.231","Mozilla/5.0 (Windows NT 10.0; Win64; x64) AppleWebKit/537.36 (KHTML, like Gecko) Chrome/137.0.0.0 Safari/537.36","WebKit","Chrome","137.0.0.0","Windows","10.0","https://app.prolific.com/","pl-PL,pl;q=0.9,en-US;q=0.8,en;q=0.7","66699d98d268f725f96b8f4c","683db6dfa200031b80f2a654","68650772752d57764183afa4","66699d98d268f725f96b8f4c","","","[0]","","","","quiz","","","","","","","","","","","","","","","","","","","","","","","","","","","","","","","","","","","","","true",""
"1067","","<p align='center'><b>CORRECT!</b> Indeed, you receive 2 pounds extra when you reach 50% of points.</p>","0","html-button-response","33","592867","0.0-8.0-8.0-1.0","67","1","2025-07-02 10:18:59","80fe4187154257d5fb01684ea91b68b9","46.205.205.231","Mozilla/5.0 (Windows NT 10.0; Win64; x64) AppleWebKit/537.36 (KHTML, like Gecko) Chrome/137.0.0.0 Safari/537.36","WebKit","Chrome","137.0.0.0","Windows","10.0","https://app.prolific.com/","pl-PL,pl;q=0.9,en-US;q=0.8,en;q=0.7","66699d98d268f725f96b8f4c","683db6dfa200031b80f2a654","68650772752d57764183afa4","66699d98d268f725f96b8f4c","","","","","","","","","","","","","","","","","","","","","","","","","","","","","","","","","","","","","","","","","","","","",""
"1978","","","","instructions","34","594845","0.0-8.0-9.0","67","1","2025-07-02 10:18:59","80fe4187154257d5fb01684ea91b68b9","46.205.205.231","Mozilla/5.0 (Windows NT 10.0; Win64; x64) AppleWebKit/537.36 (KHTML, like Gecko) Chrome/137.0.0.0 Safari/537.36","WebKit","Chrome","137.0.0.0","Windows","10.0","https://app.prolific.com/","pl-PL,pl;q=0.9,en-US;q=0.8,en;q=0.7","66699d98d268f725f96b8f4c","683db6dfa200031b80f2a654","68650772752d57764183afa4","66699d98d268f725f96b8f4c","","[{""page_index"":0,""viewing_time"":1977}]","","","","","","","","","","","","","","","","","","","","","","","","","","","","","","","","","","","","","","","","","","",""
"7509","","<p>Before you start with this game please answer the following three questions yourself. </p>
  <p>Through this game, we measure several aspects of your cognitive performance, such as reaction times, multi-tasking capabilities </p>
  <p>and the ability to assess the situation you are in.</p>
  <p></p>
  <p><b>How good do you usually are in such tasks?</b></p>","74","html-slider-response","35","602355","0.0-9.0-0.0","67","1","2025-07-02 10:18:59","80fe4187154257d5fb01684ea91b68b9","46.205.205.231","Mozilla/5.0 (Windows NT 10.0; Win64; x64) AppleWebKit/537.36 (KHTML, like Gecko) Chrome/137.0.0.0 Safari/537.36","WebKit","Chrome","137.0.0.0","Windows","10.0","https://app.prolific.com/","pl-PL,pl;q=0.9,en-US;q=0.8,en;q=0.7","66699d98d268f725f96b8f4c","683db6dfa200031b80f2a654","68650772752d57764183afa4","66699d98d268f725f96b8f4c","2025-07-02T10:29:02.750Z","","","","","","PreSkillQ","","","","","","","","","","","","","","","","","","","","","","","","","","","","","","","","","","","","","","50"
"3991","","<div style=""width:500px;"">
  <p>How well do you think you will perform in this task compared to other participants?</p>
  </div>","66","html-slider-response","36","606347","0.0-9.0-1.0","67","1","2025-07-02 10:18:59","80fe4187154257d5fb01684ea91b68b9","46.205.205.231","Mozilla/5.0 (Windows NT 10.0; Win64; x64) AppleWebKit/537.36 (KHTML, like Gecko) Chrome/137.0.0.0 Safari/537.36","WebKit","Chrome","137.0.0.0","Windows","10.0","https://app.prolific.com/","pl-PL,pl;q=0.9,en-US;q=0.8,en;q=0.7","66699d98d268f725f96b8f4c","683db6dfa200031b80f2a654","68650772752d57764183afa4","66699d98d268f725f96b8f4c","2025-07-02T10:29:06.742Z","","","","","","PrePerfQ","","","","","","","","","","","","","","","","","","","","","","","","","","","","","","","","","","","","","","50"
"4096","","<div style=""width:500px;"">
  <p>What best describes how you currently feel?</p>
  </div>","73","html-slider-response","37","610443","0.0-9.0-2.0","67","1","2025-07-02 10:18:59","80fe4187154257d5fb01684ea91b68b9","46.205.205.231","Mozilla/5.0 (Windows NT 10.0; Win64; x64) AppleWebKit/537.36 (KHTML, like Gecko) Chrome/137.0.0.0 Safari/537.36","WebKit","Chrome","137.0.0.0","Windows","10.0","https://app.prolific.com/","pl-PL,pl;q=0.9,en-US;q=0.8,en;q=0.7","66699d98d268f725f96b8f4c","683db6dfa200031b80f2a654","68650772752d57764183afa4","66699d98d268f725f96b8f4c","2025-07-02T10:29:10.838Z","","","","","","PreMotivationQ","","","","","","","","","","","","","","","","","","","","","","","","","","","","","","","","","","","","","","50"
"","","","","ctl-task-cpt","38","642737","0.0-10.0-0.0","67","1","2025-07-02 10:18:59","80fe4187154257d5fb01684ea91b68b9","46.205.205.231","Mozilla/5.0 (Windows NT 10.0; Win64; x64) AppleWebKit/537.36 (KHTML, like Gecko) Chrome/137.0.0.0 Safari/537.36","WebKit","Chrome","137.0.0.0","Windows","10.0","https://app.prolific.com/","pl-PL,pl;q=0.9,en-US;q=0.8,en;q=0.7","66699d98d268f725f96b8f4c","683db6dfa200031b80f2a654","68650772752d57764183afa4","66699d98d268f725f96b8f4c","2025-07-02T10:29:43.132Z","","","","","","","","","","","","","","","","win-only","3","g1:SW,g2:NE","1","1","0","611456.9","1210.1","6211.5","29276","1","4","4","6","2","4","4","4","0","0.030303030303030304","1406.1","3000","495","[""up"",""right""]","{""num_key_presses"":6,""num_perfect"":6,""num_errors"":0,""num_randdir"":0,""num_randdir_good_moves"":0,""num_whilered"":0,""num_whileblue"":0,""num_blue"":2,""num_good_moves"":6}","[281.7142857142857,273.6205357142857,0.2,281.7142857142857,273.6205357142857,101.5,281.7142857142857,273.6205357142857,205.6,281.7142857142857,273.6205357142857,311.2,295.7142857142857,258.6205357142857,415.1,302.7142857142857,250.62053571428572,515.1,230.71428571428572,319.6205357142857,615.4,162.71428571428572,413.6205357142857,715.7,102.71428571428572,477.6205357142857,816.3,61.714285714285715,506.6205357142857,920.6,194.71428571428572,373.6205357142857,1020.6,497.7142857142857,-2.3794642857142847,1125.5,513.7142857142857,-4.379464285714285,1225.7,523.7142857142857,3.6205357142857153,1326.3,515.7142857142857,29.620535714285715,1431.3,515.7142857142857,30.620535714285715,1535.2,518.7142857142857,30.620535714285715,1635.4,536.7142857142857,32.620535714285715,1741.1,537.7142857142857,32.620535714285715,1841.4,537.7142857142857,32.620535714285715,1945.3,537.7142857142857,32.620535714285715,2045.4,537.7142857142857,32.620535714285715,2145.6,537.7142857142857,32.620535714285715,2250.8,537.7142857142857,32.620535714285715,2355.4,537.7142857142857,32.620535714285715,2455.4,537.7142857142857,32.620535714285715,2555.9,537.7142857142857,32.620535714285715,2661.4,537.7142857142857,32.620535714285715,2761.4,537.7142857142857,32.620535714285715,2865.4,537.7142857142857,32.620535714285715,2965.4,537.7142857142857,32.620535714285715,3065.5,537.7142857142857,32.620535714285715,3170.2,537.7142857142857,32.620535714285715,3271.1,537.7142857142857,32.620535714285715,3375.4,537.7142857142857,32.620535714285715,3480.2,537.7142857142857,32.620535714285715,3581.4,537.7142857142857,32.620535714285715,3685.4,537.7142857142857,32.620535714285715,3790.4,537.7142857142857,32.620535714285715,3890.7,537.7142857142857,32.620535714285715,3991.1,537.7142857142857,32.620535714285715,4091.1,537.7142857142857,32.620535714285715,4195.9,537.7142857142857,32.620535714285715,4295.9,537.7142857142857,32.620535714285715,4396,537.7142857142857,32.620535714285715,4501.4,537.7142857142857,32.620535714285715,4605,537.7142857142857,32.620535714285715,4705.3,537.7142857142857,32.620535714285715,4811.1,537.7142857142857,32.620535714285715,4915.6]","[1478.6,1478.6,1000,0,478.6,""smooth"",""right"",""right"",""good_move"",4390.5,2911.7,2465.1,1478.8,446.6,""smooth"",""up"",""up"",""good_move"",8318.5,3927.8,3440.8,4390.7,487,""smooth"",""up"",""up"",""good_move"",10414.6,2096,1634.9,8318.6,461.1,""smooth"",""right"",""right"",""good_move"",12750.6,2335.9,1959.1,10414.7,376.8,""smooth"",""up"",""up"",""good_move"",22950.7,10200,2515.3,20094.3,341.1,""smooth"",""right"",""right"",""good_move""]","",""
"4391","","<div style=""width:500px;"">
  <p>What determined the result of this run?</p>
  </div>","100","html-slider-response","39","647129","0.0-10.0-1.0","67","1","2025-07-02 10:18:59","80fe4187154257d5fb01684ea91b68b9","46.205.205.231","Mozilla/5.0 (Windows NT 10.0; Win64; x64) AppleWebKit/537.36 (KHTML, like Gecko) Chrome/137.0.0.0 Safari/537.36","WebKit","Chrome","137.0.0.0","Windows","10.0","https://app.prolific.com/","pl-PL,pl;q=0.9,en-US;q=0.8,en;q=0.7","66699d98d268f725f96b8f4c","683db6dfa200031b80f2a654","68650772752d57764183afa4","66699d98d268f725f96b8f4c","2025-07-02T10:29:47.524Z","","","","","","AttribQ","","","","","","","","","","","","","","","","","","","","","","","","","","","","","","","","","","","","","","50"
"2677","","<div style=""width:500px;"">
  <p>How much control did you have over the ball?</p>
  </div>","100","html-slider-response","40","649807","0.0-10.0-2.0","67","1","2025-07-02 10:18:59","80fe4187154257d5fb01684ea91b68b9","46.205.205.231","Mozilla/5.0 (Windows NT 10.0; Win64; x64) AppleWebKit/537.36 (KHTML, like Gecko) Chrome/137.0.0.0 Safari/537.36","WebKit","Chrome","137.0.0.0","Windows","10.0","https://app.prolific.com/","pl-PL,pl;q=0.9,en-US;q=0.8,en;q=0.7","66699d98d268f725f96b8f4c","683db6dfa200031b80f2a654","68650772752d57764183afa4","66699d98d268f725f96b8f4c","2025-07-02T10:29:50.202Z","","","","","","ControlQ","","","","","","","","","","","","","","","","","","","","","","","","","","","","","","","","","","","","","","50"
"5165","","<div style=""width:500px;"">
  <p>How would you describe your current emotional state?</p>
  </div>","19","html-slider-response","41","654973","0.0-10.0-3.0","67","1","2025-07-02 10:18:59","80fe4187154257d5fb01684ea91b68b9","46.205.205.231","Mozilla/5.0 (Windows NT 10.0; Win64; x64) AppleWebKit/537.36 (KHTML, like Gecko) Chrome/137.0.0.0 Safari/537.36","WebKit","Chrome","137.0.0.0","Windows","10.0","https://app.prolific.com/","pl-PL,pl;q=0.9,en-US;q=0.8,en;q=0.7","66699d98d268f725f96b8f4c","683db6dfa200031b80f2a654","68650772752d57764183afa4","66699d98d268f725f96b8f4c","2025-07-02T10:29:55.368Z","","","","","","StressQ","","","","","","","","","","","","","","","","","","","","","","","","","","","","","","","","","","","","","","50"
"3713","","<div style=""width:500px;"">
  <p>What best describes how you currently feel?</p>
  </div>","79","html-slider-response","42","658687","0.0-10.0-4.0","67","1","2025-07-02 10:18:59","80fe4187154257d5fb01684ea91b68b9","46.205.205.231","Mozilla/5.0 (Windows NT 10.0; Win64; x64) AppleWebKit/537.36 (KHTML, like Gecko) Chrome/137.0.0.0 Safari/537.36","WebKit","Chrome","137.0.0.0","Windows","10.0","https://app.prolific.com/","pl-PL,pl;q=0.9,en-US;q=0.8,en;q=0.7","66699d98d268f725f96b8f4c","683db6dfa200031b80f2a654","68650772752d57764183afa4","66699d98d268f725f96b8f4c","2025-07-02T10:29:59.082Z","","","","","","MotivationQ","","","","","","","","","","","","","","","","","","","","","","","","","","","","","","","","","","","","","","50"
"","","","","ctl-task-cpt","43","687050","0.0-10.0-0.1","67","1","2025-07-02 10:18:59","80fe4187154257d5fb01684ea91b68b9","46.205.205.231","Mozilla/5.0 (Windows NT 10.0; Win64; x64) AppleWebKit/537.36 (KHTML, like Gecko) Chrome/137.0.0.0 Safari/537.36","WebKit","Chrome","137.0.0.0","Windows","10.0","https://app.prolific.com/","pl-PL,pl;q=0.9,en-US;q=0.8,en;q=0.7","66699d98d268f725f96b8f4c","683db6dfa200031b80f2a654","68650772752d57764183afa4","66699d98d268f725f96b8f4c","2025-07-02T10:30:27.445Z","","","","","","","","","","","","","","","","win-only","2","g1:SE,g2:NW","0.9","2","0","659700.3","1129.7","6131.2","25361","1","4","8","6","2","-8","-8","0","4","0","843.1","3000","-2855","[""left"",""up""]","{""num_key_presses"":7,""num_perfect"":6,""num_errors"":0,""num_randdir"":1,""num_randdir_good_moves"":0,""num_whilered"":0,""num_whileblue"":0,""num_blue"":0,""num_good_moves"":6}","[280.7142857142857,277.6205357142857,0.2,280.7142857142857,277.6205357142857,101.2,280.7142857142857,277.6205357142857,206.1,280.7142857142857,277.6205357142857,310.9,270.7142857142857,278.6205357142857,411.5,153.71428571428572,141.62053571428572,516.1,112.71428571428572,92.62053571428572,616.1,84.71428571428572,50.620535714285715,720.5,64.71428571428572,30.620535714285715,821.1,64.71428571428572,28.620535714285715,927.2,71.71428571428572,38.620535714285715,1031.1,384.7142857142857,167.62053571428572,1131.5,422.7142857142857,181.62053571428572,1236.2,426.7142857142857,179.62053571428572,1340.8,426.7142857142857,179.62053571428572,1446,426.7142857142857,179.62053571428572,1546,426.7142857142857,179.62053571428572,1646.1,426.7142857142857,179.62053571428572,1751.4,426.7142857142857,179.62053571428572,1857,426.7142857142857,179.62053571428572,1961.2,426.7142857142857,179.62053571428572,2061.3,426.7142857142857,179.62053571428572,2161.3,426.7142857142857,179.62053571428572,2266.2,426.7142857142857,179.62053571428572,2371.4,426.7142857142857,179.62053571428572,2475.6,426.7142857142857,179.62053571428572,2575.9,426.7142857142857,179.62053571428572,2676.6,426.7142857142857,179.62053571428572,2782,426.7142857142857,179.62053571428572,2886,426.7142857142857,179.62053571428572,2986.1,426.7142857142857,179.62053571428572,3091.2,426.7142857142857,179.62053571428572,3196.1,426.7142857142857,179.62053571428572,3300.5,426.7142857142857,179.62053571428572,3400.5,426.7142857142857,179.62053571428572,3500.9,426.7142857142857,179.62053571428572,3606.2,426.7142857142857,179.62053571428572,3706.2,426.7142857142857,179.62053571428572,3811.5,426.7142857142857,179.62053571428572,3916.1,426.7142857142857,179.62053571428572,4016.2,426.7142857142857,179.62053571428572,4120.7,426.7142857142857,179.62053571428572,4225.9,426.7142857142857,179.62053571428572,4325.9,426.7142857142857,179.62053571428572,4426.3,426.7142857142857,179.62053571428572,4531.2,426.7142857142857,179.62053571428572,4636.2,426.7142857142857,179.62053571428572,4741.2,426.7142857142857,179.62053571428572,4846.4,426.7142857142857,179.62053571428572,4952.2]","[1443.4,1443.4,1000,0,443.4,""smooth"",""up"",""up"",""good_move"",4051.5,2607.8,2211.8,1443.7,396,""smooth"",""left"",""left"",""good_move"",6901.1,2849.5,2450.3,4051.7,399.1,""smooth"",""up"",""up"",""good_move"",8787.4,1886.2,1450.4,6901.3,435.8,""smooth"",""left"",""left"",""good_move"",10867.4,2079.9,1685,8787.6,394.9,""oops"",""left"",""right"",""bad_move"",13971.5,3103.8,2707.8,10867.7,396,""smooth"",""left"",""left"",""good_move"",16075.5,2103.9,1634.4,13971.6,469.5,""smooth"",""left"",""left"",""good_move""]","",""
"3860","","<div style=""width:500px;"">
  <p>What determined the result of this run?</p>
  </div>","35","html-slider-response","44","690911","0.0-10.0-1.1","67","1","2025-07-02 10:18:59","80fe4187154257d5fb01684ea91b68b9","46.205.205.231","Mozilla/5.0 (Windows NT 10.0; Win64; x64) AppleWebKit/537.36 (KHTML, like Gecko) Chrome/137.0.0.0 Safari/537.36","WebKit","Chrome","137.0.0.0","Windows","10.0","https://app.prolific.com/","pl-PL,pl;q=0.9,en-US;q=0.8,en;q=0.7","66699d98d268f725f96b8f4c","683db6dfa200031b80f2a654","68650772752d57764183afa4","66699d98d268f725f96b8f4c","2025-07-02T10:30:31.306Z","","","","","","AttribQ","","","","","","","","","","","","","","","","","","","","","","","","","","","","","","","","","","","","","","50"
"3199","","<div style=""width:500px;"">
  <p>How much control did you have over the ball?</p>
  </div>","42","html-slider-response","45","694111","0.0-10.0-2.1","67","1","2025-07-02 10:18:59","80fe4187154257d5fb01684ea91b68b9","46.205.205.231","Mozilla/5.0 (Windows NT 10.0; Win64; x64) AppleWebKit/537.36 (KHTML, like Gecko) Chrome/137.0.0.0 Safari/537.36","WebKit","Chrome","137.0.0.0","Windows","10.0","https://app.prolific.com/","pl-PL,pl;q=0.9,en-US;q=0.8,en;q=0.7","66699d98d268f725f96b8f4c","683db6dfa200031b80f2a654","68650772752d57764183afa4","66699d98d268f725f96b8f4c","2025-07-02T10:30:34.506Z","","","","","","ControlQ","","","","","","","","","","","","","","","","","","","","","","","","","","","","","","","","","","","","","","50"
"3931","","<div style=""width:500px;"">
  <p>How would you describe your current emotional state?</p>
  </div>","58","html-slider-response","46","698043","0.0-10.0-3.1","67","1","2025-07-02 10:18:59","80fe4187154257d5fb01684ea91b68b9","46.205.205.231","Mozilla/5.0 (Windows NT 10.0; Win64; x64) AppleWebKit/537.36 (KHTML, like Gecko) Chrome/137.0.0.0 Safari/537.36","WebKit","Chrome","137.0.0.0","Windows","10.0","https://app.prolific.com/","pl-PL,pl;q=0.9,en-US;q=0.8,en;q=0.7","66699d98d268f725f96b8f4c","683db6dfa200031b80f2a654","68650772752d57764183afa4","66699d98d268f725f96b8f4c","2025-07-02T10:30:38.438Z","","","","","","StressQ","","","","","","","","","","","","","","","","","","","","","","","","","","","","","","","","","","","","","","50"
"3379","","<div style=""width:500px;"">
  <p>What best describes how you currently feel?</p>
  </div>","61","html-slider-response","47","701423","0.0-10.0-4.1","67","1","2025-07-02 10:18:59","80fe4187154257d5fb01684ea91b68b9","46.205.205.231","Mozilla/5.0 (Windows NT 10.0; Win64; x64) AppleWebKit/537.36 (KHTML, like Gecko) Chrome/137.0.0.0 Safari/537.36","WebKit","Chrome","137.0.0.0","Windows","10.0","https://app.prolific.com/","pl-PL,pl;q=0.9,en-US;q=0.8,en;q=0.7","66699d98d268f725f96b8f4c","683db6dfa200031b80f2a654","68650772752d57764183afa4","66699d98d268f725f96b8f4c","2025-07-02T10:30:41.818Z","","","","","","MotivationQ","","","","","","","","","","","","","","","","","","","","","","","","","","","","","","","","","","","","","","50"
"","","","","ctl-task-cpt","48","746601","0.0-10.0-0.2","67","1","2025-07-02 10:18:59","80fe4187154257d5fb01684ea91b68b9","46.205.205.231","Mozilla/5.0 (Windows NT 10.0; Win64; x64) AppleWebKit/537.36 (KHTML, like Gecko) Chrome/137.0.0.0 Safari/537.36","WebKit","Chrome","137.0.0.0","Windows","10.0","https://app.prolific.com/","pl-PL,pl;q=0.9,en-US;q=0.8,en;q=0.7","66699d98d268f725f96b8f4c","683db6dfa200031b80f2a654","68650772752d57764183afa4","66699d98d268f725f96b8f4c","2025-07-02T10:31:26.996Z","","","","","","","","","","","","","","","","win-only","1","g1:NE,g2:SW","0.8","3","0","702436.3","1290.8","6296.2","42160.3","1","4","4","6","2","4","4","4","0","0.030303030303030304","934","3000","760","[""down"",""left""]","{""num_key_presses"":6,""num_perfect"":6,""num_errors"":0,""num_randdir"":0,""num_randdir_good_moves"":0,""num_whilered"":0,""num_whileblue"":0,""num_blue"":5,""num_good_moves"":6}","[272.7142857142857,272.6205357142857,0.1,272.7142857142857,272.6205357142857,100.2,272.7142857142857,272.6205357142857,204.3,274.7142857142857,267.6205357142857,304.4,386.7142857142857,187.62053571428572,409.7,427.7142857142857,152.62053571428572,510,280.7142857142857,260.6205357142857,615,69.71428571428572,450.6205357142857,720,59.714285714285715,481.6205357142857,820.3,56.714285714285715,487.6205357142857,924.4,55.714285714285715,489.6205357142857,1028.1,57.714285714285715,485.6205357142857,1129.7,137.71428571428572,444.6205357142857,1235,135.71428571428572,441.6205357142857,1335.2,135.71428571428572,441.6205357142857,1439.9,135.71428571428572,441.6205357142857,1544.5,135.71428571428572,441.6205357142857,1645.2,135.71428571428572,440.6205357142857,1750.2,135.71428571428572,440.6205357142857,1854.4,135.71428571428572,440.6205357142857,1954.4,135.71428571428572,440.6205357142857,2054.4,135.71428571428572,440.6205357142857,2155.4,135.71428571428572,440.6205357142857,2259.7,135.71428571428572,440.6205357142857,2360,135.71428571428572,440.6205357142857,2465.1,135.71428571428572,440.6205357142857,2570,135.71428571428572,440.6205357142857,2675.1,135.71428571428572,440.6205357142857,2775.1,135.71428571428572,440.6205357142857,2875.4,135.71428571428572,440.6205357142857,2979.4,135.71428571428572,440.6205357142857,3080.1,135.71428571428572,440.6205357142857,3184.4,135.71428571428572,440.6205357142857,3284.8,135.71428571428572,440.6205357142857,3389.6,135.71428571428572,440.6205357142857,3494.9,135.71428571428572,440.6205357142857,3595.3,135.71428571428572,440.6205357142857,3695.3,135.71428571428572,440.6205357142857,3800.1,135.71428571428572,440.6205357142857,3900.7,135.71428571428572,440.6205357142857,4000.7,135.71428571428572,440.6205357142857,4105,135.71428571428572,440.6205357142857,4210.2,135.71428571428572,440.6205357142857,4310.2,135.71428571428572,440.6205357142857,4414.9,135.71428571428572,440.6205357142857,4515,135.71428571428572,440.6205357142857,4615.1,135.71428571428572,440.6205357142857,4719.3,135.71428571428572,440.6205357142857,4819.6,135.71428571428572,440.6205357142857,4920.2]","[1454.7,1454.7,1000,0,454.7,""smooth"",""down"",""down"",""good_move"",7806.6,6351.7,2771.5,4654.3,380.8,""smooth"",""down"",""down"",""good_move"",10934.5,3127.8,2646.2,7806.7,481.6,""smooth"",""left"",""left"",""good_move"",17590.8,6656.1,2577.3,14659.4,354.1,""smooth"",""left"",""left"",""good_move"",28086.6,10495.8,2930.1,24853.9,302.6,""smooth"",""down"",""down"",""good_move"",35774.6,7687.7,2684.4,32744.2,346.1,""smooth"",""left"",""left"",""good_move""]","",""
"4230","","<div style=""width:500px;"">
  <p>What determined the result of this run?</p>
  </div>","60","html-slider-response","49","750832","0.0-10.0-1.2","67","1","2025-07-02 10:18:59","80fe4187154257d5fb01684ea91b68b9","46.205.205.231","Mozilla/5.0 (Windows NT 10.0; Win64; x64) AppleWebKit/537.36 (KHTML, like Gecko) Chrome/137.0.0.0 Safari/537.36","WebKit","Chrome","137.0.0.0","Windows","10.0","https://app.prolific.com/","pl-PL,pl;q=0.9,en-US;q=0.8,en;q=0.7","66699d98d268f725f96b8f4c","683db6dfa200031b80f2a654","68650772752d57764183afa4","66699d98d268f725f96b8f4c","2025-07-02T10:31:31.227Z","","","","","","AttribQ","","","","","","","","","","","","","","","","","","","","","","","","","","","","","","","","","","","","","","50"
"4700","","<div style=""width:500px;"">
  <p>How much control did you have over the ball?</p>
  </div>","72","html-slider-response","50","755533","0.0-10.0-2.2","67","1","2025-07-02 10:18:59","80fe4187154257d5fb01684ea91b68b9","46.205.205.231","Mozilla/5.0 (Windows NT 10.0; Win64; x64) AppleWebKit/537.36 (KHTML, like Gecko) Chrome/137.0.0.0 Safari/537.36","WebKit","Chrome","137.0.0.0","Windows","10.0","https://app.prolific.com/","pl-PL,pl;q=0.9,en-US;q=0.8,en;q=0.7","66699d98d268f725f96b8f4c","683db6dfa200031b80f2a654","68650772752d57764183afa4","66699d98d268f725f96b8f4c","2025-07-02T10:31:35.928Z","","","","","","ControlQ","","","","","","","","","","","","","","","","","","","","","","","","","","","","","","","","","","","","","","50"
"3557","","<div style=""width:500px;"">
  <p>How would you describe your current emotional state?</p>
  </div>","37","html-slider-response","51","759091","0.0-10.0-3.2","67","1","2025-07-02 10:18:59","80fe4187154257d5fb01684ea91b68b9","46.205.205.231","Mozilla/5.0 (Windows NT 10.0; Win64; x64) AppleWebKit/537.36 (KHTML, like Gecko) Chrome/137.0.0.0 Safari/537.36","WebKit","Chrome","137.0.0.0","Windows","10.0","https://app.prolific.com/","pl-PL,pl;q=0.9,en-US;q=0.8,en;q=0.7","66699d98d268f725f96b8f4c","683db6dfa200031b80f2a654","68650772752d57764183afa4","66699d98d268f725f96b8f4c","2025-07-02T10:31:39.486Z","","","","","","StressQ","","","","","","","","","","","","","","","","","","","","","","","","","","","","","","","","","","","","","","50"
"3355","","<div style=""width:500px;"">
  <p>What best describes how you currently feel?</p>
  </div>","81","html-slider-response","52","762447","0.0-10.0-4.2","67","1","2025-07-02 10:18:59","80fe4187154257d5fb01684ea91b68b9","46.205.205.231","Mozilla/5.0 (Windows NT 10.0; Win64; x64) AppleWebKit/537.36 (KHTML, like Gecko) Chrome/137.0.0.0 Safari/537.36","WebKit","Chrome","137.0.0.0","Windows","10.0","https://app.prolific.com/","pl-PL,pl;q=0.9,en-US;q=0.8,en;q=0.7","66699d98d268f725f96b8f4c","683db6dfa200031b80f2a654","68650772752d57764183afa4","66699d98d268f725f96b8f4c","2025-07-02T10:31:42.842Z","","","","","","MotivationQ","","","","","","","","","","","","","","","","","","","","","","","","","","","","","","","","","","","","","","50"
"","","","","ctl-task-cpt","53","791560","0.0-10.0-0.3","67","1","2025-07-02 10:18:59","80fe4187154257d5fb01684ea91b68b9","46.205.205.231","Mozilla/5.0 (Windows NT 10.0; Win64; x64) AppleWebKit/537.36 (KHTML, like Gecko) Chrome/137.0.0.0 Safari/537.36","WebKit","Chrome","137.0.0.0","Windows","10.0","https://app.prolific.com/","pl-PL,pl;q=0.9,en-US;q=0.8,en;q=0.7","66699d98d268f725f96b8f4c","683db6dfa200031b80f2a654","68650772752d57764183afa4","66699d98d268f725f96b8f4c","2025-07-02T10:32:11.955Z","","","","","","","","","","","","","","","","win-only","1","g1:NE,g2:SW","0.7","4","0","763460.5","1130.8","6131.2","26095.8","1","4","8","6","2","8","8","12","4","0.09090909090909091","742","3000","600","[""down"",""left""]","{""num_key_presses"":6,""num_perfect"":6,""num_errors"":0,""num_randdir"":0,""num_randdir_good_moves"":0,""num_whilered"":0,""num_whileblue"":0,""num_blue"":1,""num_good_moves"":6}","[279.7142857142857,273.6205357142857,0.1,279.7142857142857,273.6205357142857,100.1,279.7142857142857,273.6205357142857,204.3,279.7142857142857,273.6205357142857,305,206.71428571428572,313.6205357142857,405.1,105.71428571428572,419.6205357142857,509.3,94.71428571428572,443.6205357142857,609.7,56.714285714285715,496.6205357142857,714.7,53.714285714285715,498.6205357142857,822.1,52.714285714285715,497.6205357142857,925.8,181.71428571428572,413.6205357142857,1029.4,250.71428571428572,373.6205357142857,1129.9,235.71428571428572,379.6205357142857,1234.4,235.71428571428572,379.6205357142857,1335,235.71428571428572,379.6205357142857,1439.3,235.71428571428572,379.6205357142857,1539.7,235.71428571428572,379.6205357142857,1639.8,235.71428571428572,379.6205357142857,1744.8,235.71428571428572,379.6205357142857,1849.4,235.71428571428572,379.6205357142857,1949.7,235.71428571428572,379.6205357142857,2055.2,235.71428571428572,379.6205357142857,2160,235.71428571428572,379.6205357142857,2264.9,235.71428571428572,379.6205357142857,2369.9,235.71428571428572,379.6205357142857,2469.9,235.71428571428572,379.6205357142857,2570.1,235.71428571428572,379.6205357142857,2675.2,235.71428571428572,379.6205357142857,2780,235.71428571428572,379.6205357142857,2885.2,235.71428571428572,379.6205357142857,2989.5,235.71428571428572,379.6205357142857,3089.6,235.71428571428572,379.6205357142857,3189.6,235.71428571428572,379.6205357142857,3295,235.71428571428572,379.6205357142857,3399.9,235.71428571428572,379.6205357142857,3505,235.71428571428572,379.6205357142857,3610,235.71428571428572,379.6205357142857,3715.2,235.71428571428572,379.6205357142857,3819.6,235.71428571428572,379.6205357142857,3919.9,235.71428571428572,379.6205357142857,4025.1,235.71428571428572,379.6205357142857,4130.2,235.71428571428572,379.6205357142857,4234.8,235.71428571428572,379.6205357142857,4340.2,235.71428571428572,379.6205357142857,4445,235.71428571428572,379.6205357142857,4549.5,235.71428571428572,379.6205357142857,4649.8,235.71428571428572,379.6205357142857,4750,235.71428571428572,379.6205357142857,4855,235.71428571428572,379.6205357142857,4955.1]","[1451.5,1451.5,1000,0,451.5,""smooth"",""down"",""down"",""good_move"",4299.4,2847.7,2465.6,1451.7,382.1,""smooth"",""left"",""left"",""good_move"",10196.1,5896.6,2156.9,7654.2,385,""smooth"",""down"",""down"",""good_move"",13316.8,3120.6,2716.4,10196.2,404.2,""smooth"",""left"",""left"",""good_move"",16443.4,3126.4,2753.9,13317,372.5,""smooth"",""left"",""left"",""good_move"",19875.5,3431.9,3000.1,16443.6,431.8,""smooth"",""down"",""down"",""good_move""]","",""
"3052","","<div style=""width:500px;"">
  <p>What determined the result of this run?</p>
  </div>","100","html-slider-response","54","794613","0.0-10.0-1.3","67","1","2025-07-02 10:18:59","80fe4187154257d5fb01684ea91b68b9","46.205.205.231","Mozilla/5.0 (Windows NT 10.0; Win64; x64) AppleWebKit/537.36 (KHTML, like Gecko) Chrome/137.0.0.0 Safari/537.36","WebKit","Chrome","137.0.0.0","Windows","10.0","https://app.prolific.com/","pl-PL,pl;q=0.9,en-US;q=0.8,en;q=0.7","66699d98d268f725f96b8f4c","683db6dfa200031b80f2a654","68650772752d57764183afa4","66699d98d268f725f96b8f4c","2025-07-02T10:32:15.008Z","","","","","","AttribQ","","","","","","","","","","","","","","","","","","","","","","","","","","","","","","","","","","","","","","50"
"1917","","<div style=""width:500px;"">
  <p>How much control did you have over the ball?</p>
  </div>","100","html-slider-response","55","796531","0.0-10.0-2.3","67","1","2025-07-02 10:18:59","80fe4187154257d5fb01684ea91b68b9","46.205.205.231","Mozilla/5.0 (Windows NT 10.0; Win64; x64) AppleWebKit/537.36 (KHTML, like Gecko) Chrome/137.0.0.0 Safari/537.36","WebKit","Chrome","137.0.0.0","Windows","10.0","https://app.prolific.com/","pl-PL,pl;q=0.9,en-US;q=0.8,en;q=0.7","66699d98d268f725f96b8f4c","683db6dfa200031b80f2a654","68650772752d57764183afa4","66699d98d268f725f96b8f4c","2025-07-02T10:32:16.926Z","","","","","","ControlQ","","","","","","","","","","","","","","","","","","","","","","","","","","","","","","","","","","","","","","50"
"3844","","<div style=""width:500px;"">
  <p>How would you describe your current emotional state?</p>
  </div>","31","html-slider-response","56","800375","0.0-10.0-3.3","67","1","2025-07-02 10:18:59","80fe4187154257d5fb01684ea91b68b9","46.205.205.231","Mozilla/5.0 (Windows NT 10.0; Win64; x64) AppleWebKit/537.36 (KHTML, like Gecko) Chrome/137.0.0.0 Safari/537.36","WebKit","Chrome","137.0.0.0","Windows","10.0","https://app.prolific.com/","pl-PL,pl;q=0.9,en-US;q=0.8,en;q=0.7","66699d98d268f725f96b8f4c","683db6dfa200031b80f2a654","68650772752d57764183afa4","66699d98d268f725f96b8f4c","2025-07-02T10:32:20.770Z","","","","","","StressQ","","","","","","","","","","","","","","","","","","","","","","","","","","","","","","","","","","","","","","50"
"2899","","<div style=""width:500px;"">
  <p>What best describes how you currently feel?</p>
  </div>","82","html-slider-response","57","803275","0.0-10.0-4.3","67","1","2025-07-02 10:18:59","80fe4187154257d5fb01684ea91b68b9","46.205.205.231","Mozilla/5.0 (Windows NT 10.0; Win64; x64) AppleWebKit/537.36 (KHTML, like Gecko) Chrome/137.0.0.0 Safari/537.36","WebKit","Chrome","137.0.0.0","Windows","10.0","https://app.prolific.com/","pl-PL,pl;q=0.9,en-US;q=0.8,en;q=0.7","66699d98d268f725f96b8f4c","683db6dfa200031b80f2a654","68650772752d57764183afa4","66699d98d268f725f96b8f4c","2025-07-02T10:32:23.670Z","","","","","","MotivationQ","","","","","","","","","","","","","","","","","","","","","","","","","","","","","","","","","","","","","","50"
"","","","","ctl-task-cpt","58","837908","0.0-10.0-0.4","67","1","2025-07-02 10:18:59","80fe4187154257d5fb01684ea91b68b9","46.205.205.231","Mozilla/5.0 (Windows NT 10.0; Win64; x64) AppleWebKit/537.36 (KHTML, like Gecko) Chrome/137.0.0.0 Safari/537.36","WebKit","Chrome","137.0.0.0","Windows","10.0","https://app.prolific.com/","pl-PL,pl;q=0.9,en-US;q=0.8,en;q=0.7","66699d98d268f725f96b8f4c","683db6dfa200031b80f2a654","68650772752d57764183afa4","66699d98d268f725f96b8f4c","2025-07-02T10:32:58.303Z","","","","","","","","","","","","","","","","win-only","1","g1:NE,g2:SW","0.6","5","0","804288.6","1228.8","6230.1","31615.2","1","4","8","6","2","8","8","20","12","0.15151515151515152","728","3000","735","[""down"",""left""]","{""num_key_presses"":6,""num_perfect"":4,""num_errors"":0,""num_randdir"":2,""num_randdir_good_moves"":2,""num_whilered"":0,""num_whileblue"":0,""num_blue"":3,""num_good_moves"":6}","[272.7142857142857,271.6205357142857,0.1,272.7142857142857,271.6205357142857,101.6,272.7142857142857,271.6205357142857,201.8,272.7142857142857,271.6205357142857,302.1,222.71428571428572,266.6205357142857,407.3,59.714285714285715,395.6205357142857,511.8,39.714285714285715,481.6205357142857,617.6,40.714285714285715,488.6205357142857,721.8,41.714285714285715,488.6205357142857,822.1,59.714285714285715,473.6205357142857,922.1,213.71428571428572,367.6205357142857,1026.9,242.71428571428572,342.6205357142857,1131.8,241.71428571428572,339.6205357142857,1236.9,241.71428571428572,339.6205357142857,1337.1,241.71428571428572,339.6205357142857,1441.4,241.71428571428572,339.6205357142857,1542,241.71428571428572,339.6205357142857,1642.3,241.71428571428572,339.6205357142857,1746.8,241.71428571428572,339.6205357142857,1846.8,241.71428571428572,339.6205357142857,1946.9,241.71428571428572,339.6205357142857,2051.3,241.71428571428572,339.6205357142857,2151.7,241.71428571428572,339.6205357142857,2252.2,241.71428571428572,339.6205357142857,2356.7,241.71428571428572,339.6205357142857,2457.1,241.71428571428572,339.6205357142857,2561.8,241.71428571428572,339.6205357142857,2667.2,241.71428571428572,339.6205357142857,2771.3,241.71428571428572,339.6205357142857,2872.1,241.71428571428572,339.6205357142857,2977.1,241.71428571428572,339.6205357142857,3077.1,241.71428571428572,339.6205357142857,3177.1,241.71428571428572,339.6205357142857,3277.3,241.71428571428572,339.6205357142857,3381.5,241.71428571428572,339.6205357142857,3482.1,241.71428571428572,339.6205357142857,3586.5,241.71428571428572,339.6205357142857,3691.3,241.71428571428572,339.6205357142857,3791.7,241.71428571428572,339.6205357142857,3896.7,241.71428571428572,339.6205357142857,3997,241.71428571428572,339.6205357142857,4101.8,241.71428571428572,339.6205357142857,4206.5,241.71428571428572,339.6205357142857,4306.6,241.71428571428572,339.6205357142857,4406.6,241.71428571428572,339.6205357142857,4506.8,241.71428571428572,339.6205357142857,4611.7,241.71428571428572,339.6205357142857,4711.7,241.71428571428572,339.6205357142857,4811.8,241.71428571428572,339.6205357142857,4911.8]","[1388.6,1388.6,1000,0,388.6,""oops"",""down"",""down"",""good_move"",7496,6107.1,2527.2,4585.3,383.5,""smooth"",""down"",""down"",""good_move"",9924.6,2428.5,1976.1,7496.1,452.4,""oops"",""left"",""down"",""good_move"",15820.5,5895.7,1917.8,13519.9,382.8,""smooth"",""left"",""left"",""good_move"",18708.7,2887.9,2457.4,15820.8,430.5,""smooth"",""left"",""left"",""good_move"",25292.6,6583.8,3083.1,21890.4,319.1,""smooth"",""left"",""left"",""good_move""]","",""
"4546","","<div style=""width:500px;"">
  <p>What determined the result of this run?</p>
  </div>","40","html-slider-response","59","842455","0.0-10.0-1.4","67","1","2025-07-02 10:18:59","80fe4187154257d5fb01684ea91b68b9","46.205.205.231","Mozilla/5.0 (Windows NT 10.0; Win64; x64) AppleWebKit/537.36 (KHTML, like Gecko) Chrome/137.0.0.0 Safari/537.36","WebKit","Chrome","137.0.0.0","Windows","10.0","https://app.prolific.com/","pl-PL,pl;q=0.9,en-US;q=0.8,en;q=0.7","66699d98d268f725f96b8f4c","683db6dfa200031b80f2a654","68650772752d57764183afa4","66699d98d268f725f96b8f4c","2025-07-02T10:33:02.850Z","","","","","","AttribQ","","","","","","","","","","","","","","","","","","","","","","","","","","","","","","","","","","","","","","50"
"3649","","<div style=""width:500px;"">
  <p>How much control did you have over the ball?</p>
  </div>","57","html-slider-response","60","846105","0.0-10.0-2.4","67","1","2025-07-02 10:18:59","80fe4187154257d5fb01684ea91b68b9","46.205.205.231","Mozilla/5.0 (Windows NT 10.0; Win64; x64) AppleWebKit/537.36 (KHTML, like Gecko) Chrome/137.0.0.0 Safari/537.36","WebKit","Chrome","137.0.0.0","Windows","10.0","https://app.prolific.com/","pl-PL,pl;q=0.9,en-US;q=0.8,en;q=0.7","66699d98d268f725f96b8f4c","683db6dfa200031b80f2a654","68650772752d57764183afa4","66699d98d268f725f96b8f4c","2025-07-02T10:33:06.500Z","","","","","","ControlQ","","","","","","","","","","","","","","","","","","","","","","","","","","","","","","","","","","","","","","50"
"3621","","<div style=""width:500px;"">
  <p>How would you describe your current emotional state?</p>
  </div>","35","html-slider-response","61","849727","0.0-10.0-3.4","67","1","2025-07-02 10:18:59","80fe4187154257d5fb01684ea91b68b9","46.205.205.231","Mozilla/5.0 (Windows NT 10.0; Win64; x64) AppleWebKit/537.36 (KHTML, like Gecko) Chrome/137.0.0.0 Safari/537.36","WebKit","Chrome","137.0.0.0","Windows","10.0","https://app.prolific.com/","pl-PL,pl;q=0.9,en-US;q=0.8,en;q=0.7","66699d98d268f725f96b8f4c","683db6dfa200031b80f2a654","68650772752d57764183afa4","66699d98d268f725f96b8f4c","2025-07-02T10:33:10.122Z","","","","","","StressQ","","","","","","","","","","","","","","","","","","","","","","","","","","","","","","","","","","","","","","50"
"2725","","<div style=""width:500px;"">
  <p>What best describes how you currently feel?</p>
  </div>","88","html-slider-response","62","852453","0.0-10.0-4.4","67","1","2025-07-02 10:18:59","80fe4187154257d5fb01684ea91b68b9","46.205.205.231","Mozilla/5.0 (Windows NT 10.0; Win64; x64) AppleWebKit/537.36 (KHTML, like Gecko) Chrome/137.0.0.0 Safari/537.36","WebKit","Chrome","137.0.0.0","Windows","10.0","https://app.prolific.com/","pl-PL,pl;q=0.9,en-US;q=0.8,en;q=0.7","66699d98d268f725f96b8f4c","683db6dfa200031b80f2a654","68650772752d57764183afa4","66699d98d268f725f96b8f4c","2025-07-02T10:33:12.848Z","","","","","","MotivationQ","","","","","","","","","","","","","","","","","","","","","","","","","","","","","","","","","","","","","","50"
"","","","","ctl-task-cpt","63","899065","0.0-10.0-0.5","67","1","2025-07-02 10:18:59","80fe4187154257d5fb01684ea91b68b9","46.205.205.231","Mozilla/5.0 (Windows NT 10.0; Win64; x64) AppleWebKit/537.36 (KHTML, like Gecko) Chrome/137.0.0.0 Safari/537.36","WebKit","Chrome","137.0.0.0","Windows","10.0","https://app.prolific.com/","pl-PL,pl;q=0.9,en-US;q=0.8,en;q=0.7","66699d98d268f725f96b8f4c","683db6dfa200031b80f2a654","68650772752d57764183afa4","66699d98d268f725f96b8f4c","2025-07-02T10:33:59.460Z","","","","","","","","","","","","","","","","win-only","1","g1:NE,g2:SW","0.5","6","0","853466.4","957.3","5961.1","43595.5","1","4","4","6","2","-4","-4","16","20","0.12121212121212122","760.6","3000","-3010","[""down"",""left""]","{""num_key_presses"":8,""num_perfect"":5,""num_errors"":0,""num_randdir"":3,""num_randdir_good_moves"":1,""num_whilered"":0,""num_whileblue"":0,""num_blue"":3,""num_good_moves"":6}","[279.7142857142857,276.6205357142857,0.1,279.7142857142857,276.6205357142857,103.4,279.7142857142857,275.6205357142857,209.8,280.7142857142857,271.6205357142857,315.8,213.71428571428572,289.6205357142857,418.7,96.71428571428572,438.6205357142857,522.9,63.714285714285715,490.6205357142857,623.5,42.714285714285715,521.6205357142857,723.7,42.714285714285715,522.6205357142857,826,42.714285714285715,523.6205357142857,928,122.71428571428572,488.6205357142857,1028.6,196.71428571428572,450.6205357142857,1134.2,188.71428571428572,446.6205357142857,1238.6,188.71428571428572,446.6205357142857,1338.6,188.71428571428572,446.6205357142857,1443.2,188.71428571428572,446.6205357142857,1543.4,188.71428571428572,446.6205357142857,1648.5,188.71428571428572,446.6205357142857,1748.6,188.71428571428572,446.6205357142857,1853.5,188.71428571428572,446.6205357142857,1953.5,188.71428571428572,446.6205357142857,2058.8,188.71428571428572,446.6205357142857,2163,188.71428571428572,446.6205357142857,2263.5,188.71428571428572,446.6205357142857,2368.1,188.71428571428572,446.6205357142857,2469,188.71428571428572,446.6205357142857,2573,188.71428571428572,446.6205357142857,2673.8,188.71428571428572,446.6205357142857,2773.8,188.71428571428572,446.6205357142857,2878.5,188.71428571428572,446.6205357142857,2978.6,188.71428571428572,446.6205357142857,3078.5,188.71428571428572,446.6205357142857,3183.2,188.71428571428572,446.6205357142857,3283.8,188.71428571428572,446.6205357142857,3389,188.71428571428572,446.6205357142857,3492.9,188.71428571428572,446.6205357142857,3592.9,188.71428571428572,446.6205357142857,3692.9,188.71428571428572,446.6205357142857,3808.1,188.71428571428572,446.6205357142857,3909.1,188.71428571428572,446.6205357142857,4012.9,188.71428571428572,446.6205357142857,4113.5,188.71428571428572,446.6205357142857,4218.4,188.71428571428572,446.6205357142857,4318.5,188.71428571428572,446.6205357142857,4418.6,188.71428571428572,446.6205357142857,4522.9,188.71428571428572,446.6205357142857,4623.6,188.71428571428572,446.6205357142857,4728.5,188.71428571428572,446.6205357142857,4833.1,188.71428571428572,446.6205357142857,4933.3]","[4927.9,4927.9,2510,2005.2,412.7,""smooth"",""down"",""down"",""good_move"",7959.8,3031.7,2610.4,4928.1,421.3,""smooth"",""left"",""left"",""good_move"",15183.9,7223.8,3163,11689,331.9,""smooth"",""left"",""left"",""good_move"",22471.7,7287.7,3132.8,19029.3,309.6,""oops"",""down"",""right"",""bad_move"",25487.9,3015.9,2545.2,22472,470.7,""oops"",""down"",""left"",""good_move"",29431.8,3943.8,3585.9,25488,357.9,""smooth"",""down"",""down"",""good_move"",32407.7,2975.7,2628,29432,347.7,""smooth"",""left"",""left"",""good_move"",35121.5,2713.6,2311,32407.9,402.6,""oops"",""down"",""right"",""bad_move""]","",""
"2757","","<div style=""width:500px;"">
  <p>What determined the result of this run?</p>
  </div>","26","html-slider-response","64","901823","0.0-10.0-1.5","67","1","2025-07-02 10:18:59","80fe4187154257d5fb01684ea91b68b9","46.205.205.231","Mozilla/5.0 (Windows NT 10.0; Win64; x64) AppleWebKit/537.36 (KHTML, like Gecko) Chrome/137.0.0.0 Safari/537.36","WebKit","Chrome","137.0.0.0","Windows","10.0","https://app.prolific.com/","pl-PL,pl;q=0.9,en-US;q=0.8,en;q=0.7","66699d98d268f725f96b8f4c","683db6dfa200031b80f2a654","68650772752d57764183afa4","66699d98d268f725f96b8f4c","2025-07-02T10:34:02.218Z","","","","","","AttribQ","","","","","","","","","","","","","","","","","","","","","","","","","","","","","","","","","","","","","","50"
"2281","","<div style=""width:500px;"">
  <p>How much control did you have over the ball?</p>
  </div>","65","html-slider-response","65","904105","0.0-10.0-2.5","67","1","2025-07-02 10:18:59","80fe4187154257d5fb01684ea91b68b9","46.205.205.231","Mozilla/5.0 (Windows NT 10.0; Win64; x64) AppleWebKit/537.36 (KHTML, like Gecko) Chrome/137.0.0.0 Safari/537.36","WebKit","Chrome","137.0.0.0","Windows","10.0","https://app.prolific.com/","pl-PL,pl;q=0.9,en-US;q=0.8,en;q=0.7","66699d98d268f725f96b8f4c","683db6dfa200031b80f2a654","68650772752d57764183afa4","66699d98d268f725f96b8f4c","2025-07-02T10:34:04.500Z","","","","","","ControlQ","","","","","","","","","","","","","","","","","","","","","","","","","","","","","","","","","","","","","","50"
"2341","","<div style=""width:500px;"">
  <p>How would you describe your current emotional state?</p>
  </div>","60","html-slider-response","66","906447","0.0-10.0-3.5","67","1","2025-07-02 10:18:59","80fe4187154257d5fb01684ea91b68b9","46.205.205.231","Mozilla/5.0 (Windows NT 10.0; Win64; x64) AppleWebKit/537.36 (KHTML, like Gecko) Chrome/137.0.0.0 Safari/537.36","WebKit","Chrome","137.0.0.0","Windows","10.0","https://app.prolific.com/","pl-PL,pl;q=0.9,en-US;q=0.8,en;q=0.7","66699d98d268f725f96b8f4c","683db6dfa200031b80f2a654","68650772752d57764183afa4","66699d98d268f725f96b8f4c","2025-07-02T10:34:06.842Z","","","","","","StressQ","","","","","","","","","","","","","","","","","","","","","","","","","","","","","","","","","","","","","","50"
"3121","","<div style=""width:500px;"">
  <p>What best describes how you currently feel?</p>
  </div>","81","html-slider-response","67","909569","0.0-10.0-4.5","67","1","2025-07-02 10:18:59","80fe4187154257d5fb01684ea91b68b9","46.205.205.231","Mozilla/5.0 (Windows NT 10.0; Win64; x64) AppleWebKit/537.36 (KHTML, like Gecko) Chrome/137.0.0.0 Safari/537.36","WebKit","Chrome","137.0.0.0","Windows","10.0","https://app.prolific.com/","pl-PL,pl;q=0.9,en-US;q=0.8,en;q=0.7","66699d98d268f725f96b8f4c","683db6dfa200031b80f2a654","68650772752d57764183afa4","66699d98d268f725f96b8f4c","2025-07-02T10:34:09.964Z","","","","","","MotivationQ","","","","","","","","","","","","","","","","","","","","","","","","","","","","","","","","","","","","","","50"
"","","","","ctl-task-cpt","68","947282","0.0-10.0-0.6","67","1","2025-07-02 10:18:59","80fe4187154257d5fb01684ea91b68b9","46.205.205.231","Mozilla/5.0 (Windows NT 10.0; Win64; x64) AppleWebKit/537.36 (KHTML, like Gecko) Chrome/137.0.0.0 Safari/537.36","WebKit","Chrome","137.0.0.0","Windows","10.0","https://app.prolific.com/","pl-PL,pl;q=0.9,en-US;q=0.8,en;q=0.7","66699d98d268f725f96b8f4c","683db6dfa200031b80f2a654","68650772752d57764183afa4","66699d98d268f725f96b8f4c","2025-07-02T10:34:47.677Z","","","","","","","","","","","","","","","","win-only","1","g1:NE,g2:SW","0.4","7","0","910582.5","983.1","5986.2","34695.4","1","4","8","6","2","-8","-8","8","16","0.06060606060606061","587.8","3000","-2995","[""down"",""left""]","{""num_key_presses"":7,""num_perfect"":4,""num_errors"":0,""num_randdir"":3,""num_randdir_good_moves"":0,""num_whilered"":0,""num_whileblue"":0,""num_blue"":2,""num_good_moves"":4}","[272.7142857142857,281.6205357142857,0,272.7142857142857,281.6205357142857,102.1,272.7142857142857,281.6205357142857,202.1,271.7142857142857,275.6205357142857,305,60.714285714285715,438.6205357142857,407.3,15.714285714285715,506.6205357142857,507.4,14.714285714285715,524.6205357142857,607.4,14.714285714285715,524.6205357142857,712.3,18.714285714285715,520.6205357142857,812.5,178.71428571428572,437.6205357142857,912.9,283.7142857142857,355.6205357142857,1021.3,274.7142857142857,343.6205357142857,1122.1,274.7142857142857,343.6205357142857,1222.2,274.7142857142857,343.6205357142857,1331.9,274.7142857142857,343.6205357142857,1432.2,274.7142857142857,343.6205357142857,1532.5,274.7142857142857,343.6205357142857,1632.6,274.7142857142857,343.6205357142857,1738.8,274.7142857142857,343.6205357142857,1849.2,274.7142857142857,343.6205357142857,1952.4,274.7142857142857,343.6205357142857,2052.6,274.7142857142857,343.6205357142857,2152.7,274.7142857142857,343.6205357142857,2257.5,274.7142857142857,343.6205357142857,2363,274.7142857142857,343.6205357142857,2467.3,274.7142857142857,343.6205357142857,2567.4,274.7142857142857,343.6205357142857,2667.4,274.7142857142857,343.6205357142857,2767.6,274.7142857142857,343.6205357142857,2872.4,274.7142857142857,343.6205357142857,2977.1,274.7142857142857,343.6205357142857,3077.3,274.7142857142857,343.6205357142857,3177.3,274.7142857142857,343.6205357142857,3278.4,274.7142857142857,343.6205357142857,3391.8,274.7142857142857,343.6205357142857,3492.3,274.7142857142857,343.6205357142857,3593.5,274.7142857142857,343.6205357142857,3697.5,274.7142857142857,343.6205357142857,3802,274.7142857142857,343.6205357142857,3902,274.7142857142857,343.6205357142857,4002.2,274.7142857142857,343.6205357142857,4107.4,274.7142857142857,343.6205357142857,4212.1,274.7142857142857,343.6205357142857,4312.5,274.7142857142857,343.6205357142857,4412.5,274.7142857142857,343.6205357142857,4518,274.7142857142857,343.6205357142857,4623.1,274.7142857142857,343.6205357142857,4727.8,274.7142857142857,343.6205357142857,4832.4,274.7142857142857,343.6205357142857,4937.6]","[1378.7,1378.7,1000,0,378.7,""oops"",""down"",""right"",""bad_move"",6692.5,5313.5,2067.4,4244,381.2,""smooth"",""down"",""down"",""good_move"",10250.6,3557.9,3098.4,6692.8,459.4,""smooth"",""left"",""left"",""good_move"",16731.7,6481,2204.6,14204.8,322.3,""smooth"",""down"",""down"",""good_move"",19306.6,2574.7,2024,16731.9,550.7,""oops"",""left"",""up"",""bad_move"",21810.6,2503.8,2154.2,19306.8,349.6,""smooth"",""left"",""left"",""good_move"",24858.6,3047.8,2715.3,21810.8,332.5,""oops"",""down"",""up"",""bad_move""]","",""
"2718","","<div style=""width:500px;"">
  <p>What determined the result of this run?</p>
  </div>","20","html-slider-response","69","950001","0.0-10.0-1.6","67","1","2025-07-02 10:18:59","80fe4187154257d5fb01684ea91b68b9","46.205.205.231","Mozilla/5.0 (Windows NT 10.0; Win64; x64) AppleWebKit/537.36 (KHTML, like Gecko) Chrome/137.0.0.0 Safari/537.36","WebKit","Chrome","137.0.0.0","Windows","10.0","https://app.prolific.com/","pl-PL,pl;q=0.9,en-US;q=0.8,en;q=0.7","66699d98d268f725f96b8f4c","683db6dfa200031b80f2a654","68650772752d57764183afa4","66699d98d268f725f96b8f4c","2025-07-02T10:34:50.396Z","","","","","","AttribQ","","","","","","","","","","","","","","","","","","","","","","","","","","","","","","","","","","","","","","50"
"3577","","<div style=""width:500px;"">
  <p>How much control did you have over the ball?</p>
  </div>","37","html-slider-response","70","953579","0.0-10.0-2.6","67","1","2025-07-02 10:18:59","80fe4187154257d5fb01684ea91b68b9","46.205.205.231","Mozilla/5.0 (Windows NT 10.0; Win64; x64) AppleWebKit/537.36 (KHTML, like Gecko) Chrome/137.0.0.0 Safari/537.36","WebKit","Chrome","137.0.0.0","Windows","10.0","https://app.prolific.com/","pl-PL,pl;q=0.9,en-US;q=0.8,en;q=0.7","66699d98d268f725f96b8f4c","683db6dfa200031b80f2a654","68650772752d57764183afa4","66699d98d268f725f96b8f4c","2025-07-02T10:34:53.974Z","","","","","","ControlQ","","","","","","","","","","","","","","","","","","","","","","","","","","","","","","","","","","","","","","50"
"2021","","<div style=""width:500px;"">
  <p>How would you describe your current emotional state?</p>
  </div>","61","html-slider-response","71","955601","0.0-10.0-3.6","67","1","2025-07-02 10:18:59","80fe4187154257d5fb01684ea91b68b9","46.205.205.231","Mozilla/5.0 (Windows NT 10.0; Win64; x64) AppleWebKit/537.36 (KHTML, like Gecko) Chrome/137.0.0.0 Safari/537.36","WebKit","Chrome","137.0.0.0","Windows","10.0","https://app.prolific.com/","pl-PL,pl;q=0.9,en-US;q=0.8,en;q=0.7","66699d98d268f725f96b8f4c","683db6dfa200031b80f2a654","68650772752d57764183afa4","66699d98d268f725f96b8f4c","2025-07-02T10:34:55.996Z","","","","","","StressQ","","","","","","","","","","","","","","","","","","","","","","","","","","","","","","","","","","","","","","50"
"2923","","<div style=""width:500px;"">
  <p>What best describes how you currently feel?</p>
  </div>","84","html-slider-response","72","958525","0.0-10.0-4.6","67","1","2025-07-02 10:18:59","80fe4187154257d5fb01684ea91b68b9","46.205.205.231","Mozilla/5.0 (Windows NT 10.0; Win64; x64) AppleWebKit/537.36 (KHTML, like Gecko) Chrome/137.0.0.0 Safari/537.36","WebKit","Chrome","137.0.0.0","Windows","10.0","https://app.prolific.com/","pl-PL,pl;q=0.9,en-US;q=0.8,en;q=0.7","66699d98d268f725f96b8f4c","683db6dfa200031b80f2a654","68650772752d57764183afa4","66699d98d268f725f96b8f4c","2025-07-02T10:34:58.920Z","","","","","","MotivationQ","","","","","","","","","","","","","","","","","","","","","","","","","","","","","","","","","","","","","","50"
"","","","","ctl-task-cpt","73","1011934","0.0-10.0-0.7","67","1","2025-07-02 10:18:59","80fe4187154257d5fb01684ea91b68b9","46.205.205.231","Mozilla/5.0 (Windows NT 10.0; Win64; x64) AppleWebKit/537.36 (KHTML, like Gecko) Chrome/137.0.0.0 Safari/537.36","WebKit","Chrome","137.0.0.0","Windows","10.0","https://app.prolific.com/","pl-PL,pl;q=0.9,en-US;q=0.8,en;q=0.7","66699d98d268f725f96b8f4c","683db6dfa200031b80f2a654","68650772752d57764183afa4","66699d98d268f725f96b8f4c","2025-07-02T10:35:52.329Z","","","","","","","","","","","","","","","","win-only","0","g1:NW,g2:SE","0.3","8","0","959538.5","1059","6060.3","50391.2","1","4","4","6","2","4","3","11","8","0.08333333333333333","1898","3000","120","[""down"",""right""]","{""num_key_presses"":8,""num_perfect"":3,""num_errors"":1,""num_randdir"":4,""num_randdir_good_moves"":3,""num_whilered"":0,""num_whileblue"":1,""num_blue"":7,""num_good_moves"":7}","[282.7142857142857,275.6205357142857,0.1,282.7142857142857,275.6205357142857,102.5,282.7142857142857,275.6205357142857,206.9,177.71428571428572,360.6205357142857,311.6,169.71428571428572,367.6205357142857,416.4,193.71428571428572,281.6205357142857,521.3,205.71428571428572,256.6205357142857,621.3,253.71428571428572,260.6205357142857,721.7,254.71428571428572,260.6205357142857,826.2,254.71428571428572,260.6205357142857,926.2,254.71428571428572,260.6205357142857,1026.7,256.7142857142857,265.6205357142857,1132.4,405.7142857142857,429.6205357142857,1236.4,449.7142857142857,468.6205357142857,1336.5,483.7142857142857,489.6205357142857,1437.1,490.7142857142857,490.6205357142857,1541.3,492.7142857142857,490.6205357142857,1646.8,492.7142857142857,490.6205357142857,1752.4,492.7142857142857,490.6205357142857,1854.1,492.7142857142857,490.6205357142857,1956.4,492.7142857142857,490.6205357142857,2061.1,492.7142857142857,490.6205357142857,2161.8,461.7142857142857,448.6205357142857,2266.2,350.7142857142857,356.6205357142857,2366.9,354.7142857142857,348.6205357142857,2471.4,354.7142857142857,348.6205357142857,2576.2,354.7142857142857,348.6205357142857,2677,355.7142857142857,348.6205357142857,2781.2,355.7142857142857,348.6205357142857,2881.5,355.7142857142857,348.6205357142857,2986.7,355.7142857142857,348.6205357142857,3092.2,355.7142857142857,348.6205357142857,3196.8,355.7142857142857,348.6205357142857,3296.9,355.7142857142857,348.6205357142857,3401.2,355.7142857142857,348.6205357142857,3501.3,355.7142857142857,348.6205357142857,3601.2,355.7142857142857,348.6205357142857,3702.4,355.7142857142857,348.6205357142857,3806.5,355.7142857142857,348.6205357142857,3906.7,355.7142857142857,348.6205357142857,4008.8,355.7142857142857,348.6205357142857,4111.3,355.7142857142857,348.6205357142857,4211.5,355.7142857142857,348.6205357142857,4316.4,355.7142857142857,348.6205357142857,4421.4,355.7142857142857,348.6205357142857,4521.7,355.7142857142857,348.6205357142857,4626.5,355.7142857142857,348.6205357142857,4731.2,355.7142857142857,348.6205357142857,4831.4,355.7142857142857,348.6205357142857,4932]","[8412.7,8412.7,2648.5,5430.6,333.6,""smooth"",""down"",""down"",""good_move"",11220.6,2807.7,2288.6,8412.9,519.1,""oops"",""right"",""right"",""good_move"",17348.6,6127.8,2665.8,14325.2,357.6,""oops"",""down"",""down"",""good_move"",20284.6,2935.8,2465.9,17348.9,469.9,""oops"",""right"",""left"",""bad_move"",23116.6,2831.7,2507,20284.9,324.7,""smooth"",""right"",""right"",""good_move"",30709.7,7592.9,3764.2,26670.6,274.9,""while_blue"",""down"",""right"",""good_move"",41220.7,10510.7,2724.9,38161.4,334.4,""oops"",""down"",""down"",""good_move"",44228.6,3007.6,2405.4,41221,602.2,""smooth"",""right"",""right"",""good_move""]","",""
"3326","","<div style=""width:500px;"">
  <p>What determined the result of this run?</p>
  </div>","38","html-slider-response","74","1015261","0.0-10.0-1.7","67","1","2025-07-02 10:18:59","80fe4187154257d5fb01684ea91b68b9","46.205.205.231","Mozilla/5.0 (Windows NT 10.0; Win64; x64) AppleWebKit/537.36 (KHTML, like Gecko) Chrome/137.0.0.0 Safari/537.36","WebKit","Chrome","137.0.0.0","Windows","10.0","https://app.prolific.com/","pl-PL,pl;q=0.9,en-US;q=0.8,en;q=0.7","66699d98d268f725f96b8f4c","683db6dfa200031b80f2a654","68650772752d57764183afa4","66699d98d268f725f96b8f4c","2025-07-02T10:35:55.656Z","","","","","","AttribQ","","","","","","","","","","","","","","","","","","","","","","","","","","","","","","","","","","","","","","50"
"2051","","<div style=""width:500px;"">
  <p>How much control did you have over the ball?</p>
  </div>","58","html-slider-response","75","1017313","0.0-10.0-2.7","67","1","2025-07-02 10:18:59","80fe4187154257d5fb01684ea91b68b9","46.205.205.231","Mozilla/5.0 (Windows NT 10.0; Win64; x64) AppleWebKit/537.36 (KHTML, like Gecko) Chrome/137.0.0.0 Safari/537.36","WebKit","Chrome","137.0.0.0","Windows","10.0","https://app.prolific.com/","pl-PL,pl;q=0.9,en-US;q=0.8,en;q=0.7","66699d98d268f725f96b8f4c","683db6dfa200031b80f2a654","68650772752d57764183afa4","66699d98d268f725f96b8f4c","2025-07-02T10:35:57.708Z","","","","","","ControlQ","","","","","","","","","","","","","","","","","","","","","","","","","","","","","","","","","","","","","","50"
"3009","","<div style=""width:500px;"">
  <p>How would you describe your current emotional state?</p>
  </div>","65","html-slider-response","76","1020323","0.0-10.0-3.7","67","1","2025-07-02 10:18:59","80fe4187154257d5fb01684ea91b68b9","46.205.205.231","Mozilla/5.0 (Windows NT 10.0; Win64; x64) AppleWebKit/537.36 (KHTML, like Gecko) Chrome/137.0.0.0 Safari/537.36","WebKit","Chrome","137.0.0.0","Windows","10.0","https://app.prolific.com/","pl-PL,pl;q=0.9,en-US;q=0.8,en;q=0.7","66699d98d268f725f96b8f4c","683db6dfa200031b80f2a654","68650772752d57764183afa4","66699d98d268f725f96b8f4c","2025-07-02T10:36:00.718Z","","","","","","StressQ","","","","","","","","","","","","","","","","","","","","","","","","","","","","","","","","","","","","","","50"
"3239","","<div style=""width:500px;"">
  <p>What best describes how you currently feel?</p>
  </div>","84","html-slider-response","77","1023563","0.0-10.0-4.7","67","1","2025-07-02 10:18:59","80fe4187154257d5fb01684ea91b68b9","46.205.205.231","Mozilla/5.0 (Windows NT 10.0; Win64; x64) AppleWebKit/537.36 (KHTML, like Gecko) Chrome/137.0.0.0 Safari/537.36","WebKit","Chrome","137.0.0.0","Windows","10.0","https://app.prolific.com/","pl-PL,pl;q=0.9,en-US;q=0.8,en;q=0.7","66699d98d268f725f96b8f4c","683db6dfa200031b80f2a654","68650772752d57764183afa4","66699d98d268f725f96b8f4c","2025-07-02T10:36:03.958Z","","","","","","MotivationQ","","","","","","","","","","","","","","","","","","","","","","","","","","","","","","","","","","","","","","50"
"","","","","ctl-task-cpt","78","1060831","0.0-10.0-0.8","67","1","2025-07-02 10:18:59","80fe4187154257d5fb01684ea91b68b9","46.205.205.231","Mozilla/5.0 (Windows NT 10.0; Win64; x64) AppleWebKit/537.36 (KHTML, like Gecko) Chrome/137.0.0.0 Safari/537.36","WebKit","Chrome","137.0.0.0","Windows","10.0","https://app.prolific.com/","pl-PL,pl;q=0.9,en-US;q=0.8,en;q=0.7","66699d98d268f725f96b8f4c","683db6dfa200031b80f2a654","68650772752d57764183afa4","66699d98d268f725f96b8f4c","2025-07-02T10:36:41.226Z","","","","","","","","","","","","","","","","win-only","0","g1:NW,g2:SE","0.4","9","0","1024576.6","3065.1","8065.8","34255.3","1","4","8","6","2","-8","-8","3","11","0.022727272727272728","1065.8","3000","-2940","[""down"",""right""]","{""num_key_presses"":8,""num_perfect"":2,""num_errors"":0,""num_randdir"":6,""num_randdir_good_moves"":2,""num_whilered"":0,""num_whileblue"":0,""num_blue"":1,""num_good_moves"":4}","[275.7142857142857,269.6205357142857,0.2,275.7142857142857,269.6205357142857,102.2,278.7142857142857,270.6205357142857,205.9,279.7142857142857,270.6205357142857,311,255.71428571428572,245.62053571428572,416,212.71428571428572,199.62053571428572,520.1,209.71428571428572,203.62053571428572,620.5,402.7142857142857,423.6205357142857,725.3,458.7142857142857,473.6205357142857,830.7,490.7142857142857,505.6205357142857,935.6,504.7142857142857,524.6205357142857,1041,505.7142857142857,524.6205357142857,1145.9,505.7142857142857,524.6205357142857,1250.4,463.7142857142857,465.6205357142857,1350.4,442.7142857142857,434.6205357142857,1455.6,440.7142857142857,432.6205357142857,1555.8,440.7142857142857,432.6205357142857,1663.8,440.7142857142857,432.6205357142857,1765,440.7142857142857,432.6205357142857,1865.4,440.7142857142857,432.6205357142857,1970.9,440.7142857142857,432.6205357142857,2070.9,440.7142857142857,432.6205357142857,2175.6,440.7142857142857,432.6205357142857,2275.8,440.7142857142857,432.6205357142857,2380.4,440.7142857142857,432.6205357142857,2480.5,440.7142857142857,432.6205357142857,2580.6,440.7142857142857,432.6205357142857,2680.6,440.7142857142857,432.6205357142857,2780.6,440.7142857142857,432.6205357142857,2885.3,440.7142857142857,432.6205357142857,2985.9,440.7142857142857,432.6205357142857,3090.2,440.7142857142857,432.6205357142857,3190.4,440.7142857142857,432.6205357142857,3290.5,440.7142857142857,432.6205357142857,3391,440.7142857142857,432.6205357142857,3495.3,440.7142857142857,432.6205357142857,3596,440.7142857142857,432.6205357142857,3696,440.7142857142857,432.6205357142857,3800.9,440.7142857142857,432.6205357142857,3905.3,440.7142857142857,432.6205357142857,4006.8,440.7142857142857,432.6205357142857,4110.4,440.7142857142857,432.6205357142857,4211,440.7142857142857,432.6205357142857,4315.8,440.7142857142857,432.6205357142857,4420.7,440.7142857142857,432.6205357142857,4525.5,440.7142857142857,432.6205357142857,4626,440.7142857142857,432.6205357142857,4730.3,440.7142857142857,432.6205357142857,4830.7,440.7142857142857,432.6205357142857,4930.9]","[1497.1,1497.1,1000,0,497.1,""oops"",""right"",""up"",""bad_move"",6913.2,5415.9,1953.6,4639.8,319.8,""oops"",""down"",""left"",""bad_move"",9593,2679.6,2223.8,6913.4,455.8,""oops"",""down"",""left"",""bad_move"",12233,2639.9,2282.3,9593.1,357.6,""oops"",""down"",""right"",""good_move"",14865,2631.7,2275.5,12233.3,356.2,""oops"",""down"",""left"",""bad_move"",17657.2,2791.8,2472.6,14865.4,319.2,""smooth"",""down"",""down"",""good_move"",20769,3111.6,2771,17657.4,340.6,""oops"",""down"",""down"",""good_move"",23657.2,2888,2619.2,20769.2,268.8,""smooth"",""right"",""right"",""good_move""]","",""
"2068","","<div style=""width:500px;"">
  <p>What determined the result of this run?</p>
  </div>","0","html-slider-response","79","1062899","0.0-10.0-1.8","67","1","2025-07-02 10:18:59","80fe4187154257d5fb01684ea91b68b9","46.205.205.231","Mozilla/5.0 (Windows NT 10.0; Win64; x64) AppleWebKit/537.36 (KHTML, like Gecko) Chrome/137.0.0.0 Safari/537.36","WebKit","Chrome","137.0.0.0","Windows","10.0","https://app.prolific.com/","pl-PL,pl;q=0.9,en-US;q=0.8,en;q=0.7","66699d98d268f725f96b8f4c","683db6dfa200031b80f2a654","68650772752d57764183afa4","66699d98d268f725f96b8f4c","2025-07-02T10:36:43.294Z","","","","","","AttribQ","","","","","","","","","","","","","","","","","","","","","","","","","","","","","","","","","","","","","","50"
"3371","","<div style=""width:500px;"">
  <p>How much control did you have over the ball?</p>
  </div>","18","html-slider-response","80","1066271","0.0-10.0-2.8","67","1","2025-07-02 10:18:59","80fe4187154257d5fb01684ea91b68b9","46.205.205.231","Mozilla/5.0 (Windows NT 10.0; Win64; x64) AppleWebKit/537.36 (KHTML, like Gecko) Chrome/137.0.0.0 Safari/537.36","WebKit","Chrome","137.0.0.0","Windows","10.0","https://app.prolific.com/","pl-PL,pl;q=0.9,en-US;q=0.8,en;q=0.7","66699d98d268f725f96b8f4c","683db6dfa200031b80f2a654","68650772752d57764183afa4","66699d98d268f725f96b8f4c","2025-07-02T10:36:46.666Z","","","","","","ControlQ","","","","","","","","","","","","","","","","","","","","","","","","","","","","","","","","","","","","","","50"
"2178","","<div style=""width:500px;"">
  <p>How would you describe your current emotional state?</p>
  </div>","76","html-slider-response","81","1068449","0.0-10.0-3.8","67","1","2025-07-02 10:18:59","80fe4187154257d5fb01684ea91b68b9","46.205.205.231","Mozilla/5.0 (Windows NT 10.0; Win64; x64) AppleWebKit/537.36 (KHTML, like Gecko) Chrome/137.0.0.0 Safari/537.36","WebKit","Chrome","137.0.0.0","Windows","10.0","https://app.prolific.com/","pl-PL,pl;q=0.9,en-US;q=0.8,en;q=0.7","66699d98d268f725f96b8f4c","683db6dfa200031b80f2a654","68650772752d57764183afa4","66699d98d268f725f96b8f4c","2025-07-02T10:36:48.845Z","","","","","","StressQ","","","","","","","","","","","","","","","","","","","","","","","","","","","","","","","","","","","","","","50"
"2361","","<div style=""width:500px;"">
  <p>What best describes how you currently feel?</p>
  </div>","90","html-slider-response","82","1070811","0.0-10.0-4.8","67","1","2025-07-02 10:18:59","80fe4187154257d5fb01684ea91b68b9","46.205.205.231","Mozilla/5.0 (Windows NT 10.0; Win64; x64) AppleWebKit/537.36 (KHTML, like Gecko) Chrome/137.0.0.0 Safari/537.36","WebKit","Chrome","137.0.0.0","Windows","10.0","https://app.prolific.com/","pl-PL,pl;q=0.9,en-US;q=0.8,en;q=0.7","66699d98d268f725f96b8f4c","683db6dfa200031b80f2a654","68650772752d57764183afa4","66699d98d268f725f96b8f4c","2025-07-02T10:36:51.206Z","","","","","","MotivationQ","","","","","","","","","","","","","","","","","","","","","","","","","","","","","","","","","","","","","","50"
"","","","","ctl-task-cpt","83","1101548","0.0-10.0-0.9","67","1","2025-07-02 10:18:59","80fe4187154257d5fb01684ea91b68b9","46.205.205.231","Mozilla/5.0 (Windows NT 10.0; Win64; x64) AppleWebKit/537.36 (KHTML, like Gecko) Chrome/137.0.0.0 Safari/537.36","WebKit","Chrome","137.0.0.0","Windows","10.0","https://app.prolific.com/","pl-PL,pl;q=0.9,en-US;q=0.8,en;q=0.7","66699d98d268f725f96b8f4c","683db6dfa200031b80f2a654","68650772752d57764183afa4","66699d98d268f725f96b8f4c","2025-07-02T10:37:21.944Z","","","","","","","","","","","","","","","","win-only","3","g1:SW,g2:NE","0.5","10","0","1071824.7","817.6","5820.5","27720.4","1","4","4","6","2","4","3","6","3","0.045454545454545456","1749.4","3000","360","[""up"",""right""]","{""num_key_presses"":8,""num_perfect"":3,""num_errors"":1,""num_randdir"":4,""num_randdir_good_moves"":3,""num_whilered"":0,""num_whileblue"":1,""num_blue"":1,""num_good_moves"":7}","[276.7142857142857,278.6205357142857,0.1,276.7142857142857,278.6205357142857,102.6,277.7142857142857,277.6205357142857,202.6,277.7142857142857,277.6205357142857,307.9,274.7142857142857,277.6205357142857,409,208.71428571428572,329.6205357142857,513,174.71428571428572,378.6205357142857,617.9,116.71428571428572,446.6205357142857,722.9,129.71428571428572,439.6205357142857,828,374.7142857142857,227.62053571428572,928.8,421.7142857142857,175.62053571428572,1028.9,99.71428571428572,376.6205357142857,1133.1,28.714285714285715,445.6205357142857,1233.4,67.71428571428572,427.6205357142857,1338.4,444.7142857142857,116.62053571428572,1442.9,460.7142857142857,92.62053571428572,1547.9,468.7142857142857,75.62053571428572,1648.7,485.7142857142857,54.620535714285715,1760.2,485.7142857142857,54.620535714285715,1863.1,483.7142857142857,70.62053571428572,1963.5,484.7142857142857,117.62053571428572,2068.1,484.7142857142857,118.62053571428572,2173.3,484.7142857142857,118.62053571428572,2278.5,484.7142857142857,118.62053571428572,2383.4,484.7142857142857,118.62053571428572,2488,484.7142857142857,118.62053571428572,2592.9,484.7142857142857,118.62053571428572,2698,484.7142857142857,118.62053571428572,2799.1,484.7142857142857,118.62053571428572,2903.4,484.7142857142857,118.62053571428572,3007.9,484.7142857142857,118.62053571428572,3112.8,484.7142857142857,118.62053571428572,3212.8,484.7142857142857,118.62053571428572,3312.9,484.7142857142857,118.62053571428572,3413.3,484.7142857142857,118.62053571428572,3518,484.7142857142857,118.62053571428572,3618.7,484.7142857142857,118.62053571428572,3722.6,484.7142857142857,118.62053571428572,3822.9,484.7142857142857,118.62053571428572,3927.7,484.7142857142857,118.62053571428572,4027.7,484.7142857142857,118.62053571428572,4127.9,484.7142857142857,118.62053571428572,4232.8,484.7142857142857,118.62053571428572,4333.2,484.7142857142857,118.62053571428572,4437.9,484.7142857142857,118.62053571428572,4543.5,484.7142857142857,118.62053571428572,4648,484.7142857142857,118.62053571428572,4753.1,484.7142857142857,118.62053571428572,4853.5,484.7142857142857,118.62053571428572,4957.7]","[1422.5,1422.5,1000,0,422.5,""oops"",""right"",""right"",""good_move"",4622.3,3199.5,2798.5,1422.8,401,""oops"",""right"",""right"",""good_move"",7752.5,3130,2816.4,4622.5,313.6,""smooth"",""right"",""right"",""good_move"",10710.3,2957.7,2560.7,7752.6,397,""oops"",""up"",""left"",""bad_move"",13054.3,2343.7,1984,10710.6,359.7,""while_blue"",""up"",""up"",""good_move"",16254.2,3199.6,2807.4,13054.6,392.2,""smooth"",""up"",""up"",""good_move"",19334.4,3080,2711.1,16254.4,368.9,""oops"",""up"",""up"",""good_move"",21806.4,2471.9,2089.1,19334.5,382.8,""smooth"",""right"",""right"",""good_move""]","",""
"3086","","<div style=""width:500px;"">
  <p>What determined the result of this run?</p>
