"rt","response_timestamp","stimulus","response","trial_type","trial_index","time_elapsed","internal_node_id","run_id","condition","recorded_at","source_code_version","ip","user_agent","device","browser","browser_version","platform","platform_version","referer","accept_language","PROLIFIC_PID","STUDY_ID","SESSION_ID","prolific_id","realtime","view_history","question_order","consent","success","question_id","eventType","responses","item_order","radio_event_ids","radio_event_times","key_event_times","mouse_event_times","straightlining","zigzagging","honeypot","which_type","canvas_config","goals_layout","control_level","trial_number","tutorial_trial_number","trial_start_time","phase1_start_time","phase2_start_time","phase3_start_time","goal_1_value","goal_1_distance","goal_2_value","goal_2_distance","goal_selected","outcome","outcome_total","participant_final_score","participant_initial_score","participant_final_score_prop","goal_choice_rt","allocated_time","allocated_time_remaining","goal_direction","counts","mouse_movements","key_presses","correct","slider_start"
"4835","1751451852023","<p style='font-size:40px;line-height:1.25'><strong>Welcome to the experiment!</strong></p><p style='font-size:1.1em;line-height:1.25'>Thank you for your interest in our experiment! Before you begin, it is important that we obtain your informed consent to participate in the study.</p><p style='font-size:1.1em;line-height:1.25'>On the next screen will be an <strong>information sheet</strong> for you to read. To participate in the study we need you to read this information sheet and the following consent form carefully. If you agree with all the statements, please click the <strong>I agree</strong> button.</p><p style='font-size:1.1em;line-height:1.25'>Press <strong>Next</strong> to read the information sheet.</p>","0","custom-html-button-response","0","4844","0.0-0.0","181","1","2025-07-02 10:24:09","80fe4187154257d5fb01684ea91b68b9","189.216.169.4","Mozilla/5.0 (Windows NT 10.0; Win64; x64; rv:139.0) Gecko/20100101 Firefox/139.0","","Firefox","139.0","Windows","10.0","https://app.prolific.com/","en-US,en;q=0.5","6672fea3fe6378e257b6ef25","683db6dfa200031b80f2a654","6865077a23a5fefa3c3a45db","6672fea3fe6378e257b6ef25","2025-07-02T10:24:12.023Z","","","","","","","","","","","","","","","","","","","","","","","","","","","","","","","","","","","","","","","","","","","",""
"45776","","","","instructions","1","50622","0.0-1.0","181","1","2025-07-02 10:24:09","80fe4187154257d5fb01684ea91b68b9","189.216.169.4","Mozilla/5.0 (Windows NT 10.0; Win64; x64; rv:139.0) Gecko/20100101 Firefox/139.0","","Firefox","139.0","Windows","10.0","https://app.prolific.com/","en-US,en;q=0.5","6672fea3fe6378e257b6ef25","683db6dfa200031b80f2a654","6865077a23a5fefa3c3a45db","6672fea3fe6378e257b6ef25","","[{""page_index"":0,""viewing_time"":36002},{""page_index"":1,""viewing_time"":9774}]","","","","","","","","","","","","","","","","","","","","","","","","","","","","","","","","","","","","","","","","","","",""
"10209","","","{""Q0"":"""",""Q1"":"""",""Q2"":"""",""Q3"":"""",""Q4"":"""",""Q5"":"""",""Q6"":""I agree""}","survey-multi-choice","2","60834","0.0-2.0","181","1","2025-07-02 10:24:09","80fe4187154257d5fb01684ea91b68b9","189.216.169.4","Mozilla/5.0 (Windows NT 10.0; Win64; x64; rv:139.0) Gecko/20100101 Firefox/139.0","","Firefox","139.0","Windows","10.0","https://app.prolific.com/","en-US,en;q=0.5","6672fea3fe6378e257b6ef25","683db6dfa200031b80f2a654","6865077a23a5fefa3c3a45db","6672fea3fe6378e257b6ef25","","","[0,1,2,3,4,5,6]","true","","","","","","","","","","","","","","","","","","","","","","","","","","","","","","","","","","","","","","","","",""
"33730","","","","fullscreen","3","95580","0.0-4.0","181","1","2025-07-02 10:24:09","80fe4187154257d5fb01684ea91b68b9","189.216.169.4","Mozilla/5.0 (Windows NT 10.0; Win64; x64; rv:139.0) Gecko/20100101 Firefox/139.0","","Firefox","139.0","Windows","10.0","https://app.prolific.com/","en-US,en;q=0.5","6672fea3fe6378e257b6ef25","683db6dfa200031b80f2a654","6865077a23a5fefa3c3a45db","6672fea3fe6378e257b6ef25","","","","","true","","","","","","","","","","","","","","","","","","","","","","","","","","","","","","","","","","","","","","","",""
"3966","1751451946728"," <p style='font-size:1.1em;line-height:1.25'>Thank you for completing the consent form and closing all other tabs.</p><p style='font-size:1.1em;line-height:1.25'>We will now invite you to fill in some demographic information and questionnaires, before starting the game.<br>This will take about 5 minutes.<br></p><p style='font-size:1.1em;line-height:1.25'>Press the <strong>Next</strong> button to continue.</p>","0","custom-html-button-response","4","99549","0.0-5.0","181","1","2025-07-02 10:24:09","80fe4187154257d5fb01684ea91b68b9","189.216.169.4","Mozilla/5.0 (Windows NT 10.0; Win64; x64; rv:139.0) Gecko/20100101 Firefox/139.0","","Firefox","139.0","Windows","10.0","https://app.prolific.com/","en-US,en;q=0.5","6672fea3fe6378e257b6ef25","683db6dfa200031b80f2a654","6865077a23a5fefa3c3a45db","6672fea3fe6378e257b6ef25","2025-07-02T10:25:46.728Z","","","","","","","","","","","","","","","","","","","","","","","","","","","","","","","","","","","","","","","","","","","",""
"3209","","","{""age"":""31""}","survey-text","5","102798","0.0-6.0-0.0","181","1","2025-07-02 10:24:09","80fe4187154257d5fb01684ea91b68b9","189.216.169.4","Mozilla/5.0 (Windows NT 10.0; Win64; x64; rv:139.0) Gecko/20100101 Firefox/139.0","","Firefox","139.0","Windows","10.0","https://app.prolific.com/","en-US,en;q=0.5","6672fea3fe6378e257b6ef25","683db6dfa200031b80f2a654","6865077a23a5fefa3c3a45db","6672fea3fe6378e257b6ef25","","","","","","0","demographics","","","","","","","","","","","","","","","","","","","","","","","","","","","","","","","","","","","","","",""
"2393","","","{""gender_identity"":""male/man""}","survey-multi-choice","6","105192","0.0-6.0-1.0","181","1","2025-07-02 10:24:09","80fe4187154257d5fb01684ea91b68b9","189.216.169.4","Mozilla/5.0 (Windows NT 10.0; Win64; x64; rv:139.0) Gecko/20100101 Firefox/139.0","","Firefox","139.0","Windows","10.0","https://app.prolific.com/","en-US,en;q=0.5","6672fea3fe6378e257b6ef25","683db6dfa200031b80f2a654","6865077a23a5fefa3c3a45db","6672fea3fe6378e257b6ef25","","","[0]","","","1","demographics","","","","","","","","","","","","","","","","","","","","","","","","","","","","","","","","","","","","","",""
"2447","","","{""assigned_sex"":""male""}","survey-multi-choice","7","107641","0.0-6.0-2.0","181","1","2025-07-02 10:24:09","80fe4187154257d5fb01684ea91b68b9","189.216.169.4","Mozilla/5.0 (Windows NT 10.0; Win64; x64; rv:139.0) Gecko/20100101 Firefox/139.0","","Firefox","139.0","Windows","10.0","https://app.prolific.com/","en-US,en;q=0.5","6672fea3fe6378e257b6ef25","683db6dfa200031b80f2a654","6865077a23a5fefa3c3a45db","6672fea3fe6378e257b6ef25","","","[0]","","","2","demographics","","","","","","","","","","","","","","","","","","","","","","","","","","","","","","","","","","","","","",""
"2340","","","{""menstrual_cycle"":""No""}","survey-multi-choice","8","109982","0.0-6.0-3.0","181","1","2025-07-02 10:24:09","80fe4187154257d5fb01684ea91b68b9","189.216.169.4","Mozilla/5.0 (Windows NT 10.0; Win64; x64; rv:139.0) Gecko/20100101 Firefox/139.0","","Firefox","139.0","Windows","10.0","https://app.prolific.com/","en-US,en;q=0.5","6672fea3fe6378e257b6ef25","683db6dfa200031b80f2a654","6865077a23a5fefa3c3a45db","6672fea3fe6378e257b6ef25","","","[0]","","","4","demographics","","","","","","","","","","","","","","","","","","","","","","","","","","","","","","","","","","","","","",""
"5678","","","{""education"":""Bachelor's Degree (e.g., BA)""}","survey-multi-choice","9","115661","0.0-6.0-4.0","181","1","2025-07-02 10:24:09","80fe4187154257d5fb01684ea91b68b9","189.216.169.4","Mozilla/5.0 (Windows NT 10.0; Win64; x64; rv:139.0) Gecko/20100101 Firefox/139.0","","Firefox","139.0","Windows","10.0","https://app.prolific.com/","en-US,en;q=0.5","6672fea3fe6378e257b6ef25","683db6dfa200031b80f2a654","6865077a23a5fefa3c3a45db","6672fea3fe6378e257b6ef25","","","[0]","","","5","demographics","","","","","","","","","","","","","","","","","","","","","","","","","","","","","","","","","","","","","",""
"14502","","","{""education"":""Higher National Diploma""}","survey-multi-choice","10","130164","0.0-6.0-5.0","181","1","2025-07-02 10:24:09","80fe4187154257d5fb01684ea91b68b9","189.216.169.4","Mozilla/5.0 (Windows NT 10.0; Win64; x64; rv:139.0) Gecko/20100101 Firefox/139.0","","Firefox","139.0","Windows","10.0","https://app.prolific.com/","en-US,en;q=0.5","6672fea3fe6378e257b6ef25","683db6dfa200031b80f2a654","6865077a23a5fefa3c3a45db","6672fea3fe6378e257b6ef25","2025-07-02T10:26:17.343Z","","[0]","","","6","demographics","","","","","","","","","","","","","","","","","","","","","","","","","","","","","","","","","","","","","",""
"73396","","","{""mental_health_condition"":""Depression"",""mental_health_treatment"":""I only go to therapy"",""psychiatric_medication"":""No medication""}","survey-text","11","203575","0.0-7.0-0.0","181","1","2025-07-02 10:24:09","80fe4187154257d5fb01684ea91b68b9","189.216.169.4","Mozilla/5.0 (Windows NT 10.0; Win64; x64; rv:139.0) Gecko/20100101 Firefox/139.0","","Firefox","139.0","Windows","10.0","https://app.prolific.com/","en-US,en;q=0.5","6672fea3fe6378e257b6ef25","683db6dfa200031b80f2a654","6865077a23a5fefa3c3a45db","6672fea3fe6378e257b6ef25","2025-07-02T10:27:30.754Z","","","","","1","mental_health","","","","","","","","","","","","","","","","","","","","","","","","","","","","","","","","","","","","","",""
"6410","","","{""depression_history"":[""Yes""]}","survey-multi-select","12","209988","0.0-7.0-1.0","181","1","2025-07-02 10:24:09","80fe4187154257d5fb01684ea91b68b9","189.216.169.4","Mozilla/5.0 (Windows NT 10.0; Win64; x64; rv:139.0) Gecko/20100101 Firefox/139.0","","Firefox","139.0","Windows","10.0","https://app.prolific.com/","en-US,en;q=0.5","6672fea3fe6378e257b6ef25","683db6dfa200031b80f2a654","6865077a23a5fefa3c3a45db","6672fea3fe6378e257b6ef25","","","[0]","","","","mental_health","","","","","","","","","","","","","","","","","","","","","","","","","","","","","","","","","","","","","",""
"8395","","","{""depression_episodes"":""more than 5"",""depression_recent"":""Currently experiencing an episode""}","survey-multi-choice","13","218385","0.0-7.0-2.0-0.0","181","1","2025-07-02 10:24:09","80fe4187154257d5fb01684ea91b68b9","189.216.169.4","Mozilla/5.0 (Windows NT 10.0; Win64; x64; rv:139.0) Gecko/20100101 Firefox/139.0","","Firefox","139.0","Windows","10.0","https://app.prolific.com/","en-US,en;q=0.5","6672fea3fe6378e257b6ef25","683db6dfa200031b80f2a654","6865077a23a5fefa3c3a45db","6672fea3fe6378e257b6ef25","2025-07-02T10:27:45.564Z","","[0,1]","","","3","mental_health","","","","","","","","","","","","","","","","","","","","","","","","","","","","","","","","","","","","","",""
"96420","","","","survey-template","14","314808","0.0-7.0-3.0","181","1","2025-07-02 10:24:09","80fe4187154257d5fb01684ea91b68b9","189.216.169.4","Mozilla/5.0 (Windows NT 10.0; Win64; x64; rv:139.0) Gecko/20100101 Firefox/139.0","","Firefox","139.0","Windows","10.0","https://app.prolific.com/","en-US,en;q=0.5","6672fea3fe6378e257b6ef25","683db6dfa200031b80f2a654","6865077a23a5fefa3c3a45db","6672fea3fe6378e257b6ef25","2025-07-02T10:29:21.987Z","","","","","","ius","{""Q01"":""3"",""Q02"":""3"",""Q03"":""3"",""Q04"":""4"",""Q05"":""2"",""Q06"":""2"",""Q07"":""3"",""Q08"":""0"",""Q09"":""3"",""Q10"":""2"",""Q11"":""2"",""Q12"":""2"",""Q13"":""1""}","[0,1,2,3,4,5,6,7,8,9,10,11,12]","[""Q02"",""Q01"",""Q03"",""Q04"",""Q05"",""Q05"",""Q06"",""Q07"",""Q08"",""Q09"",""Q10"",""Q11"",""Q12"",""Q13""]","[11061,11736,13849,18749,21030,21972,25745,28701,31066,37017,41963,86779,90420,95196]","[]","[6635,9107,11061,11736,13849,17432,18205,18749,21030,21972,25745,28701,31066,37017,39918,41963,86779,90420,95196,96420]","0.38461538461538464","0.3333333333333333","0","","","","","","","","","","","","","","","","","","","","","","","","","","","","",""
"7028","1751452169015","<p style='font-size:1.1em;line-height:1.25'>In the following, we will ask you a few questions relating to your experiences over the past month.<br></p><p style='font-size:1.1em;line-height:1.25'>Press the <strong>Next</strong> button to continue.</p>","0","custom-html-button-response","15","321837","0.0-7.0-4.0","181","1","2025-07-02 10:24:09","80fe4187154257d5fb01684ea91b68b9","189.216.169.4","Mozilla/5.0 (Windows NT 10.0; Win64; x64; rv:139.0) Gecko/20100101 Firefox/139.0","","Firefox","139.0","Windows","10.0","https://app.prolific.com/","en-US,en;q=0.5","6672fea3fe6378e257b6ef25","683db6dfa200031b80f2a654","6865077a23a5fefa3c3a45db","6672fea3fe6378e257b6ef25","2025-07-02T10:29:29.016Z","","","","","","","","","","","","","","","","","","","","","","","","","","","","","","","","","","","","","","","","","","","",""
"115618","","","","survey-template","16","437457","0.0-7.0-5.0","181","1","2025-07-02 10:24:09","80fe4187154257d5fb01684ea91b68b9","189.216.169.4","Mozilla/5.0 (Windows NT 10.0; Win64; x64; rv:139.0) Gecko/20100101 Firefox/139.0","","Firefox","139.0","Windows","10.0","https://app.prolific.com/","en-US,en;q=0.5","6672fea3fe6378e257b6ef25","683db6dfa200031b80f2a654","6865077a23a5fefa3c3a45db","6672fea3fe6378e257b6ef25","2025-07-02T10:31:24.636Z","","","","","","pss","{""Q01"":""4"",""Q02"":""3"",""Q03"":""4"",""Q04"":""3"",""Q05"":""2"",""Q06"":""2"",""Q07"":""3"",""Q08"":""3"",""Q09"":""4"",""Q10"":""2""}","[0,1,2,3,4,5,6,7,8,9]","[""Q01"",""Q02"",""Q04"",""Q04"",""Q04"",""Q05"",""Q06"",""Q07"",""Q07"",""Q08"",""Q09"",""Q10"",""Q03""]","[6615,10954,17912,18085,18116,22738,29178,34872,37096,40870,102404,107052,112667]","[]","[0,5462,6615,10954,13344,17912,18085,18116,22738,29178,33425,34872,37096,40870,102404,107052,107929,112667,115618]","0.3","0.4444444444444444","0","","","","","","","","","","","","","","","","","","","","","","","","","","","","",""
"3262","1751452287900","<p style='font-size:1.1em;line-height:1.25'>Thank you for your answers! Now we will ask you a few more questions relating to your feelings in the last 24 hours.<br></p><p style='font-size:1.1em;line-height:1.25'>Press the <strong>Next</strong> button to continue.</p>","0","custom-html-button-response","17","440722","0.0-7.0-6.0","181","1","2025-07-02 10:24:09","80fe4187154257d5fb01684ea91b68b9","189.216.169.4","Mozilla/5.0 (Windows NT 10.0; Win64; x64; rv:139.0) Gecko/20100101 Firefox/139.0","","Firefox","139.0","Windows","10.0","https://app.prolific.com/","en-US,en;q=0.5","6672fea3fe6378e257b6ef25","683db6dfa200031b80f2a654","6865077a23a5fefa3c3a45db","6672fea3fe6378e257b6ef25","2025-07-02T10:31:27.901Z","","","","","","","","","","","","","","","","","","","","","","","","","","","","","","","","","","","","","","","","","","","",""
"82157","","","","survey-template","18","522882","0.0-7.0-7.0","181","1","2025-07-02 10:24:09","80fe4187154257d5fb01684ea91b68b9","189.216.169.4","Mozilla/5.0 (Windows NT 10.0; Win64; x64; rv:139.0) Gecko/20100101 Firefox/139.0","","Firefox","139.0","Windows","10.0","https://app.prolific.com/","en-US,en;q=0.5","6672fea3fe6378e257b6ef25","683db6dfa200031b80f2a654","6865077a23a5fefa3c3a45db","6672fea3fe6378e257b6ef25","2025-07-02T10:32:50.061Z","","","","","","drsp","{""Q01"":""2"",""Q02"":""2"",""Q03"":""4"",""Q04"":""4"",""Q05"":""5"",""Q06"":""3"",""Q07"":""5"",""Q08"":""5"",""Q09"":""3"",""Q10"":""5"",""Q11"":""4"",""Q12"":""2"",""Q13"":""3"",""Q14"":""4"",""Q15"":""5"",""Q16"":""5"",""Q17"":""4"",""Q18"":""0"",""Q19"":""0"",""Q20"":""0"",""Q21"":""0""}","[0,1,2,3,4,5,6,7,8,9,10,11,12,13,14,15,16,17,18,19,20]","[""Q01"",""Q02"",""Q03"",""Q04"",""Q05"",""Q06"",""Q07"",""Q07"",""Q08"",""Q09"",""Q10"",""Q11"",""Q12"",""Q13"",""Q14"",""Q15"",""Q16"",""Q17"",""Q18"",""Q19"",""Q20"",""Q20"",""Q19"",""Q21"",""Q18"",""Q19"",""Q20"",""Q21""]","[3333,4748,7213,8715,10523,14385,18160,18183,19286,21395,23596,26589,29150,31424,33657,37014,38613,41125,50789,57370,62547,64617,65346,69316,78040,79522,80325,81092]","[]","[0,3333,4748,7213,8715,10523,14385,16173,18160,18183,19286,21395,23596,26589,29150,31424,33657,37014,38613,41125,50789,56122,57370,62547,64617,65346,69316,78040,78596,79522,80325,81092,82157]","0.2857142857142857","0.3","0","","","","","","","","","","","","","","","","","","","","","","","","","","","","",""
"15313","","","","survey-template","19","538195","0.0-7.0-8.0","181","1","2025-07-02 10:24:09","80fe4187154257d5fb01684ea91b68b9","189.216.169.4","Mozilla/5.0 (Windows NT 10.0; Win64; x64; rv:139.0) Gecko/20100101 Firefox/139.0","","Firefox","139.0","Windows","10.0","https://app.prolific.com/","en-US,en;q=0.5","6672fea3fe6378e257b6ef25","683db6dfa200031b80f2a654","6865077a23a5fefa3c3a45db","6672fea3fe6378e257b6ef25","2025-07-02T10:33:05.374Z","","","","","","stress","{""Q01"":""5"",""Q02"":""4"",""Q03"":""2""}","[0,1,2]","[""Q01"",""Q02"",""Q03""]","[5325,8996,14624]","[]","[5325,8996,14624,15313]","0.3333333333333333","0.5","0","","","","","","","","","","","","","","","","","","","","","","","","","","","","",""
"94113","","","","instructions","20","632309","0.0-8.0-0.0","181","1","2025-07-02 10:24:09","80fe4187154257d5fb01684ea91b68b9","189.216.169.4","Mozilla/5.0 (Windows NT 10.0; Win64; x64; rv:139.0) Gecko/20100101 Firefox/139.0","","Firefox","139.0","Windows","10.0","https://app.prolific.com/","en-US,en;q=0.5","6672fea3fe6378e257b6ef25","683db6dfa200031b80f2a654","6865077a23a5fefa3c3a45db","6672fea3fe6378e257b6ef25","","[{""page_index"":0,""viewing_time"":12324},{""page_index"":1,""viewing_time"":52678},{""page_index"":2,""viewing_time"":8222},{""page_index"":3,""viewing_time"":20888}]","","","","","","","","","","","","","","","","","","","","","","","","","","","","","","","","","","","","","","","","","","",""
"","","","","ctl-task-cpt","21","670572","0.0-8.0-1.0","181","1","2025-07-02 10:24:09","80fe4187154257d5fb01684ea91b68b9","189.216.169.4","Mozilla/5.0 (Windows NT 10.0; Win64; x64; rv:139.0) Gecko/20100101 Firefox/139.0","","Firefox","139.0","Windows","10.0","https://app.prolific.com/","en-US,en;q=0.5","6672fea3fe6378e257b6ef25","683db6dfa200031b80f2a654","6865077a23a5fefa3c3a45db","6672fea3fe6378e257b6ef25","","","","","","","","","","","","","","","","","win-only","2","g1:SE,g2:NW","1","0","1","634772","3042","7056","35259","2","4","4","6","2","4","1","1","0","0.007575757575757576","1911","4000","2500","[""left"",""up""]","{""num_key_presses"":8,""num_perfect"":5,""num_errors"":3,""num_randdir"":0,""num_randdir_good_moves"":0,""num_whilered"":0,""num_whileblue"":1,""num_blue"":2,""num_good_moves"":6}","[266.9428632463728,261.64286019461497,0,266.9428632463728,261.64286019461497,115,266.9428632463728,261.64286019461497,223,266.9428632463728,261.64286019461497,331,266.9428632463728,261.64286019461497,440,286.9428632463728,246.64286019461497,549,286.9428632463728,246.64286019461497,656,286.9428632463728,246.64286019461497,765,286.9428632463728,246.64286019461497,873,286.9428632463728,246.64286019461497,982,286.9428632463728,246.64286019461497,1090,286.9428632463728,246.64286019461497,1198,286.9428632463728,246.64286019461497,1306,286.9428632463728,246.64286019461497,1414,280.9428632463728,238.64286019461497,1523,83.94286324637277,26.642860194614954,1632,43.94286324637277,44.642860194614954,1740,36.94286324637277,46.642860194614954,1849,37.94286324637277,46.642860194614954,1957,37.94286324637277,46.642860194614954,2065,171.94286324637278,187.64286019461497,2174,276.9428632463728,245.64286019461497,2281,276.9428632463728,245.64286019461497,2390,276.9428632463728,245.64286019461497,2498,276.9428632463728,245.64286019461497,2607,276.9428632463728,245.64286019461497,2715,276.9428632463728,245.64286019461497,2824,276.9428632463728,245.64286019461497,2932,276.9428632463728,245.64286019461497,3040,276.9428632463728,245.64286019461497,3149,276.9428632463728,245.64286019461497,3256,276.9428632463728,245.64286019461497,3365,276.9428632463728,245.64286019461497,3472,276.9428632463728,245.64286019461497,3580,276.9428632463728,245.64286019461497,3689,276.9428632463728,245.64286019461497,3797,276.9428632463728,245.64286019461497,3905]","[280,280,1000,0,-720,""error"",""-"",""-"",""no_move"",4640,4360,2899.4,1296,444.6,""smooth"",""left"",""left"",""good_move"",4977,337,3106.8,4640,-2769.8,""error"",""-"",""-"",""no_move"",8599,3622,2274,5978,347,""while_blue"",""left"",""up"",""good_move"",15887,7287,3141.8,12269,476.2,""smooth"",""left"",""left"",""good_move"",19255,3367,2899.3,15888,467.7,""smooth"",""left"",""left"",""good_move"",24936,5681,2734.2,19255,2946.8,""smooth"",""up"",""up"",""good_move"",27925,2989,2375.4,24936,613.6,""smooth"",""up"",""up"",""good_move""]","",""
"14558","","","","instructions","22","685132","0.0-8.0-2.0","181","1","2025-07-02 10:24:09","80fe4187154257d5fb01684ea91b68b9","189.216.169.4","Mozilla/5.0 (Windows NT 10.0; Win64; x64; rv:139.0) Gecko/20100101 Firefox/139.0","","Firefox","139.0","Windows","10.0","https://app.prolific.com/","en-US,en;q=0.5","6672fea3fe6378e257b6ef25","683db6dfa200031b80f2a654","6865077a23a5fefa3c3a45db","6672fea3fe6378e257b6ef25","","[{""page_index"":0,""viewing_time"":14558}]","","","","","","","","","","","","","","","","","","","","","","","","","","","","","","","","","","","","","","","","","","",""
"","","","","ctl-task-cpt","23","758337","0.0-8.0-3.0","181","1","2025-07-02 10:24:09","80fe4187154257d5fb01684ea91b68b9","189.216.169.4","Mozilla/5.0 (Windows NT 10.0; Win64; x64; rv:139.0) Gecko/20100101 Firefox/139.0","","Firefox","139.0","Windows","10.0","https://app.prolific.com/","en-US,en;q=0.5","6672fea3fe6378e257b6ef25","683db6dfa200031b80f2a654","6865077a23a5fefa3c3a45db","6672fea3fe6378e257b6ef25","","","","","","","","","","","","","","","","","win-only","2","g1:SE,g2:NW","0.35","0","3","687593","1382","5388","70189","2","4","8","6","2","8","7","7","0","0.05303030303030303","1194","4000","2080","[""left"",""up""]","{""num_key_presses"":18,""num_perfect"":7,""num_errors"":1,""num_randdir"":10,""num_randdir_good_moves"":4,""num_whilered"":0,""num_whileblue"":1,""num_blue"":4,""num_good_moves"":12}","[260.9428632463728,259.64286019461497,0,260.9428632463728,259.64286019461497,108,260.9428632463728,259.64286019461497,217,260.9428632463728,259.64286019461497,325,257.9428632463728,249.64286019461497,433,14.942863246372767,20.642860194614954,542,-11.057136753627233,17.642860194614954,650,4.942863246372767,35.642860194614954,759,14.942863246372767,43.642860194614954,867,27.942863246372767,46.642860194614954,976,27.942863246372767,47.642860194614954,1084,27.942863246372767,47.642860194614954,1192,27.942863246372767,47.642860194614954,1301,27.942863246372767,47.642860194614954,1409,166.94286324637278,117.64286019461495,1517,540.9428632463728,206.64286019461497,1625,608.9428632463728,211.64286019461497,1733,637.9428632463728,207.64286019461497,1841,645.9428632463728,204.64286019461497,1949,645.9428632463728,204.64286019461497,2058,645.9428632463728,204.64286019461497,2166,645.9428632463728,204.64286019461497,2274,642.9428632463728,203.64286019461497,2382,596.9428632463728,193.64286019461497,2491,596.9428632463728,193.64286019461497,2599,596.9428632463728,193.64286019461497,2707,596.9428632463728,193.64286019461497,2816,596.9428632463728,193.64286019461497,2923,596.9428632463728,193.64286019461497,3032,596.9428632463728,193.64286019461497,3141,596.9428632463728,193.64286019461497,3249,596.9428632463728,193.64286019461497,3356,596.9428632463728,193.64286019461497,3465,596.9428632463728,193.64286019461497,3574,596.9428632463728,193.64286019461497,3682,596.9428632463728,193.64286019461497,3790,596.9428632463728,193.64286019461497,3899]","[1590,1590,1000,0,590,""smooth"",""up"",""up"",""good_move"",4791,3201,2818,1590,383,""smooth"",""left"",""left"",""good_move"",8180,3389,2927.5,4791,461.5,""smooth"",""up"",""up"",""good_move"",11179,2999,2507.2,8180,491.8,""smooth"",""left"",""left"",""good_move"",14178,2999,2655.5,11179,343.5,""oops"",""up"",""up"",""good_move"",17549,3371,3047.3,14178,323.7,""oops"",""left"",""right"",""bad_move"",20429,2880,2515.6,17549,364.4,""oops"",""left"",""right"",""bad_move"",22961,2532,2152.2,20429,379.8,""oops"",""left"",""right"",""bad_move"",25882,2921,2594.8,22961,326.2,""oops"",""right"",""left"",""good_move"",28788,2906,2092.2,25882,813.8,""oops"",""right"",""left"",""good_move"",31688,2900,1991.4,28788,908.6,""oops"",""right"",""right"",""bad_move"",34538,2850,2576.7,31688,273.3,""smooth"",""left"",""left"",""good_move"",37467,2929,2494.9,34538,434.1,""oops"",""left"",""left"",""good_move"",40947,3480,3162.2,37467,317.8,""oops"",""left"",""down"",""bad_move"",43548,2600,2221.8,40948,378.2,""oops"",""up"",""right"",""bad_move"",50096,6548,2653.8,47073,369.2,""smooth"",""left"",""left"",""good_move"",53016,2920,2623,50096,297,""while_blue"",""up"",""left"",""good_move"",64526,11510,3003.9,61101,421.1,""smooth"",""up"",""up"",""good_move""]","",""
"39935","","","","instructions","24","798273","0.0-8.0-4.0","181","1","2025-07-02 10:24:09","80fe4187154257d5fb01684ea91b68b9","189.216.169.4","Mozilla/5.0 (Windows NT 10.0; Win64; x64; rv:139.0) Gecko/20100101 Firefox/139.0","","Firefox","139.0","Windows","10.0","https://app.prolific.com/","en-US,en;q=0.5","6672fea3fe6378e257b6ef25","683db6dfa200031b80f2a654","6865077a23a5fefa3c3a45db","6672fea3fe6378e257b6ef25","","[{""page_index"":0,""viewing_time"":11684},{""page_index"":1,""viewing_time"":28251}]","","","","","","","","","","","","","","","","","","","","","","","","","","","","","","","","","","","","","","","","","","",""
"16242","","","{""green_ball"":[""Ball sometimes shakes and moves in a random direction""]}","survey-multi-select","25","814517","0.0-8.0-5.0-0.0","181","1","2025-07-02 10:24:09","80fe4187154257d5fb01684ea91b68b9","189.216.169.4","Mozilla/5.0 (Windows NT 10.0; Win64; x64; rv:139.0) Gecko/20100101 Firefox/139.0","","Firefox","139.0","Windows","10.0","https://app.prolific.com/","en-US,en;q=0.5","6672fea3fe6378e257b6ef25","683db6dfa200031b80f2a654","6865077a23a5fefa3c3a45db","6672fea3fe6378e257b6ef25","","","[0]","","","","quiz","","","","","","","","","","","","","","","","","","","","","","","","","","","","","","","","","","","","","true",""
"2387","","<p align='center'><b>CORRECT!</b> Indeed, the green ball may sometimes shake and move in a random direction.</p>","0","html-button-response","26","816904","0.0-8.0-5.0-1.0","181","1","2025-07-02 10:24:09","80fe4187154257d5fb01684ea91b68b9","189.216.169.4","Mozilla/5.0 (Windows NT 10.0; Win64; x64; rv:139.0) Gecko/20100101 Firefox/139.0","","Firefox","139.0","Windows","10.0","https://app.prolific.com/","en-US,en;q=0.5","6672fea3fe6378e257b6ef25","683db6dfa200031b80f2a654","6865077a23a5fefa3c3a45db","6672fea3fe6378e257b6ef25","","","","","","","","","","","","","","","","","","","","","","","","","","","","","","","","","","","","","","","","","","","","",""
"5492","","","{""yellow_ball"":[""Ball doesn‘t move and I get -1 penalty point""]}","survey-multi-select","27","822397","0.0-8.0-6.0-0.0","181","1","2025-07-02 10:24:09","80fe4187154257d5fb01684ea91b68b9","189.216.169.4","Mozilla/5.0 (Windows NT 10.0; Win64; x64; rv:139.0) Gecko/20100101 Firefox/139.0","","Firefox","139.0","Windows","10.0","https://app.prolific.com/","en-US,en;q=0.5","6672fea3fe6378e257b6ef25","683db6dfa200031b80f2a654","6865077a23a5fefa3c3a45db","6672fea3fe6378e257b6ef25","","","[0]","","","","quiz","","","","","","","","","","","","","","","","","","","","","","","","","","","","","","","","","","","","","true",""
"2250","","<p align='center'><b>CORRECT!</b> Indeed, the yellow ball never moves and you receive a penalty.</p>","0","html-button-response","28","824649","0.0-8.0-6.0-1.0","181","1","2025-07-02 10:24:09","80fe4187154257d5fb01684ea91b68b9","189.216.169.4","Mozilla/5.0 (Windows NT 10.0; Win64; x64; rv:139.0) Gecko/20100101 Firefox/139.0","","Firefox","139.0","Windows","10.0","https://app.prolific.com/","en-US,en;q=0.5","6672fea3fe6378e257b6ef25","683db6dfa200031b80f2a654","6865077a23a5fefa3c3a45db","6672fea3fe6378e257b6ef25","","","","","","","","","","","","","","","","","","","","","","","","","","","","","","","","","","","","","","","","","","","","",""
"15726","","","{""blue_ball"":[""Ball always shakes and moves in a random direction""]}","survey-multi-select","29","840376","0.0-8.0-7.0-0.0","181","1","2025-07-02 10:24:09","80fe4187154257d5fb01684ea91b68b9","189.216.169.4","Mozilla/5.0 (Windows NT 10.0; Win64; x64; rv:139.0) Gecko/20100101 Firefox/139.0","","Firefox","139.0","Windows","10.0","https://app.prolific.com/","en-US,en;q=0.5","6672fea3fe6378e257b6ef25","683db6dfa200031b80f2a654","6865077a23a5fefa3c3a45db","6672fea3fe6378e257b6ef25","","","[0]","","","","quiz","","","","","","","","","","","","","","","","","","","","","","","","","","","","","","","","","","","","","true",""
"1877","","<p align='center'><b>CORRECT!</b> Indeed, the blue ball always shakes and moves in a random direction. Also there is a penalty of -1 point.</p>","0","html-button-response","30","842255","0.0-8.0-7.0-1.0","181","1","2025-07-02 10:24:09","80fe4187154257d5fb01684ea91b68b9","189.216.169.4","Mozilla/5.0 (Windows NT 10.0; Win64; x64; rv:139.0) Gecko/20100101 Firefox/139.0","","Firefox","139.0","Windows","10.0","https://app.prolific.com/","en-US,en;q=0.5","6672fea3fe6378e257b6ef25","683db6dfa200031b80f2a654","6865077a23a5fefa3c3a45db","6672fea3fe6378e257b6ef25","","","","","","","","","","","","","","","","","","","","","","","","","","","","","","","","","","","","","","","","","","","","",""
"4244","","","{""bonus"":[""When I reach 50% of points""]}","survey-multi-select","31","846500","0.0-8.0-8.0-0.0","181","1","2025-07-02 10:24:09","80fe4187154257d5fb01684ea91b68b9","189.216.169.4","Mozilla/5.0 (Windows NT 10.0; Win64; x64; rv:139.0) Gecko/20100101 Firefox/139.0","","Firefox","139.0","Windows","10.0","https://app.prolific.com/","en-US,en;q=0.5","6672fea3fe6378e257b6ef25","683db6dfa200031b80f2a654","6865077a23a5fefa3c3a45db","6672fea3fe6378e257b6ef25","","","[0]","","","","quiz","","","","","","","","","","","","","","","","","","","","","","","","","","","","","","","","","","","","","true",""
"1759","","<p align='center'><b>CORRECT!</b> Indeed, you receive 2 pounds extra when you reach 50% of points.</p>","0","html-button-response","32","848261","0.0-8.0-8.0-1.0","181","1","2025-07-02 10:24:09","80fe4187154257d5fb01684ea91b68b9","189.216.169.4","Mozilla/5.0 (Windows NT 10.0; Win64; x64; rv:139.0) Gecko/20100101 Firefox/139.0","","Firefox","139.0","Windows","10.0","https://app.prolific.com/","en-US,en;q=0.5","6672fea3fe6378e257b6ef25","683db6dfa200031b80f2a654","6865077a23a5fefa3c3a45db","6672fea3fe6378e257b6ef25","","","","","","","","","","","","","","","","","","","","","","","","","","","","","","","","","","","","","","","","","","","","",""
"3970","","","","instructions","33","852231","0.0-8.0-9.0","181","1","2025-07-02 10:24:09","80fe4187154257d5fb01684ea91b68b9","189.216.169.4","Mozilla/5.0 (Windows NT 10.0; Win64; x64; rv:139.0) Gecko/20100101 Firefox/139.0","","Firefox","139.0","Windows","10.0","https://app.prolific.com/","en-US,en;q=0.5","6672fea3fe6378e257b6ef25","683db6dfa200031b80f2a654","6865077a23a5fefa3c3a45db","6672fea3fe6378e257b6ef25","","[{""page_index"":0,""viewing_time"":3969}]","","","","","","","","","","","","","","","","","","","","","","","","","","","","","","","","","","","","","","","","","","",""
"10351","","<p>Before you start with this game please answer the following three questions yourself. </p>
  <p>Through this game, we measure several aspects of your cognitive performance, such as reaction times, multi-tasking capabilities </p>
  <p>and the ability to assess the situation you are in.</p>
  <p></p>
  <p><b>How good do you usually are in such tasks?</b></p>","29","html-slider-response","34","862584","0.0-9.0-0.0","181","1","2025-07-02 10:24:09","80fe4187154257d5fb01684ea91b68b9","189.216.169.4","Mozilla/5.0 (Windows NT 10.0; Win64; x64; rv:139.0) Gecko/20100101 Firefox/139.0","","Firefox","139.0","Windows","10.0","https://app.prolific.com/","en-US,en;q=0.5","6672fea3fe6378e257b6ef25","683db6dfa200031b80f2a654","6865077a23a5fefa3c3a45db","6672fea3fe6378e257b6ef25","2025-07-02T10:38:29.763Z","","","","","","PreSkillQ","","","","","","","","","","","","","","","","","","","","","","","","","","","","","","","","","","","","","","50"
"6244","","<div style=""width:500px;"">
  <p>How well do you think you will perform in this task compared to other participants?</p>
  </div>","58","html-slider-response","35","868830","0.0-9.0-1.0","181","1","2025-07-02 10:24:09","80fe4187154257d5fb01684ea91b68b9","189.216.169.4","Mozilla/5.0 (Windows NT 10.0; Win64; x64; rv:139.0) Gecko/20100101 Firefox/139.0","","Firefox","139.0","Windows","10.0","https://app.prolific.com/","en-US,en;q=0.5","6672fea3fe6378e257b6ef25","683db6dfa200031b80f2a654","6865077a23a5fefa3c3a45db","6672fea3fe6378e257b6ef25","2025-07-02T10:38:36.009Z","","","","","","PrePerfQ","","","","","","","","","","","","","","","","","","","","","","","","","","","","","","","","","","","","","","50"
"3840","","<div style=""width:500px;"">
  <p>What best describes how you currently feel?</p>
  </div>","61","html-slider-response","36","872672","0.0-9.0-2.0","181","1","2025-07-02 10:24:09","80fe4187154257d5fb01684ea91b68b9","189.216.169.4","Mozilla/5.0 (Windows NT 10.0; Win64; x64; rv:139.0) Gecko/20100101 Firefox/139.0","","Firefox","139.0","Windows","10.0","https://app.prolific.com/","en-US,en;q=0.5","6672fea3fe6378e257b6ef25","683db6dfa200031b80f2a654","6865077a23a5fefa3c3a45db","6672fea3fe6378e257b6ef25","2025-07-02T10:38:39.851Z","","","","","","PreMotivationQ","","","","","","","","","","","","","","","","","","","","","","","","","","","","","","","","","","","","","","50"
"","","","","ctl-task-cpt","37","912064","0.0-10.0-0.0","181","1","2025-07-02 10:24:09","80fe4187154257d5fb01684ea91b68b9","189.216.169.4","Mozilla/5.0 (Windows NT 10.0; Win64; x64; rv:139.0) Gecko/20100101 Firefox/139.0","","Firefox","139.0","Windows","10.0","https://app.prolific.com/","en-US,en;q=0.5","6672fea3fe6378e257b6ef25","683db6dfa200031b80f2a654","6865077a23a5fefa3c3a45db","6672fea3fe6378e257b6ef25","2025-07-02T10:39:19.244Z","","","","","","","","","","","","","","","","win-only","3","g1:SW,g2:NE","1","1","0","875134","2376","7385","36389","1","4","4","6","2","4","4","4","0","0.030303030303030304","1380","3000","2220","[""up"",""right""]","{""num_key_presses"":6,""num_perfect"":6,""num_errors"":0,""num_randdir"":0,""num_randdir_good_moves"":0,""num_whilered"":0,""num_whileblue"":0,""num_blue"":3,""num_good_moves"":6}","[260.9428632463728,267.64286019461497,0,260.9428632463728,267.64286019461497,105,260.9428632463728,267.64286019461497,213,260.9428632463728,267.64286019461497,322,266.9428632463728,250.64286019461497,431,362.9428632463728,93.64286019461495,539,423.9428632463728,35.642860194614954,648,441.9428632463728,38.642860194614954,756,462.9428632463728,48.642860194614954,864,471.9428632463728,44.642860194614954,972,475.9428632463728,40.642860194614954,1080,475.9428632463728,40.642860194614954,1188,475.9428632463728,40.642860194614954,1297,475.9428632463728,40.642860194614954,1405,475.9428632463728,40.642860194614954,1513,474.9428632463728,43.642860194614954,1621,482.9428632463728,104.64286019461495,1729,535.9428632463728,177.64286019461497,1837,566.9428632463728,185.64286019461497,1945,575.9428632463728,185.64286019461497,2052,576.9428632463728,185.64286019461497,2160,576.9428632463728,185.64286019461497,2269,576.9428632463728,185.64286019461497,2377,576.9428632463728,185.64286019461497,2485,595.9428632463728,199.64286019461497,2593,601.9428632463728,199.64286019461497,2702,601.9428632463728,201.64286019461497,2809,599.9428632463728,218.64286019461497,2918,599.9428632463728,225.64286019461497,3026,597.9428632463728,210.64286019461497,3135,594.9428632463728,209.64286019461497,3243,592.9428632463728,207.64286019461497,3352,592.9428632463728,207.64286019461497,3460,592.9428632463728,207.64286019461497,3568,592.9428632463728,207.64286019461497,3677,592.9428632463728,207.64286019461497,3785,592.9428632463728,207.64286019461497,3894,592.9428632463728,207.64286019461497,4002,592.9428632463728,207.64286019461497,4111,592.9428632463728,207.64286019461497,4220,592.9428632463728,206.64286019461497,4327,592.9428632463728,206.64286019461497,4436,592.9428632463728,206.64286019461497,4544,592.9428632463728,206.64286019461497,4653,592.9428632463728,206.64286019461497,4761,592.9428632463728,206.64286019461497,4870,592.9428632463728,206.64286019461497,4978]","[1418,1418,1000,0,418,""smooth"",""right"",""right"",""good_move"",4538,3120,2680.3,1418,439.7,""smooth"",""right"",""right"",""good_move"",10917,6379,2327.7,8206,383.3,""smooth"",""up"",""up"",""good_move"",13957,3040,2214.2,10917,825.8,""smooth"",""up"",""up"",""good_move"",24688,10731,2855.7,21421,411.3,""smooth"",""up"",""up"",""good_move"",28729,4041,3605.7,24688,435.3,""smooth"",""right"",""right"",""good_move""]","",""
"4372","","<div style=""width:500px;"">
  <p>What determined the result of this run?</p>
  </div>","100","html-slider-response","38","916437","0.0-10.0-1.0","181","1","2025-07-02 10:24:09","80fe4187154257d5fb01684ea91b68b9","189.216.169.4","Mozilla/5.0 (Windows NT 10.0; Win64; x64; rv:139.0) Gecko/20100101 Firefox/139.0","","Firefox","139.0","Windows","10.0","https://app.prolific.com/","en-US,en;q=0.5","6672fea3fe6378e257b6ef25","683db6dfa200031b80f2a654","6865077a23a5fefa3c3a45db","6672fea3fe6378e257b6ef25","2025-07-02T10:39:23.616Z","","","","","","AttribQ","","","","","","","","","","","","","","","","","","","","","","","","","","","","","","","","","","","","","","50"
"4448","","<div style=""width:500px;"">
  <p>How much control did you have over the ball?</p>
  </div>","100","html-slider-response","39","920886","0.0-10.0-2.0","181","1","2025-07-02 10:24:09","80fe4187154257d5fb01684ea91b68b9","189.216.169.4","Mozilla/5.0 (Windows NT 10.0; Win64; x64; rv:139.0) Gecko/20100101 Firefox/139.0","","Firefox","139.0","Windows","10.0","https://app.prolific.com/","en-US,en;q=0.5","6672fea3fe6378e257b6ef25","683db6dfa200031b80f2a654","6865077a23a5fefa3c3a45db","6672fea3fe6378e257b6ef25","2025-07-02T10:39:28.065Z","","","","","","ControlQ","","","","","","","","","","","","","","","","","","","","","","","","","","","","","","","","","","","","","","50"
"3949","","<div style=""width:500px;"">
  <p>How would you describe your current emotional state?</p>
  </div>","59","html-slider-response","40","924836","0.0-10.0-3.0","181","1","2025-07-02 10:24:09","80fe4187154257d5fb01684ea91b68b9","189.216.169.4","Mozilla/5.0 (Windows NT 10.0; Win64; x64; rv:139.0) Gecko/20100101 Firefox/139.0","","Firefox","139.0","Windows","10.0","https://app.prolific.com/","en-US,en;q=0.5","6672fea3fe6378e257b6ef25","683db6dfa200031b80f2a654","6865077a23a5fefa3c3a45db","6672fea3fe6378e257b6ef25","2025-07-02T10:39:32.015Z","","","","","","StressQ","","","","","","","","","","","","","","","","","","","","","","","","","","","","","","","","","","","","","","50"
"6234","","<div style=""width:500px;"">
  <p>What best describes how you currently feel?</p>
  </div>","58","html-slider-response","41","931071","0.0-10.0-4.0","181","1","2025-07-02 10:24:09","80fe4187154257d5fb01684ea91b68b9","189.216.169.4","Mozilla/5.0 (Windows NT 10.0; Win64; x64; rv:139.0) Gecko/20100101 Firefox/139.0","","Firefox","139.0","Windows","10.0","https://app.prolific.com/","en-US,en;q=0.5","6672fea3fe6378e257b6ef25","683db6dfa200031b80f2a654","6865077a23a5fefa3c3a45db","6672fea3fe6378e257b6ef25","2025-07-02T10:39:38.250Z","","","","","","MotivationQ","","","","","","","","","","","","","","","","","","","","","","","","","","","","","","","","","","","","","","50"
"","","","","ctl-task-cpt","42","957704","0.0-10.0-0.1","181","1","2025-07-02 10:24:09","80fe4187154257d5fb01684ea91b68b9","189.216.169.4","Mozilla/5.0 (Windows NT 10.0; Win64; x64; rv:139.0) Gecko/20100101 Firefox/139.0","","Firefox","139.0","Windows","10.0","https://app.prolific.com/","en-US,en;q=0.5","6672fea3fe6378e257b6ef25","683db6dfa200031b80f2a654","6865077a23a5fefa3c3a45db","6672fea3fe6378e257b6ef25","2025-07-02T10:40:04.883Z","","","","","","","","","","","","","","","","win-only","1","g1:NE,g2:SW","0.9","2","0","933533","1483","6495","23630","1","4","8","6","2","8","8","12","4","0.09090909090909091","1268","3000","2200","[""down"",""left""]","{""num_key_presses"":6,""num_perfect"":5,""num_errors"":0,""num_randdir"":1,""num_randdir_good_moves"":1,""num_whilered"":0,""num_whileblue"":0,""num_blue"":0,""num_good_moves"":6}","[265.9428632463728,264.64286019461497,0,265.9428632463728,264.64286019461497,108,265.9428632463728,264.64286019461497,217,309.9428632463728,273.64286019461497,326,326.9428632463728,277.64286019461497,433,326.9428632463728,283.64286019461497,542,327.9428632463728,321.64286019461497,649,309.9428632463728,319.64286019461497,758,77.94286324637277,471.64286019461497,866,35.94286324637277,493.64286019461497,975,33.94286324637277,493.64286019461497,1084,33.94286324637277,489.64286019461497,1192,34.94286324637277,488.64286019461497,1300,34.94286324637277,488.64286019461497,1407,44.94286324637277,482.64286019461497,1516,223.94286324637278,386.64286019461497,1626,377.9428632463728,334.64286019461497,1734,416.9428632463728,333.64286019461497,1842,422.9428632463728,332.64286019461497,1949,422.9428632463728,332.64286019461497,2056,422.9428632463728,332.64286019461497,2165,422.9428632463728,332.64286019461497,2272,422.9428632463728,332.64286019461497,2381,422.9428632463728,332.64286019461497,2489,422.9428632463728,332.64286019461497,2598,422.9428632463728,332.64286019461497,2706,424.9428632463728,327.64286019461497,2815,425.9428632463728,324.64286019461497,2923,425.9428632463728,324.64286019461497,3031,425.9428632463728,324.64286019461497,3140,425.9428632463728,324.64286019461497,3248,425.9428632463728,324.64286019461497,3355,425.9428632463728,324.64286019461497,3464,425.9428632463728,324.64286019461497,3572,425.9428632463728,324.64286019461497,3681,425.9428632463728,324.64286019461497,3788,425.9428632463728,324.64286019461497,3897,425.9428632463728,324.64286019461497,4006,425.9428632463728,324.64286019461497,4114,425.9428632463728,324.64286019461497,4223,425.9428632463728,324.64286019461497,4331,425.9428632463728,324.64286019461497,4439,425.9428632463728,324.64286019461497,4548,425.9428632463728,324.64286019461497,4656,425.9428632463728,324.64286019461497,4765,425.9428632463728,324.64286019461497,4872,425.9428632463728,324.64286019461497,4981]","[1445,1445,1000,0,445,""smooth"",""down"",""down"",""good_move"",4944,3499,3036.9,1445,462.1,""smooth"",""left"",""left"",""good_move"",7943,2999,1918.8,4944,1080.2,""smooth"",""down"",""down"",""good_move"",10634,2691,2229.2,7943,461.8,""oops"",""left"",""left"",""good_move"",13656,3022,2349.5,10634,672.5,""smooth"",""down"",""down"",""good_move"",16845,3189,2801.2,13656,387.8,""smooth"",""left"",""left"",""good_move""]","",""
"5530","","<div style=""width:500px;"">
  <p>What determined the result of this run?</p>
  </div>","95","html-slider-response","43","963235","0.0-10.0-1.1","181","1","2025-07-02 10:24:09","80fe4187154257d5fb01684ea91b68b9","189.216.169.4","Mozilla/5.0 (Windows NT 10.0; Win64; x64; rv:139.0) Gecko/20100101 Firefox/139.0","","Firefox","139.0","Windows","10.0","https://app.prolific.com/","en-US,en;q=0.5","6672fea3fe6378e257b6ef25","683db6dfa200031b80f2a654","6865077a23a5fefa3c3a45db","6672fea3fe6378e257b6ef25","2025-07-02T10:40:10.414Z","","","","","","AttribQ","","","","","","","","","","","","","","","","","","","","","","","","","","","","","","","","","","","","","","50"
"4154","","<div style=""width:500px;"">
  <p>How much control did you have over the ball?</p>
  </div>","98","html-slider-response","44","967389","0.0-10.0-2.1","181","1","2025-07-02 10:24:09","80fe4187154257d5fb01684ea91b68b9","189.216.169.4","Mozilla/5.0 (Windows NT 10.0; Win64; x64; rv:139.0) Gecko/20100101 Firefox/139.0","","Firefox","139.0","Windows","10.0","https://app.prolific.com/","en-US,en;q=0.5","6672fea3fe6378e257b6ef25","683db6dfa200031b80f2a654","6865077a23a5fefa3c3a45db","6672fea3fe6378e257b6ef25","2025-07-02T10:40:14.568Z","","","","","","ControlQ","","","","","","","","","","","","","","","","","","","","","","","","","","","","","","","","","","","","","","50"
"4490","","<div style=""width:500px;"">
  <p>How would you describe your current emotional state?</p>
  </div>","58","html-slider-response","45","971881","0.0-10.0-3.1","181","1","2025-07-02 10:24:09","80fe4187154257d5fb01684ea91b68b9","189.216.169.4","Mozilla/5.0 (Windows NT 10.0; Win64; x64; rv:139.0) Gecko/20100101 Firefox/139.0","","Firefox","139.0","Windows","10.0","https://app.prolific.com/","en-US,en;q=0.5","6672fea3fe6378e257b6ef25","683db6dfa200031b80f2a654","6865077a23a5fefa3c3a45db","6672fea3fe6378e257b6ef25","2025-07-02T10:40:19.060Z","","","","","","StressQ","","","","","","","","","","","","","","","","","","","","","","","","","","","","","","","","","","","","","","50"
"3038","","<div style=""width:500px;"">
  <p>What best describes how you currently feel?</p>
  </div>","56","html-slider-response","46","974921","0.0-10.0-4.1","181","1","2025-07-02 10:24:09","80fe4187154257d5fb01684ea91b68b9","189.216.169.4","Mozilla/5.0 (Windows NT 10.0; Win64; x64; rv:139.0) Gecko/20100101 Firefox/139.0","","Firefox","139.0","Windows","10.0","https://app.prolific.com/","en-US,en;q=0.5","6672fea3fe6378e257b6ef25","683db6dfa200031b80f2a654","6865077a23a5fefa3c3a45db","6672fea3fe6378e257b6ef25","2025-07-02T10:40:22.100Z","","","","","","MotivationQ","","","","","","","","","","","","","","","","","","","","","","","","","","","","","","","","","","","","","","50"
"","","","","ctl-task-cpt","47","1000901","0.0-10.0-0.2","181","1","2025-07-02 10:24:09","80fe4187154257d5fb01684ea91b68b9","189.216.169.4","Mozilla/5.0 (Windows NT 10.0; Win64; x64; rv:139.0) Gecko/20100101 Firefox/139.0","","Firefox","139.0","Windows","10.0","https://app.prolific.com/","en-US,en;q=0.5","6672fea3fe6378e257b6ef25","683db6dfa200031b80f2a654","6865077a23a5fefa3c3a45db","6672fea3fe6378e257b6ef25","2025-07-02T10:40:48.080Z","","","","","","","","","","","","","","","","win-only","3","g1:SW,g2:NE","0.8","3","0","977382","2210","7217","22976","1","4","4","6","2","4","4","16","12","0.12121212121212122","1588","3000","2220","[""up"",""right""]","{""num_key_presses"":6,""num_perfect"":6,""num_errors"":0,""num_randdir"":0,""num_randdir_good_moves"":0,""num_whilered"":0,""num_whileblue"":0,""num_blue"":0,""num_good_moves"":6}","[263.9428632463728,258.64286019461497,0,263.9428632463728,258.64286019461497,107,263.9428632463728,258.64286019461497,215,263.9428632463728,258.64286019461497,325,263.9428632463728,258.64286019461497,432,289.9428632463728,253.64286019461497,540,302.9428632463728,285.64286019461497,647,303.9428632463728,323.64286019461497,755,382.9428632463728,205.64286019461497,863,489.9428632463728,58.642860194614954,972,499.9428632463728,46.642860194614954,1079,509.9428632463728,33.642860194614954,1187,481.9428632463728,48.642860194614954,1295,475.9428632463728,50.642860194614954,1403,475.9428632463728,50.642860194614954,1511,475.9428632463728,50.642860194614954,1620,475.9428632463728,50.642860194614954,1728,475.9428632463728,50.642860194614954,1836,479.9428632463728,65.64286019461495,1946,504.9428632463728,103.64286019461495,2053,504.9428632463728,103.64286019461495,2162,504.9428632463728,103.64286019461495,2270,504.9428632463728,103.64286019461495,2379,504.9428632463728,103.64286019461495,2487,525.9428632463728,146.64286019461497,2596,531.9428632463728,150.64286019461497,2704,531.9428632463728,150.64286019461497,2812,531.9428632463728,150.64286019461497,2920,531.9428632463728,150.64286019461497,3028,531.9428632463728,150.64286019461497,3136,531.9428632463728,150.64286019461497,3245,531.9428632463728,150.64286019461497,3354,531.9428632463728,150.64286019461497,3462,531.9428632463728,150.64286019461497,3571,531.9428632463728,150.64286019461497,3679,532.9428632463728,150.64286019461497,3787,532.9428632463728,150.64286019461497,3894,532.9428632463728,150.64286019461497,4003,532.9428632463728,150.64286019461497,4111,532.9428632463728,150.64286019461497,4219,532.9428632463728,150.64286019461497,4327,532.9428632463728,150.64286019461497,4436,532.9428632463728,150.64286019461497,4544,532.9428632463728,150.64286019461497,4652,532.9428632463728,150.64286019461497,4760,532.9428632463728,150.64286019461497,4869,532.9428632463728,150.64286019461497,4977]","[1483,1483,1000,0,483,""smooth"",""right"",""right"",""good_move"",4163,2679,2258.6,1484,420.4,""smooth"",""up"",""up"",""good_move"",7220,3057,2009.4,4163,1047.6,""smooth"",""up"",""up"",""good_move"",10230,3010,2371.1,7220,638.9,""smooth"",""right"",""right"",""good_move"",12529,2299,1854,10230,445,""smooth"",""up"",""up"",""good_move"",15479,2950,1849.2,12529,1100.8,""smooth"",""right"",""right"",""good_move""]","",""
"6910","","<div style=""width:500px;"">
  <p>What determined the result of this run?</p>
  </div>","100","html-slider-response","48","1007811","0.0-10.0-1.2","181","1","2025-07-02 10:24:09","80fe4187154257d5fb01684ea91b68b9","189.216.169.4","Mozilla/5.0 (Windows NT 10.0; Win64; x64; rv:139.0) Gecko/20100101 Firefox/139.0","","Firefox","139.0","Windows","10.0","https://app.prolific.com/","en-US,en;q=0.5","6672fea3fe6378e257b6ef25","683db6dfa200031b80f2a654","6865077a23a5fefa3c3a45db","6672fea3fe6378e257b6ef25","2025-07-02T10:40:54.990Z","","","","","","AttribQ","","","","","","","","","","","","","","","","","","","","","","","","","","","","","","","","","","","","","","50"
"2191","","<div style=""width:500px;"">
  <p>How much control did you have over the ball?</p>
  </div>","100","html-slider-response","49","1010004","0.0-10.0-2.2","181","1","2025-07-02 10:24:09","80fe4187154257d5fb01684ea91b68b9","189.216.169.4","Mozilla/5.0 (Windows NT 10.0; Win64; x64; rv:139.0) Gecko/20100101 Firefox/139.0","","Firefox","139.0","Windows","10.0","https://app.prolific.com/","en-US,en;q=0.5","6672fea3fe6378e257b6ef25","683db6dfa200031b80f2a654","6865077a23a5fefa3c3a45db","6672fea3fe6378e257b6ef25","2025-07-02T10:40:57.183Z","","","","","","ControlQ","","","","","","","","","","","","","","","","","","","","","","","","","","","","","","","","","","","","","","50"
"2974","","<div style=""width:500px;"">
  <p>How would you describe your current emotional state?</p>
  </div>","58","html-slider-response","50","1012978","0.0-10.0-3.2","181","1","2025-07-02 10:24:09","80fe4187154257d5fb01684ea91b68b9","189.216.169.4","Mozilla/5.0 (Windows NT 10.0; Win64; x64; rv:139.0) Gecko/20100101 Firefox/139.0","","Firefox","139.0","Windows","10.0","https://app.prolific.com/","en-US,en;q=0.5","6672fea3fe6378e257b6ef25","683db6dfa200031b80f2a654","6865077a23a5fefa3c3a45db","6672fea3fe6378e257b6ef25","2025-07-02T10:41:00.157Z","","","","","","StressQ","","","","","","","","","","","","","","","","","","","","","","","","","","","","","","","","","","","","","","50"
"2722","","<div style=""width:500px;"">
  <p>What best describes how you currently feel?</p>
  </div>","58","html-slider-response","51","1015702","0.0-10.0-4.2","181","1","2025-07-02 10:24:09","80fe4187154257d5fb01684ea91b68b9","189.216.169.4","Mozilla/5.0 (Windows NT 10.0; Win64; x64; rv:139.0) Gecko/20100101 Firefox/139.0","","Firefox","139.0","Windows","10.0","https://app.prolific.com/","en-US,en;q=0.5","6672fea3fe6378e257b6ef25","683db6dfa200031b80f2a654","6865077a23a5fefa3c3a45db","6672fea3fe6378e257b6ef25","2025-07-02T10:41:02.881Z","","","","","","MotivationQ","","","","","","","","","","","","","","","","","","","","","","","","","","","","","","","","","","","","","","50"
"","","","","ctl-task-cpt","52","1045510","0.0-10.0-0.3","181","1","2025-07-02 10:24:09","80fe4187154257d5fb01684ea91b68b9","189.216.169.4","Mozilla/5.0 (Windows NT 10.0; Win64; x64; rv:139.0) Gecko/20100101 Firefox/139.0","","Firefox","139.0","Windows","10.0","https://app.prolific.com/","en-US,en;q=0.5","6672fea3fe6378e257b6ef25","683db6dfa200031b80f2a654","6865077a23a5fefa3c3a45db","6672fea3fe6378e257b6ef25","2025-07-02T10:41:32.689Z","","","","","","","","","","","","","","","","win-only","0","g1:NW,g2:SE","0.7","4","0","1018164","1639","6652","26805","1","4","8","6","2","8","8","24","16","0.18181818181818182","1238","3000","2145","[""down"",""right""]","{""num_key_presses"":6,""num_perfect"":6,""num_errors"":0,""num_randdir"":0,""num_randdir_good_moves"":0,""num_whilered"":0,""num_whileblue"":0,""num_blue"":1,""num_good_moves"":6}","[262.9428632463728,259.64286019461497,0,262.9428632463728,259.64286019461497,109,262.9428632463728,259.64286019461497,216,262.9428632463728,259.64286019461497,325,262.9428632463728,259.64286019461497,433,262.9428632463728,259.64286019461497,542,262.9428632463728,259.64286019461497,649,262.9428632463728,259.64286019461497,759,361.9428632463728,362.64286019461497,866,494.9428632463728,457.64286019461497,974,510.9428632463728,483.64286019461497,1083,510.9428632463728,483.64286019461497,1191,510.9428632463728,483.64286019461497,1300,510.9428632463728,483.64286019461497,1408,515.9428632463728,451.64286019461497,1516,565.9428632463728,353.64286019461497,1625,610.9428632463728,352.64286019461497,1733,642.9428632463728,353.64286019461497,1842,642.9428632463728,353.64286019461497,1950,642.9428632463728,353.64286019461497,2060,642.9428632463728,353.64286019461497,2167,642.9428632463728,353.64286019461497,2275,642.9428632463728,353.64286019461497,2384,642.9428632463728,353.64286019461497,2492,642.9428632463728,353.64286019461497,2601,642.9428632463728,353.64286019461497,2710,642.9428632463728,353.64286019461497,2818,642.9428632463728,353.64286019461497,2926,642.9428632463728,353.64286019461497,3035,642.9428632463728,353.64286019461497,3143,642.9428632463728,353.64286019461497,3251,642.9428632463728,353.64286019461497,3360,642.9428632463728,353.64286019461497,3468,642.9428632463728,353.64286019461497,3576,642.9428632463728,353.64286019461497,3685,642.9428632463728,353.64286019461497,3791,642.9428632463728,353.64286019461497,3900,642.9428632463728,353.64286019461497,4008,642.9428632463728,353.64286019461497,4117,642.9428632463728,353.64286019461497,4225,642.9428632463728,353.64286019461497,4333,642.9428632463728,353.64286019461497,4441,642.9428632463728,353.64286019461497,4549,642.9428632463728,353.64286019461497,4657,642.9428632463728,353.64286019461497,4765,642.9428632463728,353.64286019461497,4874,642.9428632463728,353.64286019461497,4982]","[4504,4504,2062.5,2013,428.5,""smooth"",""down"",""down"",""good_move"",7280,2776,2297.6,4504,478.4,""smooth"",""right"",""right"",""good_move"",10290,3010,2578.6,7280,431.4,""smooth"",""right"",""right"",""good_move"",13822,3532,2975.8,10290,556.2,""smooth"",""down"",""down"",""good_move"",16878,3056,2651.8,13822,404.2,""smooth"",""down"",""down"",""good_move"",19862,2984,2553.8,16878,430.2,""smooth"",""right"",""right"",""good_move""]","",""
"2356","","<div style=""width:500px;"">
  <p>What determined the result of this run?</p>
  </div>","100","html-slider-response","53","1047868","0.0-10.0-1.3","181","1","2025-07-02 10:24:09","80fe4187154257d5fb01684ea91b68b9","189.216.169.4","Mozilla/5.0 (Windows NT 10.0; Win64; x64; rv:139.0) Gecko/20100101 Firefox/139.0","","Firefox","139.0","Windows","10.0","https://app.prolific.com/","en-US,en;q=0.5","6672fea3fe6378e257b6ef25","683db6dfa200031b80f2a654","6865077a23a5fefa3c3a45db","6672fea3fe6378e257b6ef25","2025-07-02T10:41:35.047Z","","","","","","AttribQ","","","","","","","","","","","","","","","","","","","","","","","","","","","","","","","","","","","","","","50"
"1791","","<div style=""width:500px;"">
  <p>How much control did you have over the ball?</p>
  </div>","100","html-slider-response","54","1049658","0.0-10.0-2.3","181","1","2025-07-02 10:24:09","80fe4187154257d5fb01684ea91b68b9","189.216.169.4","Mozilla/5.0 (Windows NT 10.0; Win64; x64; rv:139.0) Gecko/20100101 Firefox/139.0","","Firefox","139.0","Windows","10.0","https://app.prolific.com/","en-US,en;q=0.5","6672fea3fe6378e257b6ef25","683db6dfa200031b80f2a654","6865077a23a5fefa3c3a45db","6672fea3fe6378e257b6ef25","2025-07-02T10:41:36.838Z","","","","","","ControlQ","","","","","","","","","","","","","","","","","","","","","","","","","","","","","","","","","","","","","","50"
"5398","","<div style=""width:500px;"">
  <p>How would you describe your current emotional state?</p>
  </div>","59","html-slider-response","55","1055058","0.0-10.0-3.3","181","1","2025-07-02 10:24:09","80fe4187154257d5fb01684ea91b68b9","189.216.169.4","Mozilla/5.0 (Windows NT 10.0; Win64; x64; rv:139.0) Gecko/20100101 Firefox/139.0","","Firefox","139.0","Windows","10.0","https://app.prolific.com/","en-US,en;q=0.5","6672fea3fe6378e257b6ef25","683db6dfa200031b80f2a654","6865077a23a5fefa3c3a45db","6672fea3fe6378e257b6ef25","2025-07-02T10:41:42.237Z","","","","","","StressQ","","","","","","","","","","","","","","","","","","","","","","","","","","","","","","","","","","","","","","50"
"1749","","<div style=""width:500px;"">
  <p>What best describes how you currently feel?</p>
  </div>","59","html-slider-response","56","1056808","0.0-10.0-4.3","181","1","2025-07-02 10:24:09","80fe4187154257d5fb01684ea91b68b9","189.216.169.4","Mozilla/5.0 (Windows NT 10.0; Win64; x64; rv:139.0) Gecko/20100101 Firefox/139.0","","Firefox","139.0","Windows","10.0","https://app.prolific.com/","en-US,en;q=0.5","6672fea3fe6378e257b6ef25","683db6dfa200031b80f2a654","6865077a23a5fefa3c3a45db","6672fea3fe6378e257b6ef25","2025-07-02T10:41:43.987Z","","","","","","MotivationQ","","","","","","","","","","","","","","","","","","","","","","","","","","","","","","","","","","","","","","50"
"","","","","ctl-task-cpt","57","1098549","0.0-10.0-0.4","181","1","2025-07-02 10:24:09","80fe4187154257d5fb01684ea91b68b9","189.216.169.4","Mozilla/5.0 (Windows NT 10.0; Win64; x64; rv:139.0) Gecko/20100101 Firefox/139.0","","Firefox","139.0","Windows","10.0","https://app.prolific.com/","en-US,en;q=0.5","6672fea3fe6378e257b6ef25","683db6dfa200031b80f2a654","6865077a23a5fefa3c3a45db","6672fea3fe6378e257b6ef25","2025-07-02T10:42:25.728Z","","","","","","","","","","","","","","","","win-only","3","g1:SW,g2:NE","0.6","5","0","1059269","1633","6645","38726","1","4","4","6","2","4","4","28","24","0.21212121212121213","1024","3000","1930","[""up"",""right""]","{""num_key_presses"":8,""num_perfect"":6,""num_errors"":0,""num_randdir"":2,""num_randdir_good_moves"":1,""num_whilered"":0,""num_whileblue"":0,""num_blue"":3,""num_good_moves"":7}","[266.9428632463728,261.64286019461497,1,266.9428632463728,261.64286019461497,114,266.9428632463728,261.64286019461497,222,266.9428632463728,261.64286019461497,330,266.9428632463728,261.64286019461497,438,358.9428632463728,207.64286019461497,546,476.9428632463728,93.64286019461495,654,476.9428632463728,86.64286019461495,761,469.9428632463728,84.64286019461495,869,473.9428632463728,56.642860194614954,977,473.9428632463728,56.642860194614954,1086,473.9428632463728,56.642860194614954,1194,473.9428632463728,56.642860194614954,1302,473.9428632463728,56.642860194614954,1411,473.9428632463728,56.642860194614954,1519,473.9428632463728,56.642860194614954,1627,473.9428632463728,56.642860194614954,1735,473.9428632463728,56.642860194614954,1844,473.9428632463728,56.642860194614954,1952,473.9428632463728,56.642860194614954,2061,473.9428632463728,56.642860194614954,2169,473.9428632463728,56.642860194614954,2277,473.9428632463728,56.642860194614954,2386,473.9428632463728,56.642860194614954,2494,473.9428632463728,56.642860194614954,2602,473.9428632463728,56.642860194614954,2711,473.9428632463728,56.642860194614954,2819,473.9428632463728,56.642860194614954,2927,473.9428632463728,56.642860194614954,3036,473.9428632463728,56.642860194614954,3144,473.9428632463728,56.642860194614954,3251,473.9428632463728,56.642860194614954,3360,473.9428632463728,56.642860194614954,3467,473.9428632463728,56.642860194614954,3575,473.9428632463728,56.642860194614954,3683,473.9428632463728,56.642860194614954,3792,473.9428632463728,56.642860194614954,3900,473.9428632463728,56.642860194614954,4007,473.9428632463728,56.642860194614954,4116,473.9428632463728,56.642860194614954,4223,473.9428632463728,56.642860194614954,4332,473.9428632463728,56.642860194614954,4440,473.9428632463728,56.642860194614954,4547,473.9428632463728,56.642860194614954,4656,473.9428632463728,56.642860194614954,4765,473.9428632463728,56.642860194614954,4873,473.9428632463728,56.642860194614954,4981]","[1470,1470,1000,0,470,""oops"",""up"",""right"",""good_move"",4258,2788,2412.6,1470,375.4,""smooth"",""up"",""up"",""good_move"",7268,3010,2572.4,4258,437.6,""smooth"",""up"",""up"",""good_move"",10282,3014,2123.1,7268,890.9,""smooth"",""right"",""right"",""good_move"",12948,2666,2287.3,10282,378.7,""smooth"",""up"",""up"",""good_move"",20161,7213,2683.5,17088,389.5,""oops"",""right"",""down"",""bad_move"",23000,2839,2234.4,20161,604.6,""smooth"",""up"",""up"",""good_move"",31800,8799,1490.1,29902,407.9,""smooth"",""right"",""right"",""good_move""]","",""
"3363","","<div style=""width:500px;"">
  <p>What determined the result of this run?</p>
  </div>","88","html-slider-response","58","1101914","0.0-10.0-1.4","181","1","2025-07-02 10:24:09","80fe4187154257d5fb01684ea91b68b9","189.216.169.4","Mozilla/5.0 (Windows NT 10.0; Win64; x64; rv:139.0) Gecko/20100101 Firefox/139.0","","Firefox","139.0","Windows","10.0","https://app.prolific.com/","en-US,en;q=0.5","6672fea3fe6378e257b6ef25","683db6dfa200031b80f2a654","6865077a23a5fefa3c3a45db","6672fea3fe6378e257b6ef25","2025-07-02T10:42:29.093Z","","","","","","AttribQ","","","","","","","","","","","","","","","","","","","","","","","","","","","","","","","","","","","","","","50"
"5666","","<div style=""width:500px;"">
  <p>How much control did you have over the ball?</p>
  </div>","81","html-slider-response","59","1107582","0.0-10.0-2.4","181","1","2025-07-02 10:24:09","80fe4187154257d5fb01684ea91b68b9","189.216.169.4","Mozilla/5.0 (Windows NT 10.0; Win64; x64; rv:139.0) Gecko/20100101 Firefox/139.0","","Firefox","139.0","Windows","10.0","https://app.prolific.com/","en-US,en;q=0.5","6672fea3fe6378e257b6ef25","683db6dfa200031b80f2a654","6865077a23a5fefa3c3a45db","6672fea3fe6378e257b6ef25","2025-07-02T10:42:34.761Z","","","","","","ControlQ","","","","","","","","","","","","","","","","","","","","","","","","","","","","","","","","","","","","","","50"
"6254","","<div style=""width:500px;"">
  <p>How would you describe your current emotional state?</p>
  </div>","63","html-slider-response","60","1113837","0.0-10.0-3.4","181","1","2025-07-02 10:24:09","80fe4187154257d5fb01684ea91b68b9","189.216.169.4","Mozilla/5.0 (Windows NT 10.0; Win64; x64; rv:139.0) Gecko/20100101 Firefox/139.0","","Firefox","139.0","Windows","10.0","https://app.prolific.com/","en-US,en;q=0.5","6672fea3fe6378e257b6ef25","683db6dfa200031b80f2a654","6865077a23a5fefa3c3a45db","6672fea3fe6378e257b6ef25","2025-07-02T10:42:41.017Z","","","","","","StressQ","","","","","","","","","","","","","","","","","","","","","","","","","","","","","","","","","","","","","","50"
"4965","","<div style=""width:500px;"">
  <p>What best describes how you currently feel?</p>
  </div>","61","html-slider-response","61","1118803","0.0-10.0-4.4","181","1","2025-07-02 10:24:09","80fe4187154257d5fb01684ea91b68b9","189.216.169.4","Mozilla/5.0 (Windows NT 10.0; Win64; x64; rv:139.0) Gecko/20100101 Firefox/139.0","","Firefox","139.0","Windows","10.0","https://app.prolific.com/","en-US,en;q=0.5","6672fea3fe6378e257b6ef25","683db6dfa200031b80f2a654","6865077a23a5fefa3c3a45db","6672fea3fe6378e257b6ef25","2025-07-02T10:42:45.982Z","","","","","","MotivationQ","","","","","","","","","","","","","","","","","","","","","","","","","","","","","","","","","","","","","","50"
"","","","","ctl-task-cpt","62","1164639","0.0-10.0-0.5","181","1","2025-07-02 10:24:09","80fe4187154257d5fb01684ea91b68b9","189.216.169.4","Mozilla/5.0 (Windows NT 10.0; Win64; x64; rv:139.0) Gecko/20100101 Firefox/139.0","","Firefox","139.0","Windows","10.0","https://app.prolific.com/","en-US,en;q=0.5","6672fea3fe6378e257b6ef25","683db6dfa200031b80f2a654","6865077a23a5fefa3c3a45db","6672fea3fe6378e257b6ef25","2025-07-02T10:43:31.818Z","","","","","","","","","","","","","","","","win-only","1","g1:NE,g2:SW","0.5","6","0","1121264","1532","6537","42830","1","4","8","6","2","8","8","36","28","0.2727272727272727","1062","3000","1565","[""down"",""left""]","{""num_key_presses"":10,""num_perfect"":5,""num_errors"":0,""num_randdir"":5,""num_randdir_good_moves"":3,""num_whilered"":0,""num_whileblue"":0,""num_blue"":2,""num_good_moves"":8}","[264.9428632463728,257.64286019461497,0,264.9428632463728,257.64286019461497,100,264.9428632463728,257.64286019461497,207,264.9428632463728,257.64286019461497,315,265.9428632463728,257.64286019461497,424,265.9428632463728,257.64286019461497,532,198.94286324637278,379.64286019461497,640,117.94286324637277,444.64286019461497,747,48.94286324637277,466.64286019461497,856,48.94286324637277,466.64286019461497,964,48.94286324637277,466.64286019461497,1072,49.94286324637277,466.64286019461497,1181,106.94286324637277,459.64286019461497,1289,615.9428632463728,353.64286019461497,1397,684.9428632463728,328.64286019461497,1505,681.9428632463728,320.64286019461497,1614,681.9428632463728,320.64286019461497,1722,681.9428632463728,320.64286019461497,1831,681.9428632463728,320.64286019461497,1940,681.9428632463728,320.64286019461497,2049,681.9428632463728,320.64286019461497,2157,681.9428632463728,320.64286019461497,2264,681.9428632463728,320.64286019461497,2373,681.9428632463728,320.64286019461497,2481,681.9428632463728,320.64286019461497,2589,681.9428632463728,320.64286019461497,2698,681.9428632463728,320.64286019461497,2806,681.9428632463728,320.64286019461497,2915,681.9428632463728,320.64286019461497,3023,681.9428632463728,320.64286019461497,3132,681.9428632463728,320.64286019461497,3239,681.9428632463728,320.64286019461497,3347,681.9428632463728,320.64286019461497,3456,681.9428632463728,320.64286019461497,3564,681.9428632463728,320.64286019461497,3672,681.9428632463728,320.64286019461497,3781,681.9428632463728,320.64286019461497,3889,681.9428632463728,320.64286019461497,3997,681.9428632463728,320.64286019461497,4106,681.9428632463728,320.64286019461497,4213,681.9428632463728,320.64286019461497,4322,681.9428632463728,320.64286019461497,4431,681.9428632463728,320.64286019461497,4539,681.9428632463728,320.64286019461497,4649,681.9428632463728,320.64286019461497,4757,681.9428632463728,320.64286019461497,4867,681.9428632463728,320.64286019461497,4975]","[1478,1478,1000,0,478,""smooth"",""down"",""down"",""good_move"",7486,6008,1995.2,5087,403.8,""smooth"",""left"",""left"",""good_move"",14457,6971,2919.4,11118,419.6,""smooth"",""left"",""left"",""good_move"",17669,3212,2290.4,14457,921.6,""oops"",""left"",""right"",""bad_move"",20256,2587,2101.8,17669,485.2,""oops"",""left"",""down"",""good_move"",23296,3040,2619.3,20256,420.7,""smooth"",""left"",""left"",""good_move"",26404,3108,2345,23296,763,""smooth"",""down"",""down"",""good_move"",29715,3310,2885.1,26405,424.9,""oops"",""left"",""up"",""bad_move"",32726,3011,2223.9,29715,787.1,""oops"",""down"",""left"",""good_move"",36028,3302,2848.9,32726,453.1,""oops"",""down"",""down"",""good_move""]","",""
"8811","","<div style=""width:500px;"">
  <p>What determined the result of this run?</p>
  </div>","71","html-slider-response","63","1173451","0.0-10.0-1.5","181","1","2025-07-02 10:24:09","80fe4187154257d5fb01684ea91b68b9","189.216.169.4","Mozilla/5.0 (Windows NT 10.0; Win64; x64; rv:139.0) Gecko/20100101 Firefox/139.0","","Firefox","139.0","Windows","10.0","https://app.prolific.com/","en-US,en;q=0.5","6672fea3fe6378e257b6ef25","683db6dfa200031b80f2a654","6865077a23a5fefa3c3a45db","6672fea3fe6378e257b6ef25","2025-07-02T10:43:40.630Z","","","","","","AttribQ","","","","","","","","","","","","","","","","","","","","","","","","","","","","","","","","","","","","","","50"
"2890","","<div style=""width:500px;"">
  <p>How much control did you have over the ball?</p>
  </div>","73","html-slider-response","64","1176342","0.0-10.0-2.5","181","1","2025-07-02 10:24:09","80fe4187154257d5fb01684ea91b68b9","189.216.169.4","Mozilla/5.0 (Windows NT 10.0; Win64; x64; rv:139.0) Gecko/20100101 Firefox/139.0","","Firefox","139.0","Windows","10.0","https://app.prolific.com/","en-US,en;q=0.5","6672fea3fe6378e257b6ef25","683db6dfa200031b80f2a654","6865077a23a5fefa3c3a45db","6672fea3fe6378e257b6ef25","2025-07-02T10:43:43.521Z","","","","","","ControlQ","","","","","","","","","","","","","","","","","","","","","","","","","","","","","","","","","","","","","","50"
"4979","","<div style=""width:500px;"">
  <p>How would you describe your current emotional state?</p>
  </div>","63","html-slider-response","65","1181321","0.0-10.0-3.5","181","1","2025-07-02 10:24:09","80fe4187154257d5fb01684ea91b68b9","189.216.169.4","Mozilla/5.0 (Windows NT 10.0; Win64; x64; rv:139.0) Gecko/20100101 Firefox/139.0","","Firefox","139.0","Windows","10.0","https://app.prolific.com/","en-US,en;q=0.5","6672fea3fe6378e257b6ef25","683db6dfa200031b80f2a654","6865077a23a5fefa3c3a45db","6672fea3fe6378e257b6ef25","2025-07-02T10:43:48.501Z","","","","","","StressQ","","","","","","","","","","","","","","","","","","","","","","","","","","","","","","","","","","","","","","50"
"2036","","<div style=""width:500px;"">
  <p>What best describes how you currently feel?</p>
  </div>","62","html-slider-response","66","1183358","0.0-10.0-4.5","181","1","2025-07-02 10:24:09","80fe4187154257d5fb01684ea91b68b9","189.216.169.4","Mozilla/5.0 (Windows NT 10.0; Win64; x64; rv:139.0) Gecko/20100101 Firefox/139.0","","Firefox","139.0","Windows","10.0","https://app.prolific.com/","en-US,en;q=0.5","6672fea3fe6378e257b6ef25","683db6dfa200031b80f2a654","6865077a23a5fefa3c3a45db","6672fea3fe6378e257b6ef25","2025-07-02T10:43:50.537Z","","","","","","MotivationQ","","","","","","","","","","","","","","","","","","","","","","","","","","","","","","","","","","","","","","50"
"","","","","ctl-task-cpt","67","1274678","0.0-10.0-0.6","181","1","2025-07-02 10:24:09","80fe4187154257d5fb01684ea91b68b9","189.216.169.4","Mozilla/5.0 (Windows NT 10.0; Win64; x64; rv:139.0) Gecko/20100101 Firefox/139.0","","Firefox","139.0","Windows","10.0","https://app.prolific.com/","en-US,en;q=0.5","6672fea3fe6378e257b6ef25","683db6dfa200031b80f2a654","6865077a23a5fefa3c3a45db","6672fea3fe6378e257b6ef25","2025-07-02T10:45:21.857Z","","","","","","","","","","","","","","","","win-only","0","g1:NW,g2:SE","0.4","7","0","1185820","1385","6401","88304","1","4","8","6","2","8","7","43","36","0.32575757575757575","1241","3000","715","[""down"",""right""]","{""num_key_presses"":17,""num_perfect"":8,""num_errors"":1,""num_randdir"":8,""num_randdir_good_moves"":3,""num_whilered"":0,""num_whileblue"":0,""num_blue"":9,""num_good_moves"":11}","[259.9428632463728,263.64286019461497,0,259.9428632463728,263.64286019461497,114,259.9428632463728,263.64286019461497,222,259.9428632463728,263.64286019461497,330,259.9428632463728,263.64286019461497,438,259.9428632463728,263.64286019461497,546,259.9428632463728,263.64286019461497,655,259.9428632463728,263.64286019461497,763,320.9428632463728,323.64286019461497,873,481.9428632463728,452.64286019461497,981,478.9428632463728,466.64286019461497,1088,474.9428632463728,488.64286019461497,1197,474.9428632463728,488.64286019461497,1304,474.9428632463728,488.64286019461497,1412,474.9428632463728,487.64286019461497,1520,474.9428632463728,486.64286019461497,1627,474.9428632463728,486.64286019461497,1736,474.9428632463728,486.64286019461497,1845,474.9428632463728,485.64286019461497,1952,474.9428632463728,485.64286019461497,2061,474.9428632463728,485.64286019461497,2169,474.9428632463728,485.64286019461497,2278,474.9428632463728,485.64286019461497,2385,474.9428632463728,485.64286019461497,2494,474.9428632463728,485.64286019461497,2602,474.9428632463728,485.64286019461497,2710,474.9428632463728,485.64286019461497,2819,474.9428632463728,485.64286019461497,2927,474.9428632463728,485.64286019461497,3036,474.9428632463728,485.64286019461497,3145,474.9428632463728,485.64286019461497,3252,474.9428632463728,485.64286019461497,3360,474.9428632463728,485.64286019461497,3469,474.9428632463728,485.64286019461497,3577,474.9428632463728,485.64286019461497,3685,474.9428632463728,485.64286019461497,3794,474.9428632463728,485.64286019461497,3903,474.9428632463728,485.64286019461497,4010,474.9428632463728,485.64286019461497,4119,474.9428632463728,485.64286019461497,4227,474.9428632463728,485.64286019461497,4335,474.9428632463728,485.64286019461497,4443,474.9428632463728,485.64286019461497,4552,474.9428632463728,485.64286019461497,4660,474.9428632463728,485.64286019461497,4768,474.9428632463728,485.64286019461497,4875,474.9428632463728,485.64286019461497,4984]","[782,782,1000,0,-218,""error"",""-"",""-"",""no_move"",4851,4069,2627.7,1793,430.3,""smooth"",""down"",""down"",""good_move"",15445,10594,2289.8,12732,423.2,""smooth"",""right"",""right"",""good_move"",21564,6119,2251.7,18889,423.3,""smooth"",""down"",""down"",""good_move"",28363,6799,2716.5,24823,823.5,""smooth"",""right"",""right"",""good_move"",31010,2647,2064,28363,583,""oops"",""down"",""down"",""good_move"",33739,2728,2264.5,31011,463.5,""oops"",""right"",""left"",""bad_move"",36883,3143,2700.8,33740,442.2,""oops"",""right"",""up"",""bad_move"",40230,3347,2987.8,36883,359.2,""oops"",""right"",""left"",""bad_move"",43259,3029,2137.7,40230,891.3,""oops"",""right"",""left"",""bad_move"",48962,5704,1646,46906,411,""oops"",""right"",""right"",""good_move"",52201,3238,2828.8,48963,409.2,""oops"",""right"",""down"",""good_move"",55208,3007,2595.3,52201,411.7,""oops"",""right"",""left"",""bad_move"",61258,6050,2038.2,58829,390.8,""smooth"",""right"",""right"",""good_move"",71258,10000,2827.9,67983,447.1,""smooth"",""right"",""right"",""good_move"",74287,3029,2602.2,71258,426.8,""smooth"",""right"",""right"",""good_move"",81616,7329,2776.3,78393,446.7,""smooth"",""right"",""right"",""good_move""]","",""
"6520","","<div style=""width:500px;"">
  <p>What determined the result of this run?</p>
  </div>","69","html-slider-response","68","1281199","0.0-10.0-1.6","181","1","2025-07-02 10:24:09","80fe4187154257d5fb01684ea91b68b9","189.216.169.4","Mozilla/5.0 (Windows NT 10.0; Win64; x64; rv:139.0) Gecko/20100101 Firefox/139.0","","Firefox","139.0","Windows","10.0","https://app.prolific.com/","en-US,en;q=0.5","6672fea3fe6378e257b6ef25","683db6dfa200031b80f2a654","6865077a23a5fefa3c3a45db","6672fea3fe6378e257b6ef25","2025-07-02T10:45:28.378Z","","","","","","AttribQ","","","","","","","","","","","","","","","","","","","","","","","","","","","","","","","","","","","","","","50"
"5405","","<div style=""width:500px;"">
  <p>How much control did you have over the ball?</p>
  </div>","40","html-slider-response","69","1286604","0.0-10.0-2.6","181","1","2025-07-02 10:24:09","80fe4187154257d5fb01684ea91b68b9","189.216.169.4","Mozilla/5.0 (Windows NT 10.0; Win64; x64; rv:139.0) Gecko/20100101 Firefox/139.0","","Firefox","139.0","Windows","10.0","https://app.prolific.com/","en-US,en;q=0.5","6672fea3fe6378e257b6ef25","683db6dfa200031b80f2a654","6865077a23a5fefa3c3a45db","6672fea3fe6378e257b6ef25","2025-07-02T10:45:33.783Z","","","","","","ControlQ","","","","","","","","","","","","","","","","","","","","","","","","","","","","","","","","","","","","","","50"
"2700","","<div style=""width:500px;"">
  <p>How would you describe your current emotional state?</p>
  </div>","88","html-slider-response","70","1289305","0.0-10.0-3.6","181","1","2025-07-02 10:24:09","80fe4187154257d5fb01684ea91b68b9","189.216.169.4","Mozilla/5.0 (Windows NT 10.0; Win64; x64; rv:139.0) Gecko/20100101 Firefox/139.0","","Firefox","139.0","Windows","10.0","https://app.prolific.com/","en-US,en;q=0.5","6672fea3fe6378e257b6ef25","683db6dfa200031b80f2a654","6865077a23a5fefa3c3a45db","6672fea3fe6378e257b6ef25","2025-07-02T10:45:36.484Z","","","","","","StressQ","","","","","","","","","","","","","","","","","","","","","","","","","","","","","","","","","","","","","","50"
"4615","","<div style=""width:500px;"">
  <p>What best describes how you currently feel?</p>
  </div>","50","html-slider-response","71","1293921","0.0-10.0-4.6","181","1","2025-07-02 10:24:09","80fe4187154257d5fb01684ea91b68b9","189.216.169.4","Mozilla/5.0 (Windows NT 10.0; Win64; x64; rv:139.0) Gecko/20100101 Firefox/139.0","","Firefox","139.0","Windows","10.0","https://app.prolific.com/","en-US,en;q=0.5","6672fea3fe6378e257b6ef25","683db6dfa200031b80f2a654","6865077a23a5fefa3c3a45db","6672fea3fe6378e257b6ef25","2025-07-02T10:45:41.100Z","","","","","","MotivationQ","","","","","","","","","","","","","","","","","","","","","","","","","","","","","","","","","","","","","","50"
"","","","","ctl-task-cpt","72","1386105","0.0-10.0-0.7","181","1","2025-07-02 10:24:09","80fe4187154257d5fb01684ea91b68b9","189.216.169.4","Mozilla/5.0 (Windows NT 10.0; Win64; x64; rv:139.0) Gecko/20100101 Firefox/139.0","","Firefox","139.0","Windows","10.0","https://app.prolific.com/","en-US,en;q=0.5","6672fea3fe6378e257b6ef25","683db6dfa200031b80f2a654","6865077a23a5fefa3c3a45db","6672fea3fe6378e257b6ef25","2025-07-02T10:47:13.284Z","","","","","","","","","","","","","","","","win-only","1","g1:NE,g2:SW","0.3","8","0","1296382","1961","6972","89182","1","4","4","6","2","-4","-4","39","43","0.29545454545454547","1369","3000","-970","[""down"",""left""]","{""num_key_presses"":21,""num_perfect"":6,""num_errors"":0,""num_randdir"":15,""num_randdir_good_moves"":5,""num_whilered"":0,""num_whileblue"":0,""num_blue"":5,""num_good_moves"":11}","[263.9428632463728,261.64286019461497,1,263.9428632463728,261.64286019461497,108,263.9428632463728,261.64286019461497,216,263.9428632463728,261.64286019461497,325,278.9428632463728,259.64286019461497,433,475.9428632463728,246.64286019461497,542,550.9428632463728,250.64286019461497,650,628.9428632463728,262.64286019461497,759,632.9428632463728,266.64286019461497,867,276.9428632463728,353.64286019461497,975,124.94286324637277,402.64286019461497,1083,74.94286324637277,439.64286019461497,1191,47.94286324637277,468.64286019461497,1299,46.94286324637277,470.64286019461497,1408,46.94286324637277,470.64286019461497,1515,88.94286324637277,444.64286019461497,1623,104.94286324637277,436.64286019461497,1732,130.94286324637278,433.64286019461497,1839,130.94286324637278,432.64286019461497,1948,130.94286324637278,432.64286019461497,2057,130.94286324637278,432.64286019461497,2165,130.94286324637278,432.64286019461497,2273,130.94286324637278,432.64286019461497,2381,130.94286324637278,432.64286019461497,2489,130.94286324637278,432.64286019461497,2597,130.94286324637278,432.64286019461497,2705,130.94286324637278,432.64286019461497,2814,130.94286324637278,432.64286019461497,2922,130.94286324637278,432.64286019461497,3031,130.94286324637278,432.64286019461497,3140,130.94286324637278,432.64286019461497,3249,130.94286324637278,432.64286019461497,3356,130.94286324637278,432.64286019461497,3464,130.94286324637278,432.64286019461497,3573,130.94286324637278,432.64286019461497,3681,130.94286324637278,432.64286019461497,3789,130.94286324637278,432.64286019461497,3897,130.94286324637278,432.64286019461497,4005,130.94286324637278,432.64286019461497,4114,130.94286324637278,432.64286019461497,4222,130.94286324637278,432.64286019461497,4330,130.94286324637278,432.64286019461497,4439,130.94286324637278,432.64286019461497,4547,130.94286324637278,432.64286019461497,4656,130.94286324637278,432.64286019461497,4763,130.94286324637278,432.64286019461497,4871,130.94286324637278,432.64286019461497,4980]","[5430,5430,2911.3,2016,502.7,""oops"",""down"",""up"",""bad_move"",9184,3754,3212.5,5430,541.5,""oops"",""left"",""right"",""bad_move"",12120,2936,2455.2,9184,480.8,""oops"",""left"",""right"",""bad_move"",17662,5542,2169.6,15077,415.4,""smooth"",""down"",""down"",""good_move"",20549,2887,2403.6,17662,483.4,""smooth"",""down"",""down"",""good_move"",22841,2291,1627.3,20550,663.7,""oops"",""down"",""down"",""good_move"",25769,2928,2467.8,22841,460.2,""oops"",""down"",""down"",""good_move"",28048,2279,1831.6,25769,447.4,""oops"",""left"",""left"",""good_move"",31129,3081,1796.8,28048,1284.2,""smooth"",""left"",""left"",""good_move"",37598,6469,2386.4,34768,443.6,""oops"",""left"",""up"",""bad_move"",40740,3142,2724.2,37598,417.8,""smooth"",""down"",""down"",""good_move"",43581,2841,2328.2,40740,512.8,""oops"",""left"",""up"",""bad_move"",46547,2966,1915.4,43581,1050.6,""oops"",""down"",""left"",""good_move"",49607,3060,2038,46547,1022,""oops"",""down"",""up"",""bad_move"",56500,6893,2895,53230,375,""smooth"",""left"",""left"",""good_move"",59539,3039,2635.6,56500,403.4,""oops"",""left"",""down"",""good_move"",62647,3108,2708.5,59539,399.5,""smooth"",""left"",""left"",""good_move"",66219,3572,3132.2,62647,439.8,""oops"",""down"",""right"",""bad_move"",69076,2857,2517.9,66219,339.1,""oops"",""down"",""up"",""bad_move"",72578,3502,3088.9,69076,413.1,""oops"",""down"",""up"",""bad_move"",79405,6826,2687.9,76302,415.1,""oops"",""down"",""up"",""bad_move""]","",""
"4942","","<div style=""width:500px;"">
  <p>What determined the result of this run?</p>
  </div>","49","html-slider-response","73","1391048","0.0-10.0-1.7","181","1","2025-07-02 10:24:09","80fe4187154257d5fb01684ea91b68b9","189.216.169.4","Mozilla/5.0 (Windows NT 10.0; Win64; x64; rv:139.0) Gecko/20100101 Firefox/139.0","","Firefox","139.0","Windows","10.0","https://app.prolific.com/","en-US,en;q=0.5","6672fea3fe6378e257b6ef25","683db6dfa200031b80f2a654","6865077a23a5fefa3c3a45db","6672fea3fe6378e257b6ef25","2025-07-02T10:47:18.227Z","","","","","","AttribQ","","","","","","","","","","","","","","","","","","","","","","","","","","","","","","","","","","","","","","50"
"2291","","<div style=""width:500px;"">
  <p>How much control did you have over the ball?</p>
  </div>","0","html-slider-response","74","1393340","0.0-10.0-2.7","181","1","2025-07-02 10:24:09","80fe4187154257d5fb01684ea91b68b9","189.216.169.4","Mozilla/5.0 (Windows NT 10.0; Win64; x64; rv:139.0) Gecko/20100101 Firefox/139.0","","Firefox","139.0","Windows","10.0","https://app.prolific.com/","en-US,en;q=0.5","6672fea3fe6378e257b6ef25","683db6dfa200031b80f2a654","6865077a23a5fefa3c3a45db","6672fea3fe6378e257b6ef25","2025-07-02T10:47:20.519Z","","","","","","ControlQ","","","","","","","","","","","","","","","","","","","","","","","","","","","","","","","","","","","","","","50"
"1785","","<div style=""width:500px;"">
  <p>How would you describe your current emotional state?</p>
  </div>","100","html-slider-response","75","1395126","0.0-10.0-3.7","181","1","2025-07-02 10:24:09","80fe4187154257d5fb01684ea91b68b9","189.216.169.4","Mozilla/5.0 (Windows NT 10.0; Win64; x64; rv:139.0) Gecko/20100101 Firefox/139.0","","Firefox","139.0","Windows","10.0","https://app.prolific.com/","en-US,en;q=0.5","6672fea3fe6378e257b6ef25","683db6dfa200031b80f2a654","6865077a23a5fefa3c3a45db","6672fea3fe6378e257b6ef25","2025-07-02T10:47:22.305Z","","","","","","StressQ","","","","","","","","","","","","","","","","","","","","","","","","","","","","","","","","","","","","","","50"
"3586","","<div style=""width:500px;"">
  <p>What best describes how you currently feel?</p>
  </div>","43","html-slider-response","76","1398712","0.0-10.0-4.7","181","1","2025-07-02 10:24:09","80fe4187154257d5fb01684ea91b68b9","189.216.169.4","Mozilla/5.0 (Windows NT 10.0; Win64; x64; rv:139.0) Gecko/20100101 Firefox/139.0","","Firefox","139.0","Windows","10.0","https://app.prolific.com/","en-US,en;q=0.5","6672fea3fe6378e257b6ef25","683db6dfa200031b80f2a654","6865077a23a5fefa3c3a45db","6672fea3fe6378e257b6ef25","2025-07-02T10:47:25.892Z","","","","","","MotivationQ","","","","","","","","","","","","","","","","","","","","","","","","","","","","","","","","","","","","","","50"
"","","","","ctl-task-cpt","77","1459506","0.0-10.0-0.8","181","1","2025-07-02 10:24:09","80fe4187154257d5fb01684ea91b68b9","189.216.169.4","Mozilla/5.0 (Windows NT 10.0; Win64; x64; rv:139.0) Gecko/20100101 Firefox/139.0","","Firefox","139.0","Windows","10.0","https://app.prolific.com/","en-US,en;q=0.5","6672fea3fe6378e257b6ef25","683db6dfa200031b80f2a654","6865077a23a5fefa3c3a45db","6672fea3fe6378e257b6ef25","2025-07-02T10:48:26.685Z","","","","","","","","","","","","","","","","win-only","0","g1:NW,g2:SE","0.4","9","0","1401175","3307","8322","57788","1","4","8","6","2","8","8","47","39","0.3560606060606061","1949","3000","1095","[""down"",""right""]","{""num_key_presses"":12,""num_perfect"":6,""num_errors"":0,""num_randdir"":6,""num_randdir_good_moves"":3,""num_whilered"":0,""num_whileblue"":0,""num_blue"":4,""num_good_moves"":9}","[261.9428632463728,261.64286019461497,1,261.9428632463728,261.64286019461497,112,261.9428632463728,261.64286019461497,220,455.9428632463728,231.64286019461497,327,665.9428632463728,169.64286019461497,435,665.9428632463728,173.64286019461497,544,669.9428632463728,186.64286019461497,652,667.9428632463728,242.64286019461497,761,590.9428632463728,389.64286019461497,869,521.9428632463728,460.64286019461497,978,485.9428632463728,464.64286019461497,1085,493.9428632463728,449.64286019461497,1194,495.9428632463728,449.64286019461497,1302,493.9428632463728,458.64286019461497,1411,491.9428632463728,463.64286019461497,1519,491.9428632463728,463.64286019461497,1628,491.9428632463728,463.64286019461497,1736,491.9428632463728,463.64286019461497,1844,491.9428632463728,464.64286019461497,1953,491.9428632463728,464.64286019461497,2061,525.9428632463728,449.64286019461497,2170,706.9428632463728,345.64286019461497,2278,706.9428632463728,345.64286019461497,2386,706.9428632463728,341.64286019461497,2495,706.9428632463728,341.64286019461497,2602,706.9428632463728,341.64286019461497,2712,706.9428632463728,341.64286019461497,2820,706.9428632463728,341.64286019461497,2928,706.9428632463728,341.64286019461497,3036,706.9428632463728,341.64286019461497,3143,706.9428632463728,341.64286019461497,3251,706.9428632463728,341.64286019461497,3360,706.9428632463728,341.64286019461497,3468,706.9428632463728,341.64286019461497,3577,706.9428632463728,341.64286019461497,3684,706.9428632463728,341.64286019461497,3793,706.9428632463728,341.64286019461497,3901,706.9428632463728,341.64286019461497,4008,706.9428632463728,341.64286019461497,4116,706.9428632463728,341.64286019461497,4225,706.9428632463728,341.64286019461497,4333,706.9428632463728,341.64286019461497,4442,706.9428632463728,341.64286019461497,4550,706.9428632463728,341.64286019461497,4659,706.9428632463728,341.64286019461497,4767,706.9428632463728,341.64286019461497,4875,706.9428632463728,341.64286019461497,4984]","[1400,1400,1000,0,400,""smooth"",""right"",""right"",""good_move"",9591,8191,1927.7,7283,380.3,""smooth"",""down"",""down"",""good_move"",13378,3787,2528.6,9591,1258.4,""smooth"",""down"",""down"",""good_move"",16489,3110,2653,13379,457,""smooth"",""right"",""right"",""good_move"",23791,7301,2508.3,20873,409.7,""oops"",""down"",""left"",""bad_move"",26830,3039,2446.5,23791,592.5,""oops"",""down"",""down"",""good_move"",29927,3096,2695.9,26831,400.1,""oops"",""right"",""up"",""bad_move"",33527,3600,2952.9,29927,647.1,""oops"",""right"",""right"",""good_move"",36317,2790,2329.3,33527,460.7,""oops"",""right"",""up"",""bad_move"",39310,2992,2256.7,36318,735.3,""oops"",""down"",""down"",""good_move"",42309,2999,2618.4,39310,380.6,""smooth"",""down"",""down"",""good_move"",49197,6888,2479.5,46278,439.5,""smooth"",""right"",""right"",""good_move""]","",""
"1623","","<div style=""width:500px;"">
  <p>What determined the result of this run?</p>
  </div>","77","html-slider-response","78","1461129","0.0-10.0-1.8","181","1","2025-07-02 10:24:09","80fe4187154257d5fb01684ea91b68b9","189.216.169.4","Mozilla/5.0 (Windows NT 10.0; Win64; x64; rv:139.0) Gecko/20100101 Firefox/139.0","","Firefox","139.0","Windows","10.0","https://app.prolific.com/","en-US,en;q=0.5","6672fea3fe6378e257b6ef25","683db6dfa200031b80f2a654","6865077a23a5fefa3c3a45db","6672fea3fe6378e257b6ef25","2025-07-02T10:48:28.308Z","","","","","","AttribQ","","","","","","","","","","","","","","","","","","","","","","","","","","","","","","","","","","","","","","50"
"3850","","<div style=""width:500px;"">
  <p>How much control did you have over the ball?</p>
  </div>","57","html-slider-response","79","1464981","0.0-10.0-2.8","181","1","2025-07-02 10:24:09","80fe4187154257d5fb01684ea91b68b9","189.216.169.4","Mozilla/5.0 (Windows NT 10.0; Win64; x64; rv:139.0) Gecko/20100101 Firefox/139.0","","Firefox","139.0","Windows","10.0","https://app.prolific.com/","en-US,en;q=0.5","6672fea3fe6378e257b6ef25","683db6dfa200031b80f2a654","6865077a23a5fefa3c3a45db","6672fea3fe6378e257b6ef25","2025-07-02T10:48:32.160Z","","","","","","ControlQ","","","","","","","","","","","","","","","","","","","","","","","","","","","","","","","","","","","","","","50"
"2930","","<div style=""width:500px;"">
  <p>How would you describe your current emotional state?</p>
  </div>","82","html-slider-response","80","1467911","0.0-10.0-3.8","181","1","2025-07-02 10:24:09","80fe4187154257d5fb01684ea91b68b9","189.216.169.4","Mozilla/5.0 (Windows NT 10.0; Win64; x64; rv:139.0) Gecko/20100101 Firefox/139.0","","Firefox","139.0","Windows","10.0","https://app.prolific.com/","en-US,en;q=0.5","6672fea3fe6378e257b6ef25","683db6dfa200031b80f2a654","6865077a23a5fefa3c3a45db","6672fea3fe6378e257b6ef25","2025-07-02T10:48:35.091Z","","","","","","StressQ","","","","","","","","","","","","","","","","","","","","","","","","","","","","","","","","","","","","","","50"
"3504","","<div style=""width:500px;"">
  <p>What best describes how you currently feel?</p>
  </div>","43","html-slider-response","81","1471416","0.0-10.0-4.8","181","1","2025-07-02 10:24:09","80fe4187154257d5fb01684ea91b68b9","189.216.169.4","Mozilla/5.0 (Windows NT 10.0; Win64; x64; rv:139.0) Gecko/20100101 Firefox/139.0","","Firefox","139.0","Windows","10.0","https://app.prolific.com/","en-US,en;q=0.5","6672fea3fe6378e257b6ef25","683db6dfa200031b80f2a654","6865077a23a5fefa3c3a45db","6672fea3fe6378e257b6ef25","2025-07-02T10:48:38.595Z","","","","","","MotivationQ","","","","","","","","","","","","","","","","","","","","","","","","","","","","","","","","","","","","","","50"
"","","","","ctl-task-cpt","82","1494669","0.0-10.0-0.9","181","1","2025-07-02 10:24:09","80fe4187154257d5fb01684ea91b68b9","189.216.169.4","Mozilla/5.0 (Windows NT 10.0; Win64; x64; rv:139.0) Gecko/20100101 Firefox/139.0","","Firefox","139.0","Windows","10.0","https://app.prolific.com/","en-US,en;q=0.5","6672fea3fe6378e257b6ef25","683db6dfa200031b80f2a654","6865077a23a5fefa3c3a45db","6672fea3fe6378e257b6ef25","2025-07-02T10:49:01.848Z","","","","","","","","","","","","","","","","win-only","1","g1:NE,g2:SW","0.5","10","0","1473878","2646","7649","20248","1","4","4","6","1","1","0","47","47","0.3560606060606061","2059","3000","2370","[""up"",""right""]","{""num_key_presses"":5,""num_perfect"":4,""num_errors"":1,""num_randdir"":0,""num_randdir_good_moves"":0,""num_whilered"":0,""num_whileblue"":0,""num_blue"":0,""num_good_moves"":4}","[265.9428632463728,261.64286019461497,0,265.9428632463728,261.64286019461497,101,265.9428632463728,261.64286019461497,209,594.9428632463728,192.64286019461497,318,695.9428632463728,153.64286019461497,426,689.9428632463728,153.64286019461497,534,689.9428632463728,153.64286019461497,642,689.9428632463728,153.64286019461497,751,689.9428632463728,153.64286019461497,859,689.9428632463728,153.64286019461497,967,689.9428632463728,153.64286019461497,1076,689.9428632463728,153.64286019461497,1184,689.9428632463728,153.64286019461497,1292,689.9428632463728,153.64286019461497,1401,689.9428632463728,154.64286019461497,1509,630.9428632463728,122.64286019461495,1617,442.9428632463728,8.642860194614954,1726,448.9428632463728,29.642860194614954,1833,453.9428632463728,37.642860194614954,1941,459.9428632463728,37.642860194614954,2050,459.9428632463728,37.642860194614954,2157,461.9428632463728,37.642860194614954,2267,641.9428632463728,29.642860194614954,2374,694.9428632463728,35.642860194614954,2483,694.9428632463728,35.642860194614954,2591,694.9428632463728,35.642860194614954,2699,694.9428632463728,35.642860194614954,2806,694.9428632463728,35.642860194614954,2916,694.9428632463728,35.642860194614954,3023,694.9428632463728,35.642860194614954,3132,694.9428632463728,35.642860194614954,3240,694.9428632463728,35.642860194614954,3349,694.9428632463728,35.642860194614954,3456,694.9428632463728,35.642860194614954,3565,694.9428632463728,35.642860194614954,3673,694.9428632463728,35.642860194614954,3782,694.9428632463728,35.642860194614954,3889,694.9428632463728,35.642860194614954,3998,694.9428632463728,35.642860194614954,4106,694.9428632463728,35.642860194614954,4215,694.9428632463728,35.642860194614954,4323,694.9428632463728,35.642860194614954,4431,694.9428632463728,35.642860194614954,4539,694.9428632463728,35.642860194614954,4648,694.9428632463728,35.642860194614954,4756,694.9428632463728,35.642860194614954,4865,694.9428632463728,35.642860194614954,4972]","[518,518,1000,0,-482,""error"",""-"",""-"",""no_move"",4404,3886,2384.7,1527,492.3,""smooth"",""right"",""right"",""good_move"",6516,2112,1494.4,4404,617.6,""smooth"",""up"",""up"",""good_move"",9597,3081,2353.6,6516,727.4,""smooth"",""right"",""right"",""good_move"",12324,2727,2307.7,9597,419.3,""smooth"",""up"",""up"",""good_move""]","",""
"2691","","<div style=""width:500px;"">
  <p>What determined the result of this run?</p>
  </div>","65","html-slider-response","83","1497360","0.0-10.0-1.9","181","1","2025-07-02 10:24:09","80fe4187154257d5fb01684ea91b68b9","189.216.169.4","Mozilla/5.0 (Windows NT 10.0; Win64; x64; rv:139.0) Gecko/20100101 Firefox/139.0","","Firefox","139.0","Windows","10.0","https://app.prolific.com/","en-US,en;q=0.5","6672fea3fe6378e257b6ef25","683db6dfa200031b80f2a654","6865077a23a5fefa3c3a45db","6672fea3fe6378e257b6ef25","2025-07-02T10:49:04.539Z","","","","","","AttribQ","","","","","","","","","","","","","","","","","","","","","","","","","","","","","","","","","","","","","","50"
"2498","","<div style=""width:500px;"">
  <p>How much control did you have over the ball?</p>
  </div>","89","html-slider-response","84","1499860","0.0-10.0-2.9","181","1","2025-07-02 10:24:09","80fe4187154257d5fb01684ea91b68b9","189.216.169.4","Mozilla/5.0 (Windows NT 10.0; Win64; x64; rv:139.0) Gecko/20100101 Firefox/139.0","","Firefox","139.0","Windows","10.0","https://app.prolific.com/","en-US,en;q=0.5","6672fea3fe6378e257b6ef25","683db6dfa200031b80f2a654","6865077a23a5fefa3c3a45db","6672fea3fe6378e257b6ef25","2025-07-02T10:49:07.039Z","","","","","","ControlQ","","","","","","","","","","","","","","","","","","","","","","","","","","","","","","","","","","","","","","50"
"2946","","<div style=""width:500px;"">
  <p>How would you describe your current emotional state?</p>
  </div>","77","html-slider-response","85","1502805","0.0-10.0-3.9","181","1","2025-07-02 10:24:09","80fe4187154257d5fb01684ea91b68b9","189.216.169.4","Mozilla/5.0 (Windows NT 10.0; Win64; x64; rv:139.0) Gecko/20100101 Firefox/139.0","","Firefox","139.0","Windows","10.0","https://app.prolific.com/","en-US,en;q=0.5","6672fea3fe6378e257b6ef25","683db6dfa200031b80f2a654","6865077a23a5fefa3c3a45db","6672fea3fe6378e257b6ef25","2025-07-02T10:49:09.984Z","","","","","","StressQ","","","","","","","","","","","","","","","","","","","","","","","","","","","","","","","","","","","","","","50"
"5198","","<div style=""width:500px;"">
  <p>What best describes how you currently feel?</p>
  </div>","33","html-slider-response","86","1508004","0.0-10.0-4.9","181","1","2025-07-02 10:24:09","80fe4187154257d5fb01684ea91b68b9","189.216.169.4","Mozilla/5.0 (Windows NT 10.0; Win64; x64; rv:139.0) Gecko/20100101 Firefox/139.0","","Firefox","139.0","Windows","10.0","https://app.prolific.com/","en-US,en;q=0.5","6672fea3fe6378e257b6ef25","683db6dfa200031b80f2a654","6865077a23a5fefa3c3a45db","6672fea3fe6378e257b6ef25","2025-07-02T10:49:15.183Z","","","","","","MotivationQ","","","","","","","","","","","","","","","","","","","","","","","","","","","","","","","","","","","","","","50"
