"rt","response_timestamp","stimulus","response","trial_type","trial_index","time_elapsed","internal_node_id","run_id","condition","recorded_at","source_code_version","ip","user_agent","device","browser","browser_version","platform","platform_version","referer","accept_language","PROLIFIC_PID","STUDY_ID","SESSION_ID","prolific_id","realtime","view_history","question_order","consent","success","question_id","eventType","responses","item_order","radio_event_ids","radio_event_times","key_event_times","mouse_event_times","straightlining","zigzagging","honeypot","which_type","canvas_config","goals_layout","control_level","trial_number","tutorial_trial_number","trial_start_time","phase1_start_time","phase2_start_time","phase3_start_time","goal_1_value","goal_1_distance","goal_2_value","goal_2_distance","goal_selected","outcome","outcome_total","participant_final_score","participant_initial_score","participant_final_score_prop","goal_choice_rt","allocated_time","allocated_time_remaining","goal_direction","counts","mouse_movements","key_presses","correct","slider_start","sub_question"
"1524","1751451937645","<p style='font-size:40px;line-height:1.25'><strong>Welcome to the experiment!</strong></p><p style='font-size:1.1em;line-height:1.25'>Thank you for your interest in our experiment! Before you begin, it is important that we obtain your informed consent to participate in the study.</p><p style='font-size:1.1em;line-height:1.25'>On the next screen will be an <strong>information sheet</strong> for you to read. To participate in the study we need you to read this information sheet and the following consent form carefully. If you agree with all the statements, please click the <strong>I agree</strong> button.</p><p style='font-size:1.1em;line-height:1.25'>Press <strong>Next</strong> to read the information sheet.</p>","0","custom-html-button-response","0","1526","0.0-0.0","186","1","2025-07-02 10:25:35","80fe4187154257d5fb01684ea91b68b9","90.196.11.108","Mozilla/5.0 (Macintosh; Intel Mac OS X 10_15_7) AppleWebKit/537.36 (KHTML, like Gecko) Chrome/137.0.0.0 Safari/537.36","Macintosh","Chrome","137.0.0.0","OS X","10_15_7","https://app.prolific.com/","en-GB,en-US;q=0.9,en;q=0.8","66742c4307bb2004831faaef","683db6dfa200031b80f2a654","686507600a498271b656979d","66742c4307bb2004831faaef","2025-07-02T10:25:37.646Z","","","","","","","","","","","","","","","","","","","","","","","","","","","","","","","","","","","","","","","","","","","","",""
"10337","","","","instructions","1","11864","0.0-1.0","186","1","2025-07-02 10:25:35","80fe4187154257d5fb01684ea91b68b9","90.196.11.108","Mozilla/5.0 (Macintosh; Intel Mac OS X 10_15_7) AppleWebKit/537.36 (KHTML, like Gecko) Chrome/137.0.0.0 Safari/537.36","Macintosh","Chrome","137.0.0.0","OS X","10_15_7","https://app.prolific.com/","en-GB,en-US;q=0.9,en;q=0.8","66742c4307bb2004831faaef","683db6dfa200031b80f2a654","686507600a498271b656979d","66742c4307bb2004831faaef","","[{""page_index"":0,""viewing_time"":9086},{""page_index"":1,""viewing_time"":1251}]","","","","","","","","","","","","","","","","","","","","","","","","","","","","","","","","","","","","","","","","","","","",""
"2826","","","{""Q0"":"""",""Q1"":"""",""Q2"":"""",""Q3"":"""",""Q4"":"""",""Q5"":"""",""Q6"":""I agree""}","survey-multi-choice","2","14693","0.0-2.0","186","1","2025-07-02 10:25:35","80fe4187154257d5fb01684ea91b68b9","90.196.11.108","Mozilla/5.0 (Macintosh; Intel Mac OS X 10_15_7) AppleWebKit/537.36 (KHTML, like Gecko) Chrome/137.0.0.0 Safari/537.36","Macintosh","Chrome","137.0.0.0","OS X","10_15_7","https://app.prolific.com/","en-GB,en-US;q=0.9,en;q=0.8","66742c4307bb2004831faaef","683db6dfa200031b80f2a654","686507600a498271b656979d","66742c4307bb2004831faaef","","","[0,1,2,3,4,5,6]","true","","","","","","","","","","","","","","","","","","","","","","","","","","","","","","","","","","","","","","","","","",""
"5152","","","","fullscreen","3","20848","0.0-4.0","186","1","2025-07-02 10:25:35","80fe4187154257d5fb01684ea91b68b9","90.196.11.108","Mozilla/5.0 (Macintosh; Intel Mac OS X 10_15_7) AppleWebKit/537.36 (KHTML, like Gecko) Chrome/137.0.0.0 Safari/537.36","Macintosh","Chrome","137.0.0.0","OS X","10_15_7","https://app.prolific.com/","en-GB,en-US;q=0.9,en;q=0.8","66742c4307bb2004831faaef","683db6dfa200031b80f2a654","686507600a498271b656979d","66742c4307bb2004831faaef","","","","","true","","","","","","","","","","","","","","","","","","","","","","","","","","","","","","","","","","","","","","","","",""
"25847","1751451982815"," <p style='font-size:1.1em;line-height:1.25'>Thank you for completing the consent form and closing all other tabs.</p><p style='font-size:1.1em;line-height:1.25'>We will now invite you to fill in some demographic information and questionnaires, before starting the game.<br>This will take about 5 minutes.<br></p><p style='font-size:1.1em;line-height:1.25'>Press the <strong>Next</strong> button to continue.</p>","0","custom-html-button-response","4","46696","0.0-5.0","186","1","2025-07-02 10:25:35","80fe4187154257d5fb01684ea91b68b9","90.196.11.108","Mozilla/5.0 (Macintosh; Intel Mac OS X 10_15_7) AppleWebKit/537.36 (KHTML, like Gecko) Chrome/137.0.0.0 Safari/537.36","Macintosh","Chrome","137.0.0.0","OS X","10_15_7","https://app.prolific.com/","en-GB,en-US;q=0.9,en;q=0.8","66742c4307bb2004831faaef","683db6dfa200031b80f2a654","686507600a498271b656979d","66742c4307bb2004831faaef","2025-07-02T10:26:22.816Z","","","","","","","","","","","","","","","","","","","","","","","","","","","","","","","","","","","","","","","","","","","","",""
"2438","","","{""age"":""31""}","survey-text","5","49138","0.0-6.0-0.0","186","1","2025-07-02 10:25:35","80fe4187154257d5fb01684ea91b68b9","90.196.11.108","Mozilla/5.0 (Macintosh; Intel Mac OS X 10_15_7) AppleWebKit/537.36 (KHTML, like Gecko) Chrome/137.0.0.0 Safari/537.36","Macintosh","Chrome","137.0.0.0","OS X","10_15_7","https://app.prolific.com/","en-GB,en-US;q=0.9,en;q=0.8","66742c4307bb2004831faaef","683db6dfa200031b80f2a654","686507600a498271b656979d","66742c4307bb2004831faaef","","","","","","0","demographics","","","","","","","","","","","","","","","","","","","","","","","","","","","","","","","","","","","","","","",""
"1875","","","{""gender_identity"":""female/woman""}","survey-multi-choice","6","51014","0.0-6.0-1.0","186","1","2025-07-02 10:25:35","80fe4187154257d5fb01684ea91b68b9","90.196.11.108","Mozilla/5.0 (Macintosh; Intel Mac OS X 10_15_7) AppleWebKit/537.36 (KHTML, like Gecko) Chrome/137.0.0.0 Safari/537.36","Macintosh","Chrome","137.0.0.0","OS X","10_15_7","https://app.prolific.com/","en-GB,en-US;q=0.9,en;q=0.8","66742c4307bb2004831faaef","683db6dfa200031b80f2a654","686507600a498271b656979d","66742c4307bb2004831faaef","","","[0]","","","1","demographics","","","","","","","","","","","","","","","","","","","","","","","","","","","","","","","","","","","","","","",""
"1929","","","{""assigned_sex"":""female""}","survey-multi-choice","7","52945","0.0-6.0-2.0","186","1","2025-07-02 10:25:35","80fe4187154257d5fb01684ea91b68b9","90.196.11.108","Mozilla/5.0 (Macintosh; Intel Mac OS X 10_15_7) AppleWebKit/537.36 (KHTML, like Gecko) Chrome/137.0.0.0 Safari/537.36","Macintosh","Chrome","137.0.0.0","OS X","10_15_7","https://app.prolific.com/","en-GB,en-US;q=0.9,en;q=0.8","66742c4307bb2004831faaef","683db6dfa200031b80f2a654","686507600a498271b656979d","66742c4307bb2004831faaef","","","[0]","","","2","demographics","","","","","","","","","","","","","","","","","","","","","","","","","","","","","","","","","","","","","","",""
"4127","","","{""menstrual_cycle"":""Yes""}","survey-multi-choice","8","57073","0.0-6.0-3.0","186","1","2025-07-02 10:25:35","80fe4187154257d5fb01684ea91b68b9","90.196.11.108","Mozilla/5.0 (Macintosh; Intel Mac OS X 10_15_7) AppleWebKit/537.36 (KHTML, like Gecko) Chrome/137.0.0.0 Safari/537.36","Macintosh","Chrome","137.0.0.0","OS X","10_15_7","https://app.prolific.com/","en-GB,en-US;q=0.9,en;q=0.8","66742c4307bb2004831faaef","683db6dfa200031b80f2a654","686507600a498271b656979d","66742c4307bb2004831faaef","","","[0]","","","4","demographics","","","","","","","","","","","","","","","","","","","","","","","","","","","","","","","","","","","","","","",""
"6427","","","{""education"":""A-level/National Diploma/Highers""}","survey-multi-choice","9","63502","0.0-6.0-4.0","186","1","2025-07-02 10:25:35","80fe4187154257d5fb01684ea91b68b9","90.196.11.108","Mozilla/5.0 (Macintosh; Intel Mac OS X 10_15_7) AppleWebKit/537.36 (KHTML, like Gecko) Chrome/137.0.0.0 Safari/537.36","Macintosh","Chrome","137.0.0.0","OS X","10_15_7","https://app.prolific.com/","en-GB,en-US;q=0.9,en;q=0.8","66742c4307bb2004831faaef","683db6dfa200031b80f2a654","686507600a498271b656979d","66742c4307bb2004831faaef","","","[0]","","","5","demographics","","","","","","","","","","","","","","","","","","","","","","","","","","","","","","","","","","","","","","",""
"4701","","","{""education"":""A-level/National Diploma/Highers""}","survey-multi-choice","10","68205","0.0-6.0-5.0","186","1","2025-07-02 10:25:35","80fe4187154257d5fb01684ea91b68b9","90.196.11.108","Mozilla/5.0 (Macintosh; Intel Mac OS X 10_15_7) AppleWebKit/537.36 (KHTML, like Gecko) Chrome/137.0.0.0 Safari/537.36","Macintosh","Chrome","137.0.0.0","OS X","10_15_7","https://app.prolific.com/","en-GB,en-US;q=0.9,en;q=0.8","66742c4307bb2004831faaef","683db6dfa200031b80f2a654","686507600a498271b656979d","66742c4307bb2004831faaef","2025-07-02T10:26:44.325Z","","[0]","","","6","demographics","","","","","","","","","","","","","","","","","","","","","","","","","","","","","","","","","","","","","","",""
"11474","","","{""mental_health_condition"":""No"",""mental_health_treatment"":""No"",""psychiatric_medication"":""No""}","survey-text","11","79681","0.0-7.0-0.0","186","1","2025-07-02 10:25:35","80fe4187154257d5fb01684ea91b68b9","90.196.11.108","Mozilla/5.0 (Macintosh; Intel Mac OS X 10_15_7) AppleWebKit/537.36 (KHTML, like Gecko) Chrome/137.0.0.0 Safari/537.36","Macintosh","Chrome","137.0.0.0","OS X","10_15_7","https://app.prolific.com/","en-GB,en-US;q=0.9,en;q=0.8","66742c4307bb2004831faaef","683db6dfa200031b80f2a654","686507600a498271b656979d","66742c4307bb2004831faaef","2025-07-02T10:26:55.801Z","","","","","1","mental_health","","","","","","","","","","","","","","","","","","","","","","","","","","","","","","","","","","","","","","",""
"5417","","","{""depression_history"":[""No""]}","survey-multi-select","12","85101","0.0-7.0-1.0","186","1","2025-07-02 10:25:35","80fe4187154257d5fb01684ea91b68b9","90.196.11.108","Mozilla/5.0 (Macintosh; Intel Mac OS X 10_15_7) AppleWebKit/537.36 (KHTML, like Gecko) Chrome/137.0.0.0 Safari/537.36","Macintosh","Chrome","137.0.0.0","OS X","10_15_7","https://app.prolific.com/","en-GB,en-US;q=0.9,en;q=0.8","66742c4307bb2004831faaef","683db6dfa200031b80f2a654","686507600a498271b656979d","66742c4307bb2004831faaef","","","[0]","","","","mental_health","","","","","","","","","","","","","","","","","","","","","","","","","","","","","","","","","","","","","","",""
"72931.39999999851","","","","survey-template","13","158037","0.0-7.0-3.0","186","1","2025-07-02 10:25:35","80fe4187154257d5fb01684ea91b68b9","90.196.11.108","Mozilla/5.0 (Macintosh; Intel Mac OS X 10_15_7) AppleWebKit/537.36 (KHTML, like Gecko) Chrome/137.0.0.0 Safari/537.36","Macintosh","Chrome","137.0.0.0","OS X","10_15_7","https://app.prolific.com/","en-GB,en-US;q=0.9,en;q=0.8","66742c4307bb2004831faaef","683db6dfa200031b80f2a654","686507600a498271b656979d","66742c4307bb2004831faaef","2025-07-02T10:28:14.157Z","","","","","","ius","{""Q01"":""3"",""Q02"":""3"",""Q03"":""0"",""Q04"":""2"",""Q05"":""2"",""Q06"":""2"",""Q07"":""3"",""Q08"":""0"",""Q09"":""2"",""Q10"":""1"",""Q11"":""3"",""Q12"":""2"",""Q13"":""1""}","[0,1,2,3,4,5,6,7,8,9,10,11,12]","[""Q01"",""Q02"",""Q03"",""Q04"",""Q04"",""Q05"",""Q06"",""Q07"",""Q08"",""Q09"",""Q10"",""Q11"",""Q12"",""Q13"",""Q13""]","[7775.5999999996275,10903.799999998882,17906.299999998882,23455.599999999627,26305.599999999627,29198.5,35492.59999999963,39440.89999999851,41278.09999999963,46840.79999999888,50177.79999999888,53917,64865.89999999851,67457.39999999851,71989.09999999963]","[]","[6521.39999999851,7775.5999999996275,10903.799999998882,16296,17906.299999998882,23455.599999999627,26305.599999999627,29198.5,35492.59999999963,39440.89999999851,41278.09999999963,46840.79999999888,49217.39999999851,50177.79999999888,53917,61416.09999999963,62072.699999999255,62872,63438,64865.89999999851,67457.39999999851,71989.09999999963,72928.59999999963]","0.38461538461538464","0.3333333333333333","0","","","","","","","","","","","","","","","","","","","","","","","","","","","","","",""
"1477","1751452095635","<p style='font-size:1.1em;line-height:1.25'>In the following, we will ask you a few questions relating to your experiences over the past month.<br></p><p style='font-size:1.1em;line-height:1.25'>Press the <strong>Next</strong> button to continue.</p>","0","custom-html-button-response","14","159516","0.0-7.0-4.0","186","1","2025-07-02 10:25:35","80fe4187154257d5fb01684ea91b68b9","90.196.11.108","Mozilla/5.0 (Macintosh; Intel Mac OS X 10_15_7) AppleWebKit/537.36 (KHTML, like Gecko) Chrome/137.0.0.0 Safari/537.36","Macintosh","Chrome","137.0.0.0","OS X","10_15_7","https://app.prolific.com/","en-GB,en-US;q=0.9,en;q=0.8","66742c4307bb2004831faaef","683db6dfa200031b80f2a654","686507600a498271b656979d","66742c4307bb2004831faaef","2025-07-02T10:28:15.636Z","","","","","","","","","","","","","","","","","","","","","","","","","","","","","","","","","","","","","","","","","","","","",""
"42193.09999999963","","","","survey-template","15","201712","0.0-7.0-5.0","186","1","2025-07-02 10:25:35","80fe4187154257d5fb01684ea91b68b9","90.196.11.108","Mozilla/5.0 (Macintosh; Intel Mac OS X 10_15_7) AppleWebKit/537.36 (KHTML, like Gecko) Chrome/137.0.0.0 Safari/537.36","Macintosh","Chrome","137.0.0.0","OS X","10_15_7","https://app.prolific.com/","en-GB,en-US;q=0.9,en;q=0.8","66742c4307bb2004831faaef","683db6dfa200031b80f2a654","686507600a498271b656979d","66742c4307bb2004831faaef","2025-07-02T10:28:57.832Z","","","","","","pss","{""Q01"":""2"",""Q02"":""2"",""Q03"":""3"",""Q04"":""2"",""Q05"":""2"",""Q06"":""2"",""Q07"":""2"",""Q08"":""2"",""Q09"":""2"",""Q10"":""2""}","[0,1,2,3,4,5,6,7,8,9]","[""Q01"",""Q01"",""Q02"",""Q03"",""Q04"",""Q05"",""Q06"",""Q06"",""Q07"",""Q08"",""Q09"",""Q10""]","[5061.5999999996275,6518.700000001118,8834,12177.200000001118,16014.200000001118,21845.900000000373,24895.400000000373,25931.800000000745,28303.5,36382.5,39575.5,41416]","[]","[0,5061.5999999996275,6518.700000001118,8013.4000000003725,8834,12177.200000001118,16014.200000001118,19935.5,20867.400000000373,21845.900000000373,24895.400000000373,25931.800000000745,28303.5,36382.5,39575.5,41416,42190.59999999963]","0.9","0.2222222222222222","0","","","","","","","","","","","","","","","","","","","","","","","","","","","","","",""
"1410","1751452139243","<p style='font-size:1.1em;line-height:1.25'>Thank you for your answers! Now we will ask you a few more questions relating to your feelings in the last 24 hours.<br></p><p style='font-size:1.1em;line-height:1.25'>Press the <strong>Next</strong> button to continue.</p>","0","custom-html-button-response","16","203123","0.0-7.0-6.0","186","1","2025-07-02 10:25:35","80fe4187154257d5fb01684ea91b68b9","90.196.11.108","Mozilla/5.0 (Macintosh; Intel Mac OS X 10_15_7) AppleWebKit/537.36 (KHTML, like Gecko) Chrome/137.0.0.0 Safari/537.36","Macintosh","Chrome","137.0.0.0","OS X","10_15_7","https://app.prolific.com/","en-GB,en-US;q=0.9,en;q=0.8","66742c4307bb2004831faaef","683db6dfa200031b80f2a654","686507600a498271b656979d","66742c4307bb2004831faaef","2025-07-02T10:28:59.243Z","","","","","","","","","","","","","","","","","","","","","","","","","","","","","","","","","","","","","","","","","","","","",""
"166342.59999999963","","","","survey-template","17","369470","0.0-7.0-7.0","186","1","2025-07-02 10:25:35","80fe4187154257d5fb01684ea91b68b9","90.196.11.108","Mozilla/5.0 (Macintosh; Intel Mac OS X 10_15_7) AppleWebKit/537.36 (KHTML, like Gecko) Chrome/137.0.0.0 Safari/537.36","Macintosh","Chrome","137.0.0.0","OS X","10_15_7","https://app.prolific.com/","en-GB,en-US;q=0.9,en;q=0.8","66742c4307bb2004831faaef","683db6dfa200031b80f2a654","686507600a498271b656979d","66742c4307bb2004831faaef","2025-07-02T10:31:45.590Z","","","","","","drsp","{""Q01"":""1"",""Q02"":""0"",""Q03"":""1"",""Q04"":""2"",""Q05"":""3"",""Q06"":""0"",""Q07"":""3"",""Q08"":""2"",""Q09"":""1"",""Q10"":""2"",""Q11"":""3"",""Q12"":""1"",""Q13"":""1"",""Q14"":""0"",""Q15"":""0"",""Q16"":""1"",""Q17"":""1"",""Q18"":""0"",""Q19"":""0"",""Q20"":""0"",""Q21"":""1""}","[0,1,2,3,4,5,6,7,8,9,10,11,12,13,14,15,16,17,18,19,20]","[""Q01"",""Q02"",""Q03"",""Q04"",""Q05"",""Q06"",""Q07"",""Q06"",""Q08"",""Q09"",""Q10"",""Q10"",""Q11"",""Q11"",""Q12"",""Q13"",""Q14"",""Q15"",""Q16"",""Q17"",""Q18"",""Q19"",""Q20"",""Q21""]","[102745,103951.79999999888,105557.29999999888,107585.19999999925,108906.5,112484.29999999888,115088.39999999851,115781.19999999925,118374,121338.5,122765.89999999851,125104.79999999888,126656,128536,130122.09999999963,133228,141462.29999999888,144209,147719.69999999925,149930.59999999963,152960.79999999888,154878.3999999985,158746,164561.8999999985]","[]","[0,102745,103951.79999999888,105557.29999999888,107585.19999999925,108906.5,112484.29999999888,113080.29999999888,114092.89999999851,115088.39999999851,115781.19999999925,118374,121338.5,122765.89999999851,123790.5,125104.79999999888,126656,128536,130122.09999999963,130686,133228,140358.29999999888,141462.29999999888,144209,146963.09999999963,147719.69999999925,149249,149930.59999999963,152960.79999999888,154878.3999999985,158746,163983.79999999888,164561.8999999985,166338.3999999985]","0.38095238095238093","0.6","0","","","","","","","","","","","","","","","","","","","","","","","","","","","","","",""
"9234.099999999627","","","","survey-template","18","378706","0.0-7.0-8.0","186","1","2025-07-02 10:25:35","80fe4187154257d5fb01684ea91b68b9","90.196.11.108","Mozilla/5.0 (Macintosh; Intel Mac OS X 10_15_7) AppleWebKit/537.36 (KHTML, like Gecko) Chrome/137.0.0.0 Safari/537.36","Macintosh","Chrome","137.0.0.0","OS X","10_15_7","https://app.prolific.com/","en-GB,en-US;q=0.9,en;q=0.8","66742c4307bb2004831faaef","683db6dfa200031b80f2a654","686507600a498271b656979d","66742c4307bb2004831faaef","2025-07-02T10:31:54.826Z","","","","","","stress","{""Q01"":""3"",""Q02"":""3"",""Q03"":""1""}","[0,1,2]","[""Q01"",""Q02"",""Q03""]","[5709.799999998882,6392.299999998882,8501.799999998882]","[]","[4014.199999999255,5709.799999998882,6392.299999998882,8501.799999998882,9233]","0.3333333333333333","1","0","","","","","","","","","","","","","","","","","","","","","","","","","","","","","",""
"114223","","","","instructions","19","492929","0.0-8.0-0.0","186","1","2025-07-02 10:25:35","80fe4187154257d5fb01684ea91b68b9","90.196.11.108","Mozilla/5.0 (Macintosh; Intel Mac OS X 10_15_7) AppleWebKit/537.36 (KHTML, like Gecko) Chrome/137.0.0.0 Safari/537.36","Macintosh","Chrome","137.0.0.0","OS X","10_15_7","https://app.prolific.com/","en-GB,en-US;q=0.9,en;q=0.8","66742c4307bb2004831faaef","683db6dfa200031b80f2a654","686507600a498271b656979d","66742c4307bb2004831faaef","","[{""page_index"":0,""viewing_time"":51301},{""page_index"":1,""viewing_time"":37266},{""page_index"":2,""viewing_time"":2809},{""page_index"":3,""viewing_time"":22846}]","","","","","","","","","","","","","","","","","","","","","","","","","","","","","","","","","","","","","","","","","","","",""
"","","","","ctl-task-cpt","20","541110","0.0-8.0-1.0","186","1","2025-07-02 10:25:35","80fe4187154257d5fb01684ea91b68b9","90.196.11.108","Mozilla/5.0 (Macintosh; Intel Mac OS X 10_15_7) AppleWebKit/537.36 (KHTML, like Gecko) Chrome/137.0.0.0 Safari/537.36","Macintosh","Chrome","137.0.0.0","OS X","10_15_7","https://app.prolific.com/","en-GB,en-US;q=0.9,en;q=0.8","66742c4307bb2004831faaef","683db6dfa200031b80f2a654","686507600a498271b656979d","66742c4307bb2004831faaef","","","","","","","","","","","","","","","","","win-only","1","g1:NE,g2:SW","1","0","1","493708","3864.7","7866.7","45172.1","2","4","4","6","1","-2","-7","0","0","0","4001.9","4000","-2995","[""up"",""right""]","{""num_key_presses"":13,""num_perfect"":7,""num_errors"":5,""num_randdir"":0,""num_randdir_good_moves"":0,""num_whilered"":1,""num_whileblue"":1,""num_blue"":2,""num_good_moves"":2}","[700.2857142857143,686.0825892857143,0.4,700.2857142857143,686.0825892857143,101.2,700.2857142857143,686.0825892857143,201.5,700.2857142857143,686.0825892857143,301.6,700.2857142857143,686.0825892857143,402.4,700.2857142857143,686.0825892857143,506,700.2857142857143,686.0825892857143,606.6,700.2857142857143,686.0825892857143,711.5,700.2857142857143,686.0825892857143,811.7,700.2857142857143,686.0825892857143,916.5,700.2857142857143,686.0825892857143,1017,700.2857142857143,686.0825892857143,1121.4,700.2857142857143,686.0825892857143,1221.4,700.2857142857143,686.0825892857143,1326.4,700.2857142857143,686.0825892857143,1426.5,700.2857142857143,686.0825892857143,1526.7,700.2857142857143,686.0825892857143,1627.7,700.2857142857143,686.0825892857143,1732.2,700.2857142857143,686.0825892857143,1836.9,700.2857142857143,686.0825892857143,1937.3,700.2857142857143,686.0825892857143,2041.3,700.2857142857143,686.0825892857143,2142.2,700.2857142857143,686.0825892857143,2243.7,700.2857142857143,686.0825892857143,2346.1,700.2857142857143,686.0825892857143,2446.3,700.2857142857143,686.0825892857143,2546.9,700.2857142857143,686.0825892857143,2652.4,700.2857142857143,686.0825892857143,2756.6,700.2857142857143,686.0825892857143,2857.1,700.2857142857143,686.0825892857143,2961.3,700.2857142857143,686.0825892857143,3061.5,700.2857142857143,686.0825892857143,3166.5,700.2857142857143,686.0825892857143,3266.8,700.2857142857143,686.0825892857143,3374.7,700.2857142857143,686.0825892857143,3477,700.2857142857143,686.0825892857143,3581.8,700.2857142857143,686.0825892857143,3686.2,700.2857142857143,686.0825892857143,3787.2,700.2857142857143,686.0825892857143,3887.4,700.2857142857143,686.0825892857143,3992.7]","[29.1,29,1000,0.1,-971,""error"",""-"",""-"",""no_move"",442.1,412.8,1000,0.1,-558,""while_red"",""-"",""-"",""no_move"",4054.6,4025.3,2268.9,1030.2,755.5,""smooth"",""down"",""down"",""bad_move"",4383.5,328.5,1981.9,4055,-1653.4,""error"",""-"",""-"",""no_move"",6038.9,1655.1,3024.1,5385.1,-2370.3,""error"",""-"",""-"",""no_move"",14616.4,8577.3,2865.3,11315.1,436,""smooth"",""left"",""left"",""bad_move"",17635.2,3018.6,2501.9,14616.6,516.7,""smooth"",""down"",""down"",""bad_move"",20496.7,2861.3,2466.1,17635.4,395.2,""smooth"",""left"",""left"",""bad_move"",23384.3,2887.4,2435.1,20496.9,452.3,""smooth"",""left"",""left"",""bad_move"",26142.8,2758.4,2286.4,23384.4,472,""smooth"",""down"",""down"",""bad_move"",29645.5,3502.5,2685.5,26143,817,""smooth"",""right"",""right"",""good_move"",32672.5,3026.8,2729.8,29645.7,297,""while_blue"",""up"",""right"",""good_move"",34477.4,1804.7,2621.9,32672.7,-817.2,""error"",""-"",""-"",""no_move""]","","",""
"45271","","","","instructions","21","586382","0.0-8.0-2.0","186","1","2025-07-02 10:25:35","80fe4187154257d5fb01684ea91b68b9","90.196.11.108","Mozilla/5.0 (Macintosh; Intel Mac OS X 10_15_7) AppleWebKit/537.36 (KHTML, like Gecko) Chrome/137.0.0.0 Safari/537.36","Macintosh","Chrome","137.0.0.0","OS X","10_15_7","https://app.prolific.com/","en-GB,en-US;q=0.9,en;q=0.8","66742c4307bb2004831faaef","683db6dfa200031b80f2a654","686507600a498271b656979d","66742c4307bb2004831faaef","","[{""page_index"":0,""viewing_time"":45271}]","","","","","","","","","","","","","","","","","","","","","","","","","","","","","","","","","","","","","","","","","","","",""
"","","","","ctl-task-cpt","22","623789","0.0-8.0-3.0","186","1","2025-07-02 10:25:35","80fe4187154257d5fb01684ea91b68b9","90.196.11.108","Mozilla/5.0 (Macintosh; Intel Mac OS X 10_15_7) AppleWebKit/537.36 (KHTML, like Gecko) Chrome/137.0.0.0 Safari/537.36","Macintosh","Chrome","137.0.0.0","OS X","10_15_7","https://app.prolific.com/","en-GB,en-US;q=0.9,en;q=0.8","66742c4307bb2004831faaef","683db6dfa200031b80f2a654","686507600a498271b656979d","66742c4307bb2004831faaef","","","","","","","","","","","","","","","","","win-only","1","g1:NE,g2:SW","0.35","0","3","587160.5","3250.4","7252.5","34397.7","2","4","8","6","1","-2","-3","0","0","0","4002.1","4000","-2835","[""up"",""right""]","{""num_key_presses"":7,""num_perfect"":4,""num_errors"":1,""num_randdir"":2,""num_randdir_good_moves"":0,""num_whilered"":0,""num_whileblue"":0,""num_blue"":1,""num_good_moves"":2}","[682.2857142857143,694.0825892857143,0.3,682.2857142857143,694.0825892857143,103.1,682.2857142857143,694.0825892857143,203.4,682.2857142857143,694.0825892857143,306,682.2857142857143,694.0825892857143,410.9,682.2857142857143,694.0825892857143,517.6,682.2857142857143,694.0825892857143,620.4,682.2857142857143,694.0825892857143,721.9,682.2857142857143,694.0825892857143,826,682.2857142857143,694.0825892857143,930.4,682.2857142857143,694.0825892857143,1036.6,682.2857142857143,694.0825892857143,1136.7,682.2857142857143,694.0825892857143,1237.4,682.2857142857143,694.0825892857143,1341.3,682.2857142857143,694.0825892857143,1445.9,682.2857142857143,694.0825892857143,1552.4,682.2857142857143,694.0825892857143,1655.1,682.2857142857143,694.0825892857143,1755.5,682.2857142857143,694.0825892857143,1856.3,682.2857142857143,694.0825892857143,1961.2,682.2857142857143,694.0825892857143,2066.4,682.2857142857143,694.0825892857143,2169.4,682.2857142857143,694.0825892857143,2271,682.2857142857143,694.0825892857143,2375.5,682.2857142857143,694.0825892857143,2476,682.2857142857143,694.0825892857143,2580.4,682.2857142857143,694.0825892857143,2681.5,682.2857142857143,694.0825892857143,2788.2,682.2857142857143,694.0825892857143,2890.3,682.2857142857143,694.0825892857143,2990.6,682.2857142857143,694.0825892857143,3095.4,682.2857142857143,694.0825892857143,3195.9,682.2857142857143,694.0825892857143,3300.4,682.2857142857143,694.0825892857143,3402.6,682.2857142857143,694.0825892857143,3507.2,682.2857142857143,694.0825892857143,3611.2,682.2857142857143,694.0825892857143,3716.7,682.2857142857143,694.0825892857143,3817.1,682.2857142857143,694.0825892857143,3921.1]","[1640.3,1640.3,1000,0,640.3,""smooth"",""down"",""down"",""bad_move"",4792.1,3151.5,2785.7,1640.6,365.8,""smooth"",""left"",""left"",""bad_move"",7597.4,2805,2418.8,4792.4,386.2,""smooth"",""up"",""up"",""good_move"",10019.4,2421.3,2028.5,7598.1,392.8,""smooth"",""up"",""up"",""good_move"",12509.9,2490.3,3173.1,10019.6,-682.8,""error"",""-"",""-"",""no_move"",20355,7844.9,2823,17188.9,343.1,""oops"",""right"",""left"",""bad_move"",23785.9,3430.7,2390.4,20355.2,1040.3,""oops"",""right"",""down"",""bad_move""]","","",""
"19085","","","","instructions","23","642874","0.0-8.0-4.0","186","1","2025-07-02 10:25:35","80fe4187154257d5fb01684ea91b68b9","90.196.11.108","Mozilla/5.0 (Macintosh; Intel Mac OS X 10_15_7) AppleWebKit/537.36 (KHTML, like Gecko) Chrome/137.0.0.0 Safari/537.36","Macintosh","Chrome","137.0.0.0","OS X","10_15_7","https://app.prolific.com/","en-GB,en-US;q=0.9,en;q=0.8","66742c4307bb2004831faaef","683db6dfa200031b80f2a654","686507600a498271b656979d","66742c4307bb2004831faaef","","[{""page_index"":0,""viewing_time"":14742},{""page_index"":1,""viewing_time"":4342}]","","","","","","","","","","","","","","","","","","","","","","","","","","","","","","","","","","","","","","","","","","","",""
"30275","","","{""green_ball"":[""Ball sometimes shakes and moves in a random direction""]}","survey-multi-select","24","673153","0.0-8.0-5.0-0.0","186","1","2025-07-02 10:25:35","80fe4187154257d5fb01684ea91b68b9","90.196.11.108","Mozilla/5.0 (Macintosh; Intel Mac OS X 10_15_7) AppleWebKit/537.36 (KHTML, like Gecko) Chrome/137.0.0.0 Safari/537.36","Macintosh","Chrome","137.0.0.0","OS X","10_15_7","https://app.prolific.com/","en-GB,en-US;q=0.9,en;q=0.8","66742c4307bb2004831faaef","683db6dfa200031b80f2a654","686507600a498271b656979d","66742c4307bb2004831faaef","","","[0]","","","","quiz","","","","","","","","","","","","","","","","","","","","","","","","","","","","","","","","","","","","","true","",""
"1918","","<p align='center'><b>CORRECT!</b> Indeed, the green ball may sometimes shake and move in a random direction.</p>","0","html-button-response","25","675073","0.0-8.0-5.0-1.0","186","1","2025-07-02 10:25:35","80fe4187154257d5fb01684ea91b68b9","90.196.11.108","Mozilla/5.0 (Macintosh; Intel Mac OS X 10_15_7) AppleWebKit/537.36 (KHTML, like Gecko) Chrome/137.0.0.0 Safari/537.36","Macintosh","Chrome","137.0.0.0","OS X","10_15_7","https://app.prolific.com/","en-GB,en-US;q=0.9,en;q=0.8","66742c4307bb2004831faaef","683db6dfa200031b80f2a654","686507600a498271b656979d","66742c4307bb2004831faaef","","","","","","","","","","","","","","","","","","","","","","","","","","","","","","","","","","","","","","","","","","","","","",""
"58379","","","{""yellow_ball"":[""Ball doesn‘t move and I get -1 penalty point""]}","survey-multi-select","26","733455","0.0-8.0-6.0-0.0","186","1","2025-07-02 10:25:35","80fe4187154257d5fb01684ea91b68b9","90.196.11.108","Mozilla/5.0 (Macintosh; Intel Mac OS X 10_15_7) AppleWebKit/537.36 (KHTML, like Gecko) Chrome/137.0.0.0 Safari/537.36","Macintosh","Chrome","137.0.0.0","OS X","10_15_7","https://app.prolific.com/","en-GB,en-US;q=0.9,en;q=0.8","66742c4307bb2004831faaef","683db6dfa200031b80f2a654","686507600a498271b656979d","66742c4307bb2004831faaef","","","[0]","","","","quiz","","","","","","","","","","","","","","","","","","","","","","","","","","","","","","","","","","","","","true","",""
"1003","","<p align='center'><b>CORRECT!</b> Indeed, the yellow ball never moves and you receive a penalty.</p>","0","html-button-response","27","734458","0.0-8.0-6.0-1.0","186","1","2025-07-02 10:25:35","80fe4187154257d5fb01684ea91b68b9","90.196.11.108","Mozilla/5.0 (Macintosh; Intel Mac OS X 10_15_7) AppleWebKit/537.36 (KHTML, like Gecko) Chrome/137.0.0.0 Safari/537.36","Macintosh","Chrome","137.0.0.0","OS X","10_15_7","https://app.prolific.com/","en-GB,en-US;q=0.9,en;q=0.8","66742c4307bb2004831faaef","683db6dfa200031b80f2a654","686507600a498271b656979d","66742c4307bb2004831faaef","","","","","","","","","","","","","","","","","","","","","","","","","","","","","","","","","","","","","","","","","","","","","",""
"6905","","","{""blue_ball"":[""Ball doesn‘t move and I get -1 penalty point""]}","survey-multi-select","28","741366","0.0-8.0-7.0-0.0","186","1","2025-07-02 10:25:35","80fe4187154257d5fb01684ea91b68b9","90.196.11.108","Mozilla/5.0 (Macintosh; Intel Mac OS X 10_15_7) AppleWebKit/537.36 (KHTML, like Gecko) Chrome/137.0.0.0 Safari/537.36","Macintosh","Chrome","137.0.0.0","OS X","10_15_7","https://app.prolific.com/","en-GB,en-US;q=0.9,en;q=0.8","66742c4307bb2004831faaef","683db6dfa200031b80f2a654","686507600a498271b656979d","66742c4307bb2004831faaef","","","[0]","","","","quiz","","","","","","","","","","","","","","","","","","","","","","","","","","","","","","","","","","","","","false","",""
"3229","","<p align='center'><b>INCORRECT.</b> The blue ball always shakes and moves randomly.</p>","0","html-button-response","29","744596","0.0-8.0-7.0-1.0","186","1","2025-07-02 10:25:35","80fe4187154257d5fb01684ea91b68b9","90.196.11.108","Mozilla/5.0 (Macintosh; Intel Mac OS X 10_15_7) AppleWebKit/537.36 (KHTML, like Gecko) Chrome/137.0.0.0 Safari/537.36","Macintosh","Chrome","137.0.0.0","OS X","10_15_7","https://app.prolific.com/","en-GB,en-US;q=0.9,en;q=0.8","66742c4307bb2004831faaef","683db6dfa200031b80f2a654","686507600a498271b656979d","66742c4307bb2004831faaef","","","","","","","","","","","","","","","","","","","","","","","","","","","","","","","","","","","","","","","","","","","","","",""
"12452","","","{""blue_ball"":[""Ball always shakes and moves in a random direction""]}","survey-multi-select","30","757049","0.0-8.0-7.1-0.1","186","1","2025-07-02 10:25:35","80fe4187154257d5fb01684ea91b68b9","90.196.11.108","Mozilla/5.0 (Macintosh; Intel Mac OS X 10_15_7) AppleWebKit/537.36 (KHTML, like Gecko) Chrome/137.0.0.0 Safari/537.36","Macintosh","Chrome","137.0.0.0","OS X","10_15_7","https://app.prolific.com/","en-GB,en-US;q=0.9,en;q=0.8","66742c4307bb2004831faaef","683db6dfa200031b80f2a654","686507600a498271b656979d","66742c4307bb2004831faaef","","","[0]","","","","quiz","","","","","","","","","","","","","","","","","","","","","","","","","","","","","","","","","","","","","true","",""
"2028","","<p align='center'><b>CORRECT!</b> Indeed, the blue ball always shakes and moves in a random direction. Also there is a penalty of -1 point.</p>","0","html-button-response","31","759078","0.0-8.0-7.1-1.1","186","1","2025-07-02 10:25:35","80fe4187154257d5fb01684ea91b68b9","90.196.11.108","Mozilla/5.0 (Macintosh; Intel Mac OS X 10_15_7) AppleWebKit/537.36 (KHTML, like Gecko) Chrome/137.0.0.0 Safari/537.36","Macintosh","Chrome","137.0.0.0","OS X","10_15_7","https://app.prolific.com/","en-GB,en-US;q=0.9,en;q=0.8","66742c4307bb2004831faaef","683db6dfa200031b80f2a654","686507600a498271b656979d","66742c4307bb2004831faaef","","","","","","","","","","","","","","","","","","","","","","","","","","","","","","","","","","","","","","","","","","","","","",""
"7493","","","{""bonus"":[""When I reach 50% of points""]}","survey-multi-select","32","766573","0.0-8.0-8.0-0.0","186","1","2025-07-02 10:25:35","80fe4187154257d5fb01684ea91b68b9","90.196.11.108","Mozilla/5.0 (Macintosh; Intel Mac OS X 10_15_7) AppleWebKit/537.36 (KHTML, like Gecko) Chrome/137.0.0.0 Safari/537.36","Macintosh","Chrome","137.0.0.0","OS X","10_15_7","https://app.prolific.com/","en-GB,en-US;q=0.9,en;q=0.8","66742c4307bb2004831faaef","683db6dfa200031b80f2a654","686507600a498271b656979d","66742c4307bb2004831faaef","","","[0]","","","","quiz","","","","","","","","","","","","","","","","","","","","","","","","","","","","","","","","","","","","","true","",""
"4099","","<p align='center'><b>CORRECT!</b> Indeed, you receive 2 pounds extra when you reach 50% of points.</p>","0","html-button-response","33","770674","0.0-8.0-8.0-1.0","186","1","2025-07-02 10:25:35","80fe4187154257d5fb01684ea91b68b9","90.196.11.108","Mozilla/5.0 (Macintosh; Intel Mac OS X 10_15_7) AppleWebKit/537.36 (KHTML, like Gecko) Chrome/137.0.0.0 Safari/537.36","Macintosh","Chrome","137.0.0.0","OS X","10_15_7","https://app.prolific.com/","en-GB,en-US;q=0.9,en;q=0.8","66742c4307bb2004831faaef","683db6dfa200031b80f2a654","686507600a498271b656979d","66742c4307bb2004831faaef","","","","","","","","","","","","","","","","","","","","","","","","","","","","","","","","","","","","","","","","","","","","","",""
"3033","","","","instructions","34","773710","0.0-8.0-9.0","186","1","2025-07-02 10:25:35","80fe4187154257d5fb01684ea91b68b9","90.196.11.108","Mozilla/5.0 (Macintosh; Intel Mac OS X 10_15_7) AppleWebKit/537.36 (KHTML, like Gecko) Chrome/137.0.0.0 Safari/537.36","Macintosh","Chrome","137.0.0.0","OS X","10_15_7","https://app.prolific.com/","en-GB,en-US;q=0.9,en;q=0.8","66742c4307bb2004831faaef","683db6dfa200031b80f2a654","686507600a498271b656979d","66742c4307bb2004831faaef","","[{""page_index"":0,""viewing_time"":3033}]","","","","","","","","","","","","","","","","","","","","","","","","","","","","","","","","","","","","","","","","","","","",""
"16322","","<p>Before you start with this game please answer the following three questions yourself. </p>
  <p>Through this game, we measure several aspects of your cognitive performance, such as reaction times, multi-tasking capabilities </p>
  <p>and the ability to assess the situation you are in.</p>
  <p></p>
  <p><b>How good do you usually are in such tasks?</b></p>","81","html-slider-response","35","790034","0.0-9.0-0.0","186","1","2025-07-02 10:25:35","80fe4187154257d5fb01684ea91b68b9","90.196.11.108","Mozilla/5.0 (Macintosh; Intel Mac OS X 10_15_7) AppleWebKit/537.36 (KHTML, like Gecko) Chrome/137.0.0.0 Safari/537.36","Macintosh","Chrome","137.0.0.0","OS X","10_15_7","https://app.prolific.com/","en-GB,en-US;q=0.9,en;q=0.8","66742c4307bb2004831faaef","683db6dfa200031b80f2a654","686507600a498271b656979d","66742c4307bb2004831faaef","2025-07-02T10:38:46.154Z","","","","","","PreSkillQ","","","","","","","","","","","","","","","","","","","","","","","","","","","","","","","","","","","","","","50",""
"4214","","<div style=""width:500px;"">
  <p>How well do you think you will perform in this task compared to other participants?</p>
  </div>","65","html-slider-response","36","794250","0.0-9.0-1.0","186","1","2025-07-02 10:25:35","80fe4187154257d5fb01684ea91b68b9","90.196.11.108","Mozilla/5.0 (Macintosh; Intel Mac OS X 10_15_7) AppleWebKit/537.36 (KHTML, like Gecko) Chrome/137.0.0.0 Safari/537.36","Macintosh","Chrome","137.0.0.0","OS X","10_15_7","https://app.prolific.com/","en-GB,en-US;q=0.9,en;q=0.8","66742c4307bb2004831faaef","683db6dfa200031b80f2a654","686507600a498271b656979d","66742c4307bb2004831faaef","2025-07-02T10:38:50.370Z","","","","","","PrePerfQ","","","","","","","","","","","","","","","","","","","","","","","","","","","","","","","","","","","","","","50",""
"3203","","<div style=""width:500px;"">
  <p>What best describes how you currently feel?</p>
  </div>","60","html-slider-response","37","797453","0.0-9.0-2.0","186","1","2025-07-02 10:25:35","80fe4187154257d5fb01684ea91b68b9","90.196.11.108","Mozilla/5.0 (Macintosh; Intel Mac OS X 10_15_7) AppleWebKit/537.36 (KHTML, like Gecko) Chrome/137.0.0.0 Safari/537.36","Macintosh","Chrome","137.0.0.0","OS X","10_15_7","https://app.prolific.com/","en-GB,en-US;q=0.9,en;q=0.8","66742c4307bb2004831faaef","683db6dfa200031b80f2a654","686507600a498271b656979d","66742c4307bb2004831faaef","2025-07-02T10:38:53.573Z","","","","","","PreMotivationQ","","","","","","","","","","","","","","","","","","","","","","","","","","","","","","","","","","","","","","50",""
"","","","","ctl-task-cpt","38","822926","0.0-10.0-0.0","186","1","2025-07-02 10:25:35","80fe4187154257d5fb01684ea91b68b9","90.196.11.108","Mozilla/5.0 (Macintosh; Intel Mac OS X 10_15_7) AppleWebKit/537.36 (KHTML, like Gecko) Chrome/137.0.0.0 Safari/537.36","Macintosh","Chrome","137.0.0.0","OS X","10_15_7","https://app.prolific.com/","en-GB,en-US;q=0.9,en;q=0.8","66742c4307bb2004831faaef","683db6dfa200031b80f2a654","686507600a498271b656979d","66742c4307bb2004831faaef","2025-07-02T10:39:19.046Z","","","","","","","","","","","","","","","","win-only","1","g1:NE,g2:SW","1","1","0","798234.1","2116.8","7121.3","22460.9","1","4","4","6","1","1","1","1","0","0.007575757575757576","5004.5","3000","1720","[""up"",""right""]","{""num_key_presses"":4,""num_perfect"":4,""num_errors"":0,""num_randdir"":0,""num_randdir_good_moves"":0,""num_whilered"":0,""num_whileblue"":0,""num_blue"":1,""num_good_moves"":4}","[690.2857142857143,704.0825892857143,0.2,690.2857142857143,704.0825892857143,104.4,690.2857142857143,704.0825892857143,205,690.2857142857143,704.0825892857143,312.3,690.2857142857143,704.0825892857143,413.5,728.2857142857143,686.0825892857143,513.7,728.2857142857143,686.0825892857143,613.9,728.2857142857143,686.0825892857143,714.3,728.2857142857143,686.0825892857143,814.5,728.2857142857143,686.0825892857143,919.6,728.2857142857143,686.0825892857143,1024.7,728.2857142857143,686.0825892857143,1127.2,728.2857142857143,686.0825892857143,1229.2,728.2857142857143,686.0825892857143,1329.2,728.2857142857143,686.0825892857143,1434.1,728.2857142857143,686.0825892857143,1539.6,728.2857142857143,686.0825892857143,1644.9,728.2857142857143,686.0825892857143,1748.5,728.2857142857143,686.0825892857143,1849.5,728.2857142857143,686.0825892857143,1954.3,728.2857142857143,686.0825892857143,2054.9,728.2857142857143,686.0825892857143,2159.1,728.2857142857143,686.0825892857143,2259.6,728.2857142857143,686.0825892857143,2363.9,728.2857142857143,686.0825892857143,2469.3,728.2857142857143,686.0825892857143,2575.5,728.2857142857143,686.0825892857143,2677.4,728.2857142857143,686.0825892857143,2778.5,728.2857142857143,686.0825892857143,2880.1,728.2857142857143,686.0825892857143,2980.3,728.2857142857143,686.0825892857143,3080.8,728.2857142857143,686.0825892857143,3183.6,728.2857142857143,686.0825892857143,3283.9,728.2857142857143,686.0825892857143,3383.9,728.2857142857143,686.0825892857143,3489.6,728.2857142857143,686.0825892857143,3591.8,728.2857142857143,686.0825892857143,3694.3,728.2857142857143,686.0825892857143,3798,728.2857142857143,686.0825892857143,3899.1,728.2857142857143,686.0825892857143,3999.6,728.2857142857143,686.0825892857143,4103.6,728.2857142857143,686.0825892857143,4204.1,728.2857142857143,686.0825892857143,4311.5,728.2857142857143,686.0825892857143,4415,728.2857142857143,686.0825892857143,4519.6,728.2857142857143,686.0825892857143,4626.6,728.2857142857143,686.0825892857143,4729.1,728.2857142857143,686.0825892857143,4834.2,728.2857142857143,686.0825892857143,4938.8]","[5831.6,5831.6,3386,2006.5,439.1,""smooth"",""up"",""up"",""good_move"",8476.6,2644.6,2285.7,5832,358.9,""smooth"",""right"",""right"",""good_move"",12292.6,3815.6,3456.1,8477,359.5,""smooth"",""up"",""up"",""good_move"",15240.7,2947.8,2628.1,12292.9,319.7,""smooth"",""right"",""right"",""good_move""]","","",""
"6730","","<div style=""width:500px;"">
  <p>What determined the result of this run?</p>
  </div>","100","html-slider-response","39","829657","0.0-10.0-1.0","186","1","2025-07-02 10:25:35","80fe4187154257d5fb01684ea91b68b9","90.196.11.108","Mozilla/5.0 (Macintosh; Intel Mac OS X 10_15_7) AppleWebKit/537.36 (KHTML, like Gecko) Chrome/137.0.0.0 Safari/537.36","Macintosh","Chrome","137.0.0.0","OS X","10_15_7","https://app.prolific.com/","en-GB,en-US;q=0.9,en;q=0.8","66742c4307bb2004831faaef","683db6dfa200031b80f2a654","686507600a498271b656979d","66742c4307bb2004831faaef","2025-07-02T10:39:25.777Z","","","","","","AttribQ","","","","","","","","","","","","","","","","","","","","","","","","","","","","","","","","","","","","","","50",""
"5232","","<div style=""width:500px;"">
  <p>How much control did you have over the ball?</p>
  </div>","100","html-slider-response","40","834890","0.0-10.0-2.0","186","1","2025-07-02 10:25:35","80fe4187154257d5fb01684ea91b68b9","90.196.11.108","Mozilla/5.0 (Macintosh; Intel Mac OS X 10_15_7) AppleWebKit/537.36 (KHTML, like Gecko) Chrome/137.0.0.0 Safari/537.36","Macintosh","Chrome","137.0.0.0","OS X","10_15_7","https://app.prolific.com/","en-GB,en-US;q=0.9,en;q=0.8","66742c4307bb2004831faaef","683db6dfa200031b80f2a654","686507600a498271b656979d","66742c4307bb2004831faaef","2025-07-02T10:39:31.010Z","","","","","","ControlQ","","","","","","","","","","","","","","","","","","","","","","","","","","","","","","","","","","","","","","50",""
"4186","","<div style=""width:500px;"">
  <p>How would you describe your current emotional state?</p>
  </div>","40","html-slider-response","41","839077","0.0-10.0-3.0","186","1","2025-07-02 10:25:35","80fe4187154257d5fb01684ea91b68b9","90.196.11.108","Mozilla/5.0 (Macintosh; Intel Mac OS X 10_15_7) AppleWebKit/537.36 (KHTML, like Gecko) Chrome/137.0.0.0 Safari/537.36","Macintosh","Chrome","137.0.0.0","OS X","10_15_7","https://app.prolific.com/","en-GB,en-US;q=0.9,en;q=0.8","66742c4307bb2004831faaef","683db6dfa200031b80f2a654","686507600a498271b656979d","66742c4307bb2004831faaef","2025-07-02T10:39:35.197Z","","","","","","StressQ","","","","","","","","","","","","","","","","","","","","","","","","","","","","","","","","","","","","","","50",""
"3991","","<div style=""width:500px;"">
  <p>What best describes how you currently feel?</p>
  </div>","100","html-slider-response","42","843069","0.0-10.0-4.0","186","1","2025-07-02 10:25:35","80fe4187154257d5fb01684ea91b68b9","90.196.11.108","Mozilla/5.0 (Macintosh; Intel Mac OS X 10_15_7) AppleWebKit/537.36 (KHTML, like Gecko) Chrome/137.0.0.0 Safari/537.36","Macintosh","Chrome","137.0.0.0","OS X","10_15_7","https://app.prolific.com/","en-GB,en-US;q=0.9,en;q=0.8","66742c4307bb2004831faaef","683db6dfa200031b80f2a654","686507600a498271b656979d","66742c4307bb2004831faaef","2025-07-02T10:39:39.189Z","","","","","","MotivationQ","","","","","","","","","","","","","","","","","","","","","","","","","","","","","","","","","","","","","","50",""
"","","","","ctl-task-cpt","43","872923","0.0-10.0-0.1","186","1","2025-07-02 10:25:35","80fe4187154257d5fb01684ea91b68b9","90.196.11.108","Mozilla/5.0 (Macintosh; Intel Mac OS X 10_15_7) AppleWebKit/537.36 (KHTML, like Gecko) Chrome/137.0.0.0 Safari/537.36","Macintosh","Chrome","137.0.0.0","OS X","10_15_7","https://app.prolific.com/","en-GB,en-US;q=0.9,en;q=0.8","66742c4307bb2004831faaef","683db6dfa200031b80f2a654","686507600a498271b656979d","66742c4307bb2004831faaef","2025-07-02T10:40:09.043Z","","","","","","","","","","","","","","","","win-only","3","g1:SW,g2:NE","0.9","2","0","843850.1","1867","6871.7","26843.6","1","4","8","6","2","8","7","8","1","0.06060606060606061","5004.6","3000","740","[""up"",""right""]","{""num_key_presses"":7,""num_perfect"":6,""num_errors"":1,""num_randdir"":0,""num_randdir_good_moves"":0,""num_whilered"":0,""num_whileblue"":0,""num_blue"":0,""num_good_moves"":6}","[692.2857142857143,698.0825892857143,0.2,692.2857142857143,698.0825892857143,109.7,692.2857142857143,698.0825892857143,212.6,692.2857142857143,698.0825892857143,313.6,692.2857142857143,698.0825892857143,413.6,692.2857142857143,698.0825892857143,519.4,692.2857142857143,698.0825892857143,623.3,692.2857142857143,698.0825892857143,727.1,692.2857142857143,698.0825892857143,829,692.2857142857143,698.0825892857143,929,692.2857142857143,698.0825892857143,1029.1,692.2857142857143,698.0825892857143,1129.4,692.2857142857143,698.0825892857143,1233.9,692.2857142857143,698.0825892857143,1339.4,692.2857142857143,698.0825892857143,1443.5,692.2857142857143,698.0825892857143,1543.5,692.2857142857143,698.0825892857143,1646.4,692.2857142857143,698.0825892857143,1748.3,692.2857142857143,698.0825892857143,1848.4,692.2857142857143,698.0825892857143,1949.1,692.2857142857143,698.0825892857143,2049.3,692.2857142857143,698.0825892857143,2154,692.2857142857143,698.0825892857143,2254.7,692.2857142857143,698.0825892857143,2360.2,692.2857142857143,698.0825892857143,2464,692.2857142857143,698.0825892857143,2564.3,692.2857142857143,698.0825892857143,2669.1,692.2857142857143,698.0825892857143,2769.4,692.2857142857143,698.0825892857143,2869.4,692.2857142857143,698.0825892857143,2973.3,692.2857142857143,698.0825892857143,3073.9,692.2857142857143,698.0825892857143,3176.4,692.2857142857143,698.0825892857143,3278.7,692.2857142857143,698.0825892857143,3383.3,692.2857142857143,698.0825892857143,3483.7,692.2857142857143,698.0825892857143,3583.8,692.2857142857143,698.0825892857143,3684,692.2857142857143,698.0825892857143,3784.1,692.2857142857143,698.0825892857143,3884.3,692.2857142857143,698.0825892857143,3988.3,692.2857142857143,698.0825892857143,4088.3,692.2857142857143,698.0825892857143,4189.3,692.2857142857143,698.0825892857143,4293.8,692.2857142857143,698.0825892857143,4394.3,692.2857142857143,698.0825892857143,4498.5,692.2857142857143,698.0825892857143,4604,692.2857142857143,698.0825892857143,4711,692.2857142857143,698.0825892857143,4812,692.2857142857143,698.0825892857143,4913.4]","[369.2,369.2,1000,0,-630.8,""error"",""-"",""-"",""no_move"",5170,4800.6,3221.3,1371.2,577.5,""smooth"",""up"",""up"",""good_move"",8462.5,3292.2,2826.7,5170.3,465.5,""smooth"",""right"",""right"",""good_move"",11945.5,3482.7,3150,8462.8,332.7,""smooth"",""up"",""up"",""good_move"",14689.8,2744.2,2407.3,11945.6,336.9,""smooth"",""up"",""up"",""good_move"",17422,2732,2413.9,14690,318.1,""smooth"",""right"",""right"",""good_move"",19876.9,2454.7,2127.7,17422.2,327,""smooth"",""right"",""right"",""good_move""]","","",""
"4058","","<div style=""width:500px;"">
  <p>What determined the result of this run?</p>
  </div>","100","html-slider-response","44","876982","0.0-10.0-1.1","186","1","2025-07-02 10:25:35","80fe4187154257d5fb01684ea91b68b9","90.196.11.108","Mozilla/5.0 (Macintosh; Intel Mac OS X 10_15_7) AppleWebKit/537.36 (KHTML, like Gecko) Chrome/137.0.0.0 Safari/537.36","Macintosh","Chrome","137.0.0.0","OS X","10_15_7","https://app.prolific.com/","en-GB,en-US;q=0.9,en;q=0.8","66742c4307bb2004831faaef","683db6dfa200031b80f2a654","686507600a498271b656979d","66742c4307bb2004831faaef","2025-07-02T10:40:13.103Z","","","","","","AttribQ","","","","","","","","","","","","","","","","","","","","","","","","","","","","","","","","","","","","","","50",""
"3118","","<div style=""width:500px;"">
  <p>How much control did you have over the ball?</p>
  </div>","100","html-slider-response","45","880103","0.0-10.0-2.1","186","1","2025-07-02 10:25:35","80fe4187154257d5fb01684ea91b68b9","90.196.11.108","Mozilla/5.0 (Macintosh; Intel Mac OS X 10_15_7) AppleWebKit/537.36 (KHTML, like Gecko) Chrome/137.0.0.0 Safari/537.36","Macintosh","Chrome","137.0.0.0","OS X","10_15_7","https://app.prolific.com/","en-GB,en-US;q=0.9,en;q=0.8","66742c4307bb2004831faaef","683db6dfa200031b80f2a654","686507600a498271b656979d","66742c4307bb2004831faaef","2025-07-02T10:40:16.223Z","","","","","","ControlQ","","","","","","","","","","","","","","","","","","","","","","","","","","","","","","","","","","","","","","50",""
"7230","","<div style=""width:500px;"">
  <p>How would you describe your current emotional state?</p>
  </div>","51","html-slider-response","46","887334","0.0-10.0-3.1","186","1","2025-07-02 10:25:35","80fe4187154257d5fb01684ea91b68b9","90.196.11.108","Mozilla/5.0 (Macintosh; Intel Mac OS X 10_15_7) AppleWebKit/537.36 (KHTML, like Gecko) Chrome/137.0.0.0 Safari/537.36","Macintosh","Chrome","137.0.0.0","OS X","10_15_7","https://app.prolific.com/","en-GB,en-US;q=0.9,en;q=0.8","66742c4307bb2004831faaef","683db6dfa200031b80f2a654","686507600a498271b656979d","66742c4307bb2004831faaef","2025-07-02T10:40:23.454Z","","","","","","StressQ","","","","","","","","","","","","","","","","","","","","","","","","","","","","","","","","","","","","","","50",""
"3757","","<div style=""width:500px;"">
  <p>What best describes how you currently feel?</p>
  </div>","100","html-slider-response","47","891091","0.0-10.0-4.1","186","1","2025-07-02 10:25:35","80fe4187154257d5fb01684ea91b68b9","90.196.11.108","Mozilla/5.0 (Macintosh; Intel Mac OS X 10_15_7) AppleWebKit/537.36 (KHTML, like Gecko) Chrome/137.0.0.0 Safari/537.36","Macintosh","Chrome","137.0.0.0","OS X","10_15_7","https://app.prolific.com/","en-GB,en-US;q=0.9,en;q=0.8","66742c4307bb2004831faaef","683db6dfa200031b80f2a654","686507600a498271b656979d","66742c4307bb2004831faaef","2025-07-02T10:40:27.211Z","","","","","","MotivationQ","","","","","","","","","","","","","","","","","","","","","","","","","","","","","","","","","","","","","","50",""
"","","","","ctl-task-cpt","48","926449","0.0-10.0-0.2","186","1","2025-07-02 10:25:35","80fe4187154257d5fb01684ea91b68b9","90.196.11.108","Mozilla/5.0 (Macintosh; Intel Mac OS X 10_15_7) AppleWebKit/537.36 (KHTML, like Gecko) Chrome/137.0.0.0 Safari/537.36","Macintosh","Chrome","137.0.0.0","OS X","10_15_7","https://app.prolific.com/","en-GB,en-US;q=0.9,en;q=0.8","66742c4307bb2004831faaef","683db6dfa200031b80f2a654","686507600a498271b656979d","66742c4307bb2004831faaef","2025-07-02T10:41:02.569Z","","","","","","","","","","","","","","","","win-only","1","g1:NE,g2:SW","0.8","3","0","891872.4","954.2","5958.3","32345.7","1","4","8","6","1","1","0","8","8","0.06060606060606061","5004.1","3000","760","[""up"",""right""]","{""num_key_presses"":7,""num_perfect"":5,""num_errors"":1,""num_randdir"":1,""num_randdir_good_moves"":0,""num_whilered"":0,""num_whileblue"":0,""num_blue"":2,""num_good_moves"":5}","[682.2857142857143,678.0825892857143,0.2,682.2857142857143,678.0825892857143,102.1,682.2857142857143,678.0825892857143,207.2,682.2857142857143,678.0825892857143,307.3,682.2857142857143,678.0825892857143,411.9,682.2857142857143,678.0825892857143,516.6,682.2857142857143,678.0825892857143,617.5,682.2857142857143,678.0825892857143,721.7,682.2857142857143,678.0825892857143,821.7,682.2857142857143,678.0825892857143,921.9,682.2857142857143,678.0825892857143,1027,682.2857142857143,678.0825892857143,1131.3,682.2857142857143,678.0825892857143,1236.1,682.2857142857143,678.0825892857143,1336.7,682.2857142857143,678.0825892857143,1441.7,682.2857142857143,678.0825892857143,1542.1,682.2857142857143,678.0825892857143,1646.6,682.2857142857143,678.0825892857143,1755.1,682.2857142857143,678.0825892857143,1857.3,682.2857142857143,678.0825892857143,1961.3,682.2857142857143,678.0825892857143,2061.4,682.2857142857143,678.0825892857143,2161.6,682.2857142857143,678.0825892857143,2266.8,682.2857142857143,678.0825892857143,2371.5,682.2857142857143,678.0825892857143,2471.6,682.2857142857143,678.0825892857143,2572.5,682.2857142857143,678.0825892857143,2677,682.2857142857143,678.0825892857143,2782.2,682.2857142857143,678.0825892857143,2886.8,682.2857142857143,678.0825892857143,2987.1,682.2857142857143,678.0825892857143,3087.4,682.2857142857143,678.0825892857143,3191.9,682.2857142857143,678.0825892857143,3296.3,682.2857142857143,678.0825892857143,3406.1,682.2857142857143,678.0825892857143,3506.9,682.2857142857143,678.0825892857143,3611,682.2857142857143,678.0825892857143,3711.6,682.2857142857143,678.0825892857143,3820.4,682.2857142857143,678.0825892857143,3921.7,682.2857142857143,678.0825892857143,4026.1,682.2857142857143,678.0825892857143,4126.2,682.2857142857143,678.0825892857143,4226.3,682.2857142857143,678.0825892857143,4331.9,682.2857142857143,678.0825892857143,4437,682.2857142857143,678.0825892857143,4541.4,682.2857142857143,678.0825892857143,4641.4,682.2857142857143,678.0825892857143,4746.4,682.2857142857143,678.0825892857143,4850.5,682.2857142857143,678.0825892857143,4951.8]","[619.8,619.8,1000,0,-380.2,""error"",""-"",""-"",""no_move"",8459.8,7839.9,2412.6,5652.6,394.7,""smooth"",""up"",""up"",""good_move"",14759.4,6299.2,2489,11827.7,442.7,""smooth"",""right"",""right"",""good_move"",17623.2,2863.5,2377.7,14759.7,485.8,""smooth"",""right"",""right"",""good_move"",20167,2543.6,2238.3,17623.4,305.3,""oops"",""up"",""down"",""bad_move"",22936.8,2769.5,2370.6,20167.3,398.9,""smooth"",""up"",""up"",""good_move"",26281.8,3344.7,2986.1,22937.1,358.6,""smooth"",""up"",""up"",""good_move""]","","",""
"7271","","<div style=""width:500px;"">
  <p>What determined the result of this run?</p>
  </div>","82","html-slider-response","49","933722","0.0-10.0-1.2","186","1","2025-07-02 10:25:35","80fe4187154257d5fb01684ea91b68b9","90.196.11.108","Mozilla/5.0 (Macintosh; Intel Mac OS X 10_15_7) AppleWebKit/537.36 (KHTML, like Gecko) Chrome/137.0.0.0 Safari/537.36","Macintosh","Chrome","137.0.0.0","OS X","10_15_7","https://app.prolific.com/","en-GB,en-US;q=0.9,en;q=0.8","66742c4307bb2004831faaef","683db6dfa200031b80f2a654","686507600a498271b656979d","66742c4307bb2004831faaef","2025-07-02T10:41:09.842Z","","","","","","AttribQ","","","","","","","","","","","","","","","","","","","","","","","","","","","","","","","","","","","","","","50",""
"3576","","<div style=""width:500px;"">
  <p>How much control did you have over the ball?</p>
  </div>","23","html-slider-response","50","937299","0.0-10.0-2.2","186","1","2025-07-02 10:25:35","80fe4187154257d5fb01684ea91b68b9","90.196.11.108","Mozilla/5.0 (Macintosh; Intel Mac OS X 10_15_7) AppleWebKit/537.36 (KHTML, like Gecko) Chrome/137.0.0.0 Safari/537.36","Macintosh","Chrome","137.0.0.0","OS X","10_15_7","https://app.prolific.com/","en-GB,en-US;q=0.9,en;q=0.8","66742c4307bb2004831faaef","683db6dfa200031b80f2a654","686507600a498271b656979d","66742c4307bb2004831faaef","2025-07-02T10:41:13.419Z","","","","","","ControlQ","","","","","","","","","","","","","","","","","","","","","","","","","","","","","","","","","","","","","","50",""
"2523","","<div style=""width:500px;"">
  <p>How would you describe your current emotional state?</p>
  </div>","56","html-slider-response","51","939822","0.0-10.0-3.2","186","1","2025-07-02 10:25:35","80fe4187154257d5fb01684ea91b68b9","90.196.11.108","Mozilla/5.0 (Macintosh; Intel Mac OS X 10_15_7) AppleWebKit/537.36 (KHTML, like Gecko) Chrome/137.0.0.0 Safari/537.36","Macintosh","Chrome","137.0.0.0","OS X","10_15_7","https://app.prolific.com/","en-GB,en-US;q=0.9,en;q=0.8","66742c4307bb2004831faaef","683db6dfa200031b80f2a654","686507600a498271b656979d","66742c4307bb2004831faaef","2025-07-02T10:41:15.942Z","","","","","","StressQ","","","","","","","","","","","","","","","","","","","","","","","","","","","","","","","","","","","","","","50",""
"3689","","<div style=""width:500px;"">
  <p>What best describes how you currently feel?</p>
  </div>","100","html-slider-response","52","943512","0.0-10.0-4.2","186","1","2025-07-02 10:25:35","80fe4187154257d5fb01684ea91b68b9","90.196.11.108","Mozilla/5.0 (Macintosh; Intel Mac OS X 10_15_7) AppleWebKit/537.36 (KHTML, like Gecko) Chrome/137.0.0.0 Safari/537.36","Macintosh","Chrome","137.0.0.0","OS X","10_15_7","https://app.prolific.com/","en-GB,en-US;q=0.9,en;q=0.8","66742c4307bb2004831faaef","683db6dfa200031b80f2a654","686507600a498271b656979d","66742c4307bb2004831faaef","2025-07-02T10:41:19.632Z","","","","","","MotivationQ","","","","","","","","","","","","","","","","","","","","","","","","","","","","","","","","","","","","","","50",""
"","","","","ctl-task-cpt","53","995386","0.0-10.0-0.3","186","1","2025-07-02 10:25:35","80fe4187154257d5fb01684ea91b68b9","90.196.11.108","Mozilla/5.0 (Macintosh; Intel Mac OS X 10_15_7) AppleWebKit/537.36 (KHTML, like Gecko) Chrome/137.0.0.0 Safari/537.36","Macintosh","Chrome","137.0.0.0","OS X","10_15_7","https://app.prolific.com/","en-GB,en-US;q=0.9,en;q=0.8","66742c4307bb2004831faaef","683db6dfa200031b80f2a654","686507600a498271b656979d","66742c4307bb2004831faaef","2025-07-02T10:42:11.506Z","","","","","","","","","","","","","","","","win-only","1","g1:NE,g2:SW","0.7","4","0","944294.2","1085.5","6087.4","48862.1","1","4","4","6","2","-4","-5","3","8","0.022727272727272728","5001.9","3000","-2355","[""down"",""left""]","{""num_key_presses"":9,""num_perfect"":5,""num_errors"":1,""num_randdir"":3,""num_randdir_good_moves"":1,""num_whilered"":0,""num_whileblue"":1,""num_blue"":5,""num_good_moves"":6}","[690.2857142857143,714.0825892857143,0.4,690.2857142857143,714.0825892857143,103.1,690.2857142857143,714.0825892857143,204.7,690.2857142857143,714.0825892857143,307.1,690.2857142857143,714.0825892857143,410.6,690.2857142857143,714.0825892857143,511.6,690.2857142857143,714.0825892857143,616,690.2857142857143,714.0825892857143,721.6,690.2857142857143,714.0825892857143,822.8,690.2857142857143,714.0825892857143,932.4,690.2857142857143,714.0825892857143,1038.4,690.2857142857143,714.0825892857143,1139.2,690.2857142857143,714.0825892857143,1241.4,690.2857142857143,714.0825892857143,1342.5,690.2857142857143,714.0825892857143,1445.3,690.2857142857143,714.0825892857143,1545.9,690.2857142857143,714.0825892857143,1646.3,690.2857142857143,714.0825892857143,1748.7,690.2857142857143,714.0825892857143,1851.1,690.2857142857143,714.0825892857143,1957,690.2857142857143,714.0825892857143,2057.6,690.2857142857143,714.0825892857143,2168.7,690.2857142857143,714.0825892857143,2269.5,690.2857142857143,714.0825892857143,2373.3,690.2857142857143,714.0825892857143,2476.6,690.2857142857143,714.0825892857143,2587.6,690.2857142857143,714.0825892857143,2690.2,690.2857142857143,714.0825892857143,2790.4,690.2857142857143,714.0825892857143,2896.2,690.2857142857143,714.0825892857143,2996.6,690.2857142857143,714.0825892857143,3104,690.2857142857143,714.0825892857143,3205.2,690.2857142857143,714.0825892857143,3307.6,690.2857142857143,714.0825892857143,3410.6,690.2857142857143,714.0825892857143,3511.6,690.2857142857143,714.0825892857143,3611.8,690.2857142857143,714.0825892857143,3716.9,690.2857142857143,714.0825892857143,3817.5,690.2857142857143,714.0825892857143,3918.8,690.2857142857143,714.0825892857143,4022.9,690.2857142857143,714.0825892857143,4126,690.2857142857143,714.0825892857143,4233.2,690.2857142857143,714.0825892857143,4334.8,690.2857142857143,714.0825892857143,4439.3,690.2857142857143,714.0825892857143,4540.2,690.2857142857143,714.0825892857143,4640.9,690.2857142857143,714.0825892857143,4741.1,690.2857142857143,714.0825892857143,4841.5,690.2857142857143,714.0825892857143,4952.9]","[1780.8,1780.8,1000,0,780.8,""smooth"",""down"",""down"",""good_move"",4538.1,2756.8,2392,1781.3,364.8,""smooth"",""down"",""down"",""good_move"",7503.5,2965.1,2595.8,4538.4,369.3,""smooth"",""down"",""down"",""good_move"",11158.3,3654.7,3304.3,7503.6,350.4,""smooth"",""left"",""left"",""good_move"",18380.8,7222.1,2658.4,15404.2,318.2,""oops"",""left"",""left"",""good_move"",31378.5,12997.5,1923.6,29136.8,318.1,""oops"",""left"",""right"",""bad_move"",34247.6,2868.8,2486.6,31378.8,382.2,""oops"",""left"",""right"",""bad_move"",36647.9,2400,1878.3,34247.9,521.7,""smooth"",""left"",""left"",""good_move"",39856,3207.7,2860.9,36648.3,346.8,""while_blue"",""left"",""right"",""bad_move""]","","",""
"9692","","<div style=""width:500px;"">
  <p>What determined the result of this run?</p>
  </div>","0","html-slider-response","54","1005079","0.0-10.0-1.3","186","1","2025-07-02 10:25:35","80fe4187154257d5fb01684ea91b68b9","90.196.11.108","Mozilla/5.0 (Macintosh; Intel Mac OS X 10_15_7) AppleWebKit/537.36 (KHTML, like Gecko) Chrome/137.0.0.0 Safari/537.36","Macintosh","Chrome","137.0.0.0","OS X","10_15_7","https://app.prolific.com/","en-GB,en-US;q=0.9,en;q=0.8","66742c4307bb2004831faaef","683db6dfa200031b80f2a654","686507600a498271b656979d","66742c4307bb2004831faaef","2025-07-02T10:42:21.199Z","","","","","","AttribQ","","","","","","","","","","","","","","","","","","","","","","","","","","","","","","","","","","","","","","50",""
"3674","","<div style=""width:500px;"">
  <p>How much control did you have over the ball?</p>
  </div>","19","html-slider-response","55","1008754","0.0-10.0-2.3","186","1","2025-07-02 10:25:35","80fe4187154257d5fb01684ea91b68b9","90.196.11.108","Mozilla/5.0 (Macintosh; Intel Mac OS X 10_15_7) AppleWebKit/537.36 (KHTML, like Gecko) Chrome/137.0.0.0 Safari/537.36","Macintosh","Chrome","137.0.0.0","OS X","10_15_7","https://app.prolific.com/","en-GB,en-US;q=0.9,en;q=0.8","66742c4307bb2004831faaef","683db6dfa200031b80f2a654","686507600a498271b656979d","66742c4307bb2004831faaef","2025-07-02T10:42:24.874Z","","","","","","ControlQ","","","","","","","","","","","","","","","","","","","","","","","","","","","","","","","","","","","","","","50",""
"2747","","<div style=""width:500px;"">
  <p>How would you describe your current emotional state?</p>
  </div>","53","html-slider-response","56","1011502","0.0-10.0-3.3","186","1","2025-07-02 10:25:35","80fe4187154257d5fb01684ea91b68b9","90.196.11.108","Mozilla/5.0 (Macintosh; Intel Mac OS X 10_15_7) AppleWebKit/537.36 (KHTML, like Gecko) Chrome/137.0.0.0 Safari/537.36","Macintosh","Chrome","137.0.0.0","OS X","10_15_7","https://app.prolific.com/","en-GB,en-US;q=0.9,en;q=0.8","66742c4307bb2004831faaef","683db6dfa200031b80f2a654","686507600a498271b656979d","66742c4307bb2004831faaef","2025-07-02T10:42:27.622Z","","","","","","StressQ","","","","","","","","","","","","","","","","","","","","","","","","","","","","","","","","","","","","","","50",""
"2410","","<div style=""width:500px;"">
  <p>What best describes how you currently feel?</p>
  </div>","100","html-slider-response","57","1013913","0.0-10.0-4.3","186","1","2025-07-02 10:25:35","80fe4187154257d5fb01684ea91b68b9","90.196.11.108","Mozilla/5.0 (Macintosh; Intel Mac OS X 10_15_7) AppleWebKit/537.36 (KHTML, like Gecko) Chrome/137.0.0.0 Safari/537.36","Macintosh","Chrome","137.0.0.0","OS X","10_15_7","https://app.prolific.com/","en-GB,en-US;q=0.9,en;q=0.8","66742c4307bb2004831faaef","683db6dfa200031b80f2a654","686507600a498271b656979d","66742c4307bb2004831faaef","2025-07-02T10:42:30.034Z","","","","","","MotivationQ","","","","","","","","","","","","","","","","","","","","","","","","","","","","","","","","","","","","","","50",""
"","","","","ctl-task-cpt","58","1049759","0.0-10.0-0.4","186","1","2025-07-02 10:25:35","80fe4187154257d5fb01684ea91b68b9","90.196.11.108","Mozilla/5.0 (Macintosh; Intel Mac OS X 10_15_7) AppleWebKit/537.36 (KHTML, like Gecko) Chrome/137.0.0.0 Safari/537.36","Macintosh","Chrome","137.0.0.0","OS X","10_15_7","https://app.prolific.com/","en-GB,en-US;q=0.9,en;q=0.8","66742c4307bb2004831faaef","683db6dfa200031b80f2a654","686507600a498271b656979d","66742c4307bb2004831faaef","2025-07-02T10:43:05.879Z","","","","","","","","","","","","","","","","win-only","3","g1:SW,g2:NE","0.6","5","0","1014696.6","938.4","5941.5","32836.5","1","4","4","6","1","1","1","4","3","0.030303030303030304","5003.1","3000","445","[""down"",""left""]","{""num_key_presses"":8,""num_perfect"":5,""num_errors"":0,""num_randdir"":3,""num_randdir_good_moves"":1,""num_whilered"":0,""num_whileblue"":0,""num_blue"":1,""num_good_moves"":6}","[690.2857142857143,694.0825892857143,0.3,690.2857142857143,694.0825892857143,101.1,690.2857142857143,694.0825892857143,202.3,690.2857142857143,694.0825892857143,303.1,690.2857142857143,694.0825892857143,404.3,690.2857142857143,694.0825892857143,504.4,690.2857142857143,694.0825892857143,607.7,690.2857142857143,694.0825892857143,709.3,690.2857142857143,694.0825892857143,814.1,690.2857142857143,694.0825892857143,914.4,690.2857142857143,694.0825892857143,1014.7,690.2857142857143,694.0825892857143,1115.3,690.2857142857143,694.0825892857143,1219.7,690.2857142857143,694.0825892857143,1323.2,690.2857142857143,694.0825892857143,1427,690.2857142857143,694.0825892857143,1532.1,690.2857142857143,694.0825892857143,1633,690.2857142857143,694.0825892857143,1737,690.2857142857143,694.0825892857143,1837.1,690.2857142857143,694.0825892857143,1937.2,690.2857142857143,694.0825892857143,2038.3,690.2857142857143,694.0825892857143,2147.3,690.2857142857143,694.0825892857143,2256.2,690.2857142857143,694.0825892857143,2360,690.2857142857143,694.0825892857143,2465.6,690.2857142857143,694.0825892857143,2567.9,690.2857142857143,694.0825892857143,2673.6,690.2857142857143,694.0825892857143,2779.2,690.2857142857143,694.0825892857143,2882.2,690.2857142857143,694.0825892857143,2982.4,690.2857142857143,694.0825892857143,3082.9,690.2857142857143,694.0825892857143,3195.1,690.2857142857143,694.0825892857143,3296.3,690.2857142857143,694.0825892857143,3401.3,690.2857142857143,694.0825892857143,3502.1,690.2857142857143,694.0825892857143,3605,690.2857142857143,694.0825892857143,3720.1,690.2857142857143,694.0825892857143,3827.5,690.2857142857143,694.0825892857143,3929.6,690.2857142857143,694.0825892857143,4030.3,690.2857142857143,694.0825892857143,4132.4,690.2857142857143,694.0825892857143,4238,690.2857142857143,694.0825892857143,4349.3,690.2857142857143,694.0825892857143,4458.2,690.2857142857143,694.0825892857143,4567.1,690.2857142857143,694.0825892857143,4671.3,690.2857142857143,694.0825892857143,4775.6,690.2857142857143,694.0825892857143,4879.4,690.2857142857143,694.0825892857143,4985.2]","[1797.2,1797.2,1000,0,797.2,""oops"",""down"",""right"",""bad_move"",4968.1,3170.2,2681.7,1797.9,488.6,""smooth"",""down"",""down"",""good_move"",7802.2,2833.7,2443.5,4968.5,390.2,""smooth"",""left"",""left"",""good_move"",14683.3,6880.9,2602.6,11665.7,415,""smooth"",""left"",""left"",""good_move"",17994.3,3310.8,2883,14683.5,427.8,""oops"",""left"",""left"",""good_move"",20977.8,2983.4,2591,17994.5,392.3,""oops"",""down"",""up"",""bad_move"",23557.7,2579.6,2184.8,20978.1,394.8,""smooth"",""down"",""down"",""good_move"",26765.2,3207.1,2869.7,23558.1,337.5,""smooth"",""down"",""down"",""good_move""]","","",""
"3364","","<div style=""width:500px;"">
  <p>What determined the result of this run?</p>
  </div>","12","html-slider-response","59","1053125","0.0-10.0-1.4","186","1","2025-07-02 10:25:35","80fe4187154257d5fb01684ea91b68b9","90.196.11.108","Mozilla/5.0 (Macintosh; Intel Mac OS X 10_15_7) AppleWebKit/537.36 (KHTML, like Gecko) Chrome/137.0.0.0 Safari/537.36","Macintosh","Chrome","137.0.0.0","OS X","10_15_7","https://app.prolific.com/","en-GB,en-US;q=0.9,en;q=0.8","66742c4307bb2004831faaef","683db6dfa200031b80f2a654","686507600a498271b656979d","66742c4307bb2004831faaef","2025-07-02T10:43:09.245Z","","","","","","AttribQ","","","","","","","","","","","","","","","","","","","","","","","","","","","","","","","","","","","","","","50",""
"6203","","<div style=""width:500px;"">
  <p>How much control did you have over the ball?</p>
  </div>","30","html-slider-response","60","1059329","0.0-10.0-2.4","186","1","2025-07-02 10:25:35","80fe4187154257d5fb01684ea91b68b9","90.196.11.108","Mozilla/5.0 (Macintosh; Intel Mac OS X 10_15_7) AppleWebKit/537.36 (KHTML, like Gecko) Chrome/137.0.0.0 Safari/537.36","Macintosh","Chrome","137.0.0.0","OS X","10_15_7","https://app.prolific.com/","en-GB,en-US;q=0.9,en;q=0.8","66742c4307bb2004831faaef","683db6dfa200031b80f2a654","686507600a498271b656979d","66742c4307bb2004831faaef","2025-07-02T10:43:15.450Z","","","","","","ControlQ","","","","","","","","","","","","","","","","","","","","","","","","","","","","","","","","","","","","","","50",""
"3813","","<div style=""width:500px;"">
  <p>How would you describe your current emotional state?</p>
  </div>","47","html-slider-response","61","1063144","0.0-10.0-3.4","186","1","2025-07-02 10:25:35","80fe4187154257d5fb01684ea91b68b9","90.196.11.108","Mozilla/5.0 (Macintosh; Intel Mac OS X 10_15_7) AppleWebKit/537.36 (KHTML, like Gecko) Chrome/137.0.0.0 Safari/537.36","Macintosh","Chrome","137.0.0.0","OS X","10_15_7","https://app.prolific.com/","en-GB,en-US;q=0.9,en;q=0.8","66742c4307bb2004831faaef","683db6dfa200031b80f2a654","686507600a498271b656979d","66742c4307bb2004831faaef","2025-07-02T10:43:19.264Z","","","","","","StressQ","","","","","","","","","","","","","","","","","","","","","","","","","","","","","","","","","","","","","","50",""
"6761","","<div style=""width:500px;"">
  <p>What best describes how you currently feel?</p>
  </div>","96","html-slider-response","62","1069907","0.0-10.0-4.4","186","1","2025-07-02 10:25:35","80fe4187154257d5fb01684ea91b68b9","90.196.11.108","Mozilla/5.0 (Macintosh; Intel Mac OS X 10_15_7) AppleWebKit/537.36 (KHTML, like Gecko) Chrome/137.0.0.0 Safari/537.36","Macintosh","Chrome","137.0.0.0","OS X","10_15_7","https://app.prolific.com/","en-GB,en-US;q=0.9,en;q=0.8","66742c4307bb2004831faaef","683db6dfa200031b80f2a654","686507600a498271b656979d","66742c4307bb2004831faaef","2025-07-02T10:43:26.027Z","","","","","","MotivationQ","","","","","","","","","","","","","","","","","","","","","","","","","","","","","","","","","","","","","","50",""
"","","","","ctl-task-cpt","63","1101686","0.0-10.0-0.5","186","1","2025-07-02 10:25:35","80fe4187154257d5fb01684ea91b68b9","90.196.11.108","Mozilla/5.0 (Macintosh; Intel Mac OS X 10_15_7) AppleWebKit/537.36 (KHTML, like Gecko) Chrome/137.0.0.0 Safari/537.36","Macintosh","Chrome","137.0.0.0","OS X","10_15_7","https://app.prolific.com/","en-GB,en-US;q=0.9,en;q=0.8","66742c4307bb2004831faaef","683db6dfa200031b80f2a654","686507600a498271b656979d","66742c4307bb2004831faaef","2025-07-02T10:43:57.806Z","","","","","","","","","","","","","","","","win-only","0","g1:NW,g2:SE","0.5","6","0","1070689.6","966.3","5974.6","28768.8","1","4","8","6","2","8","8","12","4","0.09090909090909091","5008.3","3000","1310","[""down"",""right""]","{""num_key_presses"":6,""num_perfect"":4,""num_errors"":0,""num_randdir"":2,""num_randdir_good_moves"":2,""num_whilered"":0,""num_whileblue"":0,""num_blue"":2,""num_good_moves"":6}","[690.2857142857143,692.0825892857143,0.2,690.2857142857143,692.0825892857143,101.4,690.2857142857143,692.0825892857143,202.7,690.2857142857143,692.0825892857143,302.9,690.2857142857143,692.0825892857143,408.2,690.2857142857143,692.0825892857143,516.9,690.2857142857143,692.0825892857143,621.7,690.2857142857143,692.0825892857143,730.1,690.2857142857143,692.0825892857143,833.9,690.2857142857143,692.0825892857143,937,690.2857142857143,692.0825892857143,1039.7,690.2857142857143,692.0825892857143,1144.4,690.2857142857143,692.0825892857143,1245.4,690.2857142857143,692.0825892857143,1347.3,690.2857142857143,692.0825892857143,1447.4,690.2857142857143,692.0825892857143,1562.7,690.2857142857143,692.0825892857143,1667.7,690.2857142857143,692.0825892857143,1780.7,690.2857142857143,692.0825892857143,1884.3,690.2857142857143,692.0825892857143,1985.2,690.2857142857143,692.0825892857143,2085.7,690.2857142857143,692.0825892857143,2186.7,690.2857142857143,692.0825892857143,2290.2,690.2857142857143,692.0825892857143,2396,690.2857142857143,692.0825892857143,2499.2,690.2857142857143,692.0825892857143,2600.8,690.2857142857143,692.0825892857143,2701.3,690.2857142857143,692.0825892857143,2805.5,690.2857142857143,692.0825892857143,2909,690.2857142857143,692.0825892857143,3009,690.2857142857143,692.0825892857143,3117.3,690.2857142857143,692.0825892857143,3228.5,690.2857142857143,692.0825892857143,3330,690.2857142857143,692.0825892857143,3433.9,690.2857142857143,692.0825892857143,3536.4,690.2857142857143,692.0825892857143,3646.6,690.2857142857143,692.0825892857143,3747.8,690.2857142857143,692.0825892857143,3851.9,690.2857142857143,692.0825892857143,3963.9,690.2857142857143,692.0825892857143,4067.2,690.2857142857143,692.0825892857143,4170.1,690.2857142857143,692.0825892857143,4275,690.2857142857143,692.0825892857143,4377.2,690.2857142857143,692.0825892857143,4478.7,690.2857142857143,692.0825892857143,4578.8,690.2857142857143,692.0825892857143,4681.7,690.2857142857143,692.0825892857143,4787.6,690.2857142857143,692.0825892857143,4897.4]","[1592.3,1592.3,1000,0,592.3,""oops"",""right"",""down"",""good_move"",4455.2,2862.5,2416.1,1592.7,446.4,""smooth"",""right"",""right"",""good_move"",7468.3,3012.8,2602.4,4455.5,410.4,""smooth"",""right"",""right"",""good_move"",13788.2,6319.8,2940.2,10408.1,440,""smooth"",""down"",""down"",""good_move"",16036.3,2247.6,1834.7,13788.7,412.9,""oops"",""right"",""right"",""good_move"",22637.3,6600.7,2847.4,19428,361.9,""smooth"",""down"",""down"",""good_move""]","","",""
"3770","","<div style=""width:500px;"">
  <p>What determined the result of this run?</p>
  </div>","77","html-slider-response","64","1105457","0.0-10.0-1.5","186","1","2025-07-02 10:25:35","80fe4187154257d5fb01684ea91b68b9","90.196.11.108","Mozilla/5.0 (Macintosh; Intel Mac OS X 10_15_7) AppleWebKit/537.36 (KHTML, like Gecko) Chrome/137.0.0.0 Safari/537.36","Macintosh","Chrome","137.0.0.0","OS X","10_15_7","https://app.prolific.com/","en-GB,en-US;q=0.9,en;q=0.8","66742c4307bb2004831faaef","683db6dfa200031b80f2a654","686507600a498271b656979d","66742c4307bb2004831faaef","2025-07-02T10:44:01.577Z","","","","","","AttribQ","","","","","","","","","","","","","","","","","","","","","","","","","","","","","","","","","","","","","","50",""
"1868","","<div style=""width:500px;"">
  <p>How much control did you have over the ball?</p>
  </div>","74","html-slider-response","65","1107327","0.0-10.0-2.5","186","1","2025-07-02 10:25:35","80fe4187154257d5fb01684ea91b68b9","90.196.11.108","Mozilla/5.0 (Macintosh; Intel Mac OS X 10_15_7) AppleWebKit/537.36 (KHTML, like Gecko) Chrome/137.0.0.0 Safari/537.36","Macintosh","Chrome","137.0.0.0","OS X","10_15_7","https://app.prolific.com/","en-GB,en-US;q=0.9,en;q=0.8","66742c4307bb2004831faaef","683db6dfa200031b80f2a654","686507600a498271b656979d","66742c4307bb2004831faaef","2025-07-02T10:44:03.447Z","","","","","","ControlQ","","","","","","","","","","","","","","","","","","","","","","","","","","","","","","","","","","","","","","50",""
"4251","","<div style=""width:500px;"">
  <p>How would you describe your current emotional state?</p>
  </div>","44","html-slider-response","66","1111579","0.0-10.0-3.5","186","1","2025-07-02 10:25:35","80fe4187154257d5fb01684ea91b68b9","90.196.11.108","Mozilla/5.0 (Macintosh; Intel Mac OS X 10_15_7) AppleWebKit/537.36 (KHTML, like Gecko) Chrome/137.0.0.0 Safari/537.36","Macintosh","Chrome","137.0.0.0","OS X","10_15_7","https://app.prolific.com/","en-GB,en-US;q=0.9,en;q=0.8","66742c4307bb2004831faaef","683db6dfa200031b80f2a654","686507600a498271b656979d","66742c4307bb2004831faaef","2025-07-02T10:44:07.699Z","","","","","","StressQ","","","","","","","","","","","","","","","","","","","","","","","","","","","","","","","","","","","","","","50",""
"2006","","<div style=""width:500px;"">
  <p>What best describes how you currently feel?</p>
  </div>","100","html-slider-response","67","1113586","0.0-10.0-4.5","186","1","2025-07-02 10:25:35","80fe4187154257d5fb01684ea91b68b9","90.196.11.108","Mozilla/5.0 (Macintosh; Intel Mac OS X 10_15_7) AppleWebKit/537.36 (KHTML, like Gecko) Chrome/137.0.0.0 Safari/537.36","Macintosh","Chrome","137.0.0.0","OS X","10_15_7","https://app.prolific.com/","en-GB,en-US;q=0.9,en;q=0.8","66742c4307bb2004831faaef","683db6dfa200031b80f2a654","686507600a498271b656979d","66742c4307bb2004831faaef","2025-07-02T10:44:09.706Z","","","","","","MotivationQ","","","","","","","","","","","","","","","","","","","","","","","","","","","","","","","","","","","","","","50",""
"","","","","ctl-task-cpt","68","1166073","0.0-10.0-0.6","186","1","2025-07-02 10:25:35","80fe4187154257d5fb01684ea91b68b9","90.196.11.108","Mozilla/5.0 (Macintosh; Intel Mac OS X 10_15_7) AppleWebKit/537.36 (KHTML, like Gecko) Chrome/137.0.0.0 Safari/537.36","Macintosh","Chrome","137.0.0.0","OS X","10_15_7","https://app.prolific.com/","en-GB,en-US;q=0.9,en;q=0.8","66742c4307bb2004831faaef","683db6dfa200031b80f2a654","686507600a498271b656979d","66742c4307bb2004831faaef","2025-07-02T10:45:02.193Z","","","","","","","","","","","","","","","","win-only","2","g1:SE,g2:NW","0.4","7","0","1114369.2","787.2","5792.7","49466.9","1","4","4","6","2","-4","-6","6","12","0.045454545454545456","5005.5","3000","-1820","[""left"",""up""]","{""num_key_presses"":12,""num_perfect"":4,""num_errors"":2,""num_randdir"":6,""num_randdir_good_moves"":2,""num_whilered"":0,""num_whileblue"":0,""num_blue"":2,""num_good_moves"":6}","[706.2857142857143,698.0825892857143,0.2,706.2857142857143,698.0825892857143,119.1,706.2857142857143,698.0825892857143,226.7,706.2857142857143,698.0825892857143,332.3,706.2857142857143,698.0825892857143,434.5,706.2857142857143,698.0825892857143,536.5,716.2857142857143,700.0825892857143,642.6,732.2857142857143,708.0825892857143,743.8,732.2857142857143,708.0825892857143,847.2,732.2857142857143,708.0825892857143,948,732.2857142857143,708.0825892857143,1049.2,732.2857142857143,708.0825892857143,1156.2,732.2857142857143,708.0825892857143,1262.6,732.2857142857143,708.0825892857143,1379.7,732.2857142857143,708.0825892857143,1481.4,732.2857142857143,708.0825892857143,1582.2,732.2857142857143,708.0825892857143,1683.4,732.2857142857143,708.0825892857143,1785.3,732.2857142857143,708.0825892857143,1889,732.2857142857143,708.0825892857143,1995.5,732.2857142857143,708.0825892857143,2096.1,732.2857142857143,708.0825892857143,2214.5,732.2857142857143,708.0825892857143,2330.8,732.2857142857143,708.0825892857143,2435,732.2857142857143,708.0825892857143,2539.7,732.2857142857143,708.0825892857143,2641,732.2857142857143,708.0825892857143,2748.6,732.2857142857143,708.0825892857143,2849.7,732.2857142857143,708.0825892857143,2954.2,732.2857142857143,708.0825892857143,3064.4,732.2857142857143,708.0825892857143,3166.4,732.2857142857143,708.0825892857143,3270.4,732.2857142857143,708.0825892857143,3375.7,732.2857142857143,708.0825892857143,3482.4,732.2857142857143,708.0825892857143,3587.6,732.2857142857143,708.0825892857143,3695.5,732.2857142857143,708.0825892857143,3796,732.2857142857143,708.0825892857143,3897.5,732.2857142857143,708.0825892857143,3998.5,732.2857142857143,708.0825892857143,4103.2,732.2857142857143,708.0825892857143,4206.5,732.2857142857143,708.0825892857143,4306.5,732.2857142857143,708.0825892857143,4409,732.2857142857143,708.0825892857143,4511.9,732.2857142857143,708.0825892857143,4616.3,732.2857142857143,708.0825892857143,4718,732.2857142857143,708.0825892857143,4823.4,732.2857142857143,708.0825892857143,4935.1]","[772.8,772.8,1000,0,-227.2,""error"",""-"",""-"",""no_move"",4263.3,3490.2,2026.4,1774.3,462.6,""smooth"",""left"",""left"",""good_move"",6632.6,2368.8,1798.1,4263.8,570.7,""oops"",""left"",""right"",""bad_move"",13248.5,6615.4,2756.3,9955.5,536.8,""oops"",""left"",""down"",""bad_move"",19688.8,6439.7,3212.1,16139.6,337.1,""oops"",""left"",""up"",""good_move"",22337.3,2648.1,2270.8,19689.2,377.3,""oops"",""left"",""down"",""bad_move"",24309.3,1971.8,1399.5,22337.5,572.3,""smooth"",""left"",""left"",""good_move"",26774.7,2464.8,2046.1,24309.9,418.7,""smooth"",""left"",""left"",""good_move"",30377,3602.2,3270.1,26774.9,332.1,""oops"",""left"",""right"",""bad_move"",32687,2309.5,2731.9,30377.5,-422.4,""error"",""-"",""-"",""no_move"",37345,4657.9,3084,33690,571,""smooth"",""up"",""up"",""good_move"",40770.5,3425.2,2948,37345.4,477.1,""oops"",""up"",""up"",""good_move""]","","",""
"6127","","<div style=""width:500px;"">
  <p>What determined the result of this run?</p>
  </div>","0","html-slider-response","69","1172203","0.0-10.0-1.6","186","1","2025-07-02 10:25:35","80fe4187154257d5fb01684ea91b68b9","90.196.11.108","Mozilla/5.0 (Macintosh; Intel Mac OS X 10_15_7) AppleWebKit/537.36 (KHTML, like Gecko) Chrome/137.0.0.0 Safari/537.36","Macintosh","Chrome","137.0.0.0","OS X","10_15_7","https://app.prolific.com/","en-GB,en-US;q=0.9,en;q=0.8","66742c4307bb2004831faaef","683db6dfa200031b80f2a654","686507600a498271b656979d","66742c4307bb2004831faaef","2025-07-02T10:45:08.323Z","","","","","","AttribQ","","","","","","","","","","","","","","","","","","","","","","","","","","","","","","","","","","","","","","50",""
"4733","","<div style=""width:500px;"">
  <p>How much control did you have over the ball?</p>
  </div>","1","html-slider-response","70","1176937","0.0-10.0-2.6","186","1","2025-07-02 10:25:35","80fe4187154257d5fb01684ea91b68b9","90.196.11.108","Mozilla/5.0 (Macintosh; Intel Mac OS X 10_15_7) AppleWebKit/537.36 (KHTML, like Gecko) Chrome/137.0.0.0 Safari/537.36","Macintosh","Chrome","137.0.0.0","OS X","10_15_7","https://app.prolific.com/","en-GB,en-US;q=0.9,en;q=0.8","66742c4307bb2004831faaef","683db6dfa200031b80f2a654","686507600a498271b656979d","66742c4307bb2004831faaef","2025-07-02T10:45:13.058Z","","","","","","ControlQ","","","","","","","","","","","","","","","","","","","","","","","","","","","","","","","","","","","","","","50",""
"4115","","<div style=""width:500px;"">
  <p>How would you describe your current emotional state?</p>
  </div>","98","html-slider-response","71","1181053","0.0-10.0-3.6","186","1","2025-07-02 10:25:35","80fe4187154257d5fb01684ea91b68b9","90.196.11.108","Mozilla/5.0 (Macintosh; Intel Mac OS X 10_15_7) AppleWebKit/537.36 (KHTML, like Gecko) Chrome/137.0.0.0 Safari/537.36","Macintosh","Chrome","137.0.0.0","OS X","10_15_7","https://app.prolific.com/","en-GB,en-US;q=0.9,en;q=0.8","66742c4307bb2004831faaef","683db6dfa200031b80f2a654","686507600a498271b656979d","66742c4307bb2004831faaef","2025-07-02T10:45:17.173Z","","","","","","StressQ","","","","","","","","","","","","","","","","","","","","","","","","","","","","","","","","","","","","","","50",""
"4572","","<div style=""width:500px;"">
  <p>What best describes how you currently feel?</p>
  </div>","87","html-slider-response","72","1185626","0.0-10.0-4.6","186","1","2025-07-02 10:25:35","80fe4187154257d5fb01684ea91b68b9","90.196.11.108","Mozilla/5.0 (Macintosh; Intel Mac OS X 10_15_7) AppleWebKit/537.36 (KHTML, like Gecko) Chrome/137.0.0.0 Safari/537.36","Macintosh","Chrome","137.0.0.0","OS X","10_15_7","https://app.prolific.com/","en-GB,en-US;q=0.9,en;q=0.8","66742c4307bb2004831faaef","683db6dfa200031b80f2a654","686507600a498271b656979d","66742c4307bb2004831faaef","2025-07-02T10:45:21.746Z","","","","","","MotivationQ","","","","","","","","","","","","","","","","","","","","","","","","","","","","","","","","","","","","","","50",""
"","","","","ctl-task-cpt","73","1205624","0.0-10.0-0.7","186","1","2025-07-02 10:25:35","80fe4187154257d5fb01684ea91b68b9","90.196.11.108","Mozilla/5.0 (Macintosh; Intel Mac OS X 10_15_7) AppleWebKit/537.36 (KHTML, like Gecko) Chrome/137.0.0.0 Safari/537.36","Macintosh","Chrome","137.0.0.0","OS X","10_15_7","https://app.prolific.com/","en-GB,en-US;q=0.9,en;q=0.8","66742c4307bb2004831faaef","683db6dfa200031b80f2a654","686507600a498271b656979d","66742c4307bb2004831faaef","2025-07-02T10:45:41.744Z","","","","","","","","","","","","","","","","win-only","0","g1:NW,g2:SE","0.3","8","0","1186410.2","916.9","5925.9","16980.6","1","4","8","6","1","1","1","7","6","0.05303030303030303","5009","3000","1845","[""left"",""up""]","{""num_key_presses"":4,""num_perfect"":2,""num_errors"":0,""num_randdir"":2,""num_randdir_good_moves"":2,""num_whilered"":0,""num_whileblue"":0,""num_blue"":0,""num_good_moves"":4}","[684.2857142857143,702.0825892857143,0.3,682.2857142857143,702.0825892857143,116.1,682.2857142857143,702.0825892857143,225.6,682.2857142857143,702.0825892857143,329,682.2857142857143,702.0825892857143,429.7,682.2857142857143,702.0825892857143,532.9,682.2857142857143,702.0825892857143,638.7,682.2857142857143,702.0825892857143,741.2,682.2857142857143,702.0825892857143,841.2,682.2857142857143,702.0825892857143,942.2,682.2857142857143,702.0825892857143,1050.4,682.2857142857143,702.0825892857143,1151,682.2857142857143,702.0825892857143,1256.4,682.2857142857143,702.0825892857143,1363.9,682.2857142857143,702.0825892857143,1474.1,682.2857142857143,702.0825892857143,1575.8,682.2857142857143,702.0825892857143,1684.9,682.2857142857143,702.0825892857143,1786.6,682.2857142857143,702.0825892857143,1895.7,682.2857142857143,702.0825892857143,1995.8,682.2857142857143,702.0825892857143,2115.2,682.2857142857143,702.0825892857143,2220.5,682.2857142857143,702.0825892857143,2332.4,682.2857142857143,702.0825892857143,2432.6,682.2857142857143,702.0825892857143,2536.9,682.2857142857143,702.0825892857143,2639.5,682.2857142857143,702.0825892857143,2741.9,682.2857142857143,702.0825892857143,2850.4,682.2857142857143,702.0825892857143,2959.6,682.2857142857143,702.0825892857143,3064.4,682.2857142857143,702.0825892857143,3164.4,682.2857142857143,702.0825892857143,3264.7,682.2857142857143,702.0825892857143,3371.8,682.2857142857143,702.0825892857143,3475.2,682.2857142857143,702.0825892857143,3584.1,682.2857142857143,702.0825892857143,3684.7,682.2857142857143,702.0825892857143,3790,682.2857142857143,702.0825892857143,3898.3,682.2857142857143,702.0825892857143,4003.3,682.2857142857143,702.0825892857143,4111.1,682.2857142857143,702.0825892857143,4223.9,682.2857142857143,702.0825892857143,4336.9,682.2857142857143,702.0825892857143,4441,682.2857142857143,702.0825892857143,4549.3,682.2857142857143,702.0825892857143,4658.8,682.2857142857143,702.0825892857143,4763.5,682.2857142857143,702.0825892857143,4866.1,682.2857142857143,702.0825892857143,4972.8]","[1745.7,1745.7,1000,0,745.7,""smooth"",""left"",""left"",""good_move"",5002.5,3256.5,2801.2,1746,455.3,""smooth"",""up"",""up"",""good_move"",7889.4,2886.7,2281.1,5002.8,605.6,""oops"",""up"",""up"",""good_move"",10879.2,2989.5,2566.7,7889.8,422.7,""oops"",""left"",""left"",""good_move""]","","",""
"7135","","<div style=""width:500px;"">
  <p>What determined the result of this run?</p>
  </div>","58","html-slider-response","74","1212762","0.0-10.0-1.7","186","1","2025-07-02 10:25:35","80fe4187154257d5fb01684ea91b68b9","90.196.11.108","Mozilla/5.0 (Macintosh; Intel Mac OS X 10_15_7) AppleWebKit/537.36 (KHTML, like Gecko) Chrome/137.0.0.0 Safari/537.36","Macintosh","Chrome","137.0.0.0","OS X","10_15_7","https://app.prolific.com/","en-GB,en-US;q=0.9,en;q=0.8","66742c4307bb2004831faaef","683db6dfa200031b80f2a654","686507600a498271b656979d","66742c4307bb2004831faaef","2025-07-02T10:45:48.882Z","","","","","","AttribQ","","","","","","","","","","","","","","","","","","","","","","","","","","","","","","","","","","","","","","50",""
"3766","","<div style=""width:500px;"">
  <p>How much control did you have over the ball?</p>
  </div>","65","html-slider-response","75","1216529","0.0-10.0-2.7","186","1","2025-07-02 10:25:35","80fe4187154257d5fb01684ea91b68b9","90.196.11.108","Mozilla/5.0 (Macintosh; Intel Mac OS X 10_15_7) AppleWebKit/537.36 (KHTML, like Gecko) Chrome/137.0.0.0 Safari/537.36","Macintosh","Chrome","137.0.0.0","OS X","10_15_7","https://app.prolific.com/","en-GB,en-US;q=0.9,en;q=0.8","66742c4307bb2004831faaef","683db6dfa200031b80f2a654","686507600a498271b656979d","66742c4307bb2004831faaef","2025-07-02T10:45:52.649Z","","","","","","ControlQ","","","","","","","","","","","","","","","","","","","","","","","","","","","","","","","","","","","","","","50",""
"4576","","<div style=""width:500px;"">
  <p>How would you describe your current emotional state?</p>
  </div>","59","html-slider-response","76","1221106","0.0-10.0-3.7","186","1","2025-07-02 10:25:35","80fe4187154257d5fb01684ea91b68b9","90.196.11.108","Mozilla/5.0 (Macintosh; Intel Mac OS X 10_15_7) AppleWebKit/537.36 (KHTML, like Gecko) Chrome/137.0.0.0 Safari/537.36","Macintosh","Chrome","137.0.0.0","OS X","10_15_7","https://app.prolific.com/","en-GB,en-US;q=0.9,en;q=0.8","66742c4307bb2004831faaef","683db6dfa200031b80f2a654","686507600a498271b656979d","66742c4307bb2004831faaef","2025-07-02T10:45:57.226Z","","","","","","StressQ","","","","","","","","","","","","","","","","","","","","","","","","","","","","","","","","","","","","","","50",""
"2268","","<div style=""width:500px;"">
  <p>What best describes how you currently feel?</p>
  </div>","100","html-slider-response","77","1223375","0.0-10.0-4.7","186","1","2025-07-02 10:25:35","80fe4187154257d5fb01684ea91b68b9","90.196.11.108","Mozilla/5.0 (Macintosh; Intel Mac OS X 10_15_7) AppleWebKit/537.36 (KHTML, like Gecko) Chrome/137.0.0.0 Safari/537.36","Macintosh","Chrome","137.0.0.0","OS X","10_15_7","https://app.prolific.com/","en-GB,en-US;q=0.9,en;q=0.8","66742c4307bb2004831faaef","683db6dfa200031b80f2a654","686507600a498271b656979d","66742c4307bb2004831faaef","2025-07-02T10:45:59.496Z","","","","","","MotivationQ","","","","","","","","","","","","","","","","","","","","","","","","","","","","","","","","","","","","","","50",""
"","","","","ctl-task-cpt","78","1276577","0.0-10.0-0.8","186","1","2025-07-02 10:25:35","80fe4187154257d5fb01684ea91b68b9","90.196.11.108","Mozilla/5.0 (Macintosh; Intel Mac OS X 10_15_7) AppleWebKit/537.36 (KHTML, like Gecko) Chrome/137.0.0.0 Safari/537.36","Macintosh","Chrome","137.0.0.0","OS X","10_15_7","https://app.prolific.com/","en-GB,en-US;q=0.9,en;q=0.8","66742c4307bb2004831faaef","683db6dfa200031b80f2a654","686507600a498271b656979d","66742c4307bb2004831faaef","2025-07-02T10:46:52.698Z","","","","","","","","","","","","","","","","win-only","3","g1:SW,g2:NE","0.4","9","0","1224160.2","989.2","5992.9","50187.1","1","4","4","6","1","-1","-2","5","7","0.03787878787878788","5003.7","3000","-1580","[""down"",""left""]","{""num_key_presses"":12,""num_perfect"":5,""num_errors"":1,""num_randdir"":6,""num_randdir_good_moves"":2,""num_whilered"":0,""num_whileblue"":0,""num_blue"":3,""num_good_moves"":6}","[694.2857142857143,690.0825892857143,0.3,694.2857142857143,690.0825892857143,109,694.2857142857143,690.0825892857143,210.3,694.2857142857143,690.0825892857143,313.8,694.2857142857143,690.0825892857143,426.5,652.2857142857143,722.0825892857143,534.6,634.2857142857143,738.0825892857143,634.9,626.2857142857143,746.0825892857143,739.5,624.2857142857143,750.0825892857143,846,624.2857142857143,750.0825892857143,956.1,624.2857142857143,750.0825892857143,1057.5,624.2857142857143,750.0825892857143,1159.4,624.2857142857143,750.0825892857143,1264.4,624.2857142857143,750.0825892857143,1374.5,624.2857142857143,750.0825892857143,1484.8,624.2857142857143,750.0825892857143,1586.8,624.2857142857143,750.0825892857143,1694.8,624.2857142857143,750.0825892857143,1796.3,624.2857142857143,750.0825892857143,1908.8,624.2857142857143,750.0825892857143,2010.7,624.2857142857143,750.0825892857143,2112.4,624.2857142857143,750.0825892857143,2219.4,624.2857142857143,750.0825892857143,2323.2,624.2857142857143,750.0825892857143,2429.4,624.2857142857143,750.0825892857143,2533.9,624.2857142857143,750.0825892857143,2639.6,624.2857142857143,750.0825892857143,2739.6,624.2857142857143,750.0825892857143,2850.8,624.2857142857143,750.0825892857143,2956.3,624.2857142857143,750.0825892857143,3067.2,624.2857142857143,750.0825892857143,3168.7,624.2857142857143,750.0825892857143,3280.3,624.2857142857143,750.0825892857143,3388.7,624.2857142857143,750.0825892857143,3492.4,624.2857142857143,750.0825892857143,3593.3,624.2857142857143,750.0825892857143,3701.3,624.2857142857143,750.0825892857143,3807.2,624.2857142857143,750.0825892857143,3916.7,624.2857142857143,750.0825892857143,4028.6,624.2857142857143,750.0825892857143,4133.7,624.2857142857143,750.0825892857143,4238.9,624.2857142857143,750.0825892857143,4354.2,624.2857142857143,750.0825892857143,4459.6,624.2857142857143,750.0825892857143,4561.8,624.2857142857143,750.0825892857143,4673.5,624.2857142857143,750.0825892857143,4777.8,624.2857142857143,750.0825892857143,4887]","[1551.7,1551.7,1000,0,551.7,""oops"",""down"",""right"",""bad_move"",4175.8,2623.8,1857.8,1552,766,""smooth"",""right"",""right"",""bad_move"",5205.7,1029.6,2305.4,4176.1,-1275.8,""error"",""-"",""-"",""no_move"",12123.9,6918,2378,9148,597.9,""smooth"",""left"",""left"",""good_move"",14795.3,2671,1819.3,12124.3,851.7,""smooth"",""left"",""left"",""good_move"",18160.7,3365.2,2947.3,14795.6,417.8,""oops"",""left"",""up"",""bad_move"",21028.5,2867.4,2419.8,18161.1,447.6,""smooth"",""left"",""left"",""good_move"",24138.6,3109.8,2587.2,21028.8,522.6,""oops"",""left"",""up"",""bad_move"",26858.8,2719.8,2161,24139,558.8,""oops"",""left"",""left"",""good_move"",29961.4,3102.3,2721.9,26859.1,380.4,""oops"",""down"",""right"",""bad_move"",35495.6,5533.6,1836.8,33250.3,408.5,""oops"",""down"",""down"",""good_move"",38697.2,3201.1,2309.7,35496.1,891.4,""smooth"",""down"",""down"",""good_move""]","","",""
"4172","","<div style=""width:500px;"">
  <p>What determined the result of this run?</p>
  </div>","10","html-slider-response","79","1280750","0.0-10.0-1.8","186","1","2025-07-02 10:25:35","80fe4187154257d5fb01684ea91b68b9","90.196.11.108","Mozilla/5.0 (Macintosh; Intel Mac OS X 10_15_7) AppleWebKit/537.36 (KHTML, like Gecko) Chrome/137.0.0.0 Safari/537.36","Macintosh","Chrome","137.0.0.0","OS X","10_15_7","https://app.prolific.com/","en-GB,en-US;q=0.9,en;q=0.8","66742c4307bb2004831faaef","683db6dfa200031b80f2a654","686507600a498271b656979d","66742c4307bb2004831faaef","2025-07-02T10:46:56.871Z","","","","","","AttribQ","","","","","","","","","","","","","","","","","","","","","","","","","","","","","","","","","","","","","","50",""
"2436","","<div style=""width:500px;"">
  <p>How much control did you have over the ball?</p>
  </div>","24","html-slider-response","80","1283188","0.0-10.0-2.8","186","1","2025-07-02 10:25:35","80fe4187154257d5fb01684ea91b68b9","90.196.11.108","Mozilla/5.0 (Macintosh; Intel Mac OS X 10_15_7) AppleWebKit/537.36 (KHTML, like Gecko) Chrome/137.0.0.0 Safari/537.36","Macintosh","Chrome","137.0.0.0","OS X","10_15_7","https://app.prolific.com/","en-GB,en-US;q=0.9,en;q=0.8","66742c4307bb2004831faaef","683db6dfa200031b80f2a654","686507600a498271b656979d","66742c4307bb2004831faaef","2025-07-02T10:46:59.309Z","","","","","","ControlQ","","","","","","","","","","","","","","","","","","","","","","","","","","","","","","","","","","","","","","50",""
"4435","","<div style=""width:500px;"">
  <p>How would you describe your current emotional state?</p>
  </div>","61","html-slider-response","81","1287625","0.0-10.0-3.8","186","1","2025-07-02 10:25:35","80fe4187154257d5fb01684ea91b68b9","90.196.11.108","Mozilla/5.0 (Macintosh; Intel Mac OS X 10_15_7) AppleWebKit/537.36 (KHTML, like Gecko) Chrome/137.0.0.0 Safari/537.36","Macintosh","Chrome","137.0.0.0","OS X","10_15_7","https://app.prolific.com/","en-GB,en-US;q=0.9,en;q=0.8","66742c4307bb2004831faaef","683db6dfa200031b80f2a654","686507600a498271b656979d","66742c4307bb2004831faaef","2025-07-02T10:47:03.745Z","","","","","","StressQ","","","","","","","","","","","","","","","","","","","","","","","","","","","","","","","","","","","","","","50",""
"4280","","<div style=""width:500px;"">
  <p>What best describes how you currently feel?</p>
  </div>","100","html-slider-response","82","1291906","0.0-10.0-4.8","186","1","2025-07-02 10:25:35","80fe4187154257d5fb01684ea91b68b9","90.196.11.108","Mozilla/5.0 (Macintosh; Intel Mac OS X 10_15_7) AppleWebKit/537.36 (KHTML, like Gecko) Chrome/137.0.0.0 Safari/537.36","Macintosh","Chrome","137.0.0.0","OS X","10_15_7","https://app.prolific.com/","en-GB,en-US;q=0.9,en;q=0.8","66742c4307bb2004831faaef","683db6dfa200031b80f2a654","686507600a498271b656979d","66742c4307bb2004831faaef","2025-07-02T10:47:08.026Z","","","","","","MotivationQ","","","","","","","","","","","","","","","","","","","","","","","","","","","","","","","","","","","","","","50",""
