"rt","response_timestamp","stimulus","response","trial_type","trial_index","time_elapsed","internal_node_id","run_id","condition","recorded_at","source_code_version","ip","user_agent","device","browser","browser_version","platform","platform_version","referer","accept_language","PROLIFIC_PID","STUDY_ID","SESSION_ID","prolific_id","realtime","view_history","question_order","consent","success","question_id","eventType","responses","item_order","radio_event_ids","radio_event_times","key_event_times","mouse_event_times","straightlining","zigzagging","honeypot","which_type","canvas_config","goals_layout","control_level","trial_number","tutorial_trial_number","trial_start_time","phase1_start_time","phase2_start_time","phase3_start_time","goal_1_value","goal_1_distance","goal_2_value","goal_2_distance","goal_selected","outcome","outcome_total","participant_final_score","participant_initial_score","participant_final_score_prop","goal_choice_rt","allocated_time","allocated_time_remaining","goal_direction","counts","mouse_movements","key_presses","correct","slider_start"
"10463","1751452055759","<p style='font-size:40px;line-height:1.25'><strong>Welcome to the experiment!</strong></p><p style='font-size:1.1em;line-height:1.25'>Thank you for your interest in our experiment! Before you begin, it is important that we obtain your informed consent to participate in the study.</p><p style='font-size:1.1em;line-height:1.25'>On the next screen will be an <strong>information sheet</strong> for you to read. To participate in the study we need you to read this information sheet and the following consent form carefully. If you agree with all the statements, please click the <strong>I agree</strong> button.</p><p style='font-size:1.1em;line-height:1.25'>Press <strong>Next</strong> to read the information sheet.</p>","0","custom-html-button-response","0","10464","0.0-0.0","193","1","2025-07-02 10:27:17","80fe4187154257d5fb01684ea91b68b9","83.24.144.77","Mozilla/5.0 (Windows NT 10.0; Win64; x64) AppleWebKit/537.36 (KHTML, like Gecko) Chrome/137.0.0.0 Safari/537.36","WebKit","Chrome","137.0.0.0","Windows","10.0","https://app.prolific.com/","en-GB-oxendict,en;q=0.9","667971a555af1f83d3f29ae7","683db6dfa200031b80f2a654","686507731faada4a13896591","667971a555af1f83d3f29ae7","2025-07-02T10:27:35.760Z","","","","","","","","","","","","","","","","","","","","","","","","","","","","","","","","","","","","","","","","","","","",""
"108347","","","","instructions","1","118811","0.0-1.0","193","1","2025-07-02 10:27:17","80fe4187154257d5fb01684ea91b68b9","83.24.144.77","Mozilla/5.0 (Windows NT 10.0; Win64; x64) AppleWebKit/537.36 (KHTML, like Gecko) Chrome/137.0.0.0 Safari/537.36","WebKit","Chrome","137.0.0.0","Windows","10.0","https://app.prolific.com/","en-GB-oxendict,en;q=0.9","667971a555af1f83d3f29ae7","683db6dfa200031b80f2a654","686507731faada4a13896591","667971a555af1f83d3f29ae7","","[{""page_index"":0,""viewing_time"":74272},{""page_index"":1,""viewing_time"":34075}]","","","","","","","","","","","","","","","","","","","","","","","","","","","","","","","","","","","","","","","","","","",""
"13798","","","{""Q0"":"""",""Q1"":"""",""Q2"":"""",""Q3"":"""",""Q4"":"""",""Q5"":"""",""Q6"":""I agree""}","survey-multi-choice","2","132610","0.0-2.0","193","1","2025-07-02 10:27:17","80fe4187154257d5fb01684ea91b68b9","83.24.144.77","Mozilla/5.0 (Windows NT 10.0; Win64; x64) AppleWebKit/537.36 (KHTML, like Gecko) Chrome/137.0.0.0 Safari/537.36","WebKit","Chrome","137.0.0.0","Windows","10.0","https://app.prolific.com/","en-GB-oxendict,en;q=0.9","667971a555af1f83d3f29ae7","683db6dfa200031b80f2a654","686507731faada4a13896591","667971a555af1f83d3f29ae7","","","[0,1,2,3,4,5,6]","true","","","","","","","","","","","","","","","","","","","","","","","","","","","","","","","","","","","","","","","","",""
"29046","","","","fullscreen","3","162658","0.0-4.0","193","1","2025-07-02 10:27:17","80fe4187154257d5fb01684ea91b68b9","83.24.144.77","Mozilla/5.0 (Windows NT 10.0; Win64; x64) AppleWebKit/537.36 (KHTML, like Gecko) Chrome/137.0.0.0 Safari/537.36","WebKit","Chrome","137.0.0.0","Windows","10.0","https://app.prolific.com/","en-GB-oxendict,en;q=0.9","667971a555af1f83d3f29ae7","683db6dfa200031b80f2a654","686507731faada4a13896591","667971a555af1f83d3f29ae7","","","","","true","","","","","","","","","","","","","","","","","","","","","","","","","","","","","","","","","","","","","","","",""
"8118","1751452216073"," <p style='font-size:1.1em;line-height:1.25'>Thank you for completing the consent form and closing all other tabs.</p><p style='font-size:1.1em;line-height:1.25'>We will now invite you to fill in some demographic information and questionnaires, before starting the game.<br>This will take about 5 minutes.<br></p><p style='font-size:1.1em;line-height:1.25'>Press the <strong>Next</strong> button to continue.</p>","0","custom-html-button-response","4","170777","0.0-5.0","193","1","2025-07-02 10:27:17","80fe4187154257d5fb01684ea91b68b9","83.24.144.77","Mozilla/5.0 (Windows NT 10.0; Win64; x64) AppleWebKit/537.36 (KHTML, like Gecko) Chrome/137.0.0.0 Safari/537.36","WebKit","Chrome","137.0.0.0","Windows","10.0","https://app.prolific.com/","en-GB-oxendict,en;q=0.9","667971a555af1f83d3f29ae7","683db6dfa200031b80f2a654","686507731faada4a13896591","667971a555af1f83d3f29ae7","2025-07-02T10:30:16.073Z","","","","","","","","","","","","","","","","","","","","","","","","","","","","","","","","","","","","","","","","","","","",""
"3692","","","{""age"":""30""}","survey-text","5","174472","0.0-6.0-0.0","193","1","2025-07-02 10:27:17","80fe4187154257d5fb01684ea91b68b9","83.24.144.77","Mozilla/5.0 (Windows NT 10.0; Win64; x64) AppleWebKit/537.36 (KHTML, like Gecko) Chrome/137.0.0.0 Safari/537.36","WebKit","Chrome","137.0.0.0","Windows","10.0","https://app.prolific.com/","en-GB-oxendict,en;q=0.9","667971a555af1f83d3f29ae7","683db6dfa200031b80f2a654","686507731faada4a13896591","667971a555af1f83d3f29ae7","","","","","","0","demographics","","","","","","","","","","","","","","","","","","","","","","","","","","","","","","","","","","","","","",""
"4628","","","{""gender_identity"":""male/man""}","survey-multi-choice","6","179100","0.0-6.0-1.0","193","1","2025-07-02 10:27:17","80fe4187154257d5fb01684ea91b68b9","83.24.144.77","Mozilla/5.0 (Windows NT 10.0; Win64; x64) AppleWebKit/537.36 (KHTML, like Gecko) Chrome/137.0.0.0 Safari/537.36","WebKit","Chrome","137.0.0.0","Windows","10.0","https://app.prolific.com/","en-GB-oxendict,en;q=0.9","667971a555af1f83d3f29ae7","683db6dfa200031b80f2a654","686507731faada4a13896591","667971a555af1f83d3f29ae7","","","[0]","","","1","demographics","","","","","","","","","","","","","","","","","","","","","","","","","","","","","","","","","","","","","",""
"3080","","","{""assigned_sex"":""male""}","survey-multi-choice","7","182181","0.0-6.0-2.0","193","1","2025-07-02 10:27:17","80fe4187154257d5fb01684ea91b68b9","83.24.144.77","Mozilla/5.0 (Windows NT 10.0; Win64; x64) AppleWebKit/537.36 (KHTML, like Gecko) Chrome/137.0.0.0 Safari/537.36","WebKit","Chrome","137.0.0.0","Windows","10.0","https://app.prolific.com/","en-GB-oxendict,en;q=0.9","667971a555af1f83d3f29ae7","683db6dfa200031b80f2a654","686507731faada4a13896591","667971a555af1f83d3f29ae7","","","[0]","","","2","demographics","","","","","","","","","","","","","","","","","","","","","","","","","","","","","","","","","","","","","",""
"5485","","","{""menstrual_cycle"":""No""}","survey-multi-choice","8","187667","0.0-6.0-3.0","193","1","2025-07-02 10:27:17","80fe4187154257d5fb01684ea91b68b9","83.24.144.77","Mozilla/5.0 (Windows NT 10.0; Win64; x64) AppleWebKit/537.36 (KHTML, like Gecko) Chrome/137.0.0.0 Safari/537.36","WebKit","Chrome","137.0.0.0","Windows","10.0","https://app.prolific.com/","en-GB-oxendict,en;q=0.9","667971a555af1f83d3f29ae7","683db6dfa200031b80f2a654","686507731faada4a13896591","667971a555af1f83d3f29ae7","","","[0]","","","4","demographics","","","","","","","","","","","","","","","","","","","","","","","","","","","","","","","","","","","","","",""
"7844","","","{""education"":""Bachelor's Degree (e.g., BA)""}","survey-multi-choice","9","195513","0.0-6.0-4.0","193","1","2025-07-02 10:27:17","80fe4187154257d5fb01684ea91b68b9","83.24.144.77","Mozilla/5.0 (Windows NT 10.0; Win64; x64) AppleWebKit/537.36 (KHTML, like Gecko) Chrome/137.0.0.0 Safari/537.36","WebKit","Chrome","137.0.0.0","Windows","10.0","https://app.prolific.com/","en-GB-oxendict,en;q=0.9","667971a555af1f83d3f29ae7","683db6dfa200031b80f2a654","686507731faada4a13896591","667971a555af1f83d3f29ae7","","","[0]","","","5","demographics","","","","","","","","","","","","","","","","","","","","","","","","","","","","","","","","","","","","","",""
"17247","","","{""education"":""Master's Degree (e.g., MSc)""}","survey-multi-choice","10","212761","0.0-6.0-5.0","193","1","2025-07-02 10:27:17","80fe4187154257d5fb01684ea91b68b9","83.24.144.77","Mozilla/5.0 (Windows NT 10.0; Win64; x64) AppleWebKit/537.36 (KHTML, like Gecko) Chrome/137.0.0.0 Safari/537.36","WebKit","Chrome","137.0.0.0","Windows","10.0","https://app.prolific.com/","en-GB-oxendict,en;q=0.9","667971a555af1f83d3f29ae7","683db6dfa200031b80f2a654","686507731faada4a13896591","667971a555af1f83d3f29ae7","2025-07-02T10:30:58.057Z","","[0]","","","6","demographics","","","","","","","","","","","","","","","","","","","","","","","","","","","","","","","","","","","","","",""
"37386","","","{""mental_health_condition"":""No."",""mental_health_treatment"":""No."",""psychiatric_medication"":""None.""}","survey-text","11","250147","0.0-7.0-0.0","193","1","2025-07-02 10:27:17","80fe4187154257d5fb01684ea91b68b9","83.24.144.77","Mozilla/5.0 (Windows NT 10.0; Win64; x64) AppleWebKit/537.36 (KHTML, like Gecko) Chrome/137.0.0.0 Safari/537.36","WebKit","Chrome","137.0.0.0","Windows","10.0","https://app.prolific.com/","en-GB-oxendict,en;q=0.9","667971a555af1f83d3f29ae7","683db6dfa200031b80f2a654","686507731faada4a13896591","667971a555af1f83d3f29ae7","2025-07-02T10:31:35.444Z","","","","","1","mental_health","","","","","","","","","","","","","","","","","","","","","","","","","","","","","","","","","","","","","",""
"12508","","","{""depression_history"":[""Yes""]}","survey-multi-select","12","262657","0.0-7.0-1.0","193","1","2025-07-02 10:27:17","80fe4187154257d5fb01684ea91b68b9","83.24.144.77","Mozilla/5.0 (Windows NT 10.0; Win64; x64) AppleWebKit/537.36 (KHTML, like Gecko) Chrome/137.0.0.0 Safari/537.36","WebKit","Chrome","137.0.0.0","Windows","10.0","https://app.prolific.com/","en-GB-oxendict,en;q=0.9","667971a555af1f83d3f29ae7","683db6dfa200031b80f2a654","686507731faada4a13896591","667971a555af1f83d3f29ae7","","","[0]","","","","mental_health","","","","","","","","","","","","","","","","","","","","","","","","","","","","","","","","","","","","","",""
"11137","","","{""depression_episodes"":""more than 5"",""depression_recent"":""Within the past year""}","survey-multi-choice","13","273794","0.0-7.0-2.0-0.0","193","1","2025-07-02 10:27:17","80fe4187154257d5fb01684ea91b68b9","83.24.144.77","Mozilla/5.0 (Windows NT 10.0; Win64; x64) AppleWebKit/537.36 (KHTML, like Gecko) Chrome/137.0.0.0 Safari/537.36","WebKit","Chrome","137.0.0.0","Windows","10.0","https://app.prolific.com/","en-GB-oxendict,en;q=0.9","667971a555af1f83d3f29ae7","683db6dfa200031b80f2a654","686507731faada4a13896591","667971a555af1f83d3f29ae7","2025-07-02T10:31:59.090Z","","[0,1]","","","3","mental_health","","","","","","","","","","","","","","","","","","","","","","","","","","","","","","","","","","","","","",""
"79894.79999999888","","","","survey-template","14","353691","0.0-7.0-3.0","193","1","2025-07-02 10:27:17","80fe4187154257d5fb01684ea91b68b9","83.24.144.77","Mozilla/5.0 (Windows NT 10.0; Win64; x64) AppleWebKit/537.36 (KHTML, like Gecko) Chrome/137.0.0.0 Safari/537.36","WebKit","Chrome","137.0.0.0","Windows","10.0","https://app.prolific.com/","en-GB-oxendict,en;q=0.9","667971a555af1f83d3f29ae7","683db6dfa200031b80f2a654","686507731faada4a13896591","667971a555af1f83d3f29ae7","2025-07-02T10:33:18.987Z","","","","","","ius","{""Q01"":""2"",""Q02"":""2"",""Q03"":""1"",""Q04"":""3"",""Q05"":""3"",""Q06"":""2"",""Q07"":""3"",""Q08"":""0"",""Q09"":""2"",""Q10"":""2"",""Q11"":""3"",""Q12"":""4"",""Q13"":""1""}","[0,1,2,3,4,5,6,7,8,9,10,11,12]","[""Q01"",""Q02"",""Q03"",""Q04"",""Q05"",""Q06"",""Q07"",""Q08"",""Q09"",""Q10"",""Q11"",""Q12"",""Q13"",""Q12"",""Q06""]","[8577.400000000373,12072.199999999255,15655.199999999255,20422.199999999255,24687.199999999255,28706.199999999255,32484.199999999255,38202.199999999255,44743.199999999255,47158.199999999255,52789.09999999963,53686.09999999963,60606.09999999963,66013,76561.19999999925]","[]","[8577.400000000373,12072.199999999255,15655.199999999255,19552.199999999255,20422.199999999255,24687.199999999255,28706.199999999255,31832.199999999255,32484.199999999255,38202.199999999255,44743.199999999255,47158.199999999255,50374.199999999255,51834.09999999963,52789.09999999963,53686.09999999963,59970.199999999255,60606.09999999963,66013,76561.19999999925,79893.29999999888]","0.38461538461538464","0.4166666666666667","0","","","","","","","","","","","","","","","","","","","","","","","","","","","","",""
"3791","1751452402779","<p style='font-size:1.1em;line-height:1.25'>In the following, we will ask you a few questions relating to your experiences over the past month.<br></p><p style='font-size:1.1em;line-height:1.25'>Press the <strong>Next</strong> button to continue.</p>","0","custom-html-button-response","15","357483","0.0-7.0-4.0","193","1","2025-07-02 10:27:17","80fe4187154257d5fb01684ea91b68b9","83.24.144.77","Mozilla/5.0 (Windows NT 10.0; Win64; x64) AppleWebKit/537.36 (KHTML, like Gecko) Chrome/137.0.0.0 Safari/537.36","WebKit","Chrome","137.0.0.0","Windows","10.0","https://app.prolific.com/","en-GB-oxendict,en;q=0.9","667971a555af1f83d3f29ae7","683db6dfa200031b80f2a654","686507731faada4a13896591","667971a555af1f83d3f29ae7","2025-07-02T10:33:22.779Z","","","","","","","","","","","","","","","","","","","","","","","","","","","","","","","","","","","","","","","","","","","",""
"54422.699999999255","","","","survey-template","16","411907","0.0-7.0-5.0","193","1","2025-07-02 10:27:17","80fe4187154257d5fb01684ea91b68b9","83.24.144.77","Mozilla/5.0 (Windows NT 10.0; Win64; x64) AppleWebKit/537.36 (KHTML, like Gecko) Chrome/137.0.0.0 Safari/537.36","WebKit","Chrome","137.0.0.0","Windows","10.0","https://app.prolific.com/","en-GB-oxendict,en;q=0.9","667971a555af1f83d3f29ae7","683db6dfa200031b80f2a654","686507731faada4a13896591","667971a555af1f83d3f29ae7","2025-07-02T10:34:17.203Z","","","","","","pss","{""Q01"":""1"",""Q02"":""2"",""Q03"":""4"",""Q04"":""2"",""Q05"":""2"",""Q06"":""3"",""Q07"":""2"",""Q08"":""2"",""Q09"":""1"",""Q10"":""2""}","[0,1,2,3,4,5,6,7,8,9]","[""Q01"",""Q02"",""Q03"",""Q03"",""Q04"",""Q05"",""Q06"",""Q07"",""Q08"",""Q09"",""Q10""]","[5998.699999999255,10539.799999998882,13779.699999999255,14580.699999999255,19188.699999999255,24369.799999998882,28792.799999998882,33612.699999999255,39920.699999999255,44148.699999999255,49111.79999999888]","[]","[0,5998.699999999255,10539.799999998882,13779.699999999255,14580.699999999255,19188.699999999255,24369.799999998882,28377.299999998882,28792.799999998882,33612.699999999255,39920.699999999255,43685.79999999888,44148.699999999255,48658.79999999888,49111.79999999888,54421.79999999888]","0.6","0.5555555555555556","0","","","","","","","","","","","","","","","","","","","","","","","","","","","","",""
"3726","1751452460930","<p style='font-size:1.1em;line-height:1.25'>Thank you for your answers! Now we will ask you a few more questions relating to your feelings in the last 24 hours.<br></p><p style='font-size:1.1em;line-height:1.25'>Press the <strong>Next</strong> button to continue.</p>","0","custom-html-button-response","17","415634","0.0-7.0-6.0","193","1","2025-07-02 10:27:17","80fe4187154257d5fb01684ea91b68b9","83.24.144.77","Mozilla/5.0 (Windows NT 10.0; Win64; x64) AppleWebKit/537.36 (KHTML, like Gecko) Chrome/137.0.0.0 Safari/537.36","WebKit","Chrome","137.0.0.0","Windows","10.0","https://app.prolific.com/","en-GB-oxendict,en;q=0.9","667971a555af1f83d3f29ae7","683db6dfa200031b80f2a654","686507731faada4a13896591","667971a555af1f83d3f29ae7","2025-07-02T10:34:20.930Z","","","","","","","","","","","","","","","","","","","","","","","","","","","","","","","","","","","","","","","","","","","",""
"87927.40000000037","","","","survey-template","18","503564","0.0-7.0-7.0","193","1","2025-07-02 10:27:17","80fe4187154257d5fb01684ea91b68b9","83.24.144.77","Mozilla/5.0 (Windows NT 10.0; Win64; x64) AppleWebKit/537.36 (KHTML, like Gecko) Chrome/137.0.0.0 Safari/537.36","WebKit","Chrome","137.0.0.0","Windows","10.0","https://app.prolific.com/","en-GB-oxendict,en;q=0.9","667971a555af1f83d3f29ae7","683db6dfa200031b80f2a654","686507731faada4a13896591","667971a555af1f83d3f29ae7","2025-07-02T10:35:48.860Z","","","","","","drsp","{""Q01"":""2"",""Q02"":""1"",""Q03"":""0"",""Q04"":""3"",""Q05"":""0"",""Q06"":""0"",""Q07"":""0"",""Q08"":""0"",""Q09"":""3"",""Q10"":""1"",""Q11"":""3"",""Q12"":""0"",""Q13"":""0"",""Q14"":""0"",""Q15"":""0"",""Q16"":""1"",""Q17"":""0"",""Q18"":""0"",""Q19"":""1"",""Q20"":""1"",""Q21"":""0""}","[0,1,2,3,4,5,6,7,8,9,10,11,12,13,14,15,16,17,18,19,20]","[""Q01"",""Q03"",""Q02"",""Q04"",""Q02"",""Q05"",""Q05"",""Q06"",""Q07"",""Q08"",""Q09"",""Q09"",""Q10"",""Q11"",""Q12"",""Q13"",""Q14"",""Q15"",""Q16"",""Q17"",""Q18"",""Q19"",""Q20"",""Q21""]","[6123.299999998882,10405.299999998882,13566.099999999627,14948.199999999255,17687.199999999255,19558.299999998882,20755.199999999255,24360.5,24968.099999999627,28510.799999998882,30652.199999999255,32402.199999999255,43091.199999999255,45268.199999999255,47802.199999999255,49035.09999999963,51461.09999999963,53455.09999999963,55369.09999999963,57369.09999999963,61984,68459.79999999888,72283.09999999963,77741]","[]","[0,6123.299999998882,10405.299999998882,13566.099999999627,14948.199999999255,17687.199999999255,19558.299999998882,20755.199999999255,24360.5,24968.099999999627,28510.799999998882,30652.199999999255,32402.199999999255,42259.29999999888,42731,43091.199999999255,45268.199999999255,47802.199999999255,49035.09999999963,51461.09999999963,53455.09999999963,55369.09999999963,57369.09999999963,61984,68459.79999999888,72283.09999999963,77741,87925.09999999963]","0.5714285714285714","0.3","0","","","","","","","","","","","","","","","","","","","","","","","","","","","","",""
"27655.5","","","","survey-template","19","531221","0.0-7.0-8.0","193","1","2025-07-02 10:27:17","80fe4187154257d5fb01684ea91b68b9","83.24.144.77","Mozilla/5.0 (Windows NT 10.0; Win64; x64) AppleWebKit/537.36 (KHTML, like Gecko) Chrome/137.0.0.0 Safari/537.36","WebKit","Chrome","137.0.0.0","Windows","10.0","https://app.prolific.com/","en-GB-oxendict,en;q=0.9","667971a555af1f83d3f29ae7","683db6dfa200031b80f2a654","686507731faada4a13896591","667971a555af1f83d3f29ae7","2025-07-02T10:36:16.517Z","","","","","","stress","{""Q01"":""3"",""Q02"":""3"",""Q03"":""2""}","[0,1,2]","[""Q01"",""Q02"",""Q03""]","[9865,12390.099999999627,16805.099999999627]","[]","[9396,9865,12390.099999999627,16805.099999999627,27655]","0.6666666666666666","0.5","0","","","","","","","","","","","","","","","","","","","","","","","","","","","","",""
"80968","","","","instructions","20","612189","0.0-8.0-0.0","193","1","2025-07-02 10:27:17","80fe4187154257d5fb01684ea91b68b9","83.24.144.77","Mozilla/5.0 (Windows NT 10.0; Win64; x64) AppleWebKit/537.36 (KHTML, like Gecko) Chrome/137.0.0.0 Safari/537.36","WebKit","Chrome","137.0.0.0","Windows","10.0","https://app.prolific.com/","en-GB-oxendict,en;q=0.9","667971a555af1f83d3f29ae7","683db6dfa200031b80f2a654","686507731faada4a13896591","667971a555af1f83d3f29ae7","","[{""page_index"":0,""viewing_time"":36005},{""page_index"":1,""viewing_time"":24709},{""page_index"":2,""viewing_time"":6841},{""page_index"":3,""viewing_time"":13413}]","","","","","","","","","","","","","","","","","","","","","","","","","","","","","","","","","","","","","","","","","","",""
"","","","","ctl-task-cpt","21","646557","0.0-8.0-1.0","193","1","2025-07-02 10:27:17","80fe4187154257d5fb01684ea91b68b9","83.24.144.77","Mozilla/5.0 (Windows NT 10.0; Win64; x64) AppleWebKit/537.36 (KHTML, like Gecko) Chrome/137.0.0.0 Safari/537.36","WebKit","Chrome","137.0.0.0","Windows","10.0","https://app.prolific.com/","en-GB-oxendict,en;q=0.9","667971a555af1f83d3f29ae7","683db6dfa200031b80f2a654","686507731faada4a13896591","667971a555af1f83d3f29ae7","","","","","","","","","","","","","","","","","win-only","2","g1:SE,g2:NW","1","0","1","613181.5","3577.4","7577.9","31363.3","2","4","4","6","2","4","4","4","0","0.030303030303030304","1601.6","4000","1510","[""left"",""up""]","{""num_key_presses"":6,""num_perfect"":6,""num_errors"":0,""num_randdir"":0,""num_randdir_good_moves"":0,""num_whilered"":0,""num_whileblue"":0,""num_blue"":2,""num_good_moves"":6}","[835.1428571428571,838.9397321428571,0.1,835.1428571428571,838.9397321428571,100.5,835.1428571428571,838.9397321428571,202.3,835.1428571428571,838.9397321428571,303.3,835.1428571428571,838.9397321428571,403.6,835.1428571428571,838.9397321428571,503.6,835.1428571428571,838.9397321428571,609.3,835.1428571428571,838.9397321428571,717,835.1428571428571,838.9397321428571,817.1,835.1428571428571,838.9397321428571,928.4,727.1428571428571,728.9397321428571,1035.3,357.1428571428571,356.9397321428571,1138.4,221.14285714285714,184.93973214285714,1240.4,161.14285714285714,124.93973214285714,1343.9,159.14285714285714,122.93973214285714,1444.6,155.14285714285714,126.93973214285714,1550.6,155.14285714285714,126.93973214285714,1652.4,155.14285714285714,126.93973214285714,1753.5,229.14285714285714,212.93973214285714,1853.6,453.1428571428571,332.9397321428571,1953.7,561.1428571428571,376.9397321428571,2054.3,643.1428571428571,412.9397321428571,2159.2,669.1428571428571,426.9397321428571,2267.2,669.1428571428571,426.9397321428571,2368.7,669.1428571428571,426.9397321428571,2468.8,669.1428571428571,426.9397321428571,2580.5,669.1428571428571,426.9397321428571,2683.7,669.1428571428571,426.9397321428571,2783.7,669.1428571428571,426.9397321428571,2883.8,669.1428571428571,426.9397321428571,2988.7,669.1428571428571,426.9397321428571,3088.9,669.1428571428571,426.9397321428571,3189,669.1428571428571,426.9397321428571,3289.1,669.1428571428571,426.9397321428571,3393.4,669.1428571428571,426.9397321428571,3493.5,669.1428571428571,426.9397321428571,3600.4,669.1428571428571,426.9397321428571,3700.4,669.1428571428571,426.9397321428571,3803,669.1428571428571,426.9397321428571,3903.9]","[3949.8,3949.8,1549.3,2002.9,397.6,""smooth"",""left"",""left"",""good_move"",7233.3,3283.4,2691.1,3949.9,592.3,""smooth"",""up"",""up"",""good_move"",10038.2,2804.8,2371.9,7233.4,432.9,""smooth"",""left"",""left"",""good_move"",17684.1,7645.8,3114.8,14033.6,535.7,""smooth"",""up"",""up"",""good_move"",20620,2935.8,2477,17684.2,458.8,""smooth"",""left"",""left"",""good_move"",23683.4,3063.3,2662.6,20620.1,400.7,""smooth"",""up"",""up"",""good_move""]","",""
"10532","","","","instructions","22","657090","0.0-8.0-2.0","193","1","2025-07-02 10:27:17","80fe4187154257d5fb01684ea91b68b9","83.24.144.77","Mozilla/5.0 (Windows NT 10.0; Win64; x64) AppleWebKit/537.36 (KHTML, like Gecko) Chrome/137.0.0.0 Safari/537.36","WebKit","Chrome","137.0.0.0","Windows","10.0","https://app.prolific.com/","en-GB-oxendict,en;q=0.9","667971a555af1f83d3f29ae7","683db6dfa200031b80f2a654","686507731faada4a13896591","667971a555af1f83d3f29ae7","","[{""page_index"":0,""viewing_time"":10532}]","","","","","","","","","","","","","","","","","","","","","","","","","","","","","","","","","","","","","","","","","","",""
"","","","","ctl-task-cpt","23","713220","0.0-8.0-3.0","193","1","2025-07-02 10:27:17","80fe4187154257d5fb01684ea91b68b9","83.24.144.77","Mozilla/5.0 (Windows NT 10.0; Win64; x64) AppleWebKit/537.36 (KHTML, like Gecko) Chrome/137.0.0.0 Safari/537.36","WebKit","Chrome","137.0.0.0","Windows","10.0","https://app.prolific.com/","en-GB-oxendict,en;q=0.9","667971a555af1f83d3f29ae7","683db6dfa200031b80f2a654","686507731faada4a13896591","667971a555af1f83d3f29ae7","","","","","","","","","","","","","","","","","win-only","2","g1:SE,g2:NW","0.35","0","3","658081.5","1016.1","5016.7","53117","2","4","8","6","2","-8","-9","0","0","0","965","4000","-2685","[""left"",""up""]","{""num_key_presses"":10,""num_perfect"":3,""num_errors"":1,""num_randdir"":6,""num_randdir_good_moves"":4,""num_whilered"":0,""num_whileblue"":0,""num_blue"":5,""num_good_moves"":7}","[835.1428571428571,812.9397321428571,0.1,835.1428571428571,812.9397321428571,105.4,835.1428571428571,812.9397321428571,213.5,853.1428571428571,814.9397321428571,315.7,839.1428571428571,796.9397321428571,421.1,649.1428571428571,648.9397321428571,530.1,443.1428571428571,494.9397321428571,634.6,309.1428571428571,364.9397321428571,735.5,219.14285714285714,262.9397321428571,835.6,187.14285714285714,226.93973214285714,936.2,185.14285714285714,224.93973214285714,1040.3,187.14285714285714,226.93973214285714,1147.2,421.1428571428571,498.9397321428571,1250.2,737.1428571428571,774.9397321428571,1355.2,777.1428571428571,812.9397321428571,1455.5,779.1428571428571,812.9397321428571,1555.9,779.1428571428571,812.9397321428571,1656.6,779.1428571428571,812.9397321428571,1763.2,779.1428571428571,812.9397321428571,1865.1,779.1428571428571,812.9397321428571,1969.9,775.1428571428571,806.9397321428571,2070.2,773.1428571428571,804.9397321428571,2170.5,769.1428571428571,798.9397321428571,2270.6,767.1428571428571,796.9397321428571,2379.8,765.1428571428571,794.9397321428571,2479.8,761.1428571428571,790.9397321428571,2579.9,759.1428571428571,788.9397321428571,2684.5,757.1428571428571,786.9397321428571,2785.3,753.1428571428571,782.9397321428571,2890.1,751.1428571428571,778.9397321428571,2997.9,749.1428571428571,776.9397321428571,3100.4,749.1428571428571,774.9397321428571,3205.9,747.1428571428571,772.9397321428571,3313,747.1428571428571,770.9397321428571,3413.2,745.1428571428571,770.9397321428571,3513.2,745.1428571428571,768.9397321428571,3615,743.1428571428571,766.9397321428571,3715.2,739.1428571428571,758.9397321428571,3819.9,737.1428571428571,756.9397321428571,3920.6]","[1612.1,1612.1,1000,0,612.2,""smooth"",""left"",""left"",""good_move"",4634.1,3021.8,2577.9,1612.3,443.9,""smooth"",""up"",""up"",""good_move"",7338.5,2704.2,2299.7,4634.3,404.5,""oops"",""left"",""up"",""good_move"",10397.1,3058.5,2612.4,7338.6,446.1,""oops"",""left"",""right"",""bad_move"",13679.1,3281.8,2868.4,10397.3,413.4,""oops"",""up"",""left"",""good_move"",24112.6,10433.5,2426.7,21264.7,421.2,""oops"",""up"",""left"",""good_move"",31529.4,7416.7,3144.8,27962.8,421.8,""oops"",""up"",""right"",""bad_move"",34731.6,3202.1,2327.6,31529.5,874.5,""oops"",""up"",""left"",""good_move"",38080.4,3348.7,2931.1,34731.7,417.6,""smooth"",""up"",""up"",""good_move"",38683.2,602.7,2909.4,38080.5,-2306.7,""error"",""-"",""-"",""no_move""]","",""
"31485","","","","instructions","24","744706","0.0-8.0-4.0","193","1","2025-07-02 10:27:17","80fe4187154257d5fb01684ea91b68b9","83.24.144.77","Mozilla/5.0 (Windows NT 10.0; Win64; x64) AppleWebKit/537.36 (KHTML, like Gecko) Chrome/137.0.0.0 Safari/537.36","WebKit","Chrome","137.0.0.0","Windows","10.0","https://app.prolific.com/","en-GB-oxendict,en;q=0.9","667971a555af1f83d3f29ae7","683db6dfa200031b80f2a654","686507731faada4a13896591","667971a555af1f83d3f29ae7","","[{""page_index"":0,""viewing_time"":8945},{""page_index"":1,""viewing_time"":22540}]","","","","","","","","","","","","","","","","","","","","","","","","","","","","","","","","","","","","","","","","","","",""
"21140","","","{""green_ball"":[""Ball sometimes shakes and moves in a random direction""]}","survey-multi-select","25","765847","0.0-8.0-5.0-0.0","193","1","2025-07-02 10:27:17","80fe4187154257d5fb01684ea91b68b9","83.24.144.77","Mozilla/5.0 (Windows NT 10.0; Win64; x64) AppleWebKit/537.36 (KHTML, like Gecko) Chrome/137.0.0.0 Safari/537.36","WebKit","Chrome","137.0.0.0","Windows","10.0","https://app.prolific.com/","en-GB-oxendict,en;q=0.9","667971a555af1f83d3f29ae7","683db6dfa200031b80f2a654","686507731faada4a13896591","667971a555af1f83d3f29ae7","","","[0]","","","","quiz","","","","","","","","","","","","","","","","","","","","","","","","","","","","","","","","","","","","","true",""
"1961","","<p align='center'><b>CORRECT!</b> Indeed, the green ball may sometimes shake and move in a random direction.</p>","0","html-button-response","26","767809","0.0-8.0-5.0-1.0","193","1","2025-07-02 10:27:17","80fe4187154257d5fb01684ea91b68b9","83.24.144.77","Mozilla/5.0 (Windows NT 10.0; Win64; x64) AppleWebKit/537.36 (KHTML, like Gecko) Chrome/137.0.0.0 Safari/537.36","WebKit","Chrome","137.0.0.0","Windows","10.0","https://app.prolific.com/","en-GB-oxendict,en;q=0.9","667971a555af1f83d3f29ae7","683db6dfa200031b80f2a654","686507731faada4a13896591","667971a555af1f83d3f29ae7","","","","","","","","","","","","","","","","","","","","","","","","","","","","","","","","","","","","","","","","","","","","",""
"15039","","","{""yellow_ball"":[""Ball doesn‘t move and I get -1 penalty point""]}","survey-multi-select","27","782850","0.0-8.0-6.0-0.0","193","1","2025-07-02 10:27:17","80fe4187154257d5fb01684ea91b68b9","83.24.144.77","Mozilla/5.0 (Windows NT 10.0; Win64; x64) AppleWebKit/537.36 (KHTML, like Gecko) Chrome/137.0.0.0 Safari/537.36","WebKit","Chrome","137.0.0.0","Windows","10.0","https://app.prolific.com/","en-GB-oxendict,en;q=0.9","667971a555af1f83d3f29ae7","683db6dfa200031b80f2a654","686507731faada4a13896591","667971a555af1f83d3f29ae7","","","[0]","","","","quiz","","","","","","","","","","","","","","","","","","","","","","","","","","","","","","","","","","","","","true",""
"1276","","<p align='center'><b>CORRECT!</b> Indeed, the yellow ball never moves and you receive a penalty.</p>","0","html-button-response","28","784127","0.0-8.0-6.0-1.0","193","1","2025-07-02 10:27:17","80fe4187154257d5fb01684ea91b68b9","83.24.144.77","Mozilla/5.0 (Windows NT 10.0; Win64; x64) AppleWebKit/537.36 (KHTML, like Gecko) Chrome/137.0.0.0 Safari/537.36","WebKit","Chrome","137.0.0.0","Windows","10.0","https://app.prolific.com/","en-GB-oxendict,en;q=0.9","667971a555af1f83d3f29ae7","683db6dfa200031b80f2a654","686507731faada4a13896591","667971a555af1f83d3f29ae7","","","","","","","","","","","","","","","","","","","","","","","","","","","","","","","","","","","","","","","","","","","","",""
"8128","","","{""blue_ball"":[""Ball always shakes and moves in a random direction""]}","survey-multi-select","29","792256","0.0-8.0-7.0-0.0","193","1","2025-07-02 10:27:17","80fe4187154257d5fb01684ea91b68b9","83.24.144.77","Mozilla/5.0 (Windows NT 10.0; Win64; x64) AppleWebKit/537.36 (KHTML, like Gecko) Chrome/137.0.0.0 Safari/537.36","WebKit","Chrome","137.0.0.0","Windows","10.0","https://app.prolific.com/","en-GB-oxendict,en;q=0.9","667971a555af1f83d3f29ae7","683db6dfa200031b80f2a654","686507731faada4a13896591","667971a555af1f83d3f29ae7","","","[0]","","","","quiz","","","","","","","","","","","","","","","","","","","","","","","","","","","","","","","","","","","","","true",""
"2174","","<p align='center'><b>CORRECT!</b> Indeed, the blue ball always shakes and moves in a random direction. Also there is a penalty of -1 point.</p>","0","html-button-response","30","794431","0.0-8.0-7.0-1.0","193","1","2025-07-02 10:27:17","80fe4187154257d5fb01684ea91b68b9","83.24.144.77","Mozilla/5.0 (Windows NT 10.0; Win64; x64) AppleWebKit/537.36 (KHTML, like Gecko) Chrome/137.0.0.0 Safari/537.36","WebKit","Chrome","137.0.0.0","Windows","10.0","https://app.prolific.com/","en-GB-oxendict,en;q=0.9","667971a555af1f83d3f29ae7","683db6dfa200031b80f2a654","686507731faada4a13896591","667971a555af1f83d3f29ae7","","","","","","","","","","","","","","","","","","","","","","","","","","","","","","","","","","","","","","","","","","","","",""
"4785","","","{""bonus"":[""When I reach 50% of points""]}","survey-multi-select","31","799218","0.0-8.0-8.0-0.0","193","1","2025-07-02 10:27:17","80fe4187154257d5fb01684ea91b68b9","83.24.144.77","Mozilla/5.0 (Windows NT 10.0; Win64; x64) AppleWebKit/537.36 (KHTML, like Gecko) Chrome/137.0.0.0 Safari/537.36","WebKit","Chrome","137.0.0.0","Windows","10.0","https://app.prolific.com/","en-GB-oxendict,en;q=0.9","667971a555af1f83d3f29ae7","683db6dfa200031b80f2a654","686507731faada4a13896591","667971a555af1f83d3f29ae7","","","[0]","","","","quiz","","","","","","","","","","","","","","","","","","","","","","","","","","","","","","","","","","","","","true",""
"1159","","<p align='center'><b>CORRECT!</b> Indeed, you receive 2 pounds extra when you reach 50% of points.</p>","0","html-button-response","32","800378","0.0-8.0-8.0-1.0","193","1","2025-07-02 10:27:17","80fe4187154257d5fb01684ea91b68b9","83.24.144.77","Mozilla/5.0 (Windows NT 10.0; Win64; x64) AppleWebKit/537.36 (KHTML, like Gecko) Chrome/137.0.0.0 Safari/537.36","WebKit","Chrome","137.0.0.0","Windows","10.0","https://app.prolific.com/","en-GB-oxendict,en;q=0.9","667971a555af1f83d3f29ae7","683db6dfa200031b80f2a654","686507731faada4a13896591","667971a555af1f83d3f29ae7","","","","","","","","","","","","","","","","","","","","","","","","","","","","","","","","","","","","","","","","","","","","",""
"2126","","","","instructions","33","802504","0.0-8.0-9.0","193","1","2025-07-02 10:27:17","80fe4187154257d5fb01684ea91b68b9","83.24.144.77","Mozilla/5.0 (Windows NT 10.0; Win64; x64) AppleWebKit/537.36 (KHTML, like Gecko) Chrome/137.0.0.0 Safari/537.36","WebKit","Chrome","137.0.0.0","Windows","10.0","https://app.prolific.com/","en-GB-oxendict,en;q=0.9","667971a555af1f83d3f29ae7","683db6dfa200031b80f2a654","686507731faada4a13896591","667971a555af1f83d3f29ae7","","[{""page_index"":0,""viewing_time"":2126}]","","","","","","","","","","","","","","","","","","","","","","","","","","","","","","","","","","","","","","","","","","",""
"12395","","<p>Before you start with this game please answer the following three questions yourself. </p>
  <p>Through this game, we measure several aspects of your cognitive performance, such as reaction times, multi-tasking capabilities </p>
  <p>and the ability to assess the situation you are in.</p>
  <p></p>
  <p><b>How good do you usually are in such tasks?</b></p>","68","html-slider-response","34","814900","0.0-9.0-0.0","193","1","2025-07-02 10:27:17","80fe4187154257d5fb01684ea91b68b9","83.24.144.77","Mozilla/5.0 (Windows NT 10.0; Win64; x64) AppleWebKit/537.36 (KHTML, like Gecko) Chrome/137.0.0.0 Safari/537.36","WebKit","Chrome","137.0.0.0","Windows","10.0","https://app.prolific.com/","en-GB-oxendict,en;q=0.9","667971a555af1f83d3f29ae7","683db6dfa200031b80f2a654","686507731faada4a13896591","667971a555af1f83d3f29ae7","2025-07-02T10:41:00.196Z","","","","","","PreSkillQ","","","","","","","","","","","","","","","","","","","","","","","","","","","","","","","","","","","","","","50"
"8988","","<div style=""width:500px;"">
  <p>How well do you think you will perform in this task compared to other participants?</p>
  </div>","50","html-slider-response","35","823889","0.0-9.0-1.0","193","1","2025-07-02 10:27:17","80fe4187154257d5fb01684ea91b68b9","83.24.144.77","Mozilla/5.0 (Windows NT 10.0; Win64; x64) AppleWebKit/537.36 (KHTML, like Gecko) Chrome/137.0.0.0 Safari/537.36","WebKit","Chrome","137.0.0.0","Windows","10.0","https://app.prolific.com/","en-GB-oxendict,en;q=0.9","667971a555af1f83d3f29ae7","683db6dfa200031b80f2a654","686507731faada4a13896591","667971a555af1f83d3f29ae7","2025-07-02T10:41:09.185Z","","","","","","PrePerfQ","","","","","","","","","","","","","","","","","","","","","","","","","","","","","","","","","","","","","","50"
"6412","","<div style=""width:500px;"">
  <p>What best describes how you currently feel?</p>
  </div>","45","html-slider-response","36","830302","0.0-9.0-2.0","193","1","2025-07-02 10:27:17","80fe4187154257d5fb01684ea91b68b9","83.24.144.77","Mozilla/5.0 (Windows NT 10.0; Win64; x64) AppleWebKit/537.36 (KHTML, like Gecko) Chrome/137.0.0.0 Safari/537.36","WebKit","Chrome","137.0.0.0","Windows","10.0","https://app.prolific.com/","en-GB-oxendict,en;q=0.9","667971a555af1f83d3f29ae7","683db6dfa200031b80f2a654","686507731faada4a13896591","667971a555af1f83d3f29ae7","2025-07-02T10:41:15.598Z","","","","","","PreMotivationQ","","","","","","","","","","","","","","","","","","","","","","","","","","","","","","","","","","","","","","50"
"","","","","ctl-task-cpt","37","869869","0.0-10.0-0.0","193","1","2025-07-02 10:27:17","80fe4187154257d5fb01684ea91b68b9","83.24.144.77","Mozilla/5.0 (Windows NT 10.0; Win64; x64) AppleWebKit/537.36 (KHTML, like Gecko) Chrome/137.0.0.0 Safari/537.36","WebKit","Chrome","137.0.0.0","Windows","10.0","https://app.prolific.com/","en-GB-oxendict,en;q=0.9","667971a555af1f83d3f29ae7","683db6dfa200031b80f2a654","686507731faada4a13896591","667971a555af1f83d3f29ae7","2025-07-02T10:41:55.165Z","","","","","","","","","","","","","","","","win-only","1","g1:NE,g2:SW","1","1","0","831294.3","1474.7","6475.7","36550.1","1","4","4","6","2","4","4","4","0","0.030303030303030304","1291.6","3000","655","[""down"",""left""]","{""num_key_presses"":6,""num_perfect"":6,""num_errors"":0,""num_randdir"":0,""num_randdir_good_moves"":0,""num_whilered"":0,""num_whileblue"":0,""num_blue"":4,""num_good_moves"":6}","[833.1428571428571,836.9397321428571,0.1,833.1428571428571,836.9397321428571,102.2,833.1428571428571,836.9397321428571,206.1,871.1428571428571,826.9397321428571,307.8,921.1428571428571,800.9397321428571,411.4,951.1428571428571,772.9397321428571,511.6,1005.1428571428571,712.9397321428571,616.3,1073.142857142857,626.9397321428571,721.6,991.1428571428571,770.9397321428571,826.9,583.1428571428571,1108.939732142857,927.4,261.1428571428571,1388.939732142857,1031.9,239.14285714285714,1406.939732142857,1136.3,209.14285714285714,1462.939732142857,1237,185.14285714285714,1492.939732142857,1340.6,265.1428571428571,1408.939732142857,1441.4,587.1428571428571,1074.939732142857,1545.6,713.1428571428571,996.9397321428571,1646.4,727.1428571428571,1000.9397321428571,1746.5,737.1428571428571,1008.9397321428571,1852.2,739.1428571428571,1008.9397321428571,1956.9,743.1428571428571,1010.9397321428571,2060.7,743.1428571428571,1010.9397321428571,2161.8,745.1428571428571,1010.9397321428571,2266.8,745.1428571428571,1010.9397321428571,2372,745.1428571428571,1010.9397321428571,2477.8,745.1428571428571,1010.9397321428571,2581.6,747.1428571428571,1010.9397321428571,2681.8,749.1428571428571,1006.9397321428571,2786.7,749.1428571428571,1004.9397321428571,2890.5,749.1428571428571,1004.9397321428571,2990.6,749.1428571428571,1002.9397321428571,3090.8,749.1428571428571,1000.9397321428571,3191.6,749.1428571428571,996.9397321428571,3291.9,749.1428571428571,992.9397321428571,3396.1,747.1428571428571,990.9397321428571,3496.2,747.1428571428571,988.9397321428571,3601.3,747.1428571428571,986.9397321428571,3701.3,747.1428571428571,986.9397321428571,3805.6,747.1428571428571,986.9397321428571,3906.8,747.1428571428571,986.9397321428571,4006.8,747.1428571428571,984.9397321428571,4111.6,747.1428571428571,984.9397321428571,4216.3,747.1428571428571,984.9397321428571,4316.8,745.1428571428571,982.9397321428571,4421.7,745.1428571428571,980.9397321428571,4526.8,745.1428571428571,978.9397321428571,4626.9,745.1428571428571,978.9397321428571,4731.4,745.1428571428571,978.9397321428571,4836.6,745.1428571428571,978.9397321428571,4936.6]","[8256.9,8256.9,2422.1,5470.3,364.5,""smooth"",""down"",""down"",""good_move"",11729.2,3472.1,3017,8257.1,455.1,""smooth"",""down"",""down"",""good_move"",14252.5,2523.3,2149.9,11729.2,373.4,""smooth"",""down"",""down"",""good_move"",20710.3,6457.7,2461.4,17885.5,363.4,""smooth"",""left"",""left"",""good_move"",24398.2,3687.6,3258.3,20710.6,429.3,""smooth"",""left"",""left"",""good_move"",29982.6,5584.3,2163,27435.6,384,""smooth"",""left"",""left"",""good_move""]","",""
"5676","","<div style=""width:500px;"">
  <p>What determined the result of this run?</p>
  </div>","81","html-slider-response","38","875547","0.0-10.0-1.0","193","1","2025-07-02 10:27:17","80fe4187154257d5fb01684ea91b68b9","83.24.144.77","Mozilla/5.0 (Windows NT 10.0; Win64; x64) AppleWebKit/537.36 (KHTML, like Gecko) Chrome/137.0.0.0 Safari/537.36","WebKit","Chrome","137.0.0.0","Windows","10.0","https://app.prolific.com/","en-GB-oxendict,en;q=0.9","667971a555af1f83d3f29ae7","683db6dfa200031b80f2a654","686507731faada4a13896591","667971a555af1f83d3f29ae7","2025-07-02T10:42:00.843Z","","","","","","AttribQ","","","","","","","","","","","","","","","","","","","","","","","","","","","","","","","","","","","","","","50"
"3714","","<div style=""width:500px;"">
  <p>How much control did you have over the ball?</p>
  </div>","96","html-slider-response","39","879262","0.0-10.0-2.0","193","1","2025-07-02 10:27:17","80fe4187154257d5fb01684ea91b68b9","83.24.144.77","Mozilla/5.0 (Windows NT 10.0; Win64; x64) AppleWebKit/537.36 (KHTML, like Gecko) Chrome/137.0.0.0 Safari/537.36","WebKit","Chrome","137.0.0.0","Windows","10.0","https://app.prolific.com/","en-GB-oxendict,en;q=0.9","667971a555af1f83d3f29ae7","683db6dfa200031b80f2a654","686507731faada4a13896591","667971a555af1f83d3f29ae7","2025-07-02T10:42:04.558Z","","","","","","ControlQ","","","","","","","","","","","","","","","","","","","","","","","","","","","","","","","","","","","","","","50"
"4840","","<div style=""width:500px;"">
  <p>How would you describe your current emotional state?</p>
  </div>","43","html-slider-response","40","884103","0.0-10.0-3.0","193","1","2025-07-02 10:27:17","80fe4187154257d5fb01684ea91b68b9","83.24.144.77","Mozilla/5.0 (Windows NT 10.0; Win64; x64) AppleWebKit/537.36 (KHTML, like Gecko) Chrome/137.0.0.0 Safari/537.36","WebKit","Chrome","137.0.0.0","Windows","10.0","https://app.prolific.com/","en-GB-oxendict,en;q=0.9","667971a555af1f83d3f29ae7","683db6dfa200031b80f2a654","686507731faada4a13896591","667971a555af1f83d3f29ae7","2025-07-02T10:42:09.399Z","","","","","","StressQ","","","","","","","","","","","","","","","","","","","","","","","","","","","","","","","","","","","","","","50"
"3689","","<div style=""width:500px;"">
  <p>What best describes how you currently feel?</p>
  </div>","59","html-slider-response","41","887793","0.0-10.0-4.0","193","1","2025-07-02 10:27:17","80fe4187154257d5fb01684ea91b68b9","83.24.144.77","Mozilla/5.0 (Windows NT 10.0; Win64; x64) AppleWebKit/537.36 (KHTML, like Gecko) Chrome/137.0.0.0 Safari/537.36","WebKit","Chrome","137.0.0.0","Windows","10.0","https://app.prolific.com/","en-GB-oxendict,en;q=0.9","667971a555af1f83d3f29ae7","683db6dfa200031b80f2a654","686507731faada4a13896591","667971a555af1f83d3f29ae7","2025-07-02T10:42:13.089Z","","","","","","MotivationQ","","","","","","","","","","","","","","","","","","","","","","","","","","","","","","","","","","","","","","50"
"","","","","ctl-task-cpt","42","924276","0.0-10.0-0.1","193","1","2025-07-02 10:27:17","80fe4187154257d5fb01684ea91b68b9","83.24.144.77","Mozilla/5.0 (Windows NT 10.0; Win64; x64) AppleWebKit/537.36 (KHTML, like Gecko) Chrome/137.0.0.0 Safari/537.36","WebKit","Chrome","137.0.0.0","Windows","10.0","https://app.prolific.com/","en-GB-oxendict,en;q=0.9","667971a555af1f83d3f29ae7","683db6dfa200031b80f2a654","686507731faada4a13896591","667971a555af1f83d3f29ae7","2025-07-02T10:42:49.572Z","","","","","","","","","","","","","","","","win-only","1","g1:NE,g2:SW","0.9","2","0","888785.1","1849.5","6850.5","33464.2","1","4","8","6","2","-8","-8","0","4","0","1352","3000","-2670","[""down"",""left""]","{""num_key_presses"":8,""num_perfect"":7,""num_errors"":0,""num_randdir"":1,""num_randdir_good_moves"":0,""num_whilered"":0,""num_whileblue"":0,""num_blue"":1,""num_good_moves"":6}","[831.1428571428571,838.9397321428571,0.1,831.1428571428571,838.9397321428571,100.6,831.1428571428571,838.9397321428571,201.4,831.1428571428571,838.9397321428571,307.3,831.1428571428571,840.9397321428571,415,831.1428571428571,840.9397321428571,515,831.1428571428571,840.9397321428571,615.2,831.1428571428571,840.9397321428571,716.6,421.1428571428571,1234.939732142857,820.8,195.14285714285714,1418.939732142857,921,187.14285714285714,1500.939732142857,1021.4,177.14285714285714,1528.939732142857,1131,173.14285714285714,1528.939732142857,1236.4,167.14285714285714,1524.939732142857,1348.7,167.14285714285714,1524.939732142857,1449.3,177.14285714285714,1498.939732142857,1550.7,521.1428571428571,1104.939732142857,1651.5,761.1428571428571,960.9397321428571,1756.9,777.1428571428571,980.9397321428571,1867.5,777.1428571428571,980.9397321428571,1970.8,777.1428571428571,980.9397321428571,2071.4,777.1428571428571,980.9397321428571,2181,777.1428571428571,980.9397321428571,2281.5,777.1428571428571,980.9397321428571,2386.9,777.1428571428571,980.9397321428571,2491.4,775.1428571428571,974.9397321428571,2591.5,775.1428571428571,974.9397321428571,2691.8,775.1428571428571,974.9397321428571,2799.4,775.1428571428571,972.9397321428571,2901.7,773.1428571428571,972.9397321428571,3006.1,773.1428571428571,972.9397321428571,3115,773.1428571428571,970.9397321428571,3216.6,771.1428571428571,968.9397321428571,3320.9,771.1428571428571,968.9397321428571,3430.6,771.1428571428571,968.9397321428571,3531.8,771.1428571428571,968.9397321428571,3636.1,771.1428571428571,968.9397321428571,3736.5,771.1428571428571,968.9397321428571,3841.4,771.1428571428571,968.9397321428571,3948.1,771.1428571428571,968.9397321428571,4051.3,771.1428571428571,968.9397321428571,4156.2,777.1428571428571,960.9397321428571,4264.2,785.1428571428571,954.9397321428571,4365.1,801.1428571428571,944.9397321428571,4465.2,805.1428571428571,942.9397321428571,4566.1,807.1428571428571,942.9397321428571,4670.6,807.1428571428571,942.9397321428571,4770.6,807.1428571428571,942.9397321428571,4871.5,807.1428571428571,942.9397321428571,4971.5]","[5352.1,5352.1,2986.2,2015.2,350.7,""oops"",""down"",""up"",""bad_move"",7216.8,1864.5,1380.5,5352.3,484,""smooth"",""up"",""up"",""bad_move"",10385.6,3168.8,2595,7216.9,573.8,""smooth"",""down"",""down"",""good_move"",12636.8,2251,1819.4,10385.8,431.6,""smooth"",""down"",""down"",""good_move"",15230.3,2593.3,2226.1,12637,367.2,""smooth"",""down"",""down"",""good_move"",18249.9,3019.5,2613.3,15230.4,406.2,""smooth"",""left"",""left"",""good_move"",21029.5,2779.4,2379.1,18250.1,400.3,""smooth"",""down"",""down"",""good_move"",24066.8,3037.2,2719,21029.6,318.2,""smooth"",""left"",""left"",""good_move""]","",""
"3373","","<div style=""width:500px;"">
  <p>What determined the result of this run?</p>
  </div>","42","html-slider-response","43","927650","0.0-10.0-1.1","193","1","2025-07-02 10:27:17","80fe4187154257d5fb01684ea91b68b9","83.24.144.77","Mozilla/5.0 (Windows NT 10.0; Win64; x64) AppleWebKit/537.36 (KHTML, like Gecko) Chrome/137.0.0.0 Safari/537.36","WebKit","Chrome","137.0.0.0","Windows","10.0","https://app.prolific.com/","en-GB-oxendict,en;q=0.9","667971a555af1f83d3f29ae7","683db6dfa200031b80f2a654","686507731faada4a13896591","667971a555af1f83d3f29ae7","2025-07-02T10:42:52.946Z","","","","","","AttribQ","","","","","","","","","","","","","","","","","","","","","","","","","","","","","","","","","","","","","","50"
"3113","","<div style=""width:500px;"">
  <p>How much control did you have over the ball?</p>
  </div>","45","html-slider-response","44","930764","0.0-10.0-2.1","193","1","2025-07-02 10:27:17","80fe4187154257d5fb01684ea91b68b9","83.24.144.77","Mozilla/5.0 (Windows NT 10.0; Win64; x64) AppleWebKit/537.36 (KHTML, like Gecko) Chrome/137.0.0.0 Safari/537.36","WebKit","Chrome","137.0.0.0","Windows","10.0","https://app.prolific.com/","en-GB-oxendict,en;q=0.9","667971a555af1f83d3f29ae7","683db6dfa200031b80f2a654","686507731faada4a13896591","667971a555af1f83d3f29ae7","2025-07-02T10:42:56.060Z","","","","","","ControlQ","","","","","","","","","","","","","","","","","","","","","","","","","","","","","","","","","","","","","","50"
"2644","","<div style=""width:500px;"">
  <p>How would you describe your current emotional state?</p>
  </div>","57","html-slider-response","45","933409","0.0-10.0-3.1","193","1","2025-07-02 10:27:17","80fe4187154257d5fb01684ea91b68b9","83.24.144.77","Mozilla/5.0 (Windows NT 10.0; Win64; x64) AppleWebKit/537.36 (KHTML, like Gecko) Chrome/137.0.0.0 Safari/537.36","WebKit","Chrome","137.0.0.0","Windows","10.0","https://app.prolific.com/","en-GB-oxendict,en;q=0.9","667971a555af1f83d3f29ae7","683db6dfa200031b80f2a654","686507731faada4a13896591","667971a555af1f83d3f29ae7","2025-07-02T10:42:58.705Z","","","","","","StressQ","","","","","","","","","","","","","","","","","","","","","","","","","","","","","","","","","","","","","","50"
"3226","","<div style=""width:500px;"">
  <p>What best describes how you currently feel?</p>
  </div>","56","html-slider-response","46","936636","0.0-10.0-4.1","193","1","2025-07-02 10:27:17","80fe4187154257d5fb01684ea91b68b9","83.24.144.77","Mozilla/5.0 (Windows NT 10.0; Win64; x64) AppleWebKit/537.36 (KHTML, like Gecko) Chrome/137.0.0.0 Safari/537.36","WebKit","Chrome","137.0.0.0","Windows","10.0","https://app.prolific.com/","en-GB-oxendict,en;q=0.9","667971a555af1f83d3f29ae7","683db6dfa200031b80f2a654","686507731faada4a13896591","667971a555af1f83d3f29ae7","2025-07-02T10:43:01.932Z","","","","","","MotivationQ","","","","","","","","","","","","","","","","","","","","","","","","","","","","","","","","","","","","","","50"
"","","","","ctl-task-cpt","47","966143","0.0-10.0-0.2","193","1","2025-07-02 10:27:17","80fe4187154257d5fb01684ea91b68b9","83.24.144.77","Mozilla/5.0 (Windows NT 10.0; Win64; x64) AppleWebKit/537.36 (KHTML, like Gecko) Chrome/137.0.0.0 Safari/537.36","WebKit","Chrome","137.0.0.0","Windows","10.0","https://app.prolific.com/","en-GB-oxendict,en;q=0.9","667971a555af1f83d3f29ae7","683db6dfa200031b80f2a654","686507731faada4a13896591","667971a555af1f83d3f29ae7","2025-07-02T10:43:31.439Z","","","","","","","","","","","","","","","","win-only","2","g1:SE,g2:NW","0.8","3","0","937628.2","921.3","5926.7","26496","1","4","8","6","2","-8","-8","0","0","0","1560.2","3000","-2585","[""left"",""up""]","{""num_key_presses"":7,""num_perfect"":5,""num_errors"":0,""num_randdir"":2,""num_randdir_good_moves"":1,""num_whilered"":0,""num_whileblue"":0,""num_blue"":0,""num_good_moves"":6}","[817.1428571428571,820.9397321428571,0,819.1428571428571,822.9397321428571,100.1,819.1428571428571,822.9397321428571,204.7,819.1428571428571,822.9397321428571,310.4,819.1428571428571,826.9397321428571,417.8,819.1428571428571,826.9397321428571,519.9,783.1428571428571,792.9397321428571,624.5,605.1428571428571,612.9397321428571,730.7,505.1428571428571,502.9397321428571,834.5,345.1428571428571,316.9397321428571,934.9,217.14285714285714,204.93973214285714,1040.1,209.14285714285714,198.93973214285714,1144.1,209.14285714285714,198.93973214285714,1245.1,209.14285714285714,198.93973214285714,1350.2,209.14285714285714,198.93973214285714,1455.3,209.14285714285714,198.93973214285714,1560,209.14285714285714,198.93973214285714,1668.3,221.14285714285714,208.93973214285714,1769.6,503.1428571428571,492.9397321428571,1874.7,665.1428571428571,604.9397321428571,1975,665.1428571428571,606.9397321428571,2079.1,665.1428571428571,606.9397321428571,2179.8,665.1428571428571,606.9397321428571,2284,663.1428571428571,624.9397321428571,2385.7,657.1428571428571,638.9397321428571,2489.3,655.1428571428571,644.9397321428571,2590.1,651.1428571428571,646.9397321428571,2690.1,647.1428571428571,646.9397321428571,2794.6,641.1428571428571,646.9397321428571,2902.6,635.1428571428571,648.9397321428571,3003.9,627.1428571428571,648.9397321428571,3104.6,623.1428571428571,648.9397321428571,3210.2,615.1428571428571,646.9397321428571,3314.8,609.1428571428571,644.9397321428571,3414.9,605.1428571428571,644.9397321428571,3515,597.1428571428571,642.9397321428571,3620.4,589.1428571428571,640.9397321428571,3724.7,579.1428571428571,638.9397321428571,3831,573.1428571428571,636.9397321428571,3935,567.1428571428571,634.9397321428571,4035,559.1428571428571,632.9397321428571,4135.1,555.1428571428571,632.9397321428571,4238.9,547.1428571428571,632.9397321428571,4340,539.1428571428571,630.9397321428571,4440,535.1428571428571,630.9397321428571,4544.7,531.1428571428571,630.9397321428571,4645.4,527.1428571428571,628.9397321428571,4745.5,523.1428571428571,628.9397321428571,4849.3,521.1428571428571,628.9397321428571,4949.3]","[1463.6,1463.6,1000,0,463.6,""oops"",""left"",""down"",""bad_move"",4217.4,2753.6,2384.4,1463.8,369.2,""oops"",""left"",""left"",""good_move"",6772.2,2554.5,2126.2,4217.7,428.3,""smooth"",""up"",""up"",""good_move"",9020.5,2248.1,1840.6,6772.4,407.5,""smooth"",""up"",""up"",""good_move"",12479.6,3459.1,3088.9,9020.5,370.2,""smooth"",""left"",""left"",""good_move"",15029.2,2549.5,2130.7,12479.7,418.8,""smooth"",""up"",""up"",""good_move"",17817.8,2788.5,2435.1,15029.3,353.4,""smooth"",""left"",""left"",""good_move""]","",""
"2166","","<div style=""width:500px;"">
  <p>What determined the result of this run?</p>
  </div>","35","html-slider-response","48","968309","0.0-10.0-1.2","193","1","2025-07-02 10:27:17","80fe4187154257d5fb01684ea91b68b9","83.24.144.77","Mozilla/5.0 (Windows NT 10.0; Win64; x64) AppleWebKit/537.36 (KHTML, like Gecko) Chrome/137.0.0.0 Safari/537.36","WebKit","Chrome","137.0.0.0","Windows","10.0","https://app.prolific.com/","en-GB-oxendict,en;q=0.9","667971a555af1f83d3f29ae7","683db6dfa200031b80f2a654","686507731faada4a13896591","667971a555af1f83d3f29ae7","2025-07-02T10:43:33.605Z","","","","","","AttribQ","","","","","","","","","","","","","","","","","","","","","","","","","","","","","","","","","","","","","","50"
"2652","","<div style=""width:500px;"">
  <p>How much control did you have over the ball?</p>
  </div>","45","html-slider-response","49","970961","0.0-10.0-2.2","193","1","2025-07-02 10:27:17","80fe4187154257d5fb01684ea91b68b9","83.24.144.77","Mozilla/5.0 (Windows NT 10.0; Win64; x64) AppleWebKit/537.36 (KHTML, like Gecko) Chrome/137.0.0.0 Safari/537.36","WebKit","Chrome","137.0.0.0","Windows","10.0","https://app.prolific.com/","en-GB-oxendict,en;q=0.9","667971a555af1f83d3f29ae7","683db6dfa200031b80f2a654","686507731faada4a13896591","667971a555af1f83d3f29ae7","2025-07-02T10:43:36.257Z","","","","","","ControlQ","","","","","","","","","","","","","","","","","","","","","","","","","","","","","","","","","","","","","","50"
"2476","","<div style=""width:500px;"">
  <p>How would you describe your current emotional state?</p>
  </div>","71","html-slider-response","50","973439","0.0-10.0-3.2","193","1","2025-07-02 10:27:17","80fe4187154257d5fb01684ea91b68b9","83.24.144.77","Mozilla/5.0 (Windows NT 10.0; Win64; x64) AppleWebKit/537.36 (KHTML, like Gecko) Chrome/137.0.0.0 Safari/537.36","WebKit","Chrome","137.0.0.0","Windows","10.0","https://app.prolific.com/","en-GB-oxendict,en;q=0.9","667971a555af1f83d3f29ae7","683db6dfa200031b80f2a654","686507731faada4a13896591","667971a555af1f83d3f29ae7","2025-07-02T10:43:38.735Z","","","","","","StressQ","","","","","","","","","","","","","","","","","","","","","","","","","","","","","","","","","","","","","","50"
"3283","","<div style=""width:500px;"">
  <p>What best describes how you currently feel?</p>
  </div>","46","html-slider-response","51","976722","0.0-10.0-4.2","193","1","2025-07-02 10:27:17","80fe4187154257d5fb01684ea91b68b9","83.24.144.77","Mozilla/5.0 (Windows NT 10.0; Win64; x64) AppleWebKit/537.36 (KHTML, like Gecko) Chrome/137.0.0.0 Safari/537.36","WebKit","Chrome","137.0.0.0","Windows","10.0","https://app.prolific.com/","en-GB-oxendict,en;q=0.9","667971a555af1f83d3f29ae7","683db6dfa200031b80f2a654","686507731faada4a13896591","667971a555af1f83d3f29ae7","2025-07-02T10:43:42.018Z","","","","","","MotivationQ","","","","","","","","","","","","","","","","","","","","","","","","","","","","","","","","","","","","","","50"
"","","","","ctl-task-cpt","52","1018312","0.0-10.0-0.3","193","1","2025-07-02 10:27:17","80fe4187154257d5fb01684ea91b68b9","83.24.144.77","Mozilla/5.0 (Windows NT 10.0; Win64; x64) AppleWebKit/537.36 (KHTML, like Gecko) Chrome/137.0.0.0 Safari/537.36","WebKit","Chrome","137.0.0.0","Windows","10.0","https://app.prolific.com/","en-GB-oxendict,en;q=0.9","667971a555af1f83d3f29ae7","683db6dfa200031b80f2a654","686507731faada4a13896591","667971a555af1f83d3f29ae7","2025-07-02T10:44:23.608Z","","","","","","","","","","","","","","","","win-only","3","g1:SW,g2:NE","0.7","4","0","977714.9","1401.8","6406.5","38571.3","1","4","4","6","2","4","4","4","0","0.030303030303030304","4389.3","3000","165","[""up"",""right""]","{""num_key_presses"":8,""num_perfect"":7,""num_errors"":0,""num_randdir"":1,""num_randdir_good_moves"":0,""num_whilered"":0,""num_whileblue"":0,""num_blue"":3,""num_good_moves"":7}","[827.1428571428571,836.9397321428571,0.2,827.1428571428571,836.9397321428571,104,819.1428571428571,828.9397321428571,204.1,745.1428571428571,810.9397321428571,304.7,689.1428571428571,796.9397321428571,410.1,679.1428571428571,794.9397321428571,516.4,675.1428571428571,794.9397321428571,619.3,675.1428571428571,794.9397321428571,719.4,675.1428571428571,794.9397321428571,824.4,673.1428571428571,794.9397321428571,924.8,673.1428571428571,794.9397321428571,1024.9,673.1428571428571,794.9397321428571,1129.6,673.1428571428571,794.9397321428571,1230.3,673.1428571428571,794.9397321428571,1334.6,673.1428571428571,794.9397321428571,1438.6,673.1428571428571,794.9397321428571,1539.5,673.1428571428571,794.9397321428571,1639.6,681.1428571428571,792.9397321428571,1743.8,701.1428571428571,784.9397321428571,1845.7,751.1428571428571,768.9397321428571,1947.1,817.1428571428571,752.9397321428571,2052.8,919.1428571428571,720.9397321428571,2153.9,1011.1428571428571,674.9397321428571,2254.7,1163.142857142857,568.9397321428571,2359.2,1267.142857142857,494.9397321428571,2464.6,1321.142857142857,466.9397321428571,2566.5,1327.142857142857,460.9397321428571,2667.3,1327.142857142857,460.9397321428571,2768.6,1323.142857142857,460.9397321428571,2869.5,1317.142857142857,460.9397321428571,2974.8,1317.142857142857,460.9397321428571,3075,1317.142857142857,460.9397321428571,3175,1317.142857142857,460.9397321428571,3275.2,1341.142857142857,410.9397321428571,3379.4,1401.142857142857,332.9397321428571,3481.4,1421.142857142857,300.9397321428571,3581.8,1431.142857142857,288.9397321428571,3684.9,1437.142857142857,280.9397321428571,3788.3,1437.142857142857,280.9397321428571,3889.2,1437.142857142857,280.9397321428571,3995.2,1437.142857142857,280.9397321428571,4098.8,1439.142857142857,260.9397321428571,4199.2,1451.142857142857,216.93973214285714,4300.5,1451.142857142857,212.93973214285714,4403.9,1451.142857142857,212.93973214285714,4505.5,1307.142857142857,480.9397321428571,4609.1,901.1428571428571,838.9397321428571,4711,871.1428571428571,902.9397321428571,4816.3,871.1428571428571,898.9397321428571,4918.7]","[1376.3,1376.3,1000,0,376.3,""smooth"",""up"",""up"",""good_move"",4356.7,2980.3,2597.9,1376.4,382.4,""smooth"",""up"",""up"",""good_move"",6643.2,2286.3,1890.3,4356.9,396,""smooth"",""up"",""up"",""good_move"",9796,3152.7,2823.3,6643.3,329.4,""smooth"",""right"",""right"",""good_move"",13313,3516.8,3173.9,9796.2,342.9,""smooth"",""right"",""right"",""good_move"",18946,5632.7,2006.6,16614.8,324.6,""oops"",""right"",""left"",""bad_move"",21994.7,3048.5,2689.4,18946.2,359.1,""smooth"",""right"",""right"",""good_move"",32066,10071.2,2322.9,29364.7,378.4,""smooth"",""right"",""right"",""good_move""]","",""
"5254","","<div style=""width:500px;"">
  <p>What determined the result of this run?</p>
  </div>","39","html-slider-response","53","1023568","0.0-10.0-1.3","193","1","2025-07-02 10:27:17","80fe4187154257d5fb01684ea91b68b9","83.24.144.77","Mozilla/5.0 (Windows NT 10.0; Win64; x64) AppleWebKit/537.36 (KHTML, like Gecko) Chrome/137.0.0.0 Safari/537.36","WebKit","Chrome","137.0.0.0","Windows","10.0","https://app.prolific.com/","en-GB-oxendict,en;q=0.9","667971a555af1f83d3f29ae7","683db6dfa200031b80f2a654","686507731faada4a13896591","667971a555af1f83d3f29ae7","2025-07-02T10:44:28.864Z","","","","","","AttribQ","","","","","","","","","","","","","","","","","","","","","","","","","","","","","","","","","","","","","","50"
"2088","","<div style=""width:500px;"">
  <p>How much control did you have over the ball?</p>
  </div>","43","html-slider-response","54","1025657","0.0-10.0-2.3","193","1","2025-07-02 10:27:17","80fe4187154257d5fb01684ea91b68b9","83.24.144.77","Mozilla/5.0 (Windows NT 10.0; Win64; x64) AppleWebKit/537.36 (KHTML, like Gecko) Chrome/137.0.0.0 Safari/537.36","WebKit","Chrome","137.0.0.0","Windows","10.0","https://app.prolific.com/","en-GB-oxendict,en;q=0.9","667971a555af1f83d3f29ae7","683db6dfa200031b80f2a654","686507731faada4a13896591","667971a555af1f83d3f29ae7","2025-07-02T10:44:30.953Z","","","","","","ControlQ","","","","","","","","","","","","","","","","","","","","","","","","","","","","","","","","","","","","","","50"
"2080","","<div style=""width:500px;"">
  <p>How would you describe your current emotional state?</p>
  </div>","70","html-slider-response","55","1027738","0.0-10.0-3.3","193","1","2025-07-02 10:27:17","80fe4187154257d5fb01684ea91b68b9","83.24.144.77","Mozilla/5.0 (Windows NT 10.0; Win64; x64) AppleWebKit/537.36 (KHTML, like Gecko) Chrome/137.0.0.0 Safari/537.36","WebKit","Chrome","137.0.0.0","Windows","10.0","https://app.prolific.com/","en-GB-oxendict,en;q=0.9","667971a555af1f83d3f29ae7","683db6dfa200031b80f2a654","686507731faada4a13896591","667971a555af1f83d3f29ae7","2025-07-02T10:44:33.034Z","","","","","","StressQ","","","","","","","","","","","","","","","","","","","","","","","","","","","","","","","","","","","","","","50"
"1924","","<div style=""width:500px;"">
  <p>What best describes how you currently feel?</p>
  </div>","43","html-slider-response","56","1029663","0.0-10.0-4.3","193","1","2025-07-02 10:27:17","80fe4187154257d5fb01684ea91b68b9","83.24.144.77","Mozilla/5.0 (Windows NT 10.0; Win64; x64) AppleWebKit/537.36 (KHTML, like Gecko) Chrome/137.0.0.0 Safari/537.36","WebKit","Chrome","137.0.0.0","Windows","10.0","https://app.prolific.com/","en-GB-oxendict,en;q=0.9","667971a555af1f83d3f29ae7","683db6dfa200031b80f2a654","686507731faada4a13896591","667971a555af1f83d3f29ae7","2025-07-02T10:44:34.959Z","","","","","","MotivationQ","","","","","","","","","","","","","","","","","","","","","","","","","","","","","","","","","","","","","","50"
"","","","","ctl-task-cpt","57","1061075","0.0-10.0-0.4","193","1","2025-07-02 10:27:17","80fe4187154257d5fb01684ea91b68b9","83.24.144.77","Mozilla/5.0 (Windows NT 10.0; Win64; x64) AppleWebKit/537.36 (KHTML, like Gecko) Chrome/137.0.0.0 Safari/537.36","WebKit","Chrome","137.0.0.0","Windows","10.0","https://app.prolific.com/","en-GB-oxendict,en;q=0.9","667971a555af1f83d3f29ae7","683db6dfa200031b80f2a654","686507731faada4a13896591","667971a555af1f83d3f29ae7","2025-07-02T10:45:06.371Z","","","","","","","","","","","","","","","","win-only","2","g1:SE,g2:NW","0.6","5","0","1030654.9","1241.3","6248.6","28391.4","1","4","8","6","1","1","0","4","4","0.030303030303030304","1429.9","3000","360","[""down"",""right""]","{""num_key_presses"":7,""num_perfect"":5,""num_errors"":1,""num_randdir"":1,""num_randdir_good_moves"":0,""num_whilered"":0,""num_whileblue"":0,""num_blue"":1,""num_good_moves"":5}","[827.1428571428571,838.9397321428571,0,827.1428571428571,838.9397321428571,108.8,827.1428571428571,838.9397321428571,209.3,827.1428571428571,838.9397321428571,310,805.1428571428571,798.9397321428571,414.2,581.1428571428571,590.9397321428571,523.1,261.1428571428571,360.9397321428571,626.3,175.14285714285714,290.9397321428571,730.3,173.14285714285714,290.9397321428571,834.3,161.14285714285714,252.93973214285714,939.7,299.1428571428571,356.9397321428571,1044.2,1219.142857142857,1212.939732142857,1144.5,1353.142857142857,1426.939732142857,1244.5,1397.142857142857,1446.939732142857,1345.3,1443.142857142857,1470.939732142857,1445.5,1443.142857142857,1468.939732142857,1557.1,1381.142857142857,1392.939732142857,1660.6,1069.142857142857,1306.939732142857,1760.9,775.1428571428571,1266.939732142857,1865,701.1428571428571,1262.939732142857,1966.8,635.1428571428571,1258.939732142857,2070,605.1428571428571,1256.939732142857,2173.3,589.1428571428571,1252.939732142857,2275.7,581.1428571428571,1248.939732142857,2380.1,581.1428571428571,1248.939732142857,2481.8,579.1428571428571,1248.939732142857,2585.7,581.1428571428571,1246.939732142857,2689.6,623.1428571428571,1254.939732142857,2789.6,701.1428571428571,1284.939732142857,2889.8,765.1428571428571,1318.939732142857,2994.4,865.1428571428571,1392.939732142857,3095.5,999.1428571428571,1450.939732142857,3208.5,1019.1428571428571,1454.939732142857,3309.2,1019.1428571428571,1454.939732142857,3409.3,1019.1428571428571,1454.939732142857,3523.6,1019.1428571428571,1452.939732142857,3624.8,1019.1428571428571,1444.939732142857,3729.8,1015.1428571428571,1436.939732142857,3835.4,1015.1428571428571,1434.939732142857,3940,1013.1428571428571,1428.939732142857,4040.1,1011.1428571428571,1424.939732142857,4145.2,1011.1428571428571,1422.939732142857,4245.4,1011.1428571428571,1420.939732142857,4356.7,1011.1428571428571,1420.939732142857,4458.5,1011.1428571428571,1416.939732142857,4558.5,1011.1428571428571,1414.939732142857,4659.2,1013.1428571428571,1408.939732142857,4759.4,1021.1428571428571,1392.939732142857,4859.7,1035.142857142857,1374.939732142857,4965.2]","[251.2,251.2,1000,0,-748.8,""error"",""-"",""-"",""no_move"",3544.1,3292.8,1726.2,1253.5,564.4,""oops"",""down"",""left"",""bad_move"",10519.2,6974.8,2836.9,7268.2,414.1,""smooth"",""down"",""down"",""good_move"",13763.7,3244.3,2674.6,10519.4,569.7,""smooth"",""down"",""down"",""good_move"",17037.9,3274.1,2894.9,13763.8,379.2,""smooth"",""right"",""right"",""good_move"",20007.6,2969.6,2589.8,17038,379.8,""smooth"",""right"",""right"",""good_move"",22053.9,2046.2,1640,20007.7,406.2,""smooth"",""right"",""right"",""good_move""]","",""
"3742","","<div style=""width:500px;"">
  <p>What determined the result of this run?</p>
  </div>","52","html-slider-response","58","1064819","0.0-10.0-1.4","193","1","2025-07-02 10:27:17","80fe4187154257d5fb01684ea91b68b9","83.24.144.77","Mozilla/5.0 (Windows NT 10.0; Win64; x64) AppleWebKit/537.36 (KHTML, like Gecko) Chrome/137.0.0.0 Safari/537.36","WebKit","Chrome","137.0.0.0","Windows","10.0","https://app.prolific.com/","en-GB-oxendict,en;q=0.9","667971a555af1f83d3f29ae7","683db6dfa200031b80f2a654","686507731faada4a13896591","667971a555af1f83d3f29ae7","2025-07-02T10:45:10.115Z","","","","","","AttribQ","","","","","","","","","","","","","","","","","","","","","","","","","","","","","","","","","","","","","","50"
"1907","","<div style=""width:500px;"">
  <p>How much control did you have over the ball?</p>
  </div>","57","html-slider-response","59","1066726","0.0-10.0-2.4","193","1","2025-07-02 10:27:17","80fe4187154257d5fb01684ea91b68b9","83.24.144.77","Mozilla/5.0 (Windows NT 10.0; Win64; x64) AppleWebKit/537.36 (KHTML, like Gecko) Chrome/137.0.0.0 Safari/537.36","WebKit","Chrome","137.0.0.0","Windows","10.0","https://app.prolific.com/","en-GB-oxendict,en;q=0.9","667971a555af1f83d3f29ae7","683db6dfa200031b80f2a654","686507731faada4a13896591","667971a555af1f83d3f29ae7","2025-07-02T10:45:12.022Z","","","","","","ControlQ","","","","","","","","","","","","","","","","","","","","","","","","","","","","","","","","","","","","","","50"
"1777","","<div style=""width:500px;"">
  <p>How would you describe your current emotional state?</p>
  </div>","77","html-slider-response","60","1068504","0.0-10.0-3.4","193","1","2025-07-02 10:27:17","80fe4187154257d5fb01684ea91b68b9","83.24.144.77","Mozilla/5.0 (Windows NT 10.0; Win64; x64) AppleWebKit/537.36 (KHTML, like Gecko) Chrome/137.0.0.0 Safari/537.36","WebKit","Chrome","137.0.0.0","Windows","10.0","https://app.prolific.com/","en-GB-oxendict,en;q=0.9","667971a555af1f83d3f29ae7","683db6dfa200031b80f2a654","686507731faada4a13896591","667971a555af1f83d3f29ae7","2025-07-02T10:45:13.800Z","","","","","","StressQ","","","","","","","","","","","","","","","","","","","","","","","","","","","","","","","","","","","","","","50"
"1957","","<div style=""width:500px;"">
  <p>What best describes how you currently feel?</p>
  </div>","43","html-slider-response","61","1070462","0.0-10.0-4.4","193","1","2025-07-02 10:27:17","80fe4187154257d5fb01684ea91b68b9","83.24.144.77","Mozilla/5.0 (Windows NT 10.0; Win64; x64) AppleWebKit/537.36 (KHTML, like Gecko) Chrome/137.0.0.0 Safari/537.36","WebKit","Chrome","137.0.0.0","Windows","10.0","https://app.prolific.com/","en-GB-oxendict,en;q=0.9","667971a555af1f83d3f29ae7","683db6dfa200031b80f2a654","686507731faada4a13896591","667971a555af1f83d3f29ae7","2025-07-02T10:45:15.758Z","","","","","","MotivationQ","","","","","","","","","","","","","","","","","","","","","","","","","","","","","","","","","","","","","","50"
"","","","","ctl-task-cpt","62","1104982","0.0-10.0-0.5","193","1","2025-07-02 10:27:17","80fe4187154257d5fb01684ea91b68b9","83.24.144.77","Mozilla/5.0 (Windows NT 10.0; Win64; x64) AppleWebKit/537.36 (KHTML, like Gecko) Chrome/137.0.0.0 Safari/537.36","WebKit","Chrome","137.0.0.0","Windows","10.0","https://app.prolific.com/","en-GB-oxendict,en;q=0.9","667971a555af1f83d3f29ae7","683db6dfa200031b80f2a654","686507731faada4a13896591","667971a555af1f83d3f29ae7","2025-07-02T10:45:50.278Z","","","","","","","","","","","","","","","","win-only","1","g1:NE,g2:SW","0.5","6","0","1071454.8","951.2","5956.4","31500.8","1","4","4","6","2","-4","-4","0","4","0","1446.8","3000","-2660","[""down"",""left""]","{""num_key_presses"":7,""num_perfect"":3,""num_errors"":0,""num_randdir"":4,""num_randdir_good_moves"":2,""num_whilered"":0,""num_whileblue"":0,""num_blue"":1,""num_good_moves"":5}","[819.1428571428571,838.9397321428571,0.1,819.1428571428571,838.9397321428571,100,819.1428571428571,838.9397321428571,204.5,819.1428571428571,838.9397321428571,316.3,821.1428571428571,838.9397321428571,416.7,827.1428571428571,836.9397321428571,519.1,883.1428571428571,792.9397321428571,619.8,919.1428571428571,752.9397321428571,719.9,557.1428571428571,1086.939732142857,824,351.1428571428571,1338.939732142857,924.1,253.14285714285714,1482.939732142857,1024.4,205.14285714285714,1520.939732142857,1124.7,191.14285714285714,1520.939732142857,1230,183.14285714285714,1520.939732142857,1331.1,179.14285714285714,1520.939732142857,1435.4,179.14285714285714,1520.939732142857,1548.6,257.1428571428571,1398.939732142857,1648.9,501.1428571428571,1186.939732142857,1751.8,571.1428571428571,1136.939732142857,1855.1,571.1428571428571,1136.939732142857,1955.4,571.1428571428571,1136.939732142857,2063.9,571.1428571428571,1136.939732142857,2164.6,571.1428571428571,1136.939732142857,2264.7,571.1428571428571,1136.939732142857,2369.9,571.1428571428571,1136.939732142857,2481.8,571.1428571428571,1136.939732142857,2584.7,571.1428571428571,1136.939732142857,2685.4,571.1428571428571,1136.939732142857,2798,571.1428571428571,1136.939732142857,2899.5,571.1428571428571,1136.939732142857,3000.2,571.1428571428571,1136.939732142857,3105.4,571.1428571428571,1136.939732142857,3206,571.1428571428571,1136.939732142857,3314.2,567.1428571428571,1134.939732142857,3414.5,565.1428571428571,1134.939732142857,3516,563.1428571428571,1132.939732142857,3620.4,561.1428571428571,1132.939732142857,3724.2,559.1428571428571,1130.939732142857,3824.3,557.1428571428571,1130.939732142857,3930.1,555.1428571428571,1128.939732142857,4035.1,553.1428571428571,1128.939732142857,4140.6,553.1428571428571,1128.939732142857,4250.7,553.1428571428571,1128.939732142857,4355,553.1428571428571,1128.939732142857,4455.5,553.1428571428571,1128.939732142857,4555.5,553.1428571428571,1128.939732142857,4663.8,553.1428571428571,1128.939732142857,4764,551.1428571428571,1128.939732142857,4865.1,551.1428571428571,1128.939732142857,4969.8]","[1445.1,1445.1,1000,0,445.1,""oops"",""down"",""right"",""bad_move"",4391.3,2946,2404.5,1445.3,541.5,""oops"",""down"",""left"",""good_move"",11126.1,6734.6,3298.9,7262,565.2,""smooth"",""left"",""left"",""good_move"",14671.2,3545,2858.9,11126.3,686,""oops"",""down"",""right"",""bad_move"",17508.8,2837.4,2379.6,14671.4,457.9,""smooth"",""left"",""left"",""good_move"",20042.1,2533.2,2098.8,17509,434.3,""smooth"",""left"",""left"",""good_move"",22658.9,2616.7,2195.7,20042.2,421,""oops"",""left"",""left"",""good_move""]","",""
"2999","","<div style=""width:500px;"">
  <p>What determined the result of this run?</p>
  </div>","37","html-slider-response","63","1107982","0.0-10.0-1.5","193","1","2025-07-02 10:27:17","80fe4187154257d5fb01684ea91b68b9","83.24.144.77","Mozilla/5.0 (Windows NT 10.0; Win64; x64) AppleWebKit/537.36 (KHTML, like Gecko) Chrome/137.0.0.0 Safari/537.36","WebKit","Chrome","137.0.0.0","Windows","10.0","https://app.prolific.com/","en-GB-oxendict,en;q=0.9","667971a555af1f83d3f29ae7","683db6dfa200031b80f2a654","686507731faada4a13896591","667971a555af1f83d3f29ae7","2025-07-02T10:45:53.278Z","","","","","","AttribQ","","","","","","","","","","","","","","","","","","","","","","","","","","","","","","","","","","","","","","50"
"2015","","<div style=""width:500px;"">
  <p>How much control did you have over the ball?</p>
  </div>","26","html-slider-response","64","1109998","0.0-10.0-2.5","193","1","2025-07-02 10:27:17","80fe4187154257d5fb01684ea91b68b9","83.24.144.77","Mozilla/5.0 (Windows NT 10.0; Win64; x64) AppleWebKit/537.36 (KHTML, like Gecko) Chrome/137.0.0.0 Safari/537.36","WebKit","Chrome","137.0.0.0","Windows","10.0","https://app.prolific.com/","en-GB-oxendict,en;q=0.9","667971a555af1f83d3f29ae7","683db6dfa200031b80f2a654","686507731faada4a13896591","667971a555af1f83d3f29ae7","2025-07-02T10:45:55.294Z","","","","","","ControlQ","","","","","","","","","","","","","","","","","","","","","","","","","","","","","","","","","","","","","","50"
"2054","","<div style=""width:500px;"">
  <p>How would you describe your current emotional state?</p>
  </div>","80","html-slider-response","65","1112052","0.0-10.0-3.5","193","1","2025-07-02 10:27:17","80fe4187154257d5fb01684ea91b68b9","83.24.144.77","Mozilla/5.0 (Windows NT 10.0; Win64; x64) AppleWebKit/537.36 (KHTML, like Gecko) Chrome/137.0.0.0 Safari/537.36","WebKit","Chrome","137.0.0.0","Windows","10.0","https://app.prolific.com/","en-GB-oxendict,en;q=0.9","667971a555af1f83d3f29ae7","683db6dfa200031b80f2a654","686507731faada4a13896591","667971a555af1f83d3f29ae7","2025-07-02T10:45:57.348Z","","","","","","StressQ","","","","","","","","","","","","","","","","","","","","","","","","","","","","","","","","","","","","","","50"
"2140","","<div style=""width:500px;"">
  <p>What best describes how you currently feel?</p>
  </div>","37","html-slider-response","66","1114193","0.0-10.0-4.5","193","1","2025-07-02 10:27:17","80fe4187154257d5fb01684ea91b68b9","83.24.144.77","Mozilla/5.0 (Windows NT 10.0; Win64; x64) AppleWebKit/537.36 (KHTML, like Gecko) Chrome/137.0.0.0 Safari/537.36","WebKit","Chrome","137.0.0.0","Windows","10.0","https://app.prolific.com/","en-GB-oxendict,en;q=0.9","667971a555af1f83d3f29ae7","683db6dfa200031b80f2a654","686507731faada4a13896591","667971a555af1f83d3f29ae7","2025-07-02T10:45:59.489Z","","","","","","MotivationQ","","","","","","","","","","","","","","","","","","","","","","","","","","","","","","","","","","","","","","50"
"","","","","ctl-task-cpt","67","1140585","0.0-10.0-0.6","193","1","2025-07-02 10:27:17","80fe4187154257d5fb01684ea91b68b9","83.24.144.77","Mozilla/5.0 (Windows NT 10.0; Win64; x64) AppleWebKit/537.36 (KHTML, like Gecko) Chrome/137.0.0.0 Safari/537.36","WebKit","Chrome","137.0.0.0","Windows","10.0","https://app.prolific.com/","en-GB-oxendict,en;q=0.9","667971a555af1f83d3f29ae7","683db6dfa200031b80f2a654","686507731faada4a13896591","667971a555af1f83d3f29ae7","2025-07-02T10:46:25.881Z","","","","","","","","","","","","","","","","win-only","2","g1:SE,g2:NW","0.4","7","0","1115185.6","1169.1","6171.1","23372.3","1","4","4","6","2","4","4","4","0","0.030303030303030304","1500.9","3000","1225","[""left"",""up""]","{""num_key_presses"":6,""num_perfect"":4,""num_errors"":0,""num_randdir"":2,""num_randdir_good_moves"":2,""num_whilered"":0,""num_whileblue"":0,""num_blue"":0,""num_good_moves"":6}","[829.1428571428571,824.9397321428571,0.1,829.1428571428571,824.9397321428571,100.4,829.1428571428571,824.9397321428571,201.8,829.1428571428571,824.9397321428571,302.8,829.1428571428571,824.9397321428571,402.8,831.1428571428571,828.9397321428571,507.2,881.1428571428571,928.9397321428571,611.3,921.1428571428571,978.9397321428571,711.3,915.1428571428571,972.9397321428571,812.8,259.1428571428571,512.9397321428571,917.5,-46.85714285714286,254.93973214285714,1021.6,-42.85714285714286,150.93973214285714,1123.3,85.14285714285714,110.93973214285714,1236.8,181.14285714285714,142.93973214285714,1350.1,167.14285714285714,112.93973214285714,1452.2,165.14285714285714,108.93973214285714,1552.6,165.14285714285714,108.93973214285714,1657.2,209.14285714285714,230.93973214285714,1769.3,467.1428571428571,538.9397321428571,1870.8,625.1428571428571,704.9397321428571,1972.7,659.1428571428571,754.9397321428571,2076.2,659.1428571428571,756.9397321428571,2176.9,659.1428571428571,756.9397321428571,2286,659.1428571428571,756.9397321428571,2388.1,659.1428571428571,756.9397321428571,2500.8,659.1428571428571,756.9397321428571,2601.6,659.1428571428571,756.9397321428571,2703.1,659.1428571428571,756.9397321428571,2806.2,659.1428571428571,756.9397321428571,2906.7,657.1428571428571,756.9397321428571,3011.9,653.1428571428571,754.9397321428571,3112.1,651.1428571428571,754.9397321428571,3216.5,651.1428571428571,754.9397321428571,3317,651.1428571428571,754.9397321428571,3421.8,651.1428571428571,754.9397321428571,3522.1,647.1428571428571,752.9397321428571,3635.1,645.1428571428571,752.9397321428571,3736.6,641.1428571428571,752.9397321428571,3841.6,639.1428571428571,750.9397321428571,3950.1,639.1428571428571,750.9397321428571,4052.1,637.1428571428571,750.9397321428571,4152.3,637.1428571428571,750.9397321428571,4257.6,633.1428571428571,750.9397321428571,4369.7,631.1428571428571,750.9397321428571,4471.9,631.1428571428571,750.9397321428571,4572,631.1428571428571,750.9397321428571,4676.8,631.1428571428571,750.9397321428571,4781.4,631.1428571428571,750.9397321428571,4882.2,631.1428571428571,750.9397321428571,4988.8]","[1464.5,1464.5,1000,0,464.5,""oops"",""up"",""up"",""good_move"",4248,2783.4,2373.2,1464.6,410.2,""smooth"",""up"",""up"",""good_move"",7409.3,3161.2,2771.4,4248.1,389.9,""smooth"",""up"",""up"",""good_move"",10665.2,3255.7,2885.5,7409.5,370.2,""smooth"",""left"",""left"",""good_move"",14097,3431.7,3054.4,10665.3,377.3,""smooth"",""left"",""left"",""good_move"",17076.4,2979.3,2644.2,14097.2,335,""oops"",""left"",""left"",""good_move""]","",""
"2739","","<div style=""width:500px;"">
  <p>What determined the result of this run?</p>
  </div>","56","html-slider-response","68","1143325","0.0-10.0-1.6","193","1","2025-07-02 10:27:17","80fe4187154257d5fb01684ea91b68b9","83.24.144.77","Mozilla/5.0 (Windows NT 10.0; Win64; x64) AppleWebKit/537.36 (KHTML, like Gecko) Chrome/137.0.0.0 Safari/537.36","WebKit","Chrome","137.0.0.0","Windows","10.0","https://app.prolific.com/","en-GB-oxendict,en;q=0.9","667971a555af1f83d3f29ae7","683db6dfa200031b80f2a654","686507731faada4a13896591","667971a555af1f83d3f29ae7","2025-07-02T10:46:28.621Z","","","","","","AttribQ","","","","","","","","","","","","","","","","","","","","","","","","","","","","","","","","","","","","","","50"
"2205","","<div style=""width:500px;"">
  <p>How much control did you have over the ball?</p>
  </div>","61","html-slider-response","69","1145531","0.0-10.0-2.6","193","1","2025-07-02 10:27:17","80fe4187154257d5fb01684ea91b68b9","83.24.144.77","Mozilla/5.0 (Windows NT 10.0; Win64; x64) AppleWebKit/537.36 (KHTML, like Gecko) Chrome/137.0.0.0 Safari/537.36","WebKit","Chrome","137.0.0.0","Windows","10.0","https://app.prolific.com/","en-GB-oxendict,en;q=0.9","667971a555af1f83d3f29ae7","683db6dfa200031b80f2a654","686507731faada4a13896591","667971a555af1f83d3f29ae7","2025-07-02T10:46:30.827Z","","","","","","ControlQ","","","","","","","","","","","","","","","","","","","","","","","","","","","","","","","","","","","","","","50"
"2588","","<div style=""width:500px;"">
  <p>How would you describe your current emotional state?</p>
  </div>","70","html-slider-response","70","1148120","0.0-10.0-3.6","193","1","2025-07-02 10:27:17","80fe4187154257d5fb01684ea91b68b9","83.24.144.77","Mozilla/5.0 (Windows NT 10.0; Win64; x64) AppleWebKit/537.36 (KHTML, like Gecko) Chrome/137.0.0.0 Safari/537.36","WebKit","Chrome","137.0.0.0","Windows","10.0","https://app.prolific.com/","en-GB-oxendict,en;q=0.9","667971a555af1f83d3f29ae7","683db6dfa200031b80f2a654","686507731faada4a13896591","667971a555af1f83d3f29ae7","2025-07-02T10:46:33.416Z","","","","","","StressQ","","","","","","","","","","","","","","","","","","","","","","","","","","","","","","","","","","","","","","50"
"1995","","<div style=""width:500px;"">
  <p>What best describes how you currently feel?</p>
  </div>","45","html-slider-response","71","1150116","0.0-10.0-4.6","193","1","2025-07-02 10:27:17","80fe4187154257d5fb01684ea91b68b9","83.24.144.77","Mozilla/5.0 (Windows NT 10.0; Win64; x64) AppleWebKit/537.36 (KHTML, like Gecko) Chrome/137.0.0.0 Safari/537.36","WebKit","Chrome","137.0.0.0","Windows","10.0","https://app.prolific.com/","en-GB-oxendict,en;q=0.9","667971a555af1f83d3f29ae7","683db6dfa200031b80f2a654","686507731faada4a13896591","667971a555af1f83d3f29ae7","2025-07-02T10:46:35.412Z","","","","","","MotivationQ","","","","","","","","","","","","","","","","","","","","","","","","","","","","","","","","","","","","","","50"
"","","","","ctl-task-cpt","72","1194327","0.0-10.0-0.7","193","1","2025-07-02 10:27:17","80fe4187154257d5fb01684ea91b68b9","83.24.144.77","Mozilla/5.0 (Windows NT 10.0; Win64; x64) AppleWebKit/537.36 (KHTML, like Gecko) Chrome/137.0.0.0 Safari/537.36","WebKit","Chrome","137.0.0.0","Windows","10.0","https://app.prolific.com/","en-GB-oxendict,en;q=0.9","667971a555af1f83d3f29ae7","683db6dfa200031b80f2a654","686507731faada4a13896591","667971a555af1f83d3f29ae7","2025-07-02T10:47:19.623Z","","","","","","","","","","","","","","","","win-only","1","g1:NE,g2:SW","0.3","8","0","1151108.1","1031.4","6033.9","41193.3","1","4","8","6","2","-8","-8","0","4","0","1151.2","3000","-3005","[""down"",""left""]","{""num_key_presses"":8,""num_perfect"":3,""num_errors"":0,""num_randdir"":5,""num_randdir_good_moves"":2,""num_whilered"":0,""num_whileblue"":0,""num_blue"":3,""num_good_moves"":5}","[839.1428571428571,820.9397321428571,0.1,839.1428571428571,820.9397321428571,116.2,839.1428571428571,820.9397321428571,219.5,839.1428571428571,820.9397321428571,338,843.1428571428571,820.9397321428571,439.2,885.1428571428571,786.9397321428571,539.2,901.1428571428571,766.9397321428571,640,539.1428571428571,1212.939732142857,740.5,279.1428571428571,1452.939732142857,849.9,223.14285714285714,1498.939732142857,950,173.14285714285714,1526.939732142857,1055.7,171.14285714285714,1526.939732142857,1160.2,171.14285714285714,1520.939732142857,1264.5,293.1428571428571,1312.939732142857,1366.3,457.1428571428571,1172.939732142857,1468.9,571.1428571428571,1118.939732142857,1582.9,599.1428571428571,1106.939732142857,1685.9,601.1428571428571,1104.939732142857,1789.3,601.1428571428571,1104.939732142857,1890,601.1428571428571,1104.939732142857,1994,601.1428571428571,1104.939732142857,2098.1,601.1428571428571,1102.939732142857,2198.2,603.1428571428571,1102.939732142857,2299.2,603.1428571428571,1102.939732142857,2399.2,605.1428571428571,1092.939732142857,2502.9,621.1428571428571,1056.939732142857,2605.4,631.1428571428571,1040.939732142857,2715,631.1428571428571,1040.939732142857,2819.9,631.1428571428571,1040.939732142857,2920.8,631.1428571428571,1040.939732142857,3034,631.1428571428571,1038.939732142857,3135,631.1428571428571,1038.939732142857,3240.4,631.1428571428571,1036.939732142857,3349.2,629.1428571428571,1036.939732142857,3450.5,629.1428571428571,1036.939732142857,3555.4,629.1428571428571,1034.939732142857,3667.2,629.1428571428571,1032.939732142857,3769.1,629.1428571428571,1032.939732142857,3869.7,629.1428571428571,1032.939732142857,3969.8,629.1428571428571,1032.939732142857,4082.9,627.1428571428571,1032.939732142857,4185.6,627.1428571428571,1032.939732142857,4289.5,627.1428571428571,1030.939732142857,4390.9,625.1428571428571,1028.939732142857,4494.9,625.1428571428571,1026.939732142857,4598.3,623.1428571428571,1026.939732142857,4700.6,623.1428571428571,1026.939732142857,4804.6,623.1428571428571,1026.939732142857,4917.1]","[1429,1429,1000,0,429,""smooth"",""down"",""down"",""good_move"",4245.2,2816,2406,1429.2,410,""smooth"",""down"",""down"",""good_move"",6706.7,2461.5,2114.8,4245.3,346.7,""oops"",""down"",""down"",""good_move"",20349.3,13642.5,2311.5,17706.2,331.6,""oops"",""left"",""left"",""good_move"",23799,3449.5,3039.6,20349.5,409.9,""smooth"",""left"",""left"",""good_move"",26788.2,2989,2626.4,23799.2,362.6,""oops"",""left"",""right"",""bad_move"",29401,2612.6,2255.3,26788.4,357.3,""oops"",""left"",""up"",""bad_move"",32199.2,2798.1,2394.3,29401.2,403.7,""oops"",""left"",""up"",""bad_move""]","",""
"3241","","<div style=""width:500px;"">
  <p>What determined the result of this run?</p>
  </div>","8","html-slider-response","73","1197569","0.0-10.0-1.7","193","1","2025-07-02 10:27:17","80fe4187154257d5fb01684ea91b68b9","83.24.144.77","Mozilla/5.0 (Windows NT 10.0; Win64; x64) AppleWebKit/537.36 (KHTML, like Gecko) Chrome/137.0.0.0 Safari/537.36","WebKit","Chrome","137.0.0.0","Windows","10.0","https://app.prolific.com/","en-GB-oxendict,en;q=0.9","667971a555af1f83d3f29ae7","683db6dfa200031b80f2a654","686507731faada4a13896591","667971a555af1f83d3f29ae7","2025-07-02T10:47:22.865Z","","","","","","AttribQ","","","","","","","","","","","","","","","","","","","","","","","","","","","","","","","","","","","","","","50"
"2243","","<div style=""width:500px;"">
  <p>How much control did you have over the ball?</p>
  </div>","12","html-slider-response","74","1199813","0.0-10.0-2.7","193","1","2025-07-02 10:27:17","80fe4187154257d5fb01684ea91b68b9","83.24.144.77","Mozilla/5.0 (Windows NT 10.0; Win64; x64) AppleWebKit/537.36 (KHTML, like Gecko) Chrome/137.0.0.0 Safari/537.36","WebKit","Chrome","137.0.0.0","Windows","10.0","https://app.prolific.com/","en-GB-oxendict,en;q=0.9","667971a555af1f83d3f29ae7","683db6dfa200031b80f2a654","686507731faada4a13896591","667971a555af1f83d3f29ae7","2025-07-02T10:47:25.109Z","","","","","","ControlQ","","","","","","","","","","","","","","","","","","","","","","","","","","","","","","","","","","","","","","50"
"2069","","<div style=""width:500px;"">
  <p>How would you describe your current emotional state?</p>
  </div>","91","html-slider-response","75","1201882","0.0-10.0-3.7","193","1","2025-07-02 10:27:17","80fe4187154257d5fb01684ea91b68b9","83.24.144.77","Mozilla/5.0 (Windows NT 10.0; Win64; x64) AppleWebKit/537.36 (KHTML, like Gecko) Chrome/137.0.0.0 Safari/537.36","WebKit","Chrome","137.0.0.0","Windows","10.0","https://app.prolific.com/","en-GB-oxendict,en;q=0.9","667971a555af1f83d3f29ae7","683db6dfa200031b80f2a654","686507731faada4a13896591","667971a555af1f83d3f29ae7","2025-07-02T10:47:27.178Z","","","","","","StressQ","","","","","","","","","","","","","","","","","","","","","","","","","","","","","","","","","","","","","","50"
"2602","","<div style=""width:500px;"">
  <p>What best describes how you currently feel?</p>
  </div>","31","html-slider-response","76","1204485","0.0-10.0-4.7","193","1","2025-07-02 10:27:17","80fe4187154257d5fb01684ea91b68b9","83.24.144.77","Mozilla/5.0 (Windows NT 10.0; Win64; x64) AppleWebKit/537.36 (KHTML, like Gecko) Chrome/137.0.0.0 Safari/537.36","WebKit","Chrome","137.0.0.0","Windows","10.0","https://app.prolific.com/","en-GB-oxendict,en;q=0.9","667971a555af1f83d3f29ae7","683db6dfa200031b80f2a654","686507731faada4a13896591","667971a555af1f83d3f29ae7","2025-07-02T10:47:29.782Z","","","","","","MotivationQ","","","","","","","","","","","","","","","","","","","","","","","","","","","","","","","","","","","","","","50"
"","","","","ctl-task-cpt","77","1239184","0.0-10.0-0.8","193","1","2025-07-02 10:27:17","80fe4187154257d5fb01684ea91b68b9","83.24.144.77","Mozilla/5.0 (Windows NT 10.0; Win64; x64) AppleWebKit/537.36 (KHTML, like Gecko) Chrome/137.0.0.0 Safari/537.36","WebKit","Chrome","137.0.0.0","Windows","10.0","https://app.prolific.com/","en-GB-oxendict,en;q=0.9","667971a555af1f83d3f29ae7","683db6dfa200031b80f2a654","686507731faada4a13896591","667971a555af1f83d3f29ae7","2025-07-02T10:48:04.481Z","","","","","","","","","","","","","","","","win-only","3","g1:SW,g2:NE","0.4","9","0","1205477.9","1518.5","6528.5","31681.1","1","4","4","6","2","-4","-5","0","0","0","1546","3000","-2415","[""up"",""right""]","{""num_key_presses"":8,""num_perfect"":2,""num_errors"":1,""num_randdir"":5,""num_randdir_good_moves"":1,""num_whilered"":0,""num_whileblue"":0,""num_blue"":0,""num_good_moves"":3}","[843.1428571428571,838.9397321428571,0.2,843.1428571428571,838.9397321428571,102.5,843.1428571428571,838.9397321428571,213.3,859.1428571428571,826.9397321428571,316.6,869.1428571428571,816.9397321428571,430.7,869.1428571428571,816.9397321428571,532,869.1428571428571,816.9397321428571,643.5,869.1428571428571,816.9397321428571,747.2,869.1428571428571,816.9397321428571,847.2,869.1428571428571,816.9397321428571,962.2,867.1428571428571,814.9397321428571,1063.4,865.1428571428571,814.9397321428571,1176.4,1091.142857142857,652.9397321428571,1277.2,1455.142857142857,200.93973214285714,1377.4,1491.142857142857,112.93973214285714,1482,1499.142857142857,90.93973214285714,1582.8,1497.142857142857,90.93973214285714,1698.4,1327.142857142857,248.93973214285714,1810.6,1123.142857142857,412.9397321428571,1910.9,1025.142857142857,464.9397321428571,2012.1,983.1428571428571,482.9397321428571,2114,951.1428571428571,492.9397321428571,2217.4,937.1428571428571,498.9397321428571,2317.6,927.1428571428571,498.9397321428571,2426.4,947.1428571428571,492.9397321428571,2528.2,1011.1428571428571,486.9397321428571,2632.3,1011.1428571428571,486.9397321428571,2732.9,1011.1428571428571,486.9397321428571,2844.8,1011.1428571428571,486.9397321428571,2947,1011.1428571428571,486.9397321428571,3047.4,1011.1428571428571,486.9397321428571,3159.8,1011.1428571428571,486.9397321428571,3260,1011.1428571428571,486.9397321428571,3363.4,1011.1428571428571,486.9397321428571,3466.7,1011.1428571428571,486.9397321428571,3566.8,1011.1428571428571,486.9397321428571,3668,1011.1428571428571,486.9397321428571,3777.7,1011.1428571428571,486.9397321428571,3878.2,1011.1428571428571,486.9397321428571,3982.4,1011.1428571428571,486.9397321428571,4095.1,1011.1428571428571,486.9397321428571,4196.7,1013.1428571428571,486.9397321428571,4296.8,1013.1428571428571,486.9397321428571,4397.9,1013.1428571428571,486.9397321428571,4509.8,1013.1428571428571,486.9397321428571,4612.7,1013.1428571428571,486.9397321428571,4717.1,1013.1428571428571,486.9397321428571,4830.8,1013.1428571428571,486.9397321428571,4933]","[435,435,1000,0,-565,""error"",""-"",""-"",""no_move"",4914.6,4479.5,3021.6,1436.7,456.3,""smooth"",""right"",""right"",""good_move"",8200,3285.2,2603.4,4914.8,681.8,""oops"",""up"",""right"",""good_move"",11335.7,3135.7,2608.5,8200,527.3,""smooth"",""up"",""up"",""good_move"",14666.7,3330.8,2888,11335.9,442.8,""oops"",""up"",""left"",""bad_move"",17581.3,2914.4,2486,14666.9,428.4,""oops"",""up"",""down"",""bad_move"",20603.6,3022,2615.3,17581.6,406.7,""oops"",""right"",""down"",""bad_move"",23236.1,2632.4,2167.2,20603.7,465.2,""oops"",""right"",""left"",""bad_move""]","",""
"2367","","<div style=""width:500px;"">
  <p>What determined the result of this run?</p>
  </div>","20","html-slider-response","78","1241552","0.0-10.0-1.8","193","1","2025-07-02 10:27:17","80fe4187154257d5fb01684ea91b68b9","83.24.144.77","Mozilla/5.0 (Windows NT 10.0; Win64; x64) AppleWebKit/537.36 (KHTML, like Gecko) Chrome/137.0.0.0 Safari/537.36","WebKit","Chrome","137.0.0.0","Windows","10.0","https://app.prolific.com/","en-GB-oxendict,en;q=0.9","667971a555af1f83d3f29ae7","683db6dfa200031b80f2a654","686507731faada4a13896591","667971a555af1f83d3f29ae7","2025-07-02T10:48:06.848Z","","","","","","AttribQ","","","","","","","","","","","","","","","","","","","","","","","","","","","","","","","","","","","","","","50"
"4489","","<div style=""width:500px;"">
  <p>How much control did you have over the ball?</p>
  </div>","4","html-slider-response","79","1246043","0.0-10.0-2.8","193","1","2025-07-02 10:27:17","80fe4187154257d5fb01684ea91b68b9","83.24.144.77","Mozilla/5.0 (Windows NT 10.0; Win64; x64) AppleWebKit/537.36 (KHTML, like Gecko) Chrome/137.0.0.0 Safari/537.36","WebKit","Chrome","137.0.0.0","Windows","10.0","https://app.prolific.com/","en-GB-oxendict,en;q=0.9","667971a555af1f83d3f29ae7","683db6dfa200031b80f2a654","686507731faada4a13896591","667971a555af1f83d3f29ae7","2025-07-02T10:48:11.339Z","","","","","","ControlQ","","","","","","","","","","","","","","","","","","","","","","","","","","","","","","","","","","","","","","50"
"2343","","<div style=""width:500px;"">
  <p>How would you describe your current emotional state?</p>
  </div>","88","html-slider-response","80","1248386","0.0-10.0-3.8","193","1","2025-07-02 10:27:17","80fe4187154257d5fb01684ea91b68b9","83.24.144.77","Mozilla/5.0 (Windows NT 10.0; Win64; x64) AppleWebKit/537.36 (KHTML, like Gecko) Chrome/137.0.0.0 Safari/537.36","WebKit","Chrome","137.0.0.0","Windows","10.0","https://app.prolific.com/","en-GB-oxendict,en;q=0.9","667971a555af1f83d3f29ae7","683db6dfa200031b80f2a654","686507731faada4a13896591","667971a555af1f83d3f29ae7","2025-07-02T10:48:13.683Z","","","","","","StressQ","","","","","","","","","","","","","","","","","","","","","","","","","","","","","","","","","","","","","","50"
"1800","","<div style=""width:500px;"">
  <p>What best describes how you currently feel?</p>
  </div>","33","html-slider-response","81","1250187","0.0-10.0-4.8","193","1","2025-07-02 10:27:17","80fe4187154257d5fb01684ea91b68b9","83.24.144.77","Mozilla/5.0 (Windows NT 10.0; Win64; x64) AppleWebKit/537.36 (KHTML, like Gecko) Chrome/137.0.0.0 Safari/537.36","WebKit","Chrome","137.0.0.0","Windows","10.0","https://app.prolific.com/","en-GB-oxendict,en;q=0.9","667971a555af1f83d3f29ae7","683db6dfa200031b80f2a654","686507731faada4a13896591","667971a555af1f83d3f29ae7","2025-07-02T10:48:15.483Z","","","","","","MotivationQ","","","","","","","","","","","","","","","","","","","","","","","","","","","","","","","","","","","","","","50"
"","","","","ctl-task-cpt","82","1275531","0.0-10.0-0.9","193","1","2025-07-02 10:27:17","80fe4187154257d5fb01684ea91b68b9","83.24.144.77","Mozilla/5.0 (Windows NT 10.0; Win64; x64) AppleWebKit/537.36 (KHTML, like Gecko) Chrome/137.0.0.0 Safari/537.36","WebKit","Chrome","137.0.0.0","Windows","10.0","https://app.prolific.com/","en-GB-oxendict,en;q=0.9","667971a555af1f83d3f29ae7","683db6dfa200031b80f2a654","686507731faada4a13896591","667971a555af1f83d3f29ae7","2025-07-02T10:48:40.827Z","","","","","","","","","","","","","","","","win-only","1","g1:NE,g2:SW","0.5","10","0","1251179.7","912.9","5916.2","22320.3","1","4","8","6","2","8","8","8","0","0.06060606060606061","1060","3000","730","[""down"",""left""]","{""num_key_presses"":6,""num_perfect"":4,""num_errors"":0,""num_randdir"":2,""num_randdir_good_moves"":2,""num_whilered"":0,""num_whileblue"":0,""num_blue"":1,""num_good_moves"":6}","[831.1428571428571,814.9397321428571,0.1,831.1428571428571,814.9397321428571,102.9,831.1428571428571,816.9397321428571,207.3,831.1428571428571,816.9397321428571,308.6,831.1428571428571,816.9397321428571,413.4,801.1428571428571,872.9397321428571,519.1,505.1428571428571,1196.939732142857,624,257.1428571428571,1418.939732142857,729.3,153.14285714285714,1488.939732142857,833.8,143.14285714285714,1492.939732142857,938,143.14285714285714,1492.939732142857,1043.2,143.14285714285714,1492.939732142857,1143.8,255.14285714285714,1300.939732142857,1247.9,451.1428571428571,1100.939732142857,1353.6,509.1428571428571,1056.939732142857,1453.7,593.1428571428571,996.9397321428571,1557.7,617.1428571428571,980.9397321428571,1660.1,645.1428571428571,962.9397321428571,1762.6,645.1428571428571,962.9397321428571,1863,645.1428571428571,962.9397321428571,1963,645.1428571428571,962.9397321428571,2063.6,645.1428571428571,962.9397321428571,2167.7,645.1428571428571,962.9397321428571,2268.6,645.1428571428571,962.9397321428571,2368.7,645.1428571428571,962.9397321428571,2473,645.1428571428571,962.9397321428571,2573.6,645.1428571428571,962.9397321428571,2677.3,645.1428571428571,962.9397321428571,2778.3,645.1428571428571,962.9397321428571,2880.1,645.1428571428571,962.9397321428571,2982.4,645.1428571428571,962.9397321428571,3083.1,645.1428571428571,962.9397321428571,3183.6,645.1428571428571,962.9397321428571,3287.3,645.1428571428571,962.9397321428571,3387.8,645.1428571428571,962.9397321428571,3488.3,645.1428571428571,962.9397321428571,3593.6,645.1428571428571,962.9397321428571,3697.3,645.1428571428571,962.9397321428571,3802.3,645.1428571428571,962.9397321428571,3902.4,645.1428571428571,962.9397321428571,4002.8,645.1428571428571,960.9397321428571,4102.8,645.1428571428571,960.9397321428571,4203.4,645.1428571428571,960.9397321428571,4313.1,645.1428571428571,960.9397321428571,4418.3,645.1428571428571,960.9397321428571,4523.3,647.1428571428571,958.9397321428571,4624,647.1428571428571,958.9397321428571,4727.7,647.1428571428571,958.9397321428571,4831.8,647.1428571428571,958.9397321428571,4933.3]","[1418.6,1418.6,1000,0,418.6,""smooth"",""down"",""down"",""good_move"",3619.2,2200.4,1772.9,1418.8,427.5,""smooth"",""down"",""down"",""good_move"",5920.5,2301.2,1940.8,3619.3,360.4,""oops"",""down"",""left"",""good_move"",7683.1,1762.5,1355.6,5920.6,406.9,""smooth"",""down"",""down"",""good_move"",9701.1,2017.8,1674.8,7683.3,343,""oops"",""left"",""left"",""good_move"",16313.9,6612.6,2408.7,13559.3,345.9,""smooth"",""left"",""left"",""good_move""]","",""
"3497","","<div style=""width:500px;"">
  <p>What determined the result of this run?</p>
  </div>","36","html-slider-response","83","1279028","0.0-10.0-1.9","193","1","2025-07-02 10:27:17","80fe4187154257d5fb01684ea91b68b9","83.24.144.77","Mozilla/5.0 (Windows NT 10.0; Win64; x64) AppleWebKit/537.36 (KHTML, like Gecko) Chrome/137.0.0.0 Safari/537.36","WebKit","Chrome","137.0.0.0","Windows","10.0","https://app.prolific.com/","en-GB-oxendict,en;q=0.9","667971a555af1f83d3f29ae7","683db6dfa200031b80f2a654","686507731faada4a13896591","667971a555af1f83d3f29ae7","2025-07-02T10:48:44.324Z","","","","","","AttribQ","","","","","","","","","","","","","","","","","","","","","","","","","","","","","","","","","","","","","","50"
"2403","","<div style=""width:500px;"">
  <p>How much control did you have over the ball?</p>
  </div>","64","html-slider-response","84","1281433","0.0-10.0-2.9","193","1","2025-07-02 10:27:17","80fe4187154257d5fb01684ea91b68b9","83.24.144.77","Mozilla/5.0 (Windows NT 10.0; Win64; x64) AppleWebKit/537.36 (KHTML, like Gecko) Chrome/137.0.0.0 Safari/537.36","WebKit","Chrome","137.0.0.0","Windows","10.0","https://app.prolific.com/","en-GB-oxendict,en;q=0.9","667971a555af1f83d3f29ae7","683db6dfa200031b80f2a654","686507731faada4a13896591","667971a555af1f83d3f29ae7","2025-07-02T10:48:46.729Z","","","","","","ControlQ","","","","","","","","","","","","","","","","","","","","","","","","","","","","","","","","","","","","","","50"
"2132","","<div style=""width:500px;"">
  <p>How would you describe your current emotional state?</p>
