"rt","response_timestamp","stimulus","response","trial_type","trial_index","time_elapsed","internal_node_id","run_id","condition","recorded_at","source_code_version","ip","user_agent","device","browser","browser_version","platform","platform_version","referer","accept_language","PROLIFIC_PID","STUDY_ID","SESSION_ID","prolific_id","realtime","view_history","question_order","consent","success","question_id","eventType","responses","item_order","radio_event_ids","radio_event_times","key_event_times","mouse_event_times","straightlining","zigzagging","honeypot","which_type","canvas_config","goals_layout","control_level","trial_number","tutorial_trial_number","trial_start_time","phase1_start_time","phase2_start_time","phase3_start_time","goal_1_value","goal_1_distance","goal_2_value","goal_2_distance","goal_selected","outcome","outcome_total","participant_final_score","participant_initial_score","participant_final_score_prop","goal_choice_rt","allocated_time","allocated_time_remaining","goal_direction","counts","mouse_movements","key_presses","correct","slider_start"
"1915","1751451535796","<p style='font-size:40px;line-height:1.25'><strong>Welcome to the experiment!</strong></p><p style='font-size:1.1em;line-height:1.25'>Thank you for your interest in our experiment! Before you begin, it is important that we obtain your informed consent to participate in the study.</p><p style='font-size:1.1em;line-height:1.25'>On the next screen will be an <strong>information sheet</strong> for you to read. To participate in the study we need you to read this information sheet and the following consent form carefully. If you agree with all the statements, please click the <strong>I agree</strong> button.</p><p style='font-size:1.1em;line-height:1.25'>Press <strong>Next</strong> to read the information sheet.</p>","0","custom-html-button-response","0","1917","0.0-0.0","52","1","2025-07-02 10:18:51","80fe4187154257d5fb01684ea91b68b9","154.56.232.95","Mozilla/5.0 (Windows NT 10.0; Win64; x64) AppleWebKit/537.36 (KHTML, like Gecko) Chrome/138.0.0.0 Safari/537.36","WebKit","Chrome","138.0.0.0","Windows","10.0","https://app.prolific.com/","en","667eb020a3f04ab26214dcd4","683db6dfa200031b80f2a654","6865075d2e1b9d2406b38e38","667eb020a3f04ab26214dcd4","2025-07-02T10:18:55.797Z","","","","","","","","","","","","","","","","","","","","","","","","","","","","","","","","","","","","","","","","","","","",""
"8447","","","","instructions","1","10365","0.0-1.0","52","1","2025-07-02 10:18:51","80fe4187154257d5fb01684ea91b68b9","154.56.232.95","Mozilla/5.0 (Windows NT 10.0; Win64; x64) AppleWebKit/537.36 (KHTML, like Gecko) Chrome/138.0.0.0 Safari/537.36","WebKit","Chrome","138.0.0.0","Windows","10.0","https://app.prolific.com/","en","667eb020a3f04ab26214dcd4","683db6dfa200031b80f2a654","6865075d2e1b9d2406b38e38","667eb020a3f04ab26214dcd4","","[{""page_index"":0,""viewing_time"":6146},{""page_index"":1,""viewing_time"":2301}]","","","","","","","","","","","","","","","","","","","","","","","","","","","","","","","","","","","","","","","","","","",""
"13119","","","{""Q0"":"""",""Q1"":"""",""Q2"":"""",""Q3"":"""",""Q4"":"""",""Q5"":"""",""Q6"":""I agree""}","survey-multi-choice","2","23485","0.0-2.0","52","1","2025-07-02 10:18:51","80fe4187154257d5fb01684ea91b68b9","154.56.232.95","Mozilla/5.0 (Windows NT 10.0; Win64; x64) AppleWebKit/537.36 (KHTML, like Gecko) Chrome/138.0.0.0 Safari/537.36","WebKit","Chrome","138.0.0.0","Windows","10.0","https://app.prolific.com/","en","667eb020a3f04ab26214dcd4","683db6dfa200031b80f2a654","6865075d2e1b9d2406b38e38","667eb020a3f04ab26214dcd4","","","[0,1,2,3,4,5,6]","true","","","","","","","","","","","","","","","","","","","","","","","","","","","","","","","","","","","","","","","","",""
"170946","","","","fullscreen","3","195439","0.0-4.0","52","1","2025-07-02 10:18:51","80fe4187154257d5fb01684ea91b68b9","154.56.232.95","Mozilla/5.0 (Windows NT 10.0; Win64; x64) AppleWebKit/537.36 (KHTML, like Gecko) Chrome/138.0.0.0 Safari/537.36","WebKit","Chrome","138.0.0.0","Windows","10.0","https://app.prolific.com/","en","667eb020a3f04ab26214dcd4","683db6dfa200031b80f2a654","6865075d2e1b9d2406b38e38","667eb020a3f04ab26214dcd4","","","","","true","","","","","","","","","","","","","","","","","","","","","","","","","","","","","","","","","","","","","","","",""
"3562","1751451732883"," <p style='font-size:1.1em;line-height:1.25'>Thank you for completing the consent form and closing all other tabs.</p><p style='font-size:1.1em;line-height:1.25'>We will now invite you to fill in some demographic information and questionnaires, before starting the game.<br>This will take about 5 minutes.<br></p><p style='font-size:1.1em;line-height:1.25'>Press the <strong>Next</strong> button to continue.</p>","0","custom-html-button-response","4","199003","0.0-5.0","52","1","2025-07-02 10:18:51","80fe4187154257d5fb01684ea91b68b9","154.56.232.95","Mozilla/5.0 (Windows NT 10.0; Win64; x64) AppleWebKit/537.36 (KHTML, like Gecko) Chrome/138.0.0.0 Safari/537.36","WebKit","Chrome","138.0.0.0","Windows","10.0","https://app.prolific.com/","en","667eb020a3f04ab26214dcd4","683db6dfa200031b80f2a654","6865075d2e1b9d2406b38e38","667eb020a3f04ab26214dcd4","2025-07-02T10:22:12.883Z","","","","","","","","","","","","","","","","","","","","","","","","","","","","","","","","","","","","","","","","","","","",""
"1919","","","{""age"":""32""}","survey-text","5","200924","0.0-6.0-0.0","52","1","2025-07-02 10:18:51","80fe4187154257d5fb01684ea91b68b9","154.56.232.95","Mozilla/5.0 (Windows NT 10.0; Win64; x64) AppleWebKit/537.36 (KHTML, like Gecko) Chrome/138.0.0.0 Safari/537.36","WebKit","Chrome","138.0.0.0","Windows","10.0","https://app.prolific.com/","en","667eb020a3f04ab26214dcd4","683db6dfa200031b80f2a654","6865075d2e1b9d2406b38e38","667eb020a3f04ab26214dcd4","","","","","","0","demographics","","","","","","","","","","","","","","","","","","","","","","","","","","","","","","","","","","","","","",""
"1741","","","{""gender_identity"":""male/man""}","survey-multi-choice","6","202666","0.0-6.0-1.0","52","1","2025-07-02 10:18:51","80fe4187154257d5fb01684ea91b68b9","154.56.232.95","Mozilla/5.0 (Windows NT 10.0; Win64; x64) AppleWebKit/537.36 (KHTML, like Gecko) Chrome/138.0.0.0 Safari/537.36","WebKit","Chrome","138.0.0.0","Windows","10.0","https://app.prolific.com/","en","667eb020a3f04ab26214dcd4","683db6dfa200031b80f2a654","6865075d2e1b9d2406b38e38","667eb020a3f04ab26214dcd4","","","[0]","","","1","demographics","","","","","","","","","","","","","","","","","","","","","","","","","","","","","","","","","","","","","",""
"1858","","","{""assigned_sex"":""male""}","survey-multi-choice","7","204524","0.0-6.0-2.0","52","1","2025-07-02 10:18:51","80fe4187154257d5fb01684ea91b68b9","154.56.232.95","Mozilla/5.0 (Windows NT 10.0; Win64; x64) AppleWebKit/537.36 (KHTML, like Gecko) Chrome/138.0.0.0 Safari/537.36","WebKit","Chrome","138.0.0.0","Windows","10.0","https://app.prolific.com/","en","667eb020a3f04ab26214dcd4","683db6dfa200031b80f2a654","6865075d2e1b9d2406b38e38","667eb020a3f04ab26214dcd4","","","[0]","","","2","demographics","","","","","","","","","","","","","","","","","","","","","","","","","","","","","","","","","","","","","",""
"1777","","","{""menstrual_cycle"":""No""}","survey-multi-choice","8","206303","0.0-6.0-3.0","52","1","2025-07-02 10:18:51","80fe4187154257d5fb01684ea91b68b9","154.56.232.95","Mozilla/5.0 (Windows NT 10.0; Win64; x64) AppleWebKit/537.36 (KHTML, like Gecko) Chrome/138.0.0.0 Safari/537.36","WebKit","Chrome","138.0.0.0","Windows","10.0","https://app.prolific.com/","en","667eb020a3f04ab26214dcd4","683db6dfa200031b80f2a654","6865075d2e1b9d2406b38e38","667eb020a3f04ab26214dcd4","","","[0]","","","4","demographics","","","","","","","","","","","","","","","","","","","","","","","","","","","","","","","","","","","","","",""
"3329","","","{""education"":""Bachelor's Degree (e.g., BA)""}","survey-multi-choice","9","209633","0.0-6.0-4.0","52","1","2025-07-02 10:18:51","80fe4187154257d5fb01684ea91b68b9","154.56.232.95","Mozilla/5.0 (Windows NT 10.0; Win64; x64) AppleWebKit/537.36 (KHTML, like Gecko) Chrome/138.0.0.0 Safari/537.36","WebKit","Chrome","138.0.0.0","Windows","10.0","https://app.prolific.com/","en","667eb020a3f04ab26214dcd4","683db6dfa200031b80f2a654","6865075d2e1b9d2406b38e38","667eb020a3f04ab26214dcd4","","","[0]","","","5","demographics","","","","","","","","","","","","","","","","","","","","","","","","","","","","","","","","","","","","","",""
"3774","","","{""education"":""GCSE/Standard Grades""}","survey-multi-choice","10","213408","0.0-6.0-5.0","52","1","2025-07-02 10:18:51","80fe4187154257d5fb01684ea91b68b9","154.56.232.95","Mozilla/5.0 (Windows NT 10.0; Win64; x64) AppleWebKit/537.36 (KHTML, like Gecko) Chrome/138.0.0.0 Safari/537.36","WebKit","Chrome","138.0.0.0","Windows","10.0","https://app.prolific.com/","en","667eb020a3f04ab26214dcd4","683db6dfa200031b80f2a654","6865075d2e1b9d2406b38e38","667eb020a3f04ab26214dcd4","2025-07-02T10:22:27.288Z","","[0]","","","6","demographics","","","","","","","","","","","","","","","","","","","","","","","","","","","","","","","","","","","","","",""
"8398","","","{""mental_health_condition"":""None"",""mental_health_treatment"":""None"",""psychiatric_medication"":""None""}","survey-text","11","221808","0.0-7.0-0.0","52","1","2025-07-02 10:18:51","80fe4187154257d5fb01684ea91b68b9","154.56.232.95","Mozilla/5.0 (Windows NT 10.0; Win64; x64) AppleWebKit/537.36 (KHTML, like Gecko) Chrome/138.0.0.0 Safari/537.36","WebKit","Chrome","138.0.0.0","Windows","10.0","https://app.prolific.com/","en","667eb020a3f04ab26214dcd4","683db6dfa200031b80f2a654","6865075d2e1b9d2406b38e38","667eb020a3f04ab26214dcd4","2025-07-02T10:22:35.688Z","","","","","1","mental_health","","","","","","","","","","","","","","","","","","","","","","","","","","","","","","","","","","","","","",""
"4611","","","{""depression_history"":[""No""]}","survey-multi-select","12","226420","0.0-7.0-1.0","52","1","2025-07-02 10:18:51","80fe4187154257d5fb01684ea91b68b9","154.56.232.95","Mozilla/5.0 (Windows NT 10.0; Win64; x64) AppleWebKit/537.36 (KHTML, like Gecko) Chrome/138.0.0.0 Safari/537.36","WebKit","Chrome","138.0.0.0","Windows","10.0","https://app.prolific.com/","en","667eb020a3f04ab26214dcd4","683db6dfa200031b80f2a654","6865075d2e1b9d2406b38e38","667eb020a3f04ab26214dcd4","","","[0]","","","","mental_health","","","","","","","","","","","","","","","","","","","","","","","","","","","","","","","","","","","","","",""
"31029.09999999404","","","","survey-template","13","257452","0.0-7.0-3.0","52","1","2025-07-02 10:18:51","80fe4187154257d5fb01684ea91b68b9","154.56.232.95","Mozilla/5.0 (Windows NT 10.0; Win64; x64) AppleWebKit/537.36 (KHTML, like Gecko) Chrome/138.0.0.0 Safari/537.36","WebKit","Chrome","138.0.0.0","Windows","10.0","https://app.prolific.com/","en","667eb020a3f04ab26214dcd4","683db6dfa200031b80f2a654","6865075d2e1b9d2406b38e38","667eb020a3f04ab26214dcd4","2025-07-02T10:23:11.332Z","","","","","","ius","{""Q01"":""1"",""Q02"":""3"",""Q03"":""0"",""Q04"":""3"",""Q05"":""1"",""Q06"":""1"",""Q07"":""2"",""Q08"":""0"",""Q09"":""3"",""Q10"":""2"",""Q11"":""1"",""Q12"":""3"",""Q13"":""1""}","[0,1,2,3,4,5,6,7,8,9,10,11,12]","[""Q01"",""Q02"",""Q03"",""Q04"",""Q05"",""Q06"",""Q07"",""Q08"",""Q09"",""Q10"",""Q11"",""Q12"",""Q13""]","[4149.70000000298,5643.79999999702,7430.70000000298,9618.70000000298,11491.89999999106,14932.59999999404,17864.79999999702,18897.70000000298,21968.79999999702,23840.5,25919.89999999106,27431.20000000298,30362.59999999404]","[]","[4149.70000000298,5643.79999999702,7430.70000000298,9618.70000000298,11491.89999999106,14932.59999999404,17864.79999999702,18897.70000000298,21968.79999999702,23840.5,25409.59999999404,25919.89999999106,27431.20000000298,29481.59999999404,30362.59999999404,31027.5]","0.38461538461538464","0.25","0","","","","","","","","","","","","","","","","","","","","","","","","","","","","",""
"2033","1751451793365","<p style='font-size:1.1em;line-height:1.25'>In the following, we will ask you a few questions relating to your experiences over the past month.<br></p><p style='font-size:1.1em;line-height:1.25'>Press the <strong>Next</strong> button to continue.</p>","0","custom-html-button-response","14","259485","0.0-7.0-4.0","52","1","2025-07-02 10:18:51","80fe4187154257d5fb01684ea91b68b9","154.56.232.95","Mozilla/5.0 (Windows NT 10.0; Win64; x64) AppleWebKit/537.36 (KHTML, like Gecko) Chrome/138.0.0.0 Safari/537.36","WebKit","Chrome","138.0.0.0","Windows","10.0","https://app.prolific.com/","en","667eb020a3f04ab26214dcd4","683db6dfa200031b80f2a654","6865075d2e1b9d2406b38e38","667eb020a3f04ab26214dcd4","2025-07-02T10:23:13.365Z","","","","","","","","","","","","","","","","","","","","","","","","","","","","","","","","","","","","","","","","","","","",""
"26376","","","","survey-template","15","285863","0.0-7.0-5.0","52","1","2025-07-02 10:18:51","80fe4187154257d5fb01684ea91b68b9","154.56.232.95","Mozilla/5.0 (Windows NT 10.0; Win64; x64) AppleWebKit/537.36 (KHTML, like Gecko) Chrome/138.0.0.0 Safari/537.36","WebKit","Chrome","138.0.0.0","Windows","10.0","https://app.prolific.com/","en","667eb020a3f04ab26214dcd4","683db6dfa200031b80f2a654","6865075d2e1b9d2406b38e38","667eb020a3f04ab26214dcd4","2025-07-02T10:23:39.743Z","","","","","","pss","{""Q01"":""2"",""Q02"":""2"",""Q03"":""2"",""Q04"":""1"",""Q05"":""1"",""Q06"":""1"",""Q07"":""1"",""Q08"":""1"",""Q09"":""2"",""Q10"":""2""}","[0,1,2,3,4,5,6,7,8,9]","[""Q01"",""Q02"",""Q03"",""Q04"",""Q05"",""Q06"",""Q07"",""Q08"",""Q09"",""Q10""]","[6525.800000011921,7486.70000000298,8961.800000011921,11158.70000000298,12970.800000011921,15893.90000000596,19590.60000000894,21565.80000001192,23929.70000000298,25838.70000000298]","[]","[0,5382.800000011921,6269.600000008941,6525.800000011921,7486.70000000298,8961.800000011921,11158.70000000298,12970.800000011921,15893.90000000596,19590.60000000894,21565.80000001192,23929.70000000298,25838.70000000298,26374.80000001192]","0.5","0.2222222222222222","0","","","","","","","","","","","","","","","","","","","","","","","","","","","","",""
"1714","1751451821458","<p style='font-size:1.1em;line-height:1.25'>Thank you for your answers! Now we will ask you a few more questions relating to your feelings in the last 24 hours.<br></p><p style='font-size:1.1em;line-height:1.25'>Press the <strong>Next</strong> button to continue.</p>","0","custom-html-button-response","16","287578","0.0-7.0-6.0","52","1","2025-07-02 10:18:51","80fe4187154257d5fb01684ea91b68b9","154.56.232.95","Mozilla/5.0 (Windows NT 10.0; Win64; x64) AppleWebKit/537.36 (KHTML, like Gecko) Chrome/138.0.0.0 Safari/537.36","WebKit","Chrome","138.0.0.0","Windows","10.0","https://app.prolific.com/","en","667eb020a3f04ab26214dcd4","683db6dfa200031b80f2a654","6865075d2e1b9d2406b38e38","667eb020a3f04ab26214dcd4","2025-07-02T10:23:41.458Z","","","","","","","","","","","","","","","","","","","","","","","","","","","","","","","","","","","","","","","","","","","",""
"40647.20000000298","","","","survey-template","17","328228","0.0-7.0-7.0","52","1","2025-07-02 10:18:51","80fe4187154257d5fb01684ea91b68b9","154.56.232.95","Mozilla/5.0 (Windows NT 10.0; Win64; x64) AppleWebKit/537.36 (KHTML, like Gecko) Chrome/138.0.0.0 Safari/537.36","WebKit","Chrome","138.0.0.0","Windows","10.0","https://app.prolific.com/","en","667eb020a3f04ab26214dcd4","683db6dfa200031b80f2a654","6865075d2e1b9d2406b38e38","667eb020a3f04ab26214dcd4","2025-07-02T10:24:22.108Z","","","","","","drsp","{""Q01"":""1"",""Q02"":""2"",""Q03"":""2"",""Q04"":""2"",""Q05"":""0"",""Q06"":""0"",""Q07"":""1"",""Q08"":""0"",""Q09"":""1"",""Q10"":""1"",""Q11"":""2"",""Q12"":""1"",""Q13"":""1"",""Q14"":""1"",""Q15"":""0"",""Q16"":""1"",""Q17"":""1"",""Q18"":""2"",""Q19"":""0"",""Q20"":""0"",""Q21"":""0""}","[0,1,2,3,4,5,6,7,8,9,10,11,12,13,14,15,16,17,18,19,20]","[""Q01"",""Q02"",""Q04"",""Q03"",""Q05"",""Q06"",""Q07"",""Q08"",""Q09"",""Q10"",""Q11"",""Q12"",""Q13"",""Q14"",""Q15"",""Q15"",""Q16"",""Q17"",""Q18"",""Q18"",""Q18"",""Q19"",""Q20"",""Q21""]","[3708.4000000059605,5666.4000000059605,7373.20000000298,8714.40000000596,10998,12274.20000000298,13213.300000011921,15856.300000011921,17073.40000000596,18266.10000000894,20033.20000000298,21682.30000001192,22498,25384.10000000894,26489.20000000298,27277.20000000298,28487.20000000298,29657.10000000894,31063.20000000298,33861.20000000298,34318,36793.20000000298,38199,39841.20000000298]","[]","[0,3708.4000000059605,4484.4000000059605,5163.300000011921,5666.4000000059605,6230.100000008941,7373.20000000298,7868.4000000059605,8714.40000000596,10998,12274.20000000298,13213.300000011921,15856.300000011921,17073.40000000596,18266.10000000894,20033.20000000298,21682.30000001192,22498,25384.10000000894,26489.20000000298,27277.20000000298,28487.20000000298,29657.10000000894,31063.20000000298,33861.20000000298,34318,36793.20000000298,38199,39841.20000000298,40644.60000000894]","0.42857142857142855","0.45","0","","","","","","","","","","","","","","","","","","","","","","","","","","","","",""
"8968.29999999702","","","","survey-template","18","337198","0.0-7.0-8.0","52","1","2025-07-02 10:18:51","80fe4187154257d5fb01684ea91b68b9","154.56.232.95","Mozilla/5.0 (Windows NT 10.0; Win64; x64) AppleWebKit/537.36 (KHTML, like Gecko) Chrome/138.0.0.0 Safari/537.36","WebKit","Chrome","138.0.0.0","Windows","10.0","https://app.prolific.com/","en","667eb020a3f04ab26214dcd4","683db6dfa200031b80f2a654","6865075d2e1b9d2406b38e38","667eb020a3f04ab26214dcd4","2025-07-02T10:24:31.078Z","","","","","","stress","{""Q01"":""1"",""Q02"":""2"",""Q03"":""1""}","[0,1,2]","[""Q01"",""Q02"",""Q03""]","[3196.7000000029802,5966.5,8125.79999999702]","[]","[3196.7000000029802,5966.5,8125.79999999702,8967.59999999404]","0.6666666666666666","0","0","","","","","","","","","","","","","","","","","","","","","","","","","","","","",""
"35836","","","","instructions","19","373034","0.0-8.0-0.0","52","1","2025-07-02 10:18:51","80fe4187154257d5fb01684ea91b68b9","154.56.232.95","Mozilla/5.0 (Windows NT 10.0; Win64; x64) AppleWebKit/537.36 (KHTML, like Gecko) Chrome/138.0.0.0 Safari/537.36","WebKit","Chrome","138.0.0.0","Windows","10.0","https://app.prolific.com/","en","667eb020a3f04ab26214dcd4","683db6dfa200031b80f2a654","6865075d2e1b9d2406b38e38","667eb020a3f04ab26214dcd4","","[{""page_index"":0,""viewing_time"":16987},{""page_index"":1,""viewing_time"":9302},{""page_index"":2,""viewing_time"":2476},{""page_index"":3,""viewing_time"":7070}]","","","","","","","","","","","","","","","","","","","","","","","","","","","","","","","","","","","","","","","","","","",""
"","","","","ctl-task-cpt","20","392374","0.0-8.0-1.0","52","1","2025-07-02 10:18:51","80fe4187154257d5fb01684ea91b68b9","154.56.232.95","Mozilla/5.0 (Windows NT 10.0; Win64; x64) AppleWebKit/537.36 (KHTML, like Gecko) Chrome/138.0.0.0 Safari/537.36","WebKit","Chrome","138.0.0.0","Windows","10.0","https://app.prolific.com/","en","667eb020a3f04ab26214dcd4","683db6dfa200031b80f2a654","6865075d2e1b9d2406b38e38","667eb020a3f04ab26214dcd4","","","","","","","","","","","","","","","","","win-only","2","g1:SE,g2:NW","1","0","1","373819.8","1720.7","5726.5","16333.8","2","4","4","6","1","2","2","2","0","0.015151515151515152","1540.1","4000","2460","[""down"",""right""]","{""num_key_presses"":4,""num_perfect"":4,""num_errors"":0,""num_randdir"":0,""num_randdir_good_moves"":0,""num_whilered"":0,""num_whileblue"":0,""num_blue"":0,""num_good_moves"":4}","[420.57142857142856,416.47767857142856,0.2,420.57142857142856,416.47767857142856,104.7,420.57142857142856,416.47767857142856,204.7,421.57142857142856,416.47767857142856,305.3,476.57142857142856,404.47767857142856,410.5,704.5714285714286,341.47767857142856,515.6,763.5714285714286,303.47767857142856,615.7,758.5714285714286,298.47767857142856,720.6,757.5714285714286,298.47767857142856,820.8,757.5714285714286,298.47767857142856,921.2,743.5714285714286,318.47767857142856,1025.5,869.5714285714286,756.4776785714286,1125.5,902.5714285714286,849.4776785714286,1225.5,861.5714285714286,852.4776785714286,1325.8,788.5714285714286,790.4776785714286,1430.8,759.5714285714286,767.4776785714286,1534.9,759.5714285714286,766.4776785714286,1637.5,810.5714285714286,485.47767857142856,1740.8,907.5714285714286,319.47767857142856,1845.1,907.5714285714286,319.47767857142856,1945.1,907.5714285714286,319.47767857142856,2045.2,907.5714285714286,319.47767857142856,2145.3,907.5714285714286,318.47767857142856,2250.4,907.5714285714286,318.47767857142856,2355.4,907.5714285714286,318.47767857142856,2460,907.5714285714286,318.47767857142856,2560.2,907.5714285714286,318.47767857142856,2660.8,907.5714285714286,318.47767857142856,2765.4,907.5714285714286,318.47767857142856,2870.2,907.5714285714286,318.47767857142856,2970.6,907.5714285714286,318.47767857142856,3074.8,907.5714285714286,318.47767857142856,3174.8,907.5714285714286,319.47767857142856,3275.5,907.5714285714286,319.47767857142856,3380.7,907.5714285714286,319.47767857142856,3485.7,907.5714285714286,319.47767857142856,3590.2,907.5714285714286,319.47767857142856,3690.5,907.5714285714286,319.47767857142856,3795.3,907.5714285714286,319.47767857142856,3895.5,907.5714285714286,319.47767857142856,3999.7]","[1494.8,1494.7,1000,0.1,494.7,""smooth"",""right"",""right"",""good_move"",5390.6,3895.5,3421.6,1495.2,473.8,""smooth"",""down"",""down"",""good_move"",8061.8,2670.9,2355.1,5390.9,315.8,""smooth"",""right"",""right"",""good_move"",10501.7,2439.8,2160,8061.9,279.8,""smooth"",""down"",""down"",""good_move""]","",""
"6157","","","","instructions","21","398532","0.0-8.0-2.0","52","1","2025-07-02 10:18:51","80fe4187154257d5fb01684ea91b68b9","154.56.232.95","Mozilla/5.0 (Windows NT 10.0; Win64; x64) AppleWebKit/537.36 (KHTML, like Gecko) Chrome/138.0.0.0 Safari/537.36","WebKit","Chrome","138.0.0.0","Windows","10.0","https://app.prolific.com/","en","667eb020a3f04ab26214dcd4","683db6dfa200031b80f2a654","6865075d2e1b9d2406b38e38","667eb020a3f04ab26214dcd4","","[{""page_index"":0,""viewing_time"":6157}]","","","","","","","","","","","","","","","","","","","","","","","","","","","","","","","","","","","","","","","","","","",""
"","","","","ctl-task-cpt","22","448191","0.0-8.0-3.0","52","1","2025-07-02 10:18:51","80fe4187154257d5fb01684ea91b68b9","154.56.232.95","Mozilla/5.0 (Windows NT 10.0; Win64; x64) AppleWebKit/537.36 (KHTML, like Gecko) Chrome/138.0.0.0 Safari/537.36","WebKit","Chrome","138.0.0.0","Windows","10.0","https://app.prolific.com/","en","667eb020a3f04ab26214dcd4","683db6dfa200031b80f2a654","6865075d2e1b9d2406b38e38","667eb020a3f04ab26214dcd4","","","","","","","","","","","","","","","","","win-only","2","g1:SE,g2:NW","0.35","0","3","399316.6","1258","5260.4","46641.1","2","4","8","6","1","-2","-2","0","0","0","1717","4000","-3015","[""down"",""right""]","{""num_key_presses"":9,""num_perfect"":3,""num_errors"":0,""num_randdir"":6,""num_randdir_good_moves"":1,""num_whilered"":0,""num_whileblue"":0,""num_blue"":4,""num_good_moves"":4}","[419.57142857142856,424.47767857142856,0.2,418.57142857142856,424.47767857142856,102.9,416.57142857142856,424.47767857142856,203.1,416.57142857142856,424.47767857142856,307.7,416.57142857142856,424.47767857142856,407.8,416.57142857142856,424.47767857142856,507.8,416.57142857142856,424.47767857142856,607.8,416.57142857142856,424.47767857142856,712.8,416.57142857142856,424.47767857142856,813.1,569.5714285714286,600.4776785714286,913.1,634.5714285714286,685.4776785714286,1017.6,685.5714285714286,717.4776785714286,1118,766.5714285714286,776.4776785714286,1218.8,786.5714285714286,779.4776785714286,1323.3,802.5714285714286,768.4776785714286,1428.6,803.5714285714286,768.4776785714286,1532.9,803.5714285714286,768.4776785714286,1637.8,803.5714285714286,768.4776785714286,1743.1,803.5714285714286,768.4776785714286,1847.9,803.5714285714286,768.4776785714286,1948.8,824.5714285714286,729.4776785714286,2052.4,878.5714285714286,625.4776785714286,2153.1,898.5714285714286,591.4776785714286,2253.2,913.5714285714286,548.4776785714286,2357.6,913.5714285714286,547.4776785714286,2457.9,913.5714285714286,546.4776785714286,2558.6,913.5714285714286,546.4776785714286,2662.1,904.5714285714286,505.47767857142856,2762.9,886.5714285714286,469.47767857142856,2867.6,882.5714285714286,461.47767857142856,2972.9,875.5714285714286,456.47767857142856,3072.9,873.5714285714286,454.47767857142856,3177.5,873.5714285714286,454.47767857142856,3277.5,873.5714285714286,454.47767857142856,3377.9,873.5714285714286,454.47767857142856,3483.3,873.5714285714286,454.47767857142856,3583.4,873.5714285714286,454.47767857142856,3683.4,873.5714285714286,454.47767857142856,3783.4,873.5714285714286,454.47767857142856,3887.6,871.5714285714286,454.47767857142856,3987.8]","[1497.2,1497.3,1000,0,497.3,""oops"",""right"",""up"",""bad_move"",7863.8,6366.1,2568.8,4966.5,328.5,""smooth"",""down"",""down"",""good_move"",10855.2,2991.3,2574.6,7863.9,416.7,""oops"",""down"",""left"",""bad_move"",13271.5,2416,1897.2,10855.5,518.8,""smooth"",""right"",""right"",""good_move"",16718.7,3446.9,3018.2,13271.8,428.7,""smooth"",""down"",""down"",""good_move"",19768.1,3049.2,2681.6,16718.9,367.6,""oops"",""right"",""up"",""bad_move"",25503.4,5735.1,2133.2,22980.6,389.6,""oops"",""right"",""left"",""bad_move"",31799.2,6295.5,2196.1,29240.9,362.2,""oops"",""down"",""left"",""bad_move"",38471.1,6671.8,2258.1,35660,553,""oops"",""right"",""right"",""good_move""]","",""
"141812","","","","instructions","23","590004","0.0-8.0-4.0","52","1","2025-07-02 10:18:51","80fe4187154257d5fb01684ea91b68b9","154.56.232.95","Mozilla/5.0 (Windows NT 10.0; Win64; x64) AppleWebKit/537.36 (KHTML, like Gecko) Chrome/138.0.0.0 Safari/537.36","WebKit","Chrome","138.0.0.0","Windows","10.0","https://app.prolific.com/","en","667eb020a3f04ab26214dcd4","683db6dfa200031b80f2a654","6865075d2e1b9d2406b38e38","667eb020a3f04ab26214dcd4","","[{""page_index"":0,""viewing_time"":4423},{""page_index"":1,""viewing_time"":137389}]","","","","","","","","","","","","","","","","","","","","","","","","","","","","","","","","","","","","","","","","","","",""
"12632","","","{""green_ball"":[""Ball always shakes and moves in a random direction""]}","survey-multi-select","24","602637","0.0-8.0-5.0-0.0","52","1","2025-07-02 10:18:51","80fe4187154257d5fb01684ea91b68b9","154.56.232.95","Mozilla/5.0 (Windows NT 10.0; Win64; x64) AppleWebKit/537.36 (KHTML, like Gecko) Chrome/138.0.0.0 Safari/537.36","WebKit","Chrome","138.0.0.0","Windows","10.0","https://app.prolific.com/","en","667eb020a3f04ab26214dcd4","683db6dfa200031b80f2a654","6865075d2e1b9d2406b38e38","667eb020a3f04ab26214dcd4","","","[0]","","","","quiz","","","","","","","","","","","","","","","","","","","","","","","","","","","","","","","","","","","","","false",""
"2340","","<p align='center'><b>INCORRECT.</b> Usually the green ball moves in the indicated direction, but sometimes it shakes and moves randomly. </p>","0","html-button-response","25","604978","0.0-8.0-5.0-1.0","52","1","2025-07-02 10:18:51","80fe4187154257d5fb01684ea91b68b9","154.56.232.95","Mozilla/5.0 (Windows NT 10.0; Win64; x64) AppleWebKit/537.36 (KHTML, like Gecko) Chrome/138.0.0.0 Safari/537.36","WebKit","Chrome","138.0.0.0","Windows","10.0","https://app.prolific.com/","en","667eb020a3f04ab26214dcd4","683db6dfa200031b80f2a654","6865075d2e1b9d2406b38e38","667eb020a3f04ab26214dcd4","","","","","","","","","","","","","","","","","","","","","","","","","","","","","","","","","","","","","","","","","","","","",""
"5870","","","{""green_ball"":[""Ball sometimes shakes and moves in a random direction""]}","survey-multi-select","26","610849","0.0-8.0-5.1-0.1","52","1","2025-07-02 10:18:51","80fe4187154257d5fb01684ea91b68b9","154.56.232.95","Mozilla/5.0 (Windows NT 10.0; Win64; x64) AppleWebKit/537.36 (KHTML, like Gecko) Chrome/138.0.0.0 Safari/537.36","WebKit","Chrome","138.0.0.0","Windows","10.0","https://app.prolific.com/","en","667eb020a3f04ab26214dcd4","683db6dfa200031b80f2a654","6865075d2e1b9d2406b38e38","667eb020a3f04ab26214dcd4","","","[0]","","","","quiz","","","","","","","","","","","","","","","","","","","","","","","","","","","","","","","","","","","","","true",""
"1236","","<p align='center'><b>CORRECT!</b> Indeed, the green ball may sometimes shake and move in a random direction.</p>","0","html-button-response","27","612086","0.0-8.0-5.1-1.1","52","1","2025-07-02 10:18:51","80fe4187154257d5fb01684ea91b68b9","154.56.232.95","Mozilla/5.0 (Windows NT 10.0; Win64; x64) AppleWebKit/537.36 (KHTML, like Gecko) Chrome/138.0.0.0 Safari/537.36","WebKit","Chrome","138.0.0.0","Windows","10.0","https://app.prolific.com/","en","667eb020a3f04ab26214dcd4","683db6dfa200031b80f2a654","6865075d2e1b9d2406b38e38","667eb020a3f04ab26214dcd4","","","","","","","","","","","","","","","","","","","","","","","","","","","","","","","","","","","","","","","","","","","","",""
"4793","","","{""yellow_ball"":[""Ball doesn‘t move and I get -1 penalty point""]}","survey-multi-select","28","616880","0.0-8.0-6.0-0.0","52","1","2025-07-02 10:18:51","80fe4187154257d5fb01684ea91b68b9","154.56.232.95","Mozilla/5.0 (Windows NT 10.0; Win64; x64) AppleWebKit/537.36 (KHTML, like Gecko) Chrome/138.0.0.0 Safari/537.36","WebKit","Chrome","138.0.0.0","Windows","10.0","https://app.prolific.com/","en","667eb020a3f04ab26214dcd4","683db6dfa200031b80f2a654","6865075d2e1b9d2406b38e38","667eb020a3f04ab26214dcd4","","","[0]","","","","quiz","","","","","","","","","","","","","","","","","","","","","","","","","","","","","","","","","","","","","true",""
"784","","<p align='center'><b>CORRECT!</b> Indeed, the yellow ball never moves and you receive a penalty.</p>","0","html-button-response","29","617665","0.0-8.0-6.0-1.0","52","1","2025-07-02 10:18:51","80fe4187154257d5fb01684ea91b68b9","154.56.232.95","Mozilla/5.0 (Windows NT 10.0; Win64; x64) AppleWebKit/537.36 (KHTML, like Gecko) Chrome/138.0.0.0 Safari/537.36","WebKit","Chrome","138.0.0.0","Windows","10.0","https://app.prolific.com/","en","667eb020a3f04ab26214dcd4","683db6dfa200031b80f2a654","6865075d2e1b9d2406b38e38","667eb020a3f04ab26214dcd4","","","","","","","","","","","","","","","","","","","","","","","","","","","","","","","","","","","","","","","","","","","","",""
"7253","","","{""blue_ball"":[""Ball always shakes and moves in a random direction""]}","survey-multi-select","30","624919","0.0-8.0-7.0-0.0","52","1","2025-07-02 10:18:51","80fe4187154257d5fb01684ea91b68b9","154.56.232.95","Mozilla/5.0 (Windows NT 10.0; Win64; x64) AppleWebKit/537.36 (KHTML, like Gecko) Chrome/138.0.0.0 Safari/537.36","WebKit","Chrome","138.0.0.0","Windows","10.0","https://app.prolific.com/","en","667eb020a3f04ab26214dcd4","683db6dfa200031b80f2a654","6865075d2e1b9d2406b38e38","667eb020a3f04ab26214dcd4","","","[0]","","","","quiz","","","","","","","","","","","","","","","","","","","","","","","","","","","","","","","","","","","","","true",""
"1217","","<p align='center'><b>CORRECT!</b> Indeed, the blue ball always shakes and moves in a random direction. Also there is a penalty of -1 point.</p>","0","html-button-response","31","626137","0.0-8.0-7.0-1.0","52","1","2025-07-02 10:18:51","80fe4187154257d5fb01684ea91b68b9","154.56.232.95","Mozilla/5.0 (Windows NT 10.0; Win64; x64) AppleWebKit/537.36 (KHTML, like Gecko) Chrome/138.0.0.0 Safari/537.36","WebKit","Chrome","138.0.0.0","Windows","10.0","https://app.prolific.com/","en","667eb020a3f04ab26214dcd4","683db6dfa200031b80f2a654","6865075d2e1b9d2406b38e38","667eb020a3f04ab26214dcd4","","","","","","","","","","","","","","","","","","","","","","","","","","","","","","","","","","","","","","","","","","","","",""
"2936","","","{""bonus"":[""When I reach 50% of points""]}","survey-multi-select","32","629074","0.0-8.0-8.0-0.0","52","1","2025-07-02 10:18:51","80fe4187154257d5fb01684ea91b68b9","154.56.232.95","Mozilla/5.0 (Windows NT 10.0; Win64; x64) AppleWebKit/537.36 (KHTML, like Gecko) Chrome/138.0.0.0 Safari/537.36","WebKit","Chrome","138.0.0.0","Windows","10.0","https://app.prolific.com/","en","667eb020a3f04ab26214dcd4","683db6dfa200031b80f2a654","6865075d2e1b9d2406b38e38","667eb020a3f04ab26214dcd4","","","[0]","","","","quiz","","","","","","","","","","","","","","","","","","","","","","","","","","","","","","","","","","","","","true",""
"1043","","<p align='center'><b>CORRECT!</b> Indeed, you receive 2 pounds extra when you reach 50% of points.</p>","0","html-button-response","33","630118","0.0-8.0-8.0-1.0","52","1","2025-07-02 10:18:51","80fe4187154257d5fb01684ea91b68b9","154.56.232.95","Mozilla/5.0 (Windows NT 10.0; Win64; x64) AppleWebKit/537.36 (KHTML, like Gecko) Chrome/138.0.0.0 Safari/537.36","WebKit","Chrome","138.0.0.0","Windows","10.0","https://app.prolific.com/","en","667eb020a3f04ab26214dcd4","683db6dfa200031b80f2a654","6865075d2e1b9d2406b38e38","667eb020a3f04ab26214dcd4","","","","","","","","","","","","","","","","","","","","","","","","","","","","","","","","","","","","","","","","","","","","",""
"3548","","","","instructions","34","633666","0.0-8.0-9.0","52","1","2025-07-02 10:18:51","80fe4187154257d5fb01684ea91b68b9","154.56.232.95","Mozilla/5.0 (Windows NT 10.0; Win64; x64) AppleWebKit/537.36 (KHTML, like Gecko) Chrome/138.0.0.0 Safari/537.36","WebKit","Chrome","138.0.0.0","Windows","10.0","https://app.prolific.com/","en","667eb020a3f04ab26214dcd4","683db6dfa200031b80f2a654","6865075d2e1b9d2406b38e38","667eb020a3f04ab26214dcd4","","[{""page_index"":0,""viewing_time"":3547}]","","","","","","","","","","","","","","","","","","","","","","","","","","","","","","","","","","","","","","","","","","",""
"7371","","<p>Before you start with this game please answer the following three questions yourself. </p>
  <p>Through this game, we measure several aspects of your cognitive performance, such as reaction times, multi-tasking capabilities </p>
  <p>and the ability to assess the situation you are in.</p>
  <p></p>
  <p><b>How good do you usually are in such tasks?</b></p>","79","html-slider-response","35","641042","0.0-9.0-0.0","52","1","2025-07-02 10:18:51","80fe4187154257d5fb01684ea91b68b9","154.56.232.95","Mozilla/5.0 (Windows NT 10.0; Win64; x64) AppleWebKit/537.36 (KHTML, like Gecko) Chrome/138.0.0.0 Safari/537.36","WebKit","Chrome","138.0.0.0","Windows","10.0","https://app.prolific.com/","en","667eb020a3f04ab26214dcd4","683db6dfa200031b80f2a654","6865075d2e1b9d2406b38e38","667eb020a3f04ab26214dcd4","2025-07-02T10:29:34.922Z","","","","","","PreSkillQ","","","","","","","","","","","","","","","","","","","","","","","","","","","","","","","","","","","","","","50"
"2596","","<div style=""width:500px;"">
  <p>How well do you think you will perform in this task compared to other participants?</p>
  </div>","64","html-slider-response","36","643639","0.0-9.0-1.0","52","1","2025-07-02 10:18:51","80fe4187154257d5fb01684ea91b68b9","154.56.232.95","Mozilla/5.0 (Windows NT 10.0; Win64; x64) AppleWebKit/537.36 (KHTML, like Gecko) Chrome/138.0.0.0 Safari/537.36","WebKit","Chrome","138.0.0.0","Windows","10.0","https://app.prolific.com/","en","667eb020a3f04ab26214dcd4","683db6dfa200031b80f2a654","6865075d2e1b9d2406b38e38","667eb020a3f04ab26214dcd4","2025-07-02T10:29:37.519Z","","","","","","PrePerfQ","","","","","","","","","","","","","","","","","","","","","","","","","","","","","","","","","","","","","","50"
"3058","","<div style=""width:500px;"">
  <p>What best describes how you currently feel?</p>
  </div>","82","html-slider-response","37","646698","0.0-9.0-2.0","52","1","2025-07-02 10:18:51","80fe4187154257d5fb01684ea91b68b9","154.56.232.95","Mozilla/5.0 (Windows NT 10.0; Win64; x64) AppleWebKit/537.36 (KHTML, like Gecko) Chrome/138.0.0.0 Safari/537.36","WebKit","Chrome","138.0.0.0","Windows","10.0","https://app.prolific.com/","en","667eb020a3f04ab26214dcd4","683db6dfa200031b80f2a654","6865075d2e1b9d2406b38e38","667eb020a3f04ab26214dcd4","2025-07-02T10:29:40.578Z","","","","","","PreMotivationQ","","","","","","","","","","","","","","","","","","","","","","","","","","","","","","","","","","","","","","50"
"","","","","ctl-task-cpt","38","666694","0.0-10.0-0.0","52","1","2025-07-02 10:18:51","80fe4187154257d5fb01684ea91b68b9","154.56.232.95","Mozilla/5.0 (Windows NT 10.0; Win64; x64) AppleWebKit/537.36 (KHTML, like Gecko) Chrome/138.0.0.0 Safari/537.36","WebKit","Chrome","138.0.0.0","Windows","10.0","https://app.prolific.com/","en","667eb020a3f04ab26214dcd4","683db6dfa200031b80f2a654","6865075d2e1b9d2406b38e38","667eb020a3f04ab26214dcd4","2025-07-02T10:30:00.574Z","","","","","","","","","","","","","","","","win-only","0","g1:NW,g2:SE","1","1","0","647483.3","1604.3","6605.9","16976.2","1","4","4","6","1","1","1","1","0","0.007575757575757576","2454.7","3000","1475","[""left"",""up""]","{""num_key_presses"":4,""num_perfect"":4,""num_errors"":0,""num_randdir"":0,""num_randdir_good_moves"":0,""num_whilered"":0,""num_whileblue"":0,""num_blue"":0,""num_good_moves"":4}","[420.57142857142856,420.47767857142856,0.2,421.57142857142856,420.47767857142856,101.2,421.57142857142856,420.47767857142856,201.9,423.57142857142856,421.47767857142856,306.3,426.57142857142856,427.47767857142856,411.5,427.57142857142856,428.47767857142856,511.6,424.57142857142856,421.47767857142856,617.1,424.57142857142856,421.47767857142856,720.9,418.57142857142856,414.47767857142856,821.2,411.57142857142856,409.47767857142856,921.2,411.57142857142856,411.47767857142856,1021.4,408.57142857142856,411.47767857142856,1121.7,408.57142857142856,410.47767857142856,1226.8,397.57142857142856,389.47767857142856,1326.8,386.57142857142856,379.47767857142856,1431,376.57142857142856,371.47767857142856,1532.1,375.57142857142856,370.47767857142856,1636.5,375.57142857142856,370.47767857142856,1741.2,375.57142857142856,370.47767857142856,1842.2,344.57142857142856,344.47767857142856,1946.1,154.57142857142856,167.47767857142856,2046.6,123.57142857142857,149.47767857142856,2152.2,115.57142857142857,139.47767857142856,2256.2,80.57142857142857,93.47767857142857,2356.8,78.57142857142857,91.47767857142857,2461.6,78.57142857142857,91.47767857142857,2561.9,126.57142857142857,108.47767857142857,2666.1,773.5714285714286,228.47767857142856,2767.3,954.5714285714286,236.47767857142856,2872.1,953.5714285714286,236.47767857142856,2976.4,953.5714285714286,238.47767857142856,3076.9,953.5714285714286,238.47767857142856,3181.1,953.5714285714286,238.47767857142856,3281.9,953.5714285714286,238.47767857142856,3382,953.5714285714286,238.47767857142856,3482,953.5714285714286,238.47767857142856,3586.1,953.5714285714286,238.47767857142856,3686.2,953.5714285714286,238.47767857142856,3786.2,953.5714285714286,238.47767857142856,3886.4,953.5714285714286,238.47767857142856,3986.5,954.5714285714286,238.47767857142856,4086.8,954.5714285714286,238.47767857142856,4191.3,954.5714285714286,238.47767857142856,4296.7,954.5714285714286,238.47767857142856,4397.3,954.5714285714286,238.47767857142856,4501.5,954.5714285714286,238.47767857142856,4602.1,954.5714285714286,238.47767857142856,4707.6,954.5714285714286,238.47767857142856,4811.6,954.5714285714286,238.47767857142856,4911.8]","[1424.1,1424.1,1000,0,424.1,""smooth"",""left"",""left"",""good_move"",4094.3,2670,2292.5,1424.3,377.5,""smooth"",""up"",""up"",""good_move"",6718.3,2623.7,2183,4094.6,440.7,""smooth"",""left"",""left"",""good_move"",10271.1,3552.6,3241.9,6718.5,310.7,""smooth"",""up"",""up"",""good_move""]","",""
"3806","","<div style=""width:500px;"">
  <p>What determined the result of this run?</p>
  </div>","100","html-slider-response","39","670502","0.0-10.0-1.0","52","1","2025-07-02 10:18:51","80fe4187154257d5fb01684ea91b68b9","154.56.232.95","Mozilla/5.0 (Windows NT 10.0; Win64; x64) AppleWebKit/537.36 (KHTML, like Gecko) Chrome/138.0.0.0 Safari/537.36","WebKit","Chrome","138.0.0.0","Windows","10.0","https://app.prolific.com/","en","667eb020a3f04ab26214dcd4","683db6dfa200031b80f2a654","6865075d2e1b9d2406b38e38","667eb020a3f04ab26214dcd4","2025-07-02T10:30:04.382Z","","","","","","AttribQ","","","","","","","","","","","","","","","","","","","","","","","","","","","","","","","","","","","","","","50"
"2005","","<div style=""width:500px;"">
  <p>How much control did you have over the ball?</p>
  </div>","100","html-slider-response","40","672508","0.0-10.0-2.0","52","1","2025-07-02 10:18:51","80fe4187154257d5fb01684ea91b68b9","154.56.232.95","Mozilla/5.0 (Windows NT 10.0; Win64; x64) AppleWebKit/537.36 (KHTML, like Gecko) Chrome/138.0.0.0 Safari/537.36","WebKit","Chrome","138.0.0.0","Windows","10.0","https://app.prolific.com/","en","667eb020a3f04ab26214dcd4","683db6dfa200031b80f2a654","6865075d2e1b9d2406b38e38","667eb020a3f04ab26214dcd4","2025-07-02T10:30:06.388Z","","","","","","ControlQ","","","","","","","","","","","","","","","","","","","","","","","","","","","","","","","","","","","","","","50"
"2428","","<div style=""width:500px;"">
  <p>How would you describe your current emotional state?</p>
  </div>","0","html-slider-response","41","674937","0.0-10.0-3.0","52","1","2025-07-02 10:18:51","80fe4187154257d5fb01684ea91b68b9","154.56.232.95","Mozilla/5.0 (Windows NT 10.0; Win64; x64) AppleWebKit/537.36 (KHTML, like Gecko) Chrome/138.0.0.0 Safari/537.36","WebKit","Chrome","138.0.0.0","Windows","10.0","https://app.prolific.com/","en","667eb020a3f04ab26214dcd4","683db6dfa200031b80f2a654","6865075d2e1b9d2406b38e38","667eb020a3f04ab26214dcd4","2025-07-02T10:30:08.817Z","","","","","","StressQ","","","","","","","","","","","","","","","","","","","","","","","","","","","","","","","","","","","","","","50"
"2589","","<div style=""width:500px;"">
  <p>What best describes how you currently feel?</p>
  </div>","56","html-slider-response","42","677527","0.0-10.0-4.0","52","1","2025-07-02 10:18:51","80fe4187154257d5fb01684ea91b68b9","154.56.232.95","Mozilla/5.0 (Windows NT 10.0; Win64; x64) AppleWebKit/537.36 (KHTML, like Gecko) Chrome/138.0.0.0 Safari/537.36","WebKit","Chrome","138.0.0.0","Windows","10.0","https://app.prolific.com/","en","667eb020a3f04ab26214dcd4","683db6dfa200031b80f2a654","6865075d2e1b9d2406b38e38","667eb020a3f04ab26214dcd4","2025-07-02T10:30:11.407Z","","","","","","MotivationQ","","","","","","","","","","","","","","","","","","","","","","","","","","","","","","","","","","","","","","50"
"","","","","ctl-task-cpt","43","711597","0.0-10.0-0.1","52","1","2025-07-02 10:18:51","80fe4187154257d5fb01684ea91b68b9","154.56.232.95","Mozilla/5.0 (Windows NT 10.0; Win64; x64) AppleWebKit/537.36 (KHTML, like Gecko) Chrome/138.0.0.0 Safari/537.36","WebKit","Chrome","138.0.0.0","Windows","10.0","https://app.prolific.com/","en","667eb020a3f04ab26214dcd4","683db6dfa200031b80f2a654","6865075d2e1b9d2406b38e38","667eb020a3f04ab26214dcd4","2025-07-02T10:30:45.477Z","","","","","","","","","","","","","","","","win-only","1","g1:NE,g2:SW","0.9","2","0","678312.4","952","5956.7","31050.4","1","4","8","6","2","8","8","9","1","0.06818181818181818","1727.2","3000","855","[""down"",""left""]","{""num_key_presses"":6,""num_perfect"":6,""num_errors"":0,""num_randdir"":0,""num_randdir_good_moves"":0,""num_whilered"":0,""num_whileblue"":0,""num_blue"":3,""num_good_moves"":6}","[422.57142857142856,419.47767857142856,0.1,422.57142857142856,418.47767857142856,103.4,421.57142857142856,417.47767857142856,203.4,421.57142857142856,417.47767857142856,309,421.57142857142856,417.47767857142856,413.2,421.57142857142856,417.47767857142856,513.2,421.57142857142856,418.47767857142856,618.5,421.57142857142856,418.47767857142856,718.5,421.57142857142856,418.47767857142856,818.9,421.57142857142856,418.47767857142856,923.2,449.57142857142856,405.47767857142856,1024.1,469.57142857142856,372.47767857142856,1128.6,459.57142857142856,381.47767857142856,1229.3,105.57142857142857,747.4776785714286,1333.7,51.57142857142857,811.4776785714286,1434.6,59.57142857142857,800.4776785714286,1539.1,78.57142857142857,779.4776785714286,1643.3,80.57142857142857,775.4776785714286,1743.3,80.57142857142857,775.4776785714286,1844.5,190.57142857142856,695.4776785714286,1944.8,644.5714285714286,413.47767857142856,2048.5,656.5714285714286,407.47767857142856,2148.7,703.5714285714286,411.47767857142856,2254.4,903.5714285714286,392.47767857142856,2358.8,942.5714285714286,398.47767857142856,2463.4,974.5714285714286,399.47767857142856,2568.1,975.5714285714286,399.47767857142856,2668.7,975.5714285714286,399.47767857142856,2774.4,975.5714285714286,399.47767857142856,2874.4,975.5714285714286,399.47767857142856,2978.9,974.5714285714286,401.47767857142856,3079.9,971.5714285714286,402.47767857142856,3183.6,970.5714285714286,402.47767857142856,3284.1,970.5714285714286,402.47767857142856,3388.8,970.5714285714286,402.47767857142856,3494.3,970.5714285714286,401.47767857142856,3598.4,970.5714285714286,401.47767857142856,3700.2,970.5714285714286,401.47767857142856,3803.5,970.5714285714286,401.47767857142856,3903.6,970.5714285714286,401.47767857142856,4004.2,970.5714285714286,401.47767857142856,4104.7,970.5714285714286,401.47767857142856,4208.3,970.5714285714286,401.47767857142856,4308.5,970.5714285714286,401.47767857142856,4409,970.5714285714286,402.47767857142856,4513.2,970.5714285714286,402.47767857142856,4613.2,970.5714285714286,402.47767857142856,4714.1,970.5714285714286,402.47767857142856,4819.1,970.5714285714286,402.47767857142856,4924.4]","[1442.1,1442.1,1000,0,442.1,""smooth"",""left"",""left"",""good_move"",3466.1,2023.4,1713.8,1442.7,309.6,""smooth"",""down"",""down"",""good_move"",6746.5,3280,2943.4,3466.5,336.6,""smooth"",""left"",""left"",""good_move"",12386.7,5640.1,1772.6,10269.3,344.8,""smooth"",""down"",""down"",""good_move"",19010.7,6623.8,2442.3,16149.6,418.8,""smooth"",""left"",""left"",""good_move"",25003.1,5992.4,2282.9,22394.2,326,""smooth"",""down"",""down"",""good_move""]","",""
"2432","","<div style=""width:500px;"">
  <p>What determined the result of this run?</p>
  </div>","96","html-slider-response","44","714031","0.0-10.0-1.1","52","1","2025-07-02 10:18:51","80fe4187154257d5fb01684ea91b68b9","154.56.232.95","Mozilla/5.0 (Windows NT 10.0; Win64; x64) AppleWebKit/537.36 (KHTML, like Gecko) Chrome/138.0.0.0 Safari/537.36","WebKit","Chrome","138.0.0.0","Windows","10.0","https://app.prolific.com/","en","667eb020a3f04ab26214dcd4","683db6dfa200031b80f2a654","6865075d2e1b9d2406b38e38","667eb020a3f04ab26214dcd4","2025-07-02T10:30:47.911Z","","","","","","AttribQ","","","","","","","","","","","","","","","","","","","","","","","","","","","","","","","","","","","","","","50"
"4202","","<div style=""width:500px;"">
  <p>How much control did you have over the ball?</p>
  </div>","100","html-slider-response","45","718233","0.0-10.0-2.1","52","1","2025-07-02 10:18:51","80fe4187154257d5fb01684ea91b68b9","154.56.232.95","Mozilla/5.0 (Windows NT 10.0; Win64; x64) AppleWebKit/537.36 (KHTML, like Gecko) Chrome/138.0.0.0 Safari/537.36","WebKit","Chrome","138.0.0.0","Windows","10.0","https://app.prolific.com/","en","667eb020a3f04ab26214dcd4","683db6dfa200031b80f2a654","6865075d2e1b9d2406b38e38","667eb020a3f04ab26214dcd4","2025-07-02T10:30:52.114Z","","","","","","ControlQ","","","","","","","","","","","","","","","","","","","","","","","","","","","","","","","","","","","","","","50"
"2121","","<div style=""width:500px;"">
  <p>How would you describe your current emotional state?</p>
  </div>","8","html-slider-response","46","720355","0.0-10.0-3.1","52","1","2025-07-02 10:18:51","80fe4187154257d5fb01684ea91b68b9","154.56.232.95","Mozilla/5.0 (Windows NT 10.0; Win64; x64) AppleWebKit/537.36 (KHTML, like Gecko) Chrome/138.0.0.0 Safari/537.36","WebKit","Chrome","138.0.0.0","Windows","10.0","https://app.prolific.com/","en","667eb020a3f04ab26214dcd4","683db6dfa200031b80f2a654","6865075d2e1b9d2406b38e38","667eb020a3f04ab26214dcd4","2025-07-02T10:30:54.235Z","","","","","","StressQ","","","","","","","","","","","","","","","","","","","","","","","","","","","","","","","","","","","","","","50"
"1896","","<div style=""width:500px;"">
  <p>What best describes how you currently feel?</p>
  </div>","62","html-slider-response","47","722252","0.0-10.0-4.1","52","1","2025-07-02 10:18:51","80fe4187154257d5fb01684ea91b68b9","154.56.232.95","Mozilla/5.0 (Windows NT 10.0; Win64; x64) AppleWebKit/537.36 (KHTML, like Gecko) Chrome/138.0.0.0 Safari/537.36","WebKit","Chrome","138.0.0.0","Windows","10.0","https://app.prolific.com/","en","667eb020a3f04ab26214dcd4","683db6dfa200031b80f2a654","6865075d2e1b9d2406b38e38","667eb020a3f04ab26214dcd4","2025-07-02T10:30:56.132Z","","","","","","MotivationQ","","","","","","","","","","","","","","","","","","","","","","","","","","","","","","","","","","","","","","50"
"","","","","ctl-task-cpt","48","756627","0.0-10.0-0.2","52","1","2025-07-02 10:18:51","80fe4187154257d5fb01684ea91b68b9","154.56.232.95","Mozilla/5.0 (Windows NT 10.0; Win64; x64) AppleWebKit/537.36 (KHTML, like Gecko) Chrome/138.0.0.0 Safari/537.36","WebKit","Chrome","138.0.0.0","Windows","10.0","https://app.prolific.com/","en","667eb020a3f04ab26214dcd4","683db6dfa200031b80f2a654","6865075d2e1b9d2406b38e38","667eb020a3f04ab26214dcd4","2025-07-02T10:31:30.507Z","","","","","","","","","","","","","","","","win-only","2","g1:SE,g2:NW","0.8","3","0","723036.8","1031.8","6036","31356","1","4","8","6","2","-8","-8","1","9","0.007575757575757576","1743.2","3000","-2995","[""left"",""up""]","{""num_key_presses"":7,""num_perfect"":5,""num_errors"":0,""num_randdir"":2,""num_randdir_good_moves"":1,""num_whilered"":0,""num_whileblue"":0,""num_blue"":1,""num_good_moves"":6}","[417.57142857142856,419.47767857142856,0.2,417.57142857142856,418.47767857142856,104.1,417.57142857142856,419.47767857142856,208.8,424.57142857142856,424.47767857142856,309.5,425.57142857142856,424.47767857142856,414.3,425.57142857142856,424.47767857142856,518.8,477.57142857142856,455.47767857142856,619.4,668.5714285714286,641.4776785714286,724.6,692.5714285714286,684.4776785714286,824.6,706.5714285714286,710.4776785714286,924.9,727.5714285714286,729.4776785714286,1028.9,728.5714285714286,731.4776785714286,1129.5,728.5714285714286,731.4776785714286,1233.9,694.5714285714286,691.4776785714286,1334.5,139.57142857142856,188.47767857142856,1439.2,63.57142857142857,110.47767857142857,1544,52.57142857142857,93.47767857142857,1644.4,52.57142857142857,90.47767857142857,1745.9,52.57142857142857,90.47767857142857,1848.9,418.57142857142856,132.47767857142856,1949.7,1070.5714285714287,239.47767857142856,2054.8,1109.5714285714287,251.47767857142856,2154.8,1128.5714285714287,296.47767857142856,2259,1127.5714285714287,321.47767857142856,2359,1122.5714285714287,328.47767857142856,2459.6,1122.5714285714287,328.47767857142856,2561.2,1122.5714285714287,328.47767857142856,2664,1122.5714285714287,328.47767857142856,2764.1,1122.5714285714287,328.47767857142856,2864.4,1122.5714285714287,328.47767857142856,2968.9,1122.5714285714287,328.47767857142856,3074.5,1122.5714285714287,328.47767857142856,3180.5,1122.5714285714287,330.47767857142856,3284,1122.5714285714287,330.47767857142856,3384,1122.5714285714287,330.47767857142856,3484.3,1122.5714285714287,330.47767857142856,3589.3,1122.5714285714287,330.47767857142856,3695.2,1122.5714285714287,330.47767857142856,3798.7,1122.5714285714287,330.47767857142856,3898.9,1122.5714285714287,330.47767857142856,4004.5,1122.5714285714287,330.47767857142856,4108.5,1122.5714285714287,330.47767857142856,4208.9,1123.5714285714287,330.47767857142856,4313.5,1123.5714285714287,330.47767857142856,4414.3,1123.5714285714287,330.47767857142856,4514.6,1123.5714285714287,330.47767857142856,4618.8,1123.5714285714287,330.47767857142856,4719.6,1123.5714285714287,330.47767857142856,4823.3,1123.5714285714287,330.47767857142856,4924.3]","[1407.1,1407.1,1000,0,407.1,""smooth"",""left"",""left"",""good_move"",4134.8,2727.4,2390.2,1407.5,337.1,""smooth"",""up"",""up"",""good_move"",6462.5,2327.4,1857.4,4135.1,470,""smooth"",""left"",""left"",""good_move"",13407.5,6944.8,2719.4,10299.9,388.2,""oops"",""up"",""down"",""bad_move"",17062.9,3654.9,3341.7,13408,313.2,""oops"",""up"",""up"",""good_move"",19855.2,2792.1,2432,17063.2,360.1,""smooth"",""up"",""up"",""good_move"",22367.9,2512.4,2004.4,19855.5,508,""smooth"",""left"",""left"",""good_move""]","",""
"2121","","<div style=""width:500px;"">
  <p>What determined the result of this run?</p>
  </div>","26","html-slider-response","49","758749","0.0-10.0-1.2","52","1","2025-07-02 10:18:51","80fe4187154257d5fb01684ea91b68b9","154.56.232.95","Mozilla/5.0 (Windows NT 10.0; Win64; x64) AppleWebKit/537.36 (KHTML, like Gecko) Chrome/138.0.0.0 Safari/537.36","WebKit","Chrome","138.0.0.0","Windows","10.0","https://app.prolific.com/","en","667eb020a3f04ab26214dcd4","683db6dfa200031b80f2a654","6865075d2e1b9d2406b38e38","667eb020a3f04ab26214dcd4","2025-07-02T10:31:32.629Z","","","","","","AttribQ","","","","","","","","","","","","","","","","","","","","","","","","","","","","","","","","","","","","","","50"
"2373","","<div style=""width:500px;"">
  <p>How much control did you have over the ball?</p>
  </div>","36","html-slider-response","50","761124","0.0-10.0-2.2","52","1","2025-07-02 10:18:51","80fe4187154257d5fb01684ea91b68b9","154.56.232.95","Mozilla/5.0 (Windows NT 10.0; Win64; x64) AppleWebKit/537.36 (KHTML, like Gecko) Chrome/138.0.0.0 Safari/537.36","WebKit","Chrome","138.0.0.0","Windows","10.0","https://app.prolific.com/","en","667eb020a3f04ab26214dcd4","683db6dfa200031b80f2a654","6865075d2e1b9d2406b38e38","667eb020a3f04ab26214dcd4","2025-07-02T10:31:35.004Z","","","","","","ControlQ","","","","","","","","","","","","","","","","","","","","","","","","","","","","","","","","","","","","","","50"
"2051","","<div style=""width:500px;"">
  <p>How would you describe your current emotional state?</p>
  </div>","80","html-slider-response","51","763175","0.0-10.0-3.2","52","1","2025-07-02 10:18:51","80fe4187154257d5fb01684ea91b68b9","154.56.232.95","Mozilla/5.0 (Windows NT 10.0; Win64; x64) AppleWebKit/537.36 (KHTML, like Gecko) Chrome/138.0.0.0 Safari/537.36","WebKit","Chrome","138.0.0.0","Windows","10.0","https://app.prolific.com/","en","667eb020a3f04ab26214dcd4","683db6dfa200031b80f2a654","6865075d2e1b9d2406b38e38","667eb020a3f04ab26214dcd4","2025-07-02T10:31:37.055Z","","","","","","StressQ","","","","","","","","","","","","","","","","","","","","","","","","","","","","","","","","","","","","","","50"
"2375","","<div style=""width:500px;"">
  <p>What best describes how you currently feel?</p>
  </div>","69","html-slider-response","52","765551","0.0-10.0-4.2","52","1","2025-07-02 10:18:51","80fe4187154257d5fb01684ea91b68b9","154.56.232.95","Mozilla/5.0 (Windows NT 10.0; Win64; x64) AppleWebKit/537.36 (KHTML, like Gecko) Chrome/138.0.0.0 Safari/537.36","WebKit","Chrome","138.0.0.0","Windows","10.0","https://app.prolific.com/","en","667eb020a3f04ab26214dcd4","683db6dfa200031b80f2a654","6865075d2e1b9d2406b38e38","667eb020a3f04ab26214dcd4","2025-07-02T10:31:39.431Z","","","","","","MotivationQ","","","","","","","","","","","","","","","","","","","","","","","","","","","","","","","","","","","","","","50"
"","","","","ctl-task-cpt","53","784082","0.0-10.0-0.3","52","1","2025-07-02 10:18:51","80fe4187154257d5fb01684ea91b68b9","154.56.232.95","Mozilla/5.0 (Windows NT 10.0; Win64; x64) AppleWebKit/537.36 (KHTML, like Gecko) Chrome/138.0.0.0 Safari/537.36","WebKit","Chrome","138.0.0.0","Windows","10.0","https://app.prolific.com/","en","667eb020a3f04ab26214dcd4","683db6dfa200031b80f2a654","6865075d2e1b9d2406b38e38","667eb020a3f04ab26214dcd4","2025-07-02T10:31:57.962Z","","","","","","","","","","","","","","","","win-only","2","g1:SE,g2:NW","0.7","4","0","766335.9","944.8","5946.6","15520.6","1","4","4","6","1","1","1","2","1","0.015151515151515152","3167.6","3000","1740","[""down"",""right""]","{""num_key_presses"":4,""num_perfect"":3,""num_errors"":0,""num_randdir"":1,""num_randdir_good_moves"":1,""num_whilered"":0,""num_whileblue"":0,""num_blue"":0,""num_good_moves"":4}","[409.57142857142856,422.47767857142856,0.2,409.57142857142856,422.47767857142856,101.6,409.57142857142856,422.47767857142856,205.6,409.57142857142856,422.47767857142856,310.7,409.57142857142856,422.47767857142856,411,409.57142857142856,423.47767857142856,511.2,409.57142857142856,423.47767857142856,612.2,410.57142857142856,423.47767857142856,718.7,410.57142857142856,423.47767857142856,821,465.57142857142856,487.47767857142856,925.5,566.5714285714286,588.4776785714286,1025.7,566.5714285714286,589.4776785714286,1125.8,534.5714285714286,554.4776785714286,1226,493.57142857142856,508.47767857142856,1334.1,492.57142857142856,506.47767857142856,1434.2,492.57142857142856,506.47767857142856,1535.5,390.57142857142856,406.47767857142856,1636.3,198.57142857142856,202.47767857142856,1740.6,182.57142857142856,193.47767857142856,1840.7,158.57142857142856,168.47767857142856,1941.1,127.57142857142857,126.47767857142857,2041.4,125.57142857142857,125.47767857142857,2150.8,124.57142857142857,125.47767857142857,2250.9,123.57142857142857,123.47767857142857,2350.9,117.57142857142857,117.47767857142857,2451.1,117.57142857142857,117.47767857142857,2555.4,117.57142857142857,115.47767857142857,2655.9,194.57142857142856,198.47767857142856,2756.4,636.5714285714286,614.4776785714286,2856.4,688.5714285714286,647.4776785714286,2961.1,719.5714285714286,689.4776785714286,3061.2,732.5714285714286,735.4776785714286,3169.3,732.5714285714286,735.4776785714286,3271.3,743.5714285714286,649.4776785714286,3371.4,860.5714285714286,481.47767857142856,3471.4,906.5714285714286,427.47767857142856,3576.3,907.5714285714286,428.47767857142856,3676.6,907.5714285714286,428.47767857142856,3784.5,907.5714285714286,428.47767857142856,3886.4,907.5714285714286,428.47767857142856,3986.5,907.5714285714286,428.47767857142856,4086.5,907.5714285714286,428.47767857142856,4190.6,907.5714285714286,428.47767857142856,4291.2,907.5714285714286,428.47767857142856,4401.2,907.5714285714286,428.47767857142856,4502.7,909.5714285714286,428.47767857142856,4606,909.5714285714286,428.47767857142856,4711.7,909.5714285714286,428.47767857142856,4818.4,909.5714285714286,428.47767857142856,4921.3]","[1405,1405,1000,0,405,""smooth"",""right"",""right"",""good_move"",3631.1,2225.9,1886.9,1405.2,339,""smooth"",""down"",""down"",""good_move"",6405.2,2773.8,2440.4,3631.4,333.4,""smooth"",""right"",""right"",""good_move"",9481.5,3076.2,2721.4,6405.3,354.8,""oops"",""down"",""down"",""good_move""]","",""
"2619","","<div style=""width:500px;"">
  <p>What determined the result of this run?</p>
  </div>","59","html-slider-response","54","786703","0.0-10.0-1.3","52","1","2025-07-02 10:18:51","80fe4187154257d5fb01684ea91b68b9","154.56.232.95","Mozilla/5.0 (Windows NT 10.0; Win64; x64) AppleWebKit/537.36 (KHTML, like Gecko) Chrome/138.0.0.0 Safari/537.36","WebKit","Chrome","138.0.0.0","Windows","10.0","https://app.prolific.com/","en","667eb020a3f04ab26214dcd4","683db6dfa200031b80f2a654","6865075d2e1b9d2406b38e38","667eb020a3f04ab26214dcd4","2025-07-02T10:32:00.583Z","","","","","","AttribQ","","","","","","","","","","","","","","","","","","","","","","","","","","","","","","","","","","","","","","50"
"2620","","<div style=""width:500px;"">
  <p>How much control did you have over the ball?</p>
  </div>","90","html-slider-response","55","789325","0.0-10.0-2.3","52","1","2025-07-02 10:18:51","80fe4187154257d5fb01684ea91b68b9","154.56.232.95","Mozilla/5.0 (Windows NT 10.0; Win64; x64) AppleWebKit/537.36 (KHTML, like Gecko) Chrome/138.0.0.0 Safari/537.36","WebKit","Chrome","138.0.0.0","Windows","10.0","https://app.prolific.com/","en","667eb020a3f04ab26214dcd4","683db6dfa200031b80f2a654","6865075d2e1b9d2406b38e38","667eb020a3f04ab26214dcd4","2025-07-02T10:32:03.206Z","","","","","","ControlQ","","","","","","","","","","","","","","","","","","","","","","","","","","","","","","","","","","","","","","50"
"2496","","<div style=""width:500px;"">
  <p>How would you describe your current emotional state?</p>
  </div>","30","html-slider-response","56","791823","0.0-10.0-3.3","52","1","2025-07-02 10:18:51","80fe4187154257d5fb01684ea91b68b9","154.56.232.95","Mozilla/5.0 (Windows NT 10.0; Win64; x64) AppleWebKit/537.36 (KHTML, like Gecko) Chrome/138.0.0.0 Safari/537.36","WebKit","Chrome","138.0.0.0","Windows","10.0","https://app.prolific.com/","en","667eb020a3f04ab26214dcd4","683db6dfa200031b80f2a654","6865075d2e1b9d2406b38e38","667eb020a3f04ab26214dcd4","2025-07-02T10:32:05.703Z","","","","","","StressQ","","","","","","","","","","","","","","","","","","","","","","","","","","","","","","","","","","","","","","50"
"1414","","<div style=""width:500px;"">
  <p>What best describes how you currently feel?</p>
  </div>","56","html-slider-response","57","793238","0.0-10.0-4.3","52","1","2025-07-02 10:18:51","80fe4187154257d5fb01684ea91b68b9","154.56.232.95","Mozilla/5.0 (Windows NT 10.0; Win64; x64) AppleWebKit/537.36 (KHTML, like Gecko) Chrome/138.0.0.0 Safari/537.36","WebKit","Chrome","138.0.0.0","Windows","10.0","https://app.prolific.com/","en","667eb020a3f04ab26214dcd4","683db6dfa200031b80f2a654","6865075d2e1b9d2406b38e38","667eb020a3f04ab26214dcd4","2025-07-02T10:32:07.118Z","","","","","","MotivationQ","","","","","","","","","","","","","","","","","","","","","","","","","","","","","","","","","","","","","","50"
"","","","","ctl-task-cpt","58","830316","0.0-10.0-0.4","52","1","2025-07-02 10:18:51","80fe4187154257d5fb01684ea91b68b9","154.56.232.95","Mozilla/5.0 (Windows NT 10.0; Win64; x64) AppleWebKit/537.36 (KHTML, like Gecko) Chrome/138.0.0.0 Safari/537.36","WebKit","Chrome","138.0.0.0","Windows","10.0","https://app.prolific.com/","en","667eb020a3f04ab26214dcd4","683db6dfa200031b80f2a654","6865075d2e1b9d2406b38e38","667eb020a3f04ab26214dcd4","2025-07-02T10:32:44.196Z","","","","","","","","","","","","","","","","win-only","3","g1:SW,g2:NE","0.6","5","0","794022.6","1075.8","6076.6","34060.4","1","4","4","6","2","4","4","6","2","0.045454545454545456","1657.8","3000","600","[""up"",""right""]","{""num_key_presses"":8,""num_perfect"":6,""num_errors"":0,""num_randdir"":2,""num_randdir_good_moves"":1,""num_whilered"":0,""num_whileblue"":0,""num_blue"":2,""num_good_moves"":7}","[424.57142857142856,413.47767857142856,0.3,424.57142857142856,413.47767857142856,100.7,514.5714285714286,416.47767857142856,200.9,895.5714285714286,428.47767857142856,304.4,932.5714285714286,430.47767857142856,404.9,926.5714285714286,433.47767857142856,505,792.5714285714286,423.47767857142856,610.2,780.5714285714286,415.47767857142856,710.6,760.5714285714286,292.47767857142856,817,761.5714285714286,192.47767857142856,918.1,762.5714285714286,155.47767857142856,1020.3,764.5714285714286,149.47767857142856,1124.8,775.5714285714286,118.47767857142857,1225.6,792.5714285714286,88.47767857142857,1334.1,792.5714285714286,88.47767857142857,1434.4,791.5714285714286,92.47767857142857,1534.7,784.5714285714286,97.47767857142857,1639.8,784.5714285714286,98.47767857142857,1744.5,864.5714285714286,139.47767857142856,1850.9,977.5714285714286,168.47767857142856,1955,1003.5714285714286,189.47767857142856,2060.8,1021.5714285714286,199.47767857142856,2168.7,1021.5714285714286,200.47767857142856,2270.4,1021.5714285714286,200.47767857142856,2374.6,1021.5714285714286,200.47767857142856,2475.2,1021.5714285714286,198.47767857142856,2583.1,1021.5714285714286,198.47767857142856,2683.8,1021.5714285714286,198.47767857142856,2784.7,1021.5714285714286,198.47767857142856,2885,1021.5714285714286,198.47767857142856,2990.5,1021.5714285714286,198.47767857142856,3100.4,1021.5714285714286,198.47767857142856,3200.9,1021.5714285714286,198.47767857142856,3301.4,1021.5714285714286,198.47767857142856,3405.5,1021.5714285714286,199.47767857142856,3510.3,1021.5714285714286,199.47767857142856,3619.2,1021.5714285714286,199.47767857142856,3720.3,1021.5714285714286,199.47767857142856,3825.2,1021.5714285714286,199.47767857142856,3935.2,1021.5714285714286,199.47767857142856,4040,1021.5714285714286,199.47767857142856,4144.6,1021.5714285714286,199.47767857142856,4250.8,1021.5714285714286,199.47767857142856,4351.4,1021.5714285714286,199.47767857142856,4454.4,1023.5714285714286,199.47767857142856,4555.7,1023.5714285714286,199.47767857142856,4659.8,1023.5714285714286,199.47767857142856,4760.6,1023.5714285714286,199.47767857142856,4868.3,1023.5714285714286,199.47767857142856,4969.6]","[1372.4,1372.4,1000,0,372.4,""oops"",""right"",""right"",""good_move"",3465.9,2093.1,1760.3,1372.8,332.8,""oops"",""up"",""left"",""bad_move"",6140.7,2674.6,2374.3,3466.1,300.3,""smooth"",""right"",""right"",""good_move"",13004.3,6863.5,2867.9,9767.2,369.2,""smooth"",""right"",""right"",""good_move"",16076.6,3072.2,2716.6,13004.4,355.6,""smooth"",""up"",""up"",""good_move"",22557.4,6480.4,2439.6,19767,350.8,""smooth"",""right"",""right"",""good_move"",24484,1926.4,1593.2,22557.6,333.2,""smooth"",""up"",""up"",""good_move"",27882.1,3398,3043.1,24484.1,354.9,""smooth"",""up"",""up"",""good_move""]","",""
"2738","","<div style=""width:500px;"">
  <p>What determined the result of this run?</p>
  </div>","64","html-slider-response","59","833056","0.0-10.0-1.4","52","1","2025-07-02 10:18:51","80fe4187154257d5fb01684ea91b68b9","154.56.232.95","Mozilla/5.0 (Windows NT 10.0; Win64; x64) AppleWebKit/537.36 (KHTML, like Gecko) Chrome/138.0.0.0 Safari/537.36","WebKit","Chrome","138.0.0.0","Windows","10.0","https://app.prolific.com/","en","667eb020a3f04ab26214dcd4","683db6dfa200031b80f2a654","6865075d2e1b9d2406b38e38","667eb020a3f04ab26214dcd4","2025-07-02T10:32:46.936Z","","","","","","AttribQ","","","","","","","","","","","","","","","","","","","","","","","","","","","","","","","","","","","","","","50"
"1817","","<div style=""width:500px;"">
  <p>How much control did you have over the ball?</p>
  </div>","78","html-slider-response","60","834874","0.0-10.0-2.4","52","1","2025-07-02 10:18:51","80fe4187154257d5fb01684ea91b68b9","154.56.232.95","Mozilla/5.0 (Windows NT 10.0; Win64; x64) AppleWebKit/537.36 (KHTML, like Gecko) Chrome/138.0.0.0 Safari/537.36","WebKit","Chrome","138.0.0.0","Windows","10.0","https://app.prolific.com/","en","667eb020a3f04ab26214dcd4","683db6dfa200031b80f2a654","6865075d2e1b9d2406b38e38","667eb020a3f04ab26214dcd4","2025-07-02T10:32:48.755Z","","","","","","ControlQ","","","","","","","","","","","","","","","","","","","","","","","","","","","","","","","","","","","","","","50"
"3427","","<div style=""width:500px;"">
  <p>How would you describe your current emotional state?</p>
  </div>","43","html-slider-response","61","838302","0.0-10.0-3.4","52","1","2025-07-02 10:18:51","80fe4187154257d5fb01684ea91b68b9","154.56.232.95","Mozilla/5.0 (Windows NT 10.0; Win64; x64) AppleWebKit/537.36 (KHTML, like Gecko) Chrome/138.0.0.0 Safari/537.36","WebKit","Chrome","138.0.0.0","Windows","10.0","https://app.prolific.com/","en","667eb020a3f04ab26214dcd4","683db6dfa200031b80f2a654","6865075d2e1b9d2406b38e38","667eb020a3f04ab26214dcd4","2025-07-02T10:32:52.183Z","","","","","","StressQ","","","","","","","","","","","","","","","","","","","","","","","","","","","","","","","","","","","","","","50"
"3050","","<div style=""width:500px;"">
  <p>What best describes how you currently feel?</p>
  </div>","56","html-slider-response","62","841355","0.0-10.0-4.4","52","1","2025-07-02 10:18:51","80fe4187154257d5fb01684ea91b68b9","154.56.232.95","Mozilla/5.0 (Windows NT 10.0; Win64; x64) AppleWebKit/537.36 (KHTML, like Gecko) Chrome/138.0.0.0 Safari/537.36","WebKit","Chrome","138.0.0.0","Windows","10.0","https://app.prolific.com/","en","667eb020a3f04ab26214dcd4","683db6dfa200031b80f2a654","6865075d2e1b9d2406b38e38","667eb020a3f04ab26214dcd4","2025-07-02T10:32:55.236Z","","","","","","MotivationQ","","","","","","","","","","","","","","","","","","","","","","","","","","","","","","","","","","","","","","50"
"","","","","ctl-task-cpt","63","882366","0.0-10.0-0.5","52","1","2025-07-02 10:18:51","80fe4187154257d5fb01684ea91b68b9","154.56.232.95","Mozilla/5.0 (Windows NT 10.0; Win64; x64) AppleWebKit/537.36 (KHTML, like Gecko) Chrome/138.0.0.0 Safari/537.36","WebKit","Chrome","138.0.0.0","Windows","10.0","https://app.prolific.com/","en","667eb020a3f04ab26214dcd4","683db6dfa200031b80f2a654","6865075d2e1b9d2406b38e38","667eb020a3f04ab26214dcd4","2025-07-02T10:33:36.246Z","","","","","","","","","","","","","","","","win-only","0","g1:NW,g2:SE","0.5","6","0","842142","5015.9","10025.5","37991.3","1","4","8","6","1","1","1","7","6","0.05303030303030303","1509.2","3000","590","[""left"",""up""]","{""num_key_presses"":8,""num_perfect"":4,""num_errors"":0,""num_randdir"":4,""num_randdir_good_moves"":2,""num_whilered"":0,""num_whileblue"":0,""num_blue"":2,""num_good_moves"":6}","[410.57142857142856,413.47767857142856,0.3,410.57142857142856,413.47767857142856,100.1,508.57142857142856,408.47767857142856,207.9,906.5714285714286,400.47767857142856,309.3,1098.5714285714287,357.47767857142856,415.1,1140.5714285714287,341.47767857142856,520.1,903.5714285714286,429.47767857142856,626,779.5714285714286,621.4776785714286,730.9,770.5714285714286,685.4776785714286,843.4,744.5714285714286,682.4776785714286,943.5,305.57142857142856,351.47767857142856,1045,179.57142857142856,232.47767857142856,1149.3,171.57142857142856,196.47767857142856,1249.7,104.57142857142857,124.47767857142857,1358.5,69.57142857142857,88.47767857142857,1458.9,68.57142857142857,87.47767857142857,1559.6,125.57142857142857,104.47767857142857,1664.4,933.5714285714286,223.47767857142856,1764.9,988.5714285714286,234.47767857142856,1865.1,1026.5714285714287,278.47767857142856,1973.8,1026.5714285714287,282.47767857142856,2074.8,1027.5714285714287,283.47767857142856,2179.6,1027.5714285714287,283.47767857142856,2279.8,1027.5714285714287,283.47767857142856,2380,1027.5714285714287,283.47767857142856,2486.2,1027.5714285714287,283.47767857142856,2592.8,1027.5714285714287,283.47767857142856,2694,1027.5714285714287,283.47767857142856,2794.6,1027.5714285714287,285.47767857142856,2894.8,1027.5714285714287,285.47767857142856,2999.6,1027.5714285714287,285.47767857142856,3099.8,1027.5714285714287,285.47767857142856,3209,1027.5714285714287,285.47767857142856,3309,1027.5714285714287,285.47767857142856,3412.1,1027.5714285714287,285.47767857142856,3514.6,1027.5714285714287,285.47767857142856,3615.7,1027.5714285714287,285.47767857142856,3719.6,1027.5714285714287,285.47767857142856,3825.1,1028.5714285714287,285.47767857142856,3929.9,1028.5714285714287,285.47767857142856,4029.9,1028.5714285714287,285.47767857142856,4142.4,1028.5714285714287,285.47767857142856,4245,1028.5714285714287,285.47767857142856,4349.4,1028.5714285714287,285.47767857142856,4450.1,1028.5714285714287,285.47767857142856,4558.6,1028.5714285714287,285.47767857142856,4659.5,1028.5714285714287,285.47767857142856,4759.9,1028.5714285714287,285.47767857142856,4864.8,1027.5714285714287,285.47767857142856,4964.8]","[1381.3,1381.3,1000,0,381.3,""oops"",""left"",""right"",""bad_move"",4281.3,2899.8,2549,1381.5,350.8,""smooth"",""left"",""left"",""good_move"",10515,6233.2,2332.7,7815.6,366.7,""oops"",""left"",""left"",""good_move"",16781.5,6266.3,2918.2,13485.5,377.8,""oops"",""up"",""left"",""good_move"",19731,2949.4,2595.5,16781.7,353.9,""smooth"",""up"",""up"",""good_move"",22815.7,3084.3,2710.3,19731.4,374,""oops"",""up"",""down"",""bad_move"",25504.3,2688.1,2353.1,22816.2,335,""smooth"",""up"",""up"",""good_move"",27847.9,2343.3,2005.3,25504.6,338,""smooth"",""up"",""up"",""good_move""]","",""
"3788","","<div style=""width:500px;"">
  <p>What determined the result of this run?</p>
  </div>","30","html-slider-response","64","886155","0.0-10.0-1.5","52","1","2025-07-02 10:18:51","80fe4187154257d5fb01684ea91b68b9","154.56.232.95","Mozilla/5.0 (Windows NT 10.0; Win64; x64) AppleWebKit/537.36 (KHTML, like Gecko) Chrome/138.0.0.0 Safari/537.36","WebKit","Chrome","138.0.0.0","Windows","10.0","https://app.prolific.com/","en","667eb020a3f04ab26214dcd4","683db6dfa200031b80f2a654","6865075d2e1b9d2406b38e38","667eb020a3f04ab26214dcd4","2025-07-02T10:33:40.035Z","","","","","","AttribQ","","","","","","","","","","","","","","","","","","","","","","","","","","","","","","","","","","","","","","50"
"2194","","<div style=""width:500px;"">
  <p>How much control did you have over the ball?</p>
  </div>","57","html-slider-response","65","888351","0.0-10.0-2.5","52","1","2025-07-02 10:18:51","80fe4187154257d5fb01684ea91b68b9","154.56.232.95","Mozilla/5.0 (Windows NT 10.0; Win64; x64) AppleWebKit/537.36 (KHTML, like Gecko) Chrome/138.0.0.0 Safari/537.36","WebKit","Chrome","138.0.0.0","Windows","10.0","https://app.prolific.com/","en","667eb020a3f04ab26214dcd4","683db6dfa200031b80f2a654","6865075d2e1b9d2406b38e38","667eb020a3f04ab26214dcd4","2025-07-02T10:33:42.231Z","","","","","","ControlQ","","","","","","","","","","","","","","","","","","","","","","","","","","","","","","","","","","","","","","50"
"2032","","<div style=""width:500px;"">
  <p>How would you describe your current emotional state?</p>
  </div>","54","html-slider-response","66","890386","0.0-10.0-3.5","52","1","2025-07-02 10:18:51","80fe4187154257d5fb01684ea91b68b9","154.56.232.95","Mozilla/5.0 (Windows NT 10.0; Win64; x64) AppleWebKit/537.36 (KHTML, like Gecko) Chrome/138.0.0.0 Safari/537.36","WebKit","Chrome","138.0.0.0","Windows","10.0","https://app.prolific.com/","en","667eb020a3f04ab26214dcd4","683db6dfa200031b80f2a654","6865075d2e1b9d2406b38e38","667eb020a3f04ab26214dcd4","2025-07-02T10:33:44.266Z","","","","","","StressQ","","","","","","","","","","","","","","","","","","","","","","","","","","","","","","","","","","","","","","50"
"2048","","<div style=""width:500px;"">
  <p>What best describes how you currently feel?</p>
  </div>","55","html-slider-response","67","892435","0.0-10.0-4.5","52","1","2025-07-02 10:18:51","80fe4187154257d5fb01684ea91b68b9","154.56.232.95","Mozilla/5.0 (Windows NT 10.0; Win64; x64) AppleWebKit/537.36 (KHTML, like Gecko) Chrome/138.0.0.0 Safari/537.36","WebKit","Chrome","138.0.0.0","Windows","10.0","https://app.prolific.com/","en","667eb020a3f04ab26214dcd4","683db6dfa200031b80f2a654","6865075d2e1b9d2406b38e38","667eb020a3f04ab26214dcd4","2025-07-02T10:33:46.315Z","","","","","","MotivationQ","","","","","","","","","","","","","","","","","","","","","","","","","","","","","","","","","","","","","","50"
"","","","","ctl-task-cpt","68","943615","0.0-10.0-0.6","52","1","2025-07-02 10:18:51","80fe4187154257d5fb01684ea91b68b9","154.56.232.95","Mozilla/5.0 (Windows NT 10.0; Win64; x64) AppleWebKit/537.36 (KHTML, like Gecko) Chrome/138.0.0.0 Safari/537.36","WebKit","Chrome","138.0.0.0","Windows","10.0","https://app.prolific.com/","en","667eb020a3f04ab26214dcd4","683db6dfa200031b80f2a654","6865075d2e1b9d2406b38e38","667eb020a3f04ab26214dcd4","2025-07-02T10:34:37.495Z","","","","","","","","","","","","","","","","win-only","0","g1:NW,g2:SE","0.4","7","0","893222.9","1630.3","6632.1","48160.9","1","4","8","6","1","-1","-2","5","7","0.03787878787878788","1437.2","3000","-2515","[""left"",""up""]","{""num_key_presses"":10,""num_perfect"":4,""num_errors"":1,""num_randdir"":5,""num_randdir_good_moves"":2,""num_whilered"":0,""num_whileblue"":0,""num_blue"":4,""num_good_moves"":6}","[418.57142857142856,418.47767857142856,0.2,418.57142857142856,418.47767857142856,100.3,418.57142857142856,418.47767857142856,205.1,418.57142857142856,418.47767857142856,305.2,418.57142857142856,418.47767857142856,405.5,528.5714285714286,417.47767857142856,513,623.5714285714286,404.47767857142856,615.1,589.5714285714286,395.47767857142856,720.7,550.5714285714286,391.47767857142856,829.9,495.57142857142856,366.47767857142856,930.9,136.57142857142856,190.47767857142856,1031.1,91.57142857142857,151.47767857142856,1131.3,69.57142857142857,136.47767857142856,1235.5,69.57142857142857,106.47767857142857,1340.7,72.57142857142857,95.47767857142857,1442.4,72.57142857142857,96.47767857142857,1542.6,308.57142857142856,141.47767857142856,1642.6,864.5714285714286,195.47767857142856,1746,865.5714285714286,197.47767857142856,1847.6,842.5714285714286,210.47767857142856,1948.4,840.5714285714286,214.47767857142856,2048.7,868.5714285714286,229.47767857142856,2150.1,920.5714285714286,243.47767857142856,2250.9,938.5714285714286,253.47767857142856,2350.9,938.5714285714286,253.47767857142856,2455.6,938.5714285714286,253.47767857142856,2563.7,938.5714285714286,253.47767857142856,2665.9,938.5714285714286,253.47767857142856,2770.1,938.5714285714286,253.47767857142856,2879.8,938.5714285714286,253.47767857142856,2980.6,938.5714285714286,253.47767857142856,3080.6,938.5714285714286,253.47767857142856,3181.7,938.5714285714286,253.47767857142856,3285.4,938.5714285714286,253.47767857142856,3398,938.5714285714286,253.47767857142856,3498,938.5714285714286,253.47767857142856,3600.2,940.5714285714286,253.47767857142856,3700.4,940.5714285714286,253.47767857142856,3813.8,940.5714285714286,253.47767857142856,3913.8,940.5714285714286,253.47767857142856,4014.8,940.5714285714286,253.47767857142856,4116.3,940.5714285714286,253.47767857142856,4219.9,940.5714285714286,253.47767857142856,4320.2,940.5714285714286,253.47767857142856,4431.3,940.5714285714286,253.47767857142856,4531.4,940.5714285714286,253.47767857142856,4636.1,939.5714285714286,253.47767857142856,4748,939.5714285714286,253.47767857142856,4852.7,939.5714285714286,253.47767857142856,4964]","[4463.9,4463.9,2025.8,2014.1,424,""oops"",""left"",""right"",""bad_move"",6610.1,2146,1818.8,4464.1,327.2,""smooth"",""left"",""left"",""good_move"",13194.7,6584.2,2539.9,10312.5,342.3,""smooth"",""left"",""left"",""good_move"",16217,3022.2,2704.2,13194.8,318,""oops"",""up"",""left"",""good_move"",19064.3,2847.1,2522.1,16217.2,325,""oops"",""up"",""right"",""bad_move"",19176.9,112.4,2907.9,19064.5,-2795.5,""error"",""-"",""-"",""no_move"",26096.3,6919.1,2384.6,23343.2,368.5,""oops"",""up"",""up"",""good_move"",32528.4,6431.9,2526.8,29633.4,368.2,""smooth"",""left"",""left"",""good_move"",34896.2,2367.6,1856.8,32528.6,510.8,""oops"",""up"",""down"",""bad_move"",37784.6,2888.2,2584.9,34896.5,303.3,""smooth"",""up"",""up"",""good_move""]","",""
"3298","","<div style=""width:500px;"">
  <p>What determined the result of this run?</p>
  </div>","15","html-slider-response","69","946913","0.0-10.0-1.6","52","1","2025-07-02 10:18:51","80fe4187154257d5fb01684ea91b68b9","154.56.232.95","Mozilla/5.0 (Windows NT 10.0; Win64; x64) AppleWebKit/537.36 (KHTML, like Gecko) Chrome/138.0.0.0 Safari/537.36","WebKit","Chrome","138.0.0.0","Windows","10.0","https://app.prolific.com/","en","667eb020a3f04ab26214dcd4","683db6dfa200031b80f2a654","6865075d2e1b9d2406b38e38","667eb020a3f04ab26214dcd4","2025-07-02T10:34:40.793Z","","","","","","AttribQ","","","","","","","","","","","","","","","","","","","","","","","","","","","","","","","","","","","","","","50"
"2898","","<div style=""width:500px;"">
  <p>How much control did you have over the ball?</p>
  </div>","34","html-slider-response","70","949812","0.0-10.0-2.6","52","1","2025-07-02 10:18:51","80fe4187154257d5fb01684ea91b68b9","154.56.232.95","Mozilla/5.0 (Windows NT 10.0; Win64; x64) AppleWebKit/537.36 (KHTML, like Gecko) Chrome/138.0.0.0 Safari/537.36","WebKit","Chrome","138.0.0.0","Windows","10.0","https://app.prolific.com/","en","667eb020a3f04ab26214dcd4","683db6dfa200031b80f2a654","6865075d2e1b9d2406b38e38","667eb020a3f04ab26214dcd4","2025-07-02T10:34:43.692Z","","","","","","ControlQ","","","","","","","","","","","","","","","","","","","","","","","","","","","","","","","","","","","","","","50"
"1840","","<div style=""width:500px;"">
  <p>How would you describe your current emotional state?</p>
  </div>","92","html-slider-response","71","951653","0.0-10.0-3.6","52","1","2025-07-02 10:18:51","80fe4187154257d5fb01684ea91b68b9","154.56.232.95","Mozilla/5.0 (Windows NT 10.0; Win64; x64) AppleWebKit/537.36 (KHTML, like Gecko) Chrome/138.0.0.0 Safari/537.36","WebKit","Chrome","138.0.0.0","Windows","10.0","https://app.prolific.com/","en","667eb020a3f04ab26214dcd4","683db6dfa200031b80f2a654","6865075d2e1b9d2406b38e38","667eb020a3f04ab26214dcd4","2025-07-02T10:34:45.533Z","","","","","","StressQ","","","","","","","","","","","","","","","","","","","","","","","","","","","","","","","","","","","","","","50"
"54884","","<div style=""width:500px;"">
  <p>What best describes how you currently feel?</p>
  </div>","63","html-slider-response","72","1006539","0.0-10.0-4.6","52","1","2025-07-02 10:18:51","80fe4187154257d5fb01684ea91b68b9","154.56.232.95","Mozilla/5.0 (Windows NT 10.0; Win64; x64) AppleWebKit/537.36 (KHTML, like Gecko) Chrome/138.0.0.0 Safari/537.36","WebKit","Chrome","138.0.0.0","Windows","10.0","https://app.prolific.com/","en","667eb020a3f04ab26214dcd4","683db6dfa200031b80f2a654","6865075d2e1b9d2406b38e38","667eb020a3f04ab26214dcd4","2025-07-02T10:35:40.419Z","","","","","","MotivationQ","","","","","","","","","","","","","","","","","","","","","","","","","","","","","","","","","","","","","","50"
"","","","","ctl-task-cpt","73","1051965","0.0-10.0-0.7","52","1","2025-07-02 10:18:51","80fe4187154257d5fb01684ea91b68b9","154.56.232.95","Mozilla/5.0 (Windows NT 10.0; Win64; x64) AppleWebKit/537.36 (KHTML, like Gecko) Chrome/138.0.0.0 Safari/537.36","WebKit","Chrome","138.0.0.0","Windows","10.0","https://app.prolific.com/","en","667eb020a3f04ab26214dcd4","683db6dfa200031b80f2a654","6865075d2e1b9d2406b38e38","667eb020a3f04ab26214dcd4","2025-07-02T10:36:25.846Z","","","","","","","","","","","","","","","","win-only","1","g1:NE,g2:SW","0.3","8","0","1007326.3","2053.3","7056.2","42410.3","1","4","4","6","1","-1","-1","4","5","0.030303030303030304","1540.6","3000","-2545","[""up"",""right""]","{""num_key_presses"":9,""num_perfect"":3,""num_errors"":0,""num_randdir"":6,""num_randdir_good_moves"":1,""num_whilered"":0,""num_whileblue"":0,""num_blue"":2,""num_good_moves"":4}","[420.57142857142856,416.47767857142856,0.2,422.57142857142856,415.47767857142856,103,422.57142857142856,415.47767857142856,204.6,422.57142857142856,415.47767857142856,306.3,422.57142857142856,415.47767857142856,407.7,422.57142857142856,415.47767857142856,520.9,430.57142857142856,411.47767857142856,622.6,463.57142857142856,393.47767857142856,727,606.5714285714286,236.47767857142856,827.2,717.5714285714286,111.47767857142857,928.3,715.5714285714286,138.47767857142856,1029.1,675.5714285714286,209.47767857142856,1133.1,655.5714285714286,226.47767857142856,1237.1,687.5714285714286,161.47767857142856,1337.3,719.5714285714286,115.47767857142857,1437.5,724.5714285714286,113.47767857142857,1548.2,722.5714285714286,113.47767857142857,1653.5,720.5714285714286,159.47767857142856,1757.5,704.5714285714286,269.47767857142856,1857.7,689.5714285714286,294.47767857142856,1963.5,716.5714285714286,291.47767857142856,2069.8,993.5714285714286,291.47767857142856,2171.4,994.5714285714286,291.47767857142856,2272.4,963.5714285714286,293.47767857142856,2377.1,966.5714285714286,290.47767857142856,2477.2,978.5714285714286,271.47767857142856,2577.3,978.5714285714286,267.47767857142856,2677.5,978.5714285714286,267.47767857142856,2787,977.5714285714286,267.47767857142856,2887,977.5714285714286,267.47767857142856,2992.2,977.5714285714286,268.47767857142856,3092.7,977.5714285714286,268.47767857142856,3197.1,977.5714285714286,268.47767857142856,3297.8,977.5714285714286,268.47767857142856,3402.6,977.5714285714286,268.47767857142856,3502.7,977.5714285714286,268.47767857142856,3603.3,977.5714285714286,268.47767857142856,3704.1,977.5714285714286,268.47767857142856,3807.2,977.5714285714286,268.47767857142856,3920.1,979.5714285714286,268.47767857142856,4020.8,979.5714285714286,268.47767857142856,4121.1,979.5714285714286,268.47767857142856,4222.2,979.5714285714286,268.47767857142856,4322.3,979.5714285714286,268.47767857142856,4422.4,979.5714285714286,268.47767857142856,4522.7,979.5714285714286,268.47767857142856,4627.3,979.5714285714286,268.47767857142856,4727.3,979.5714285714286,268.47767857142856,4827.7,979.5714285714286,268.47767857142856,4936.4]","[1501,1501,1000,0,501,""oops"",""right"",""right"",""good_move"",4799.8,3298.7,2946.4,1501.2,352.3,""oops"",""up"",""down"",""bad_move"",8065.6,3265.3,2934.2,4800.3,331.1,""oops"",""up"",""left"",""bad_move"",11866.1,3800.2,3461.5,8065.9,338.7,""smooth"",""up"",""up"",""good_move"",14568.2,2701.8,2397.4,11866.4,304.4,""smooth"",""right"",""right"",""good_move"",17721.2,3152.9,2858.1,14568.3,294.8,""smooth"",""up"",""up"",""good_move"",19937.2,2215.9,1896.7,17721.3,319.2,""oops"",""up"",""down"",""bad_move"",22056.9,2119.5,1700.9,19937.4,418.6,""oops"",""up"",""left"",""bad_move"",25033,2975.8,2645.2,22057.2,330.6,""oops"",""up"",""left"",""bad_move""]","",""
"2738","","<div style=""width:500px;"">
  <p>What determined the result of this run?</p>
  </div>","9","html-slider-response","74","1054705","0.0-10.0-1.7","52","1","2025-07-02 10:18:51","80fe4187154257d5fb01684ea91b68b9","154.56.232.95","Mozilla/5.0 (Windows NT 10.0; Win64; x64) AppleWebKit/537.36 (KHTML, like Gecko) Chrome/138.0.0.0 Safari/537.36","WebKit","Chrome","138.0.0.0","Windows","10.0","https://app.prolific.com/","en","667eb020a3f04ab26214dcd4","683db6dfa200031b80f2a654","6865075d2e1b9d2406b38e38","667eb020a3f04ab26214dcd4","2025-07-02T10:36:28.585Z","","","","","","AttribQ","","","","","","","","","","","","","","","","","","","","","","","","","","","","","","","","","","","","","","50"
"2052","","<div style=""width:500px;"">
  <p>How much control did you have over the ball?</p>
  </div>","16","html-slider-response","75","1056758","0.0-10.0-2.7","52","1","2025-07-02 10:18:51","80fe4187154257d5fb01684ea91b68b9","154.56.232.95","Mozilla/5.0 (Windows NT 10.0; Win64; x64) AppleWebKit/537.36 (KHTML, like Gecko) Chrome/138.0.0.0 Safari/537.36","WebKit","Chrome","138.0.0.0","Windows","10.0","https://app.prolific.com/","en","667eb020a3f04ab26214dcd4","683db6dfa200031b80f2a654","6865075d2e1b9d2406b38e38","667eb020a3f04ab26214dcd4","2025-07-02T10:36:30.638Z","","","","","","ControlQ","","","","","","","","","","","","","","","","","","","","","","","","","","","","","","","","","","","","","","50"
"1724","","<div style=""width:500px;"">
  <p>How would you describe your current emotional state?</p>
  </div>","82","html-slider-response","76","1058484","0.0-10.0-3.7","52","1","2025-07-02 10:18:51","80fe4187154257d5fb01684ea91b68b9","154.56.232.95","Mozilla/5.0 (Windows NT 10.0; Win64; x64) AppleWebKit/537.36 (KHTML, like Gecko) Chrome/138.0.0.0 Safari/537.36","WebKit","Chrome","138.0.0.0","Windows","10.0","https://app.prolific.com/","en","667eb020a3f04ab26214dcd4","683db6dfa200031b80f2a654","6865075d2e1b9d2406b38e38","667eb020a3f04ab26214dcd4","2025-07-02T10:36:32.364Z","","","","","","StressQ","","","","","","","","","","","","","","","","","","","","","","","","","","","","","","","","","","","","","","50"
"2852","","<div style=""width:500px;"">
  <p>What best describes how you currently feel?</p>
  </div>","75","html-slider-response","77","1061340","0.0-10.0-4.7","52","1","2025-07-02 10:18:51","80fe4187154257d5fb01684ea91b68b9","154.56.232.95","Mozilla/5.0 (Windows NT 10.0; Win64; x64) AppleWebKit/537.36 (KHTML, like Gecko) Chrome/138.0.0.0 Safari/537.36","WebKit","Chrome","138.0.0.0","Windows","10.0","https://app.prolific.com/","en","667eb020a3f04ab26214dcd4","683db6dfa200031b80f2a654","6865075d2e1b9d2406b38e38","667eb020a3f04ab26214dcd4","2025-07-02T10:36:35.220Z","","","","","","MotivationQ","","","","","","","","","","","","","","","","","","","","","","","","","","","","","","","","","","","","","","50"
"","","","","ctl-task-cpt","78","1079735","0.0-10.0-0.8","52","1","2025-07-02 10:18:51","80fe4187154257d5fb01684ea91b68b9","154.56.232.95","Mozilla/5.0 (Windows NT 10.0; Win64; x64) AppleWebKit/537.36 (KHTML, like Gecko) Chrome/138.0.0.0 Safari/537.36","WebKit","Chrome","138.0.0.0","Windows","10.0","https://app.prolific.com/","en","667eb020a3f04ab26214dcd4","683db6dfa200031b80f2a654","6865075d2e1b9d2406b38e38","667eb020a3f04ab26214dcd4","2025-07-02T10:36:53.615Z","","","","","","","","","","","","","","","","win-only","3","g1:SW,g2:NE","0.4","9","0","1062127.9","1087.8","6090.6","15375.8","1","4","8","6","1","1","1","5","4","0.03787878787878788","2385.7","3000","1840","[""down"",""left""]","{""num_key_presses"":4,""num_perfect"":2,""num_errors"":0,""num_randdir"":2,""num_randdir_good_moves"":2,""num_whilered"":0,""num_whileblue"":0,""num_blue"":0,""num_good_moves"":4}","[410.57142857142856,418.47767857142856,0.1,410.57142857142856,418.47767857142856,103,415.57142857142856,418.47767857142856,207.9,519.5714285714286,372.47767857142856,318.3,523.5714285714286,365.47767857142856,418.3,523.5714285714286,364.47767857142856,522.5,523.5714285714286,365.47767857142856,636.4,523.5714285714286,367.47767857142856,737.6,523.5714285714286,369.47767857142856,838.1,523.5714285714286,369.47767857142856,952.4,521.5714285714286,373.47767857142856,1053.4,518.5714285714286,376.47767857142856,1157.8,479.57142857142856,435.47767857142856,1263.2,445.57142857142856,485.47767857142856,1367.3,386.57142857142856,534.4776785714286,1468.5,374.57142857142856,537.4776785714286,1572.8,356.57142857142856,503.47767857142856,1678.5,318.57142857142856,524.4776785714286,1784.1,144.57142857142856,706.4776785714286,1887.8,91.57142857142857,757.4776785714286,2001.7,68.57142857142857,772.4776785714286,2102.4,66.57142857142857,773.4776785714286,2202.9,66.57142857142857,773.4776785714286,2308.4,65.57142857142857,773.4776785714286,2419.5,65.57142857142857,774.4776785714286,2522.7,509.57142857142856,692.4776785714286,2628.6,802.5714285714286,586.4776785714286,2734.1,809.5714285714286,572.4776785714286,2837.9,809.5714285714286,572.4776785714286,2942.7,809.5714285714286,572.4776785714286,3042.7,809.5714285714286,572.4776785714286,3153,809.5714285714286,572.4776785714286,3257.8,809.5714285714286,572.4776785714286,3368.5,809.5714285714286,572.4776785714286,3469,809.5714285714286,572.4776785714286,3573.1,809.5714285714286,570.4776785714286,3686.4,809.5714285714286,570.4776785714286,3786.8,809.5714285714286,570.4776785714286,3886.8,809.5714285714286,570.4776785714286,3988,809.5714285714286,570.4776785714286,4101.6,809.5714285714286,570.4776785714286,4203,809.5714285714286,570.4776785714286,4303.2,809.5714285714286,570.4776785714286,4408,809.5714285714286,570.4776785714286,4508.3,809.5714285714286,571.4776785714286,4617.2,809.5714285714286,571.4776785714286,4717.5,809.5714285714286,571.4776785714286,4818.9,809.5714285714286,571.4776785714286,4922.7]","[1397.3,1397.3,1000,0,397.3,""oops"",""left"",""left"",""good_move"",3681.6,2284.1,1939.2,1397.5,344.9,""smooth"",""down"",""down"",""good_move"",6330.9,2648.9,2288.5,3682,360.4,""oops"",""left"",""down"",""good_move"",9172.9,2842,2473.3,6331,368.7,""smooth"",""left"",""left"",""good_move""]","",""
"1580","","<div style=""width:500px;"">
  <p>What determined the result of this run?</p>
  </div>","72","html-slider-response","79","1081317","0.0-10.0-1.8","52","1","2025-07-02 10:18:51","80fe4187154257d5fb01684ea91b68b9","154.56.232.95","Mozilla/5.0 (Windows NT 10.0; Win64; x64) AppleWebKit/537.36 (KHTML, like Gecko) Chrome/138.0.0.0 Safari/537.36","WebKit","Chrome","138.0.0.0","Windows","10.0","https://app.prolific.com/","en","667eb020a3f04ab26214dcd4","683db6dfa200031b80f2a654","6865075d2e1b9d2406b38e38","667eb020a3f04ab26214dcd4","2025-07-02T10:36:55.197Z","","","","","","AttribQ","","","","","","","","","","","","","","","","","","","","","","","","","","","","","","","","","","","","","","50"
"2314","","<div style=""width:500px;"">
  <p>How much control did you have over the ball?</p>
  </div>","69","html-slider-response","80","1083633","0.0-10.0-2.8","52","1","2025-07-02 10:18:51","80fe4187154257d5fb01684ea91b68b9","154.56.232.95","Mozilla/5.0 (Windows NT 10.0; Win64; x64) AppleWebKit/537.36 (KHTML, like Gecko) Chrome/138.0.0.0 Safari/537.36","WebKit","Chrome","138.0.0.0","Windows","10.0","https://app.prolific.com/","en","667eb020a3f04ab26214dcd4","683db6dfa200031b80f2a654","6865075d2e1b9d2406b38e38","667eb020a3f04ab26214dcd4","2025-07-02T10:36:57.513Z","","","","","","ControlQ","","","","","","","","","","","","","","","","","","","","","","","","","","","","","","","","","","","","","","50"
"1390","","<div style=""width:500px;"">
  <p>How would you describe your current emotional state?</p>
  </div>","16","html-slider-response","81","1085023","0.0-10.0-3.8","52","1","2025-07-02 10:18:51","80fe4187154257d5fb01684ea91b68b9","154.56.232.95","Mozilla/5.0 (Windows NT 10.0; Win64; x64) AppleWebKit/537.36 (KHTML, like Gecko) Chrome/138.0.0.0 Safari/537.36","WebKit","Chrome","138.0.0.0","Windows","10.0","https://app.prolific.com/","en","667eb020a3f04ab26214dcd4","683db6dfa200031b80f2a654","6865075d2e1b9d2406b38e38","667eb020a3f04ab26214dcd4","2025-07-02T10:36:58.903Z","","","","","","StressQ","","","","","","","","","","","","","","","","","","","","","","","","","","","","","","","","","","","","","","50"
"25581","","<div style=""width:500px;"">
  <p>What best describes how you currently feel?</p>
  </div>","75","html-slider-response","82","1110605","0.0-10.0-4.8","52","1","2025-07-02 10:18:51","80fe4187154257d5fb01684ea91b68b9","154.56.232.95","Mozilla/5.0 (Windows NT 10.0; Win64; x64) AppleWebKit/537.36 (KHTML, like Gecko) Chrome/138.0.0.0 Safari/537.36","WebKit","Chrome","138.0.0.0","Windows","10.0","https://app.prolific.com/","en","667eb020a3f04ab26214dcd4","683db6dfa200031b80f2a654","6865075d2e1b9d2406b38e38","667eb020a3f04ab26214dcd4","2025-07-02T10:37:24.485Z","","","","","","MotivationQ","","","","","","","","","","","","","","","","","","","","","","","","","","","","","","","","","","","","","","50"
"","","","","ctl-task-cpt","83","1146439","0.0-10.0-0.9","52","1","2025-07-02 10:18:51","80fe4187154257d5fb01684ea91b68b9","154.56.232.95","Mozilla/5.0 (Windows NT 10.0; Win64; x64) AppleWebKit/537.36 (KHTML, like Gecko) Chrome/138.0.0.0 Safari/537.36","WebKit","Chrome","138.0.0.0","Windows","10.0","https://app.prolific.com/","en","667eb020a3f04ab26214dcd4","683db6dfa200031b80f2a654","6865075d2e1b9d2406b38e38","667eb020a3f04ab26214dcd4","2025-07-02T10:38:00.319Z","","","","","","","","","","","","","","","","win-only","2","g1:SE,g2:NW","0.5","10","0","1111391.1","974.2","5975.6","32815.2","1","4","4","6","1","-1","-1","4","5","0.030303030303030304","2702.6","3000","-2675","[""down"",""right""]","{""num_key_presses"":8,""num_perfect"":4,""num_errors"":0,""num_randdir"":4,""num_randdir_good_moves"":1,""num_whilered"":0,""num_whileblue"":0,""num_blue"":1,""num_good_moves"":5}","[423.57142857142856,413.47767857142856,0.4,423.57142857142856,413.47767857142856,102.6,423.57142857142856,413.47767857142856,206.8,430.57142857142856,426.47767857142856,311.2,430.57142857142856,428.47767857142856,413,430.57142857142856,427.47767857142856,521.4,442.57142857142856,395.47767857142856,621.9,437.57142857142856,383.47767857142856,721.9,436.57142857142856,382.47767857142856,827.3,436.57142857142856,382.47767857142856,932.8,434.57142857142856,382.47767857142856,1033.4,441.57142857142856,376.47767857142856,1135.8,441.57142857142856,376.47767857142856,1236.4,439.57142857142856,372.47767857142856,1336.5,447.57142857142856,347.47767857142856,1436.7,449.57142857142856,344.47767857142856,1536.8,450.57142857142856,344.47767857142856,1642.3,455.57142857142856,352.47767857142856,1747,451.57142857142856,350.47767857142856,1851.1,444.57142857142856,349.47767857142856,1956.9,446.57142857142856,340.47767857142856,2062.1,446.57142857142856,339.47767857142856,2167.1,446.57142857142856,339.47767857142856,2272.4,624.5714285714286,564.4776785714286,2372.6,711.5714285714286,702.4776785714286,2477.1,729.5714285714286,730.4776785714286,2581.1,760.5714285714286,769.4776785714286,2682.6,760.5714285714286,769.4776785714286,2786.7,762.5714285714286,767.4776785714286,2892.3,941.5714285714286,492.47767857142856,2997.7,1027.5714285714287,378.47767857142856,3101.9,1034.5714285714287,388.47767857142856,3207.1,1037.5714285714287,404.47767857142856,3311.7,1037.5714285714287,406.47767857142856,3412,1036.5714285714287,406.47767857142856,3512.8,1036.5714285714287,406.47767857142856,3617.7,1036.5714285714287,406.47767857142856,3721.5,1036.5714285714287,406.47767857142856,3822.4,1036.5714285714287,406.47767857142856,3926.6,1036.5714285714287,406.47767857142856,4027.1,1036.5714285714287,406.47767857142856,4131.7,1036.5714285714287,406.47767857142856,4235.7,1036.5714285714287,406.47767857142856,4336.1,1036.5714285714287,406.47767857142856,4436.2,1036.5714285714287,406.47767857142856,4541.5,1036.5714285714287,406.47767857142856,4641.5,1036.5714285714287,406.47767857142856,4744.2,1036.5714285714287,406.47767857142856,4851,1036.5714285714287,406.47767857142856,4951.7]","[1472,1472,1000,0,472,""smooth"",""right"",""right"",""good_move"",4736.1,3263.8,2885,1472.3,378.8,""oops"",""down"",""down"",""good_move"",8097.2,3360.9,2853.4,4736.3,507.5,""smooth"",""down"",""down"",""good_move"",10010.9,1913.6,1538.6,8097.3,375,""oops"",""right"",""up"",""bad_move"",16288.7,6277.4,2180,13724.8,383.9,""smooth"",""down"",""down"",""good_move"",18751.9,2463.1,2113.8,16288.8,349.3,""oops"",""right"",""left"",""bad_move"",22185.2,3433,3167.5,18752.2,265.5,""smooth"",""right"",""right"",""good_move"",24816.3,2630.6,2297.9,22185.7,332.7,""oops"",""right"",""up"",""bad_move""]","",""
"27294","","<div style=""width:500px;"">
  <p>What determined the result of this run?</p>
  </div>","26","html-slider-response","84","1173736","0.0-10.0-1.9","52","1","2025-07-02 10:18:51","80fe4187154257d5fb01684ea91b68b9","154.56.232.95","Mozilla/5.0 (Windows NT 10.0; Win64; x64) AppleWebKit/537.36 (KHTML, like Gecko) Chrome/138.0.0.0 Safari/537.36","WebKit","Chrome","138.0.0.0","Windows","10.0","https://app.prolific.com/","en","667eb020a3f04ab26214dcd4","683db6dfa200031b80f2a654","6865075d2e1b9d2406b38e38","667eb020a3f04ab26214dcd4","2025-07-02T10:38:27.616Z","","","","","","AttribQ","","","","","","","","","","","","","","","","","","","","","","","","","","","","","","","","","","","","","","50"
"3052","","<div style=""width:500px;"">
  <p>How much control did you have over the ball?</p>
  </div>","36","html-slider-response","85","1176793","0.0-10.0-2.9","52","1","2025-07-02 10:18:51","80fe4187154257d5fb01684ea91b68b9","154.56.232.95","Mozilla/5.0 (Windows NT 10.0; Win64; x64) AppleWebKit/537.36 (KHTML, like Gecko) Chrome/138.0.0.0 Safari/537.36","WebKit","Chrome","138.0.0.0","Windows","10.0","https://app.prolific.com/","en","667eb020a3f04ab26214dcd4","683db6dfa200031b80f2a654","6865075d2e1b9d2406b38e38","667eb020a3f04ab26214dcd4","2025-07-02T10:38:30.673Z","","","","","","ControlQ","","","","","","","","","","","","","","","","","","","","","","","","","","","","","","","","","","","","","","50"
"5601","","<div style=""width:500px;"">
  <p>How would you describe your current emotional state?</p>
  </div>","58","html-slider-response","86","1182398","0.0-10.0-3.9","52","1","2025-07-02 10:18:51","80fe4187154257d5fb01684ea91b68b9","154.56.232.95","Mozilla/5.0 (Windows NT 10.0; Win64; x64) AppleWebKit/537.36 (KHTML, like Gecko) Chrome/138.0.0.0 Safari/537.36","WebKit","Chrome","138.0.0.0","Windows","10.0","https://app.prolific.com/","en","667eb020a3f04ab26214dcd4","683db6dfa200031b80f2a654","6865075d2e1b9d2406b38e38","667eb020a3f04ab26214dcd4","2025-07-02T10:38:36.278Z","","","","","","StressQ","","","","","","","","","","","","","","","","","","","","","","","","","","","","","","","","","","","","","","50"
"1982","","<div style=""width:500px;"">
  <p>What best describes how you currently feel?</p>
