"rt","response_timestamp","stimulus","response","trial_type","trial_index","time_elapsed","internal_node_id","run_id","condition","recorded_at","source_code_version","ip","user_agent","device","browser","browser_version","platform","platform_version","referer","accept_language","PROLIFIC_PID","STUDY_ID","SESSION_ID","prolific_id","realtime","view_history","question_order","consent","success","question_id","eventType","responses","item_order","radio_event_ids","radio_event_times","key_event_times","mouse_event_times","straightlining","zigzagging","honeypot","which_type","canvas_config","goals_layout","control_level","trial_number","tutorial_trial_number","trial_start_time","phase1_start_time","phase2_start_time","phase3_start_time","goal_1_value","goal_1_distance","goal_2_value","goal_2_distance","goal_selected","outcome","outcome_total","participant_final_score","participant_initial_score","participant_final_score_prop","goal_choice_rt","allocated_time","allocated_time_remaining","goal_direction","counts","mouse_movements","key_presses"
"21501","1751451553724","<p style='font-size:40px;line-height:1.25'><strong>Welcome to the experiment!</strong></p><p style='font-size:1.1em;line-height:1.25'>Thank you for your interest in our experiment! Before you begin, it is important that we obtain your informed consent to participate in the study.</p><p style='font-size:1.1em;line-height:1.25'>On the next screen will be an <strong>information sheet</strong> for you to read. To participate in the study we need you to read this information sheet and the following consent form carefully. If you agree with all the statements, please click the <strong>I agree</strong> button.</p><p style='font-size:1.1em;line-height:1.25'>Press <strong>Next</strong> to read the information sheet.</p>","0","custom-html-button-response","0","21515","0.0-0.0","53","1","2025-07-02 10:18:52","80fe4187154257d5fb01684ea91b68b9","41.13.17.237","Mozilla/5.0 (X11; Linux x86_64) AppleWebKit/537.36 (KHTML, like Gecko) Chrome/137.0.0.0 Safari/537.36","WebKit","Chrome","137.0.0.0","Linux","","https://app.prolific.com/","en-US,en;q=0.9,st;q=0.8","66826c452acc243fa7b92f51","683db6dfa200031b80f2a654","6865075bf069321cf23b7293","66826c452acc243fa7b92f51","2025-07-02T10:19:13.741Z","","","","","","","","","","","","","","","","","","","","","","","","","","","","","","","","","","","","","","","","","",""
"14255","","","","instructions","1","35789","0.0-1.0","53","1","2025-07-02 10:18:52","80fe4187154257d5fb01684ea91b68b9","41.13.17.237","Mozilla/5.0 (X11; Linux x86_64) AppleWebKit/537.36 (KHTML, like Gecko) Chrome/137.0.0.0 Safari/537.36","WebKit","Chrome","137.0.0.0","Linux","","https://app.prolific.com/","en-US,en;q=0.9,st;q=0.8","66826c452acc243fa7b92f51","683db6dfa200031b80f2a654","6865075bf069321cf23b7293","66826c452acc243fa7b92f51","","[{""page_index"":0,""viewing_time"":8895},{""page_index"":1,""viewing_time"":5357}]","","","","","","","","","","","","","","","","","","","","","","","","","","","","","","","","","","","","","","","","",""
"3362","","","{""Q0"":"""",""Q1"":"""",""Q2"":"""",""Q3"":"""",""Q4"":"""",""Q5"":"""",""Q6"":""I agree""}","survey-multi-choice","2","39170","0.0-2.0","53","1","2025-07-02 10:18:52","80fe4187154257d5fb01684ea91b68b9","41.13.17.237","Mozilla/5.0 (X11; Linux x86_64) AppleWebKit/537.36 (KHTML, like Gecko) Chrome/137.0.0.0 Safari/537.36","WebKit","Chrome","137.0.0.0","Linux","","https://app.prolific.com/","en-US,en;q=0.9,st;q=0.8","66826c452acc243fa7b92f51","683db6dfa200031b80f2a654","6865075bf069321cf23b7293","66826c452acc243fa7b92f51","","","[0,1,2,3,4,5,6]","true","","","","","","","","","","","","","","","","","","","","","","","","","","","","","","","","","","","","","","",""
"8895","","","","fullscreen","3","49088","0.0-4.0","53","1","2025-07-02 10:18:52","80fe4187154257d5fb01684ea91b68b9","41.13.17.237","Mozilla/5.0 (X11; Linux x86_64) AppleWebKit/537.36 (KHTML, like Gecko) Chrome/137.0.0.0 Safari/537.36","WebKit","Chrome","137.0.0.0","Linux","","https://app.prolific.com/","en-US,en;q=0.9,st;q=0.8","66826c452acc243fa7b92f51","683db6dfa200031b80f2a654","6865075bf069321cf23b7293","66826c452acc243fa7b92f51","","","","","true","","","","","","","","","","","","","","","","","","","","","","","","","","","","","","","","","","","","","",""
"3742","1751451585055"," <p style='font-size:1.1em;line-height:1.25'>Thank you for completing the consent form and closing all other tabs.</p><p style='font-size:1.1em;line-height:1.25'>We will now invite you to fill in some demographic information and questionnaires, before starting the game.<br>This will take about 5 minutes.<br></p><p style='font-size:1.1em;line-height:1.25'>Press the <strong>Next</strong> button to continue.</p>","0","custom-html-button-response","4","52838","0.0-5.0","53","1","2025-07-02 10:18:52","80fe4187154257d5fb01684ea91b68b9","41.13.17.237","Mozilla/5.0 (X11; Linux x86_64) AppleWebKit/537.36 (KHTML, like Gecko) Chrome/137.0.0.0 Safari/537.36","WebKit","Chrome","137.0.0.0","Linux","","https://app.prolific.com/","en-US,en;q=0.9,st;q=0.8","66826c452acc243fa7b92f51","683db6dfa200031b80f2a654","6865075bf069321cf23b7293","66826c452acc243fa7b92f51","2025-07-02T10:19:45.058Z","","","","","","","","","","","","","","","","","","","","","","","","","","","","","","","","","","","","","","","","","",""
"8563","","","{""age"":""30""}","survey-text","5","61417","0.0-6.0-0.0","53","1","2025-07-02 10:18:52","80fe4187154257d5fb01684ea91b68b9","41.13.17.237","Mozilla/5.0 (X11; Linux x86_64) AppleWebKit/537.36 (KHTML, like Gecko) Chrome/137.0.0.0 Safari/537.36","WebKit","Chrome","137.0.0.0","Linux","","https://app.prolific.com/","en-US,en;q=0.9,st;q=0.8","66826c452acc243fa7b92f51","683db6dfa200031b80f2a654","6865075bf069321cf23b7293","66826c452acc243fa7b92f51","","","","","","0","demographics","","","","","","","","","","","","","","","","","","","","","","","","","","","","","","","","","","","",""
"3151","","","{""gender_identity"":""male/man""}","survey-multi-choice","6","64574","0.0-6.0-1.0","53","1","2025-07-02 10:18:52","80fe4187154257d5fb01684ea91b68b9","41.13.17.237","Mozilla/5.0 (X11; Linux x86_64) AppleWebKit/537.36 (KHTML, like Gecko) Chrome/137.0.0.0 Safari/537.36","WebKit","Chrome","137.0.0.0","Linux","","https://app.prolific.com/","en-US,en;q=0.9,st;q=0.8","66826c452acc243fa7b92f51","683db6dfa200031b80f2a654","6865075bf069321cf23b7293","66826c452acc243fa7b92f51","","","[0]","","","1","demographics","","","","","","","","","","","","","","","","","","","","","","","","","","","","","","","","","","","",""
"5011","","","{""assigned_sex"":""male""}","survey-multi-choice","7","69594","0.0-6.0-2.0","53","1","2025-07-02 10:18:52","80fe4187154257d5fb01684ea91b68b9","41.13.17.237","Mozilla/5.0 (X11; Linux x86_64) AppleWebKit/537.36 (KHTML, like Gecko) Chrome/137.0.0.0 Safari/537.36","WebKit","Chrome","137.0.0.0","Linux","","https://app.prolific.com/","en-US,en;q=0.9,st;q=0.8","66826c452acc243fa7b92f51","683db6dfa200031b80f2a654","6865075bf069321cf23b7293","66826c452acc243fa7b92f51","","","[0]","","","2","demographics","","","","","","","","","","","","","","","","","","","","","","","","","","","","","","","","","","","",""
"6482","","","{""menstrual_cycle"":""No""}","survey-multi-choice","8","76083","0.0-6.0-3.0","53","1","2025-07-02 10:18:52","80fe4187154257d5fb01684ea91b68b9","41.13.17.237","Mozilla/5.0 (X11; Linux x86_64) AppleWebKit/537.36 (KHTML, like Gecko) Chrome/137.0.0.0 Safari/537.36","WebKit","Chrome","137.0.0.0","Linux","","https://app.prolific.com/","en-US,en;q=0.9,st;q=0.8","66826c452acc243fa7b92f51","683db6dfa200031b80f2a654","6865075bf069321cf23b7293","66826c452acc243fa7b92f51","","","[0]","","","4","demographics","","","","","","","","","","","","","","","","","","","","","","","","","","","","","","","","","","","",""
"15612","","","{""education"":""Higher National Diploma""}","survey-multi-choice","9","91703","0.0-6.0-4.0","53","1","2025-07-02 10:18:52","80fe4187154257d5fb01684ea91b68b9","41.13.17.237","Mozilla/5.0 (X11; Linux x86_64) AppleWebKit/537.36 (KHTML, like Gecko) Chrome/137.0.0.0 Safari/537.36","WebKit","Chrome","137.0.0.0","Linux","","https://app.prolific.com/","en-US,en;q=0.9,st;q=0.8","66826c452acc243fa7b92f51","683db6dfa200031b80f2a654","6865075bf069321cf23b7293","66826c452acc243fa7b92f51","","","[0]","","","5","demographics","","","","","","","","","","","","","","","","","","","","","","","","","","","","","","","","","","","",""
"9832","","","{""education"":""Others""}","survey-multi-choice","10","101543","0.0-6.0-5.0","53","1","2025-07-02 10:18:52","80fe4187154257d5fb01684ea91b68b9","41.13.17.237","Mozilla/5.0 (X11; Linux x86_64) AppleWebKit/537.36 (KHTML, like Gecko) Chrome/137.0.0.0 Safari/537.36","WebKit","Chrome","137.0.0.0","Linux","","https://app.prolific.com/","en-US,en;q=0.9,st;q=0.8","66826c452acc243fa7b92f51","683db6dfa200031b80f2a654","6865075bf069321cf23b7293","66826c452acc243fa7b92f51","2025-07-02T10:20:33.763Z","","[0]","","","6","demographics","","","","","","","","","","","","","","","","","","","","","","","","","","","","","","","","","","","",""
"51294","","","{""mental_health_condition"":""No"",""mental_health_treatment"":""No"",""psychiatric_medication"":""No""}","survey-text","11","152856","0.0-7.0-0.0","53","1","2025-07-02 10:18:52","80fe4187154257d5fb01684ea91b68b9","41.13.17.237","Mozilla/5.0 (X11; Linux x86_64) AppleWebKit/537.36 (KHTML, like Gecko) Chrome/137.0.0.0 Safari/537.36","WebKit","Chrome","137.0.0.0","Linux","","https://app.prolific.com/","en-US,en;q=0.9,st;q=0.8","66826c452acc243fa7b92f51","683db6dfa200031b80f2a654","6865075bf069321cf23b7293","66826c452acc243fa7b92f51","2025-07-02T10:21:25.076Z","","","","","1","mental_health","","","","","","","","","","","","","","","","","","","","","","","","","","","","","","","","","","","",""
"10201","","","{""depression_history"":[""Yes""]}","survey-multi-select","12","163082","0.0-7.0-1.0","53","1","2025-07-02 10:18:52","80fe4187154257d5fb01684ea91b68b9","41.13.17.237","Mozilla/5.0 (X11; Linux x86_64) AppleWebKit/537.36 (KHTML, like Gecko) Chrome/137.0.0.0 Safari/537.36","WebKit","Chrome","137.0.0.0","Linux","","https://app.prolific.com/","en-US,en;q=0.9,st;q=0.8","66826c452acc243fa7b92f51","683db6dfa200031b80f2a654","6865075bf069321cf23b7293","66826c452acc243fa7b92f51","","","[0]","","","","mental_health","","","","","","","","","","","","","","","","","","","","","","","","","","","","","","","","","","","",""
"16778","","","{""depression_episodes"":""Prefer not to say / I don't know"",""depression_recent"":""More than 1 year ago""}","survey-multi-choice","13","179876","0.0-7.0-2.0-0.0","53","1","2025-07-02 10:18:52","80fe4187154257d5fb01684ea91b68b9","41.13.17.237","Mozilla/5.0 (X11; Linux x86_64) AppleWebKit/537.36 (KHTML, like Gecko) Chrome/137.0.0.0 Safari/537.36","WebKit","Chrome","137.0.0.0","Linux","","https://app.prolific.com/","en-US,en;q=0.9,st;q=0.8","66826c452acc243fa7b92f51","683db6dfa200031b80f2a654","6865075bf069321cf23b7293","66826c452acc243fa7b92f51","2025-07-02T10:21:52.096Z","","[0,1]","","","3","mental_health","","","","","","","","","","","","","","","","","","","","","","","","","","","","","","","","","","","",""
"171247.30000000075","","","","survey-template","14","351157","0.0-7.0-3.0","53","1","2025-07-02 10:18:52","80fe4187154257d5fb01684ea91b68b9","41.13.17.237","Mozilla/5.0 (X11; Linux x86_64) AppleWebKit/537.36 (KHTML, like Gecko) Chrome/137.0.0.0 Safari/537.36","WebKit","Chrome","137.0.0.0","Linux","","https://app.prolific.com/","en-US,en;q=0.9,st;q=0.8","66826c452acc243fa7b92f51","683db6dfa200031b80f2a654","6865075bf069321cf23b7293","66826c452acc243fa7b92f51","2025-07-02T10:24:43.378Z","","","","","","ius","{""Q01"":""2"",""Q02"":""4"",""Q03"":""1"",""Q04"":""3"",""Q05"":""2"",""Q06"":""1"",""Q07"":""2"",""Q08"":""0"",""Q09"":""3"",""Q10"":""2"",""Q11"":""2"",""Q12"":""3"",""Q13"":""3""}","[0,1,2,3,4,5,6,7,8,9,10,11,12]","[""Q01"",""Q02"",""Q03"",""Q04"",""Q05"",""Q06"",""Q07"",""Q08"",""Q09"",""Q10"",""Q11"",""Q12"",""Q13""]","[21815.200000001118,28098.300000000745,48782.59999999963,58779,87614.20000000112,106211.90000000037,127835.09999999963,135154.40000000037,143908.90000000037,152953.59999999963,158676.80000000075,164434.70000000112,170008.20000000112]","[]","[21815.200000001118,28098.300000000745,48782.59999999963,58779,87614.20000000112,106211.90000000037,127835.09999999963,133860.30000000075,135154.40000000037,143908.90000000037,152953.59999999963,158676.80000000075,164434.70000000112,170008.20000000112,171232.5]","0.38461538461538464","0.4166666666666667","0","","","","","","","","","","","","","","","","","","","","","","","","","","",""
"7012","1751451890403","<p style='font-size:1.1em;line-height:1.25'>In the following, we will ask you a few questions relating to your experiences over the past month.<br></p><p style='font-size:1.1em;line-height:1.25'>Press the <strong>Next</strong> button to continue.</p>","0","custom-html-button-response","15","358187","0.0-7.0-4.0","53","1","2025-07-02 10:18:52","80fe4187154257d5fb01684ea91b68b9","41.13.17.237","Mozilla/5.0 (X11; Linux x86_64) AppleWebKit/537.36 (KHTML, like Gecko) Chrome/137.0.0.0 Safari/537.36","WebKit","Chrome","137.0.0.0","Linux","","https://app.prolific.com/","en-US,en;q=0.9,st;q=0.8","66826c452acc243fa7b92f51","683db6dfa200031b80f2a654","6865075bf069321cf23b7293","66826c452acc243fa7b92f51","2025-07-02T10:24:50.407Z","","","","","","","","","","","","","","","","","","","","","","","","","","","","","","","","","","","","","","","","","",""
"330110.4000000004","","","","survey-template","16","688315","0.0-7.0-5.0","53","1","2025-07-02 10:18:52","80fe4187154257d5fb01684ea91b68b9","41.13.17.237","Mozilla/5.0 (X11; Linux x86_64) AppleWebKit/537.36 (KHTML, like Gecko) Chrome/137.0.0.0 Safari/537.36","WebKit","Chrome","137.0.0.0","Linux","","https://app.prolific.com/","en-US,en;q=0.9,st;q=0.8","66826c452acc243fa7b92f51","683db6dfa200031b80f2a654","6865075bf069321cf23b7293","66826c452acc243fa7b92f51","2025-07-02T10:30:20.535Z","","","","","","pss","{""Q01"":""2"",""Q02"":""2"",""Q03"":""3"",""Q04"":""0"",""Q05"":""0"",""Q06"":""2"",""Q07"":""1"",""Q08"":""0"",""Q09"":""1"",""Q10"":""2""}","[0,1,2,3,4,5,6,7,8,9]","[""Q01"",""Q01"",""Q02"",""Q03"",""Q04"",""Q05"",""Q06"",""Q07"",""Q08"",""Q09"",""Q10""]","[49647.20000000112,51229,75568.10000000149,87340.90000000037,125318.40000000037,144797.20000000112,198463.20000000112,253647.20000000112,306331.6000000015,319408.6000000015,329123.80000000075]","[]","[0.10000000149011612,49647.20000000112,51229,75568.10000000149,87340.90000000037,125318.40000000037,144797.20000000112,198463.20000000112,253647.20000000112,306331.6000000015,319408.6000000015,329123.80000000075,330100.80000000075]","0.4","0.5555555555555556","0","","","","","","","","","","","","","","","","","","","","","","","","","","",""
"7802","1751452228344","<p style='font-size:1.1em;line-height:1.25'>Thank you for your answers! Now we will ask you a few more questions relating to your feelings in the last 24 hours.<br></p><p style='font-size:1.1em;line-height:1.25'>Press the <strong>Next</strong> button to continue.</p>","0","custom-html-button-response","17","696127","0.0-7.0-6.0","53","1","2025-07-02 10:18:52","80fe4187154257d5fb01684ea91b68b9","41.13.17.237","Mozilla/5.0 (X11; Linux x86_64) AppleWebKit/537.36 (KHTML, like Gecko) Chrome/137.0.0.0 Safari/537.36","WebKit","Chrome","137.0.0.0","Linux","","https://app.prolific.com/","en-US,en;q=0.9,st;q=0.8","66826c452acc243fa7b92f51","683db6dfa200031b80f2a654","6865075bf069321cf23b7293","66826c452acc243fa7b92f51","2025-07-02T10:30:28.347Z","","","","","","","","","","","","","","","","","","","","","","","","","","","","","","","","","","","","","","","","","",""
"247353.19999999925","","","","survey-template","18","943505","0.0-7.0-7.0","53","1","2025-07-02 10:18:52","80fe4187154257d5fb01684ea91b68b9","41.13.17.237","Mozilla/5.0 (X11; Linux x86_64) AppleWebKit/537.36 (KHTML, like Gecko) Chrome/137.0.0.0 Safari/537.36","WebKit","Chrome","137.0.0.0","Linux","","https://app.prolific.com/","en-US,en;q=0.9,st;q=0.8","66826c452acc243fa7b92f51","683db6dfa200031b80f2a654","6865075bf069321cf23b7293","66826c452acc243fa7b92f51","2025-07-02T10:34:35.725Z","","","","","","drsp","{""Q01"":""0"",""Q02"":""1"",""Q03"":""0"",""Q04"":""3"",""Q05"":""3"",""Q06"":""0"",""Q07"":""0"",""Q08"":""1"",""Q09"":""3"",""Q10"":""2"",""Q11"":""2"",""Q12"":""4"",""Q13"":""5"",""Q14"":""0"",""Q15"":""3"",""Q16"":""3"",""Q17"":""2"",""Q18"":""0"",""Q19"":""2"",""Q20"":""2"",""Q21"":""2""}","[0,1,2,3,4,5,6,7,8,9,10,11,12,13,14,15,16,17,18,19,20]","[""Q01"",""Q02"",""Q03"",""Q04"",""Q05"",""Q06"",""Q07"",""Q08"",""Q09"",""Q10"",""Q11"",""Q12"",""Q12"",""Q12"",""Q13"",""Q14"",""Q15"",""Q16"",""Q17"",""Q18"",""Q19"",""Q20"",""Q20"",""Q21""]","[4464.9000000003725,9392.699999999255,16367.900000000373,29316,36471.5,42991.29999999888,47588.40000000037,53950.09999999963,60984.699999999255,99577.40000000037,113252.5,125155.29999999888,128787.5,129929.29999999888,151109.40000000037,180100.69999999925,190069.09999999963,200358.90000000037,205041.79999999888,211778.29999999888,224834.90000000037,236381,237350.19999999925,245905.79999999888]","[]","[0.09999999962747097,4464.9000000003725,9392.699999999255,16367.900000000373,29316,36471.5,42991.29999999888,47588.40000000037,53950.09999999963,60984.699999999255,99577.40000000037,113252.5,125155.29999999888,128787.5,129929.29999999888,136908.40000000037,151109.40000000037,175177.19999999925,180100.69999999925,190069.09999999963,200358.90000000037,205041.79999999888,211778.29999999888,224834.90000000037,236381,237350.19999999925,245905.79999999888,247335.69999999925]","0.2857142857142857","0.35","0","","","","","","","","","","","","","","","","","","","","","","","","","","",""
"27841","","","","survey-template","19","971362","0.0-7.0-8.0","53","1","2025-07-02 10:18:52","80fe4187154257d5fb01684ea91b68b9","41.13.17.237","Mozilla/5.0 (X11; Linux x86_64) AppleWebKit/537.36 (KHTML, like Gecko) Chrome/137.0.0.0 Safari/537.36","WebKit","Chrome","137.0.0.0","Linux","","https://app.prolific.com/","en-US,en;q=0.9,st;q=0.8","66826c452acc243fa7b92f51","683db6dfa200031b80f2a654","6865075bf069321cf23b7293","66826c452acc243fa7b92f51","2025-07-02T10:35:03.582Z","","","","","","stress","{""Q01"":""3"",""Q02"":""1"",""Q03"":""2""}","[0,1,2]","[""Q01"",""Q02"",""Q03""]","[5785.4000000003725,11911.700000001118,26509.60000000149]","[]","[5785.4000000003725,11911.700000001118,26509.60000000149,27836.900000000373]","0.3333333333333333","0.5","0","","","","","","","","","","","","","","","","","","","","","","","","","","",""
"61527","","","","instructions","20","1032902","0.0-8.0-0.0","53","1","2025-07-02 10:18:52","80fe4187154257d5fb01684ea91b68b9","41.13.17.237","Mozilla/5.0 (X11; Linux x86_64) AppleWebKit/537.36 (KHTML, like Gecko) Chrome/137.0.0.0 Safari/537.36","WebKit","Chrome","137.0.0.0","Linux","","https://app.prolific.com/","en-US,en;q=0.9,st;q=0.8","66826c452acc243fa7b92f51","683db6dfa200031b80f2a654","6865075bf069321cf23b7293","66826c452acc243fa7b92f51","","[{""page_index"":0,""viewing_time"":24963},{""page_index"":1,""viewing_time"":28322},{""page_index"":2,""viewing_time"":4889},{""page_index"":3,""viewing_time"":3351}]","","","","","","","","","","","","","","","","","","","","","","","","","","","","","","","","","","","","","","","","",""
"","","","","ctl-task-cpt","21","1078836","0.0-8.0-1.0","53","1","2025-07-02 10:18:52","80fe4187154257d5fb01684ea91b68b9","41.13.17.237","Mozilla/5.0 (X11; Linux x86_64) AppleWebKit/537.36 (KHTML, like Gecko) Chrome/137.0.0.0 Safari/537.36","WebKit","Chrome","137.0.0.0","Linux","","https://app.prolific.com/","en-US,en;q=0.9,st;q=0.8","66826c452acc243fa7b92f51","683db6dfa200031b80f2a654","6865075bf069321cf23b7293","66826c452acc243fa7b92f51","","","","","","","","","","","","","","","","","win-only","1","g1:NE,g2:SW","1","0","1","1034361.2","7336.7","11444","42861.3","2","4","4","6","1","-2","-2","0","0","0","4107.1","4000","-1370","[""up"",""right""]","{""num_key_presses"":0,""num_perfect"":0,""num_errors"":0,""num_randdir"":0,""num_randdir_good_moves"":0,""num_whilered"":0,""num_whileblue"":0,""num_blue"":0,""num_good_moves"":0}","[602.7142857142857,589.0111607142857,15,602.7142857142857,589.0111607142857,346.4,602.7142857142857,589.0111607142857,608.6,602.7142857142857,589.0111607142857,730.9,602.7142857142857,589.0111607142857,887.9,602.7142857142857,589.0111607142857,1011.2,602.7142857142857,589.0111607142857,1206,602.7142857142857,589.0111607142857,1379.2,602.7142857142857,589.0111607142857,1597.2,602.7142857142857,589.0111607142857,1756.2,602.7142857142857,589.0111607142857,1912.3,602.7142857142857,589.0111607142857,2148.9,602.7142857142857,589.0111607142857,2487.7,602.7142857142857,589.0111607142857,2725.1,602.7142857142857,589.0111607142857,2994.4,602.7142857142857,589.0111607142857,3163.4,602.7142857142857,589.0111607142857,3393.3,602.7142857142857,589.0111607142857,3619.3,602.7142857142857,589.0111607142857,3882.5]","[]"
"10273","","","","instructions","22","1089114","0.0-8.0-2.0","53","1","2025-07-02 10:18:52","80fe4187154257d5fb01684ea91b68b9","41.13.17.237","Mozilla/5.0 (X11; Linux x86_64) AppleWebKit/537.36 (KHTML, like Gecko) Chrome/137.0.0.0 Safari/537.36","WebKit","Chrome","137.0.0.0","Linux","","https://app.prolific.com/","en-US,en;q=0.9,st;q=0.8","66826c452acc243fa7b92f51","683db6dfa200031b80f2a654","6865075bf069321cf23b7293","66826c452acc243fa7b92f51","","[{""page_index"":0,""viewing_time"":10272}]","","","","","","","","","","","","","","","","","","","","","","","","","","","","","","","","","","","","","","","","",""