"rt","response_timestamp","stimulus","response","trial_type","trial_index","time_elapsed","internal_node_id","run_id","condition","recorded_at","source_code_version","ip","user_agent","device","browser","browser_version","platform","platform_version","referer","accept_language","PROLIFIC_PID","STUDY_ID","SESSION_ID","prolific_id","realtime","view_history","question_order","consent","success","question_id","eventType","responses","item_order","radio_event_ids","radio_event_times","key_event_times","mouse_event_times","straightlining","zigzagging","honeypot","which_type","canvas_config","goals_layout","control_level","trial_number","tutorial_trial_number","trial_start_time","phase1_start_time","phase2_start_time","phase3_start_time","goal_1_value","goal_1_distance","goal_2_value","goal_2_distance","goal_selected","outcome","outcome_total","participant_final_score","participant_initial_score","participant_final_score_prop","goal_choice_rt","allocated_time","allocated_time_remaining","goal_direction","counts","mouse_movements","key_presses","correct","slider_start"
"33613","1751451581283","<p style='font-size:40px;line-height:1.25'><strong>Welcome to the experiment!</strong></p><p style='font-size:1.1em;line-height:1.25'>Thank you for your interest in our experiment! Before you begin, it is important that we obtain your informed consent to participate in the study.</p><p style='font-size:1.1em;line-height:1.25'>On the next screen will be an <strong>information sheet</strong> for you to read. To participate in the study we need you to read this information sheet and the following consent form carefully. If you agree with all the statements, please click the <strong>I agree</strong> button.</p><p style='font-size:1.1em;line-height:1.25'>Press <strong>Next</strong> to read the information sheet.</p>","0","custom-html-button-response","0","33616","0.0-0.0","83","1","2025-07-02 10:19:07","80fe4187154257d5fb01684ea91b68b9","41.10.149.159","Mozilla/5.0 (Windows NT 10.0; Win64; x64) AppleWebKit/537.36 (KHTML, like Gecko) Chrome/138.0.0.0 Safari/537.36","WebKit","Chrome","138.0.0.0","Windows","10.0","https://app.prolific.com/","en-US,en;q=0.9","668be7aeec30f3aae126f42a","683db6dfa200031b80f2a654","686507870859b38fe639c100","668be7aeec30f3aae126f42a","2025-07-02T10:19:41.284Z","","","","","","","","","","","","","","","","","","","","","","","","","","","","","","","","","","","","","","","","","","","",""
"43177","","","","instructions","1","76793","0.0-1.0","83","1","2025-07-02 10:19:07","80fe4187154257d5fb01684ea91b68b9","41.10.149.159","Mozilla/5.0 (Windows NT 10.0; Win64; x64) AppleWebKit/537.36 (KHTML, like Gecko) Chrome/138.0.0.0 Safari/537.36","WebKit","Chrome","138.0.0.0","Windows","10.0","https://app.prolific.com/","en-US,en;q=0.9","668be7aeec30f3aae126f42a","683db6dfa200031b80f2a654","686507870859b38fe639c100","668be7aeec30f3aae126f42a","","[{""page_index"":0,""viewing_time"":16041},{""page_index"":1,""viewing_time"":27136}]","","","","","","","","","","","","","","","","","","","","","","","","","","","","","","","","","","","","","","","","","","",""
"11221","","","{""Q0"":"""",""Q1"":"""",""Q2"":"""",""Q3"":"""",""Q4"":"""",""Q5"":"""",""Q6"":""I agree""}","survey-multi-choice","2","88016","0.0-2.0","83","1","2025-07-02 10:19:07","80fe4187154257d5fb01684ea91b68b9","41.10.149.159","Mozilla/5.0 (Windows NT 10.0; Win64; x64) AppleWebKit/537.36 (KHTML, like Gecko) Chrome/138.0.0.0 Safari/537.36","WebKit","Chrome","138.0.0.0","Windows","10.0","https://app.prolific.com/","en-US,en;q=0.9","668be7aeec30f3aae126f42a","683db6dfa200031b80f2a654","686507870859b38fe639c100","668be7aeec30f3aae126f42a","","","[0,1,2,3,4,5,6]","true","","","","","","","","","","","","","","","","","","","","","","","","","","","","","","","","","","","","","","","","",""
"12833","","","","fullscreen","3","101867","0.0-4.0","83","1","2025-07-02 10:19:07","80fe4187154257d5fb01684ea91b68b9","41.10.149.159","Mozilla/5.0 (Windows NT 10.0; Win64; x64) AppleWebKit/537.36 (KHTML, like Gecko) Chrome/138.0.0.0 Safari/537.36","WebKit","Chrome","138.0.0.0","Windows","10.0","https://app.prolific.com/","en-US,en;q=0.9","668be7aeec30f3aae126f42a","683db6dfa200031b80f2a654","686507870859b38fe639c100","668be7aeec30f3aae126f42a","","","","","true","","","","","","","","","","","","","","","","","","","","","","","","","","","","","","","","","","","","","","","",""
"20335","1751451669871"," <p style='font-size:1.1em;line-height:1.25'>Thank you for completing the consent form and closing all other tabs.</p><p style='font-size:1.1em;line-height:1.25'>We will now invite you to fill in some demographic information and questionnaires, before starting the game.<br>This will take about 5 minutes.<br></p><p style='font-size:1.1em;line-height:1.25'>Press the <strong>Next</strong> button to continue.</p>","0","custom-html-button-response","4","122204","0.0-5.0","83","1","2025-07-02 10:19:07","80fe4187154257d5fb01684ea91b68b9","41.10.149.159","Mozilla/5.0 (Windows NT 10.0; Win64; x64) AppleWebKit/537.36 (KHTML, like Gecko) Chrome/138.0.0.0 Safari/537.36","WebKit","Chrome","138.0.0.0","Windows","10.0","https://app.prolific.com/","en-US,en;q=0.9","668be7aeec30f3aae126f42a","683db6dfa200031b80f2a654","686507870859b38fe639c100","668be7aeec30f3aae126f42a","2025-07-02T10:21:09.872Z","","","","","","","","","","","","","","","","","","","","","","","","","","","","","","","","","","","","","","","","","","","",""
"4078","","","{""age"":""23""}","survey-text","5","126283","0.0-6.0-0.0","83","1","2025-07-02 10:19:07","80fe4187154257d5fb01684ea91b68b9","41.10.149.159","Mozilla/5.0 (Windows NT 10.0; Win64; x64) AppleWebKit/537.36 (KHTML, like Gecko) Chrome/138.0.0.0 Safari/537.36","WebKit","Chrome","138.0.0.0","Windows","10.0","https://app.prolific.com/","en-US,en;q=0.9","668be7aeec30f3aae126f42a","683db6dfa200031b80f2a654","686507870859b38fe639c100","668be7aeec30f3aae126f42a","","","","","","0","demographics","","","","","","","","","","","","","","","","","","","","","","","","","","","","","","","","","","","","","",""
"1960","","","{""gender_identity"":""female/woman""}","survey-multi-choice","6","128245","0.0-6.0-1.0","83","1","2025-07-02 10:19:07","80fe4187154257d5fb01684ea91b68b9","41.10.149.159","Mozilla/5.0 (Windows NT 10.0; Win64; x64) AppleWebKit/537.36 (KHTML, like Gecko) Chrome/138.0.0.0 Safari/537.36","WebKit","Chrome","138.0.0.0","Windows","10.0","https://app.prolific.com/","en-US,en;q=0.9","668be7aeec30f3aae126f42a","683db6dfa200031b80f2a654","686507870859b38fe639c100","668be7aeec30f3aae126f42a","","","[0]","","","1","demographics","","","","","","","","","","","","","","","","","","","","","","","","","","","","","","","","","","","","","",""
"2667","","","{""assigned_sex"":""female""}","survey-multi-choice","7","130914","0.0-6.0-2.0","83","1","2025-07-02 10:19:07","80fe4187154257d5fb01684ea91b68b9","41.10.149.159","Mozilla/5.0 (Windows NT 10.0; Win64; x64) AppleWebKit/537.36 (KHTML, like Gecko) Chrome/138.0.0.0 Safari/537.36","WebKit","Chrome","138.0.0.0","Windows","10.0","https://app.prolific.com/","en-US,en;q=0.9","668be7aeec30f3aae126f42a","683db6dfa200031b80f2a654","686507870859b38fe639c100","668be7aeec30f3aae126f42a","","","[0]","","","2","demographics","","","","","","","","","","","","","","","","","","","","","","","","","","","","","","","","","","","","","",""
"2508","","","{""menstrual_cycle"":""Yes""}","survey-multi-choice","8","133422","0.0-6.0-3.0","83","1","2025-07-02 10:19:07","80fe4187154257d5fb01684ea91b68b9","41.10.149.159","Mozilla/5.0 (Windows NT 10.0; Win64; x64) AppleWebKit/537.36 (KHTML, like Gecko) Chrome/138.0.0.0 Safari/537.36","WebKit","Chrome","138.0.0.0","Windows","10.0","https://app.prolific.com/","en-US,en;q=0.9","668be7aeec30f3aae126f42a","683db6dfa200031b80f2a654","686507870859b38fe639c100","668be7aeec30f3aae126f42a","","","[0]","","","4","demographics","","","","","","","","","","","","","","","","","","","","","","","","","","","","","","","","","","","","","",""
"5295","","","{""education"":""Master's Degree (e.g., MSc)""}","survey-multi-choice","9","138719","0.0-6.0-4.0","83","1","2025-07-02 10:19:07","80fe4187154257d5fb01684ea91b68b9","41.10.149.159","Mozilla/5.0 (Windows NT 10.0; Win64; x64) AppleWebKit/537.36 (KHTML, like Gecko) Chrome/138.0.0.0 Safari/537.36","WebKit","Chrome","138.0.0.0","Windows","10.0","https://app.prolific.com/","en-US,en;q=0.9","668be7aeec30f3aae126f42a","683db6dfa200031b80f2a654","686507870859b38fe639c100","668be7aeec30f3aae126f42a","","","[0]","","","5","demographics","","","","","","","","","","","","","","","","","","","","","","","","","","","","","","","","","","","","","",""
"6356","","","{""education"":""Bachelor's Degree (e.g., BA)""}","survey-multi-choice","10","145076","0.0-6.0-5.0","83","1","2025-07-02 10:19:07","80fe4187154257d5fb01684ea91b68b9","41.10.149.159","Mozilla/5.0 (Windows NT 10.0; Win64; x64) AppleWebKit/537.36 (KHTML, like Gecko) Chrome/138.0.0.0 Safari/537.36","WebKit","Chrome","138.0.0.0","Windows","10.0","https://app.prolific.com/","en-US,en;q=0.9","668be7aeec30f3aae126f42a","683db6dfa200031b80f2a654","686507870859b38fe639c100","668be7aeec30f3aae126f42a","2025-07-02T10:21:32.744Z","","[0]","","","6","demographics","","","","","","","","","","","","","","","","","","","","","","","","","","","","","","","","","","","","","",""
"56679","","","{""mental_health_condition"":""No"",""mental_health_treatment"":""No"",""psychiatric_medication"":""No""}","survey-text","11","201758","0.0-7.0-0.0","83","1","2025-07-02 10:19:07","80fe4187154257d5fb01684ea91b68b9","41.10.149.159","Mozilla/5.0 (Windows NT 10.0; Win64; x64) AppleWebKit/537.36 (KHTML, like Gecko) Chrome/138.0.0.0 Safari/537.36","WebKit","Chrome","138.0.0.0","Windows","10.0","https://app.prolific.com/","en-US,en;q=0.9","668be7aeec30f3aae126f42a","683db6dfa200031b80f2a654","686507870859b38fe639c100","668be7aeec30f3aae126f42a","2025-07-02T10:22:29.426Z","","","","","1","mental_health","","","","","","","","","","","","","","","","","","","","","","","","","","","","","","","","","","","","","",""
"7918","","","{""depression_history"":[""Yes""]}","survey-multi-select","12","209681","0.0-7.0-1.0","83","1","2025-07-02 10:19:07","80fe4187154257d5fb01684ea91b68b9","41.10.149.159","Mozilla/5.0 (Windows NT 10.0; Win64; x64) AppleWebKit/537.36 (KHTML, like Gecko) Chrome/138.0.0.0 Safari/537.36","WebKit","Chrome","138.0.0.0","Windows","10.0","https://app.prolific.com/","en-US,en;q=0.9","668be7aeec30f3aae126f42a","683db6dfa200031b80f2a654","686507870859b38fe639c100","668be7aeec30f3aae126f42a","","","[0]","","","","mental_health","","","","","","","","","","","","","","","","","","","","","","","","","","","","","","","","","","","","","",""
"11045","","","{""depression_episodes"":""3-5"",""depression_recent"":""Within the past year""}","survey-multi-choice","13","220728","0.0-7.0-2.0-0.0","83","1","2025-07-02 10:19:07","80fe4187154257d5fb01684ea91b68b9","41.10.149.159","Mozilla/5.0 (Windows NT 10.0; Win64; x64) AppleWebKit/537.36 (KHTML, like Gecko) Chrome/138.0.0.0 Safari/537.36","WebKit","Chrome","138.0.0.0","Windows","10.0","https://app.prolific.com/","en-US,en;q=0.9","668be7aeec30f3aae126f42a","683db6dfa200031b80f2a654","686507870859b38fe639c100","668be7aeec30f3aae126f42a","2025-07-02T10:22:48.396Z","","[0,1]","","","3","mental_health","","","","","","","","","","","","","","","","","","","","","","","","","","","","","","","","","","","","","",""
"68810.29999995232","","","","survey-template","14","289541","0.0-7.0-3.0","83","1","2025-07-02 10:19:07","80fe4187154257d5fb01684ea91b68b9","41.10.149.159","Mozilla/5.0 (Windows NT 10.0; Win64; x64) AppleWebKit/537.36 (KHTML, like Gecko) Chrome/138.0.0.0 Safari/537.36","WebKit","Chrome","138.0.0.0","Windows","10.0","https://app.prolific.com/","en-US,en;q=0.9","668be7aeec30f3aae126f42a","683db6dfa200031b80f2a654","686507870859b38fe639c100","668be7aeec30f3aae126f42a","2025-07-02T10:23:57.209Z","","","","","","ius","{""Q01"":""2"",""Q02"":""4"",""Q03"":""3"",""Q04"":""4"",""Q05"":""4"",""Q06"":""2"",""Q07"":""3"",""Q08"":""0"",""Q09"":""4"",""Q10"":""3"",""Q11"":""3"",""Q12"":""4"",""Q13"":""3""}","[0,1,2,3,4,5,6,7,8,9,10,11,12]","[""Q01"",""Q02"",""Q03"",""Q04"",""Q04"",""Q05"",""Q05"",""Q06"",""Q07"",""Q08"",""Q09"",""Q10"",""Q10"",""Q11"",""Q12"",""Q13""]","[6667.299999952316,9549,12251.899999976158,15583.899999976158,16980.899999976158,20893.600000023842,22085.399999976158,27299.399999976158,30207.699999928474,34498.199999928474,46984.699999928474,54109.89999997616,55083,59304.60000002384,62563.299999952316,67345.39999997616]","[]","[6667.299999952316,9549,12251.899999976158,15583.899999976158,16980.899999976158,20893.600000023842,22085.399999976158,26716.299999952316,27299.399999976158,30207.699999928474,34498.199999928474,46984.699999928474,53437,54109.89999997616,55083,59304.60000002384,62563.299999952316,67345.39999997616,68808.5]","0.38461538461538464","0.5833333333333334","0","","","","","","","","","","","","","","","","","","","","","","","","","","","","",""
"2992","1751451840202","<p style='font-size:1.1em;line-height:1.25'>In the following, we will ask you a few questions relating to your experiences over the past month.<br></p><p style='font-size:1.1em;line-height:1.25'>Press the <strong>Next</strong> button to continue.</p>","0","custom-html-button-response","15","292535","0.0-7.0-4.0","83","1","2025-07-02 10:19:07","80fe4187154257d5fb01684ea91b68b9","41.10.149.159","Mozilla/5.0 (Windows NT 10.0; Win64; x64) AppleWebKit/537.36 (KHTML, like Gecko) Chrome/138.0.0.0 Safari/537.36","WebKit","Chrome","138.0.0.0","Windows","10.0","https://app.prolific.com/","en-US,en;q=0.9","668be7aeec30f3aae126f42a","683db6dfa200031b80f2a654","686507870859b38fe639c100","668be7aeec30f3aae126f42a","2025-07-02T10:24:00.203Z","","","","","","","","","","","","","","","","","","","","","","","","","","","","","","","","","","","","","","","","","","","",""
"79793.69999992847","","","","survey-template","16","372330","0.0-7.0-5.0","83","1","2025-07-02 10:19:07","80fe4187154257d5fb01684ea91b68b9","41.10.149.159","Mozilla/5.0 (Windows NT 10.0; Win64; x64) AppleWebKit/537.36 (KHTML, like Gecko) Chrome/138.0.0.0 Safari/537.36","WebKit","Chrome","138.0.0.0","Windows","10.0","https://app.prolific.com/","en-US,en;q=0.9","668be7aeec30f3aae126f42a","683db6dfa200031b80f2a654","686507870859b38fe639c100","668be7aeec30f3aae126f42a","2025-07-02T10:25:19.998Z","","","","","","pss","{""Q01"":""2"",""Q02"":""3"",""Q03"":""3"",""Q04"":""3"",""Q05"":""3"",""Q06"":""3"",""Q07"":""2"",""Q08"":""3"",""Q09"":""3"",""Q10"":""2""}","[0,1,2,3,4,5,6,7,8,9]","[""Q01"",""Q01"",""Q02"",""Q03"",""Q04"",""Q04"",""Q05"",""Q06"",""Q07"",""Q08"",""Q09"",""Q10""]","[21263.600000023842,25649.299999952316,28885.199999928474,31907,35826,37712.299999952316,41778.39999997616,47526.60000002384,53452.39999997616,57596.5,61970.299999952316,78301]","[]","[0.10000002384185791,21263.600000023842,25217,25649.299999952316,28885.199999928474,31907,35826,37712.299999952316,41778.39999997616,47526.60000002384,53452.39999997616,57082.5,57596.5,61970.299999952316,78301,79791.69999992847]","0.4","0.4444444444444444","0","","","","","","","","","","","","","","","","","","","","","","","","","","","","",""
"3604","1751451923603","<p style='font-size:1.1em;line-height:1.25'>Thank you for your answers! Now we will ask you a few more questions relating to your feelings in the last 24 hours.<br></p><p style='font-size:1.1em;line-height:1.25'>Press the <strong>Next</strong> button to continue.</p>","0","custom-html-button-response","17","375935","0.0-7.0-6.0","83","1","2025-07-02 10:19:07","80fe4187154257d5fb01684ea91b68b9","41.10.149.159","Mozilla/5.0 (Windows NT 10.0; Win64; x64) AppleWebKit/537.36 (KHTML, like Gecko) Chrome/138.0.0.0 Safari/537.36","WebKit","Chrome","138.0.0.0","Windows","10.0","https://app.prolific.com/","en-US,en;q=0.9","668be7aeec30f3aae126f42a","683db6dfa200031b80f2a654","686507870859b38fe639c100","668be7aeec30f3aae126f42a","2025-07-02T10:25:23.603Z","","","","","","","","","","","","","","","","","","","","","","","","","","","","","","","","","","","","","","","","","","","",""
"85190.60000002384","","","","survey-template","18","461129","0.0-7.0-7.0","83","1","2025-07-02 10:19:07","80fe4187154257d5fb01684ea91b68b9","41.10.149.159","Mozilla/5.0 (Windows NT 10.0; Win64; x64) AppleWebKit/537.36 (KHTML, like Gecko) Chrome/138.0.0.0 Safari/537.36","WebKit","Chrome","138.0.0.0","Windows","10.0","https://app.prolific.com/","en-US,en;q=0.9","668be7aeec30f3aae126f42a","683db6dfa200031b80f2a654","686507870859b38fe639c100","668be7aeec30f3aae126f42a","2025-07-02T10:26:48.797Z","","","","","","drsp","{""Q01"":""2"",""Q02"":""3"",""Q03"":""1"",""Q04"":""3"",""Q05"":""4"",""Q06"":""1"",""Q07"":""4"",""Q08"":""4"",""Q09"":""2"",""Q10"":""1"",""Q11"":""5"",""Q12"":""4"",""Q13"":""4"",""Q14"":""1"",""Q15"":""4"",""Q16"":""0"",""Q17"":""1"",""Q18"":""2"",""Q19"":""3"",""Q20"":""1"",""Q21"":""3""}","[0,1,2,3,4,5,6,7,8,9,10,11,12,13,14,15,16,17,18,19,20]","[""Q01"",""Q02"",""Q03"",""Q03"",""Q04"",""Q05"",""Q06"",""Q07"",""Q08"",""Q09"",""Q10"",""Q11"",""Q12"",""Q13"",""Q14"",""Q15"",""Q16"",""Q17"",""Q18"",""Q19"",""Q20"",""Q21""]","[3879.2999999523163,6104.200000047684,7966.200000047684,8879.299999952316,11225.600000023842,16815.200000047684,20345.899999976158,22299.600000023842,24733.200000047684,29798.299999952316,32619,35403.799999952316,38037.799999952316,42240.299999952316,47053.799999952316,51962.39999997616,55774.5,58270,63765,67809,72420.29999995232,84197.70000004768]","[]","[0.10000002384185791,3879.2999999523163,6104.200000047684,7966.200000047684,8879.299999952316,11225.600000023842,16815.200000047684,20345.899999976158,22299.600000023842,24733.200000047684,29798.299999952316,32619,35012.39999997616,35403.799999952316,38037.799999952316,42240.299999952316,47053.799999952316,51962.39999997616,55774.5,58270,63765,67809,72171.5,72420.29999995232,84197.70000004768,85187.39999997616]","0.2857142857142857","0.35","0","","","","","","","","","","","","","","","","","","","","","","","","","","","","",""
"15838.699999928474","","","","survey-template","19","476969","0.0-7.0-8.0","83","1","2025-07-02 10:19:07","80fe4187154257d5fb01684ea91b68b9","41.10.149.159","Mozilla/5.0 (Windows NT 10.0; Win64; x64) AppleWebKit/537.36 (KHTML, like Gecko) Chrome/138.0.0.0 Safari/537.36","WebKit","Chrome","138.0.0.0","Windows","10.0","https://app.prolific.com/","en-US,en;q=0.9","668be7aeec30f3aae126f42a","683db6dfa200031b80f2a654","686507870859b38fe639c100","668be7aeec30f3aae126f42a","2025-07-02T10:27:04.637Z","","","","","","stress","{""Q01"":""3"",""Q02"":""5"",""Q03"":""2""}","[0,1,2]","[""Q01"",""Q02"",""Q03""]","[6564.799999952316,9530.699999928474,15010.699999928474]","[]","[6564.799999952316,9530.699999928474,14557.399999976158,15010.699999928474,15837.600000023842]","0.3333333333333333","0","0","","","","","","","","","","","","","","","","","","","","","","","","","","","","",""
"167216","","","","instructions","20","644186","0.0-8.0-0.0","83","1","2025-07-02 10:19:07","80fe4187154257d5fb01684ea91b68b9","41.10.149.159","Mozilla/5.0 (Windows NT 10.0; Win64; x64) AppleWebKit/537.36 (KHTML, like Gecko) Chrome/138.0.0.0 Safari/537.36","WebKit","Chrome","138.0.0.0","Windows","10.0","https://app.prolific.com/","en-US,en;q=0.9","668be7aeec30f3aae126f42a","683db6dfa200031b80f2a654","686507870859b38fe639c100","668be7aeec30f3aae126f42a","","[{""page_index"":0,""viewing_time"":60537},{""page_index"":1,""viewing_time"":61392},{""page_index"":2,""viewing_time"":11088},{""page_index"":3,""viewing_time"":34199}]","","","","","","","","","","","","","","","","","","","","","","","","","","","","","","","","","","","","","","","","","","",""
"","","","","ctl-task-cpt","21","675263","0.0-8.0-1.0","83","1","2025-07-02 10:19:07","80fe4187154257d5fb01684ea91b68b9","41.10.149.159","Mozilla/5.0 (Windows NT 10.0; Win64; x64) AppleWebKit/537.36 (KHTML, like Gecko) Chrome/138.0.0.0 Safari/537.36","WebKit","Chrome","138.0.0.0","Windows","10.0","https://app.prolific.com/","en-US,en;q=0.9","668be7aeec30f3aae126f42a","683db6dfa200031b80f2a654","686507870859b38fe639c100","668be7aeec30f3aae126f42a","","","","","","","","","","","","","","","","","win-only","1","g1:NE,g2:SW","1","0","1","646314.6","6076.8","10080.8","28068.3","2","4","4","6","1","2","0","0","0","0","2134.4","4000","70","[""up"",""right""]","{""num_key_presses"":7,""num_perfect"":4,""num_errors"":2,""num_randdir"":0,""num_randdir_good_moves"":0,""num_whilered"":1,""num_whileblue"":0,""num_blue"":0,""num_good_moves"":4}","[417.8214133126395,411.57142761775424,2.5,417.8214133126395,411.57142761775424,104.4,417.8214133126395,411.57142761775424,204.9,417.8214133126395,411.57142761775424,310.5,417.8214133126395,411.57142761775424,410.6,417.8214133126395,411.57142761775424,510.7,417.8214133126395,411.57142761775424,615.7,417.8214133126395,411.57142761775424,720,417.8214133126395,411.57142761775424,827.4,417.8214133126395,411.57142761775424,927.5,417.8214133126395,411.57142761775424,1029.1,417.8214133126395,411.57142761775424,1134.7,417.8214133126395,411.57142761775424,1235.1,417.8214133126395,411.57142761775424,1344.3,429.0714133126395,377.82142761775424,1444.8,451.5714133126395,324.07142761775424,1549.3,609.0714133126395,136.57142761775424,1650.4,659.0714133126395,91.57142761775425,1753.8,689.0714133126395,92.82142761775425,1854.8,720.3214133126395,86.57142761775425,1955.6,736.5714133126395,82.82142761775425,2062.1,742.8214133126395,82.82142761775425,2164.9,742.8214133126395,82.82142761775425,2269.7,742.8214133126395,82.82142761775425,2371.2,742.8214133126395,82.82142761775425,2477.2,742.8214133126395,82.82142761775425,2577.7,742.8214133126395,82.82142761775425,2679.2,742.8214133126395,82.82142761775425,2780.5,742.8214133126395,82.82142761775425,2884.7,742.8214133126395,82.82142761775425,2994.5,742.8214133126395,82.82142761775425,3099.4,742.8214133126395,82.82142761775425,3199.8,742.8214133126395,82.82142761775425,3304.5,742.8214133126395,82.82142761775425,3412.2,742.8214133126395,82.82142761775425,3515,742.8214133126395,82.82142761775425,3618.8,742.8214133126395,82.82142761775425,3719.8,742.8214133126395,82.82142761775425,3827.6,742.8214133126395,82.82142761775425,3927.9]","[406.4,406.3,1000,0.1,-593.7,""error"",""-"",""-"",""no_move"",5957.1,5550.5,2573.2,1411.6,1972.3,""smooth"",""right"",""right"",""good_move"",6306.6,349.1,2544.1,5957.5,-2195,""error"",""-"",""-"",""no_move"",6377.1,70.4,2544.1,5957.5,-2124.5,""while_red"",""-"",""-"",""no_move"",11073.2,4766.6,2879.8,7306.8,886.7,""smooth"",""up"",""up"",""good_move"",14797.2,3723.5,2564.6,11073.7,1158.9,""smooth"",""right"",""right"",""good_move"",17875.8,3078.4,2701.4,14797.4,377,""smooth"",""up"",""up"",""good_move""]","",""
"91054","","","","instructions","22","766318","0.0-8.0-2.0","83","1","2025-07-02 10:19:07","80fe4187154257d5fb01684ea91b68b9","41.10.149.159","Mozilla/5.0 (Windows NT 10.0; Win64; x64) AppleWebKit/537.36 (KHTML, like Gecko) Chrome/138.0.0.0 Safari/537.36","WebKit","Chrome","138.0.0.0","Windows","10.0","https://app.prolific.com/","en-US,en;q=0.9","668be7aeec30f3aae126f42a","683db6dfa200031b80f2a654","686507870859b38fe639c100","668be7aeec30f3aae126f42a","","[{""page_index"":0,""viewing_time"":91054}]","","","","","","","","","","","","","","","","","","","","","","","","","","","","","","","","","","","","","","","","","","",""
"","","","","ctl-task-cpt","23","806302","0.0-8.0-3.0","83","1","2025-07-02 10:19:07","80fe4187154257d5fb01684ea91b68b9","41.10.149.159","Mozilla/5.0 (Windows NT 10.0; Win64; x64) AppleWebKit/537.36 (KHTML, like Gecko) Chrome/138.0.0.0 Safari/537.36","WebKit","Chrome","138.0.0.0","Windows","10.0","https://app.prolific.com/","en-US,en;q=0.9","668be7aeec30f3aae126f42a","683db6dfa200031b80f2a654","686507870859b38fe639c100","668be7aeec30f3aae126f42a","","","","","","","","","","","","","","","","","win-only","1","g1:NE,g2:SW","0.35","0","3","768443.4","1695","5695.8","36977.1","2","4","8","6","2","-8","-8","0","0","0","1201","4000","-3005","[""down"",""left""]","{""num_key_presses"":8,""num_perfect"":4,""num_errors"":0,""num_randdir"":4,""num_randdir_good_moves"":2,""num_whilered"":0,""num_whileblue"":0,""num_blue"":2,""num_good_moves"":5}","[421.5714133126395,421.57142761775424,0.2,421.5714133126395,421.57142761775424,101.4,421.5714133126395,421.57142761775424,206.7,421.5714133126395,421.57142761775424,312.1,421.5714133126395,421.57142761775424,415.6,421.5714133126395,421.57142761775424,516,421.5714133126395,421.57142761775424,616,421.5714133126395,421.57142761775424,721.9,361.5714133126395,576.5714276177542,822.3,204.0714133126395,725.3214276177542,926.7,137.8214133126395,766.5714276177542,1031.1,114.0714133126395,760.3214276177542,1132.4,114.0714133126395,760.3214276177542,1236.6,114.0714133126395,760.3214276177542,1337.9,114.0714133126395,760.3214276177542,1442.7,114.0714133126395,760.3214276177542,1547.7,114.0714133126395,760.3214276177542,1650.6,114.0714133126395,760.3214276177542,1751.2,114.0714133126395,760.3214276177542,1851.5,114.0714133126395,760.3214276177542,1951.5,114.0714133126395,760.3214276177542,2056.1,114.0714133126395,760.3214276177542,2156.6,114.0714133126395,760.3214276177542,2256.6,114.0714133126395,760.3214276177542,2362.2,114.0714133126395,760.3214276177542,2465.6,114.0714133126395,760.3214276177542,2565.8,114.0714133126395,760.3214276177542,2666.8,114.0714133126395,760.3214276177542,2771.5,114.0714133126395,760.3214276177542,2876.6,114.0714133126395,760.3214276177542,2980.8,114.0714133126395,760.3214276177542,3085.5,114.0714133126395,760.3214276177542,3185.9,114.0714133126395,760.3214276177542,3291.4,114.0714133126395,760.3214276177542,3396.7,114.0714133126395,760.3214276177542,3500.5,114.0714133126395,760.3214276177542,3601.5,114.0714133126395,760.3214276177542,3706.6,114.0714133126395,760.3214276177542,3807,114.0714133126395,760.3214276177542,3911.4]","[4838.6,4838.6,2415.4,2005.4,417.8,""oops"",""left"",""down"",""good_move"",8250.2,3411.2,2977.7,4839,433.5,""smooth"",""left"",""left"",""good_move"",10946.7,2696.1,2232.8,8250.6,463.3,""oops"",""down"",""right"",""bad_move"",17374.5,6427.4,2522.9,14515,336.6,""oops"",""down"",""left"",""good_move"",20317.2,2942.5,2538.1,17374.7,404.4,""smooth"",""down"",""down"",""good_move"",23243,2925.6,2499.3,20317.4,426.3,""smooth"",""right"",""right"",""bad_move"",26390.9,3147.7,2473.6,23243.2,674.1,""oops"",""left"",""up"",""bad_move"",29209.1,2817.8,1934.9,26391.3,882.9,""smooth"",""down"",""down"",""good_move""]","",""
"58646","","","","instructions","24","864949","0.0-8.0-4.0","83","1","2025-07-02 10:19:07","80fe4187154257d5fb01684ea91b68b9","41.10.149.159","Mozilla/5.0 (Windows NT 10.0; Win64; x64) AppleWebKit/537.36 (KHTML, like Gecko) Chrome/138.0.0.0 Safari/537.36","WebKit","Chrome","138.0.0.0","Windows","10.0","https://app.prolific.com/","en-US,en;q=0.9","668be7aeec30f3aae126f42a","683db6dfa200031b80f2a654","686507870859b38fe639c100","668be7aeec30f3aae126f42a","","[{""page_index"":0,""viewing_time"":8216},{""page_index"":1,""viewing_time"":50430}]","","","","","","","","","","","","","","","","","","","","","","","","","","","","","","","","","","","","","","","","","","",""
"32210","","","{""green_ball"":[""Ball always shakes and moves in a random direction"",""Ball always moves in the direction I press"",""Ball sometimes shakes and moves in a random direction""]}","survey-multi-select","25","897161","0.0-8.0-5.0-0.0","83","1","2025-07-02 10:19:07","80fe4187154257d5fb01684ea91b68b9","41.10.149.159","Mozilla/5.0 (Windows NT 10.0; Win64; x64) AppleWebKit/537.36 (KHTML, like Gecko) Chrome/138.0.0.0 Safari/537.36","WebKit","Chrome","138.0.0.0","Windows","10.0","https://app.prolific.com/","en-US,en;q=0.9","668be7aeec30f3aae126f42a","683db6dfa200031b80f2a654","686507870859b38fe639c100","668be7aeec30f3aae126f42a","","","[0]","","","","quiz","","","","","","","","","","","","","","","","","","","","","","","","","","","","","","","","","","","","","false",""
"5597","","<p align='center'><b>INCORRECT.</b> Usually the green ball moves in the indicated direction, but sometimes it shakes and moves randomly. </p>","0","html-button-response","26","902761","0.0-8.0-5.0-1.0","83","1","2025-07-02 10:19:07","80fe4187154257d5fb01684ea91b68b9","41.10.149.159","Mozilla/5.0 (Windows NT 10.0; Win64; x64) AppleWebKit/537.36 (KHTML, like Gecko) Chrome/138.0.0.0 Safari/537.36","WebKit","Chrome","138.0.0.0","Windows","10.0","https://app.prolific.com/","en-US,en;q=0.9","668be7aeec30f3aae126f42a","683db6dfa200031b80f2a654","686507870859b38fe639c100","668be7aeec30f3aae126f42a","","","","","","","","","","","","","","","","","","","","","","","","","","","","","","","","","","","","","","","","","","","","",""
"4481","","","{""green_ball"":[""Ball always moves in the direction I press""]}","survey-multi-select","27","907244","0.0-8.0-5.1-0.1","83","1","2025-07-02 10:19:07","80fe4187154257d5fb01684ea91b68b9","41.10.149.159","Mozilla/5.0 (Windows NT 10.0; Win64; x64) AppleWebKit/537.36 (KHTML, like Gecko) Chrome/138.0.0.0 Safari/537.36","WebKit","Chrome","138.0.0.0","Windows","10.0","https://app.prolific.com/","en-US,en;q=0.9","668be7aeec30f3aae126f42a","683db6dfa200031b80f2a654","686507870859b38fe639c100","668be7aeec30f3aae126f42a","","","[0]","","","","quiz","","","","","","","","","","","","","","","","","","","","","","","","","","","","","","","","","","","","","false",""
"1593","","<p align='center'><b>INCORRECT.</b> Usually the green ball moves in the indicated direction, but sometimes it shakes and moves randomly. </p>","0","html-button-response","28","908838","0.0-8.0-5.1-1.1","83","1","2025-07-02 10:19:07","80fe4187154257d5fb01684ea91b68b9","41.10.149.159","Mozilla/5.0 (Windows NT 10.0; Win64; x64) AppleWebKit/537.36 (KHTML, like Gecko) Chrome/138.0.0.0 Safari/537.36","WebKit","Chrome","138.0.0.0","Windows","10.0","https://app.prolific.com/","en-US,en;q=0.9","668be7aeec30f3aae126f42a","683db6dfa200031b80f2a654","686507870859b38fe639c100","668be7aeec30f3aae126f42a","","","","","","","","","","","","","","","","","","","","","","","","","","","","","","","","","","","","","","","","","","","","",""
"10932","","","{""green_ball"":[""Ball always moves in the direction I press"",""Ball sometimes shakes and moves in a random direction""]}","survey-multi-select","29","919771","0.0-8.0-5.2-0.2","83","1","2025-07-02 10:19:07","80fe4187154257d5fb01684ea91b68b9","41.10.149.159","Mozilla/5.0 (Windows NT 10.0; Win64; x64) AppleWebKit/537.36 (KHTML, like Gecko) Chrome/138.0.0.0 Safari/537.36","WebKit","Chrome","138.0.0.0","Windows","10.0","https://app.prolific.com/","en-US,en;q=0.9","668be7aeec30f3aae126f42a","683db6dfa200031b80f2a654","686507870859b38fe639c100","668be7aeec30f3aae126f42a","","","[0]","","","","quiz","","","","","","","","","","","","","","","","","","","","","","","","","","","","","","","","","","","","","false",""
"1166","","<p align='center'><b>INCORRECT.</b> Usually the green ball moves in the indicated direction, but sometimes it shakes and moves randomly. </p>","0","html-button-response","30","920939","0.0-8.0-5.2-1.2","83","1","2025-07-02 10:19:07","80fe4187154257d5fb01684ea91b68b9","41.10.149.159","Mozilla/5.0 (Windows NT 10.0; Win64; x64) AppleWebKit/537.36 (KHTML, like Gecko) Chrome/138.0.0.0 Safari/537.36","WebKit","Chrome","138.0.0.0","Windows","10.0","https://app.prolific.com/","en-US,en;q=0.9","668be7aeec30f3aae126f42a","683db6dfa200031b80f2a654","686507870859b38fe639c100","668be7aeec30f3aae126f42a","","","","","","","","","","","","","","","","","","","","","","","","","","","","","","","","","","","","","","","","","","","","",""
"5920","","","{""green_ball"":[""Ball always moves in the direction I press""]}","survey-multi-select","31","926860","0.0-8.0-5.3-0.3","83","1","2025-07-02 10:19:07","80fe4187154257d5fb01684ea91b68b9","41.10.149.159","Mozilla/5.0 (Windows NT 10.0; Win64; x64) AppleWebKit/537.36 (KHTML, like Gecko) Chrome/138.0.0.0 Safari/537.36","WebKit","Chrome","138.0.0.0","Windows","10.0","https://app.prolific.com/","en-US,en;q=0.9","668be7aeec30f3aae126f42a","683db6dfa200031b80f2a654","686507870859b38fe639c100","668be7aeec30f3aae126f42a","","","[0]","","","","quiz","","","","","","","","","","","","","","","","","","","","","","","","","","","","","","","","","","","","","false",""
"2037","","<p align='center'><b>INCORRECT.</b> Usually the green ball moves in the indicated direction, but sometimes it shakes and moves randomly. </p>","0","html-button-response","32","928898","0.0-8.0-5.3-1.3","83","1","2025-07-02 10:19:07","80fe4187154257d5fb01684ea91b68b9","41.10.149.159","Mozilla/5.0 (Windows NT 10.0; Win64; x64) AppleWebKit/537.36 (KHTML, like Gecko) Chrome/138.0.0.0 Safari/537.36","WebKit","Chrome","138.0.0.0","Windows","10.0","https://app.prolific.com/","en-US,en;q=0.9","668be7aeec30f3aae126f42a","683db6dfa200031b80f2a654","686507870859b38fe639c100","668be7aeec30f3aae126f42a","","","","","","","","","","","","","","","","","","","","","","","","","","","","","","","","","","","","","","","","","","","","",""
"17289","","","{""green_ball"":[""Ball always shakes and moves in a random direction""]}","survey-multi-select","33","946189","0.0-8.0-5.4-0.4","83","1","2025-07-02 10:19:07","80fe4187154257d5fb01684ea91b68b9","41.10.149.159","Mozilla/5.0 (Windows NT 10.0; Win64; x64) AppleWebKit/537.36 (KHTML, like Gecko) Chrome/138.0.0.0 Safari/537.36","WebKit","Chrome","138.0.0.0","Windows","10.0","https://app.prolific.com/","en-US,en;q=0.9","668be7aeec30f3aae126f42a","683db6dfa200031b80f2a654","686507870859b38fe639c100","668be7aeec30f3aae126f42a","","","[0]","","","","quiz","","","","","","","","","","","","","","","","","","","","","","","","","","","","","","","","","","","","","false",""
"1206","","<p align='center'><b>INCORRECT.</b> Usually the green ball moves in the indicated direction, but sometimes it shakes and moves randomly. </p>","0","html-button-response","34","947396","0.0-8.0-5.4-1.4","83","1","2025-07-02 10:19:07","80fe4187154257d5fb01684ea91b68b9","41.10.149.159","Mozilla/5.0 (Windows NT 10.0; Win64; x64) AppleWebKit/537.36 (KHTML, like Gecko) Chrome/138.0.0.0 Safari/537.36","WebKit","Chrome","138.0.0.0","Windows","10.0","https://app.prolific.com/","en-US,en;q=0.9","668be7aeec30f3aae126f42a","683db6dfa200031b80f2a654","686507870859b38fe639c100","668be7aeec30f3aae126f42a","","","","","","","","","","","","","","","","","","","","","","","","","","","","","","","","","","","","","","","","","","","","",""
"2159","","","{""green_ball"":[""Ball always shakes and moves in a random direction"",""Ball sometimes shakes and moves in a random direction""]}","survey-multi-select","35","949556","0.0-8.0-5.5-0.5","83","1","2025-07-02 10:19:07","80fe4187154257d5fb01684ea91b68b9","41.10.149.159","Mozilla/5.0 (Windows NT 10.0; Win64; x64) AppleWebKit/537.36 (KHTML, like Gecko) Chrome/138.0.0.0 Safari/537.36","WebKit","Chrome","138.0.0.0","Windows","10.0","https://app.prolific.com/","en-US,en;q=0.9","668be7aeec30f3aae126f42a","683db6dfa200031b80f2a654","686507870859b38fe639c100","668be7aeec30f3aae126f42a","","","[0]","","","","quiz","","","","","","","","","","","","","","","","","","","","","","","","","","","","","","","","","","","","","false",""
"1119","","<p align='center'><b>INCORRECT.</b> Usually the green ball moves in the indicated direction, but sometimes it shakes and moves randomly. </p>","0","html-button-response","36","950677","0.0-8.0-5.5-1.5","83","1","2025-07-02 10:19:07","80fe4187154257d5fb01684ea91b68b9","41.10.149.159","Mozilla/5.0 (Windows NT 10.0; Win64; x64) AppleWebKit/537.36 (KHTML, like Gecko) Chrome/138.0.0.0 Safari/537.36","WebKit","Chrome","138.0.0.0","Windows","10.0","https://app.prolific.com/","en-US,en;q=0.9","668be7aeec30f3aae126f42a","683db6dfa200031b80f2a654","686507870859b38fe639c100","668be7aeec30f3aae126f42a","","","","","","","","","","","","","","","","","","","","","","","","","","","","","","","","","","","","","","","","","","","","",""
"3230","","","{""green_ball"":[""Ball always shakes and moves in a random direction"",""Ball doesn‘t move and I get -1 penalty point"",""Ball always moves in the direction I press"",""Ball sometimes shakes and moves in a random direction""]}","survey-multi-select","37","953908","0.0-8.0-5.6-0.6","83","1","2025-07-02 10:19:07","80fe4187154257d5fb01684ea91b68b9","41.10.149.159","Mozilla/5.0 (Windows NT 10.0; Win64; x64) AppleWebKit/537.36 (KHTML, like Gecko) Chrome/138.0.0.0 Safari/537.36","WebKit","Chrome","138.0.0.0","Windows","10.0","https://app.prolific.com/","en-US,en;q=0.9","668be7aeec30f3aae126f42a","683db6dfa200031b80f2a654","686507870859b38fe639c100","668be7aeec30f3aae126f42a","","","[0]","","","","quiz","","","","","","","","","","","","","","","","","","","","","","","","","","","","","","","","","","","","","false",""
"1101","","<p align='center'><b>INCORRECT.</b> Usually the green ball moves in the indicated direction, but sometimes it shakes and moves randomly. </p>","0","html-button-response","38","955010","0.0-8.0-5.6-1.6","83","1","2025-07-02 10:19:07","80fe4187154257d5fb01684ea91b68b9","41.10.149.159","Mozilla/5.0 (Windows NT 10.0; Win64; x64) AppleWebKit/537.36 (KHTML, like Gecko) Chrome/138.0.0.0 Safari/537.36","WebKit","Chrome","138.0.0.0","Windows","10.0","https://app.prolific.com/","en-US,en;q=0.9","668be7aeec30f3aae126f42a","683db6dfa200031b80f2a654","686507870859b38fe639c100","668be7aeec30f3aae126f42a","","","","","","","","","","","","","","","","","","","","","","","","","","","","","","","","","","","","","","","","","","","","",""
"6337","","","{""green_ball"":[""Ball always moves in the direction I press""]}","survey-multi-select","39","961348","0.0-8.0-5.7-0.7","83","1","2025-07-02 10:19:07","80fe4187154257d5fb01684ea91b68b9","41.10.149.159","Mozilla/5.0 (Windows NT 10.0; Win64; x64) AppleWebKit/537.36 (KHTML, like Gecko) Chrome/138.0.0.0 Safari/537.36","WebKit","Chrome","138.0.0.0","Windows","10.0","https://app.prolific.com/","en-US,en;q=0.9","668be7aeec30f3aae126f42a","683db6dfa200031b80f2a654","686507870859b38fe639c100","668be7aeec30f3aae126f42a","","","[0]","","","","quiz","","","","","","","","","","","","","","","","","","","","","","","","","","","","","","","","","","","","","false",""
"2806","","<p align='center'><b>INCORRECT.</b> Usually the green ball moves in the indicated direction, but sometimes it shakes and moves randomly. </p>","0","html-button-response","40","964155","0.0-8.0-5.7-1.7","83","1","2025-07-02 10:19:07","80fe4187154257d5fb01684ea91b68b9","41.10.149.159","Mozilla/5.0 (Windows NT 10.0; Win64; x64) AppleWebKit/537.36 (KHTML, like Gecko) Chrome/138.0.0.0 Safari/537.36","WebKit","Chrome","138.0.0.0","Windows","10.0","https://app.prolific.com/","en-US,en;q=0.9","668be7aeec30f3aae126f42a","683db6dfa200031b80f2a654","686507870859b38fe639c100","668be7aeec30f3aae126f42a","","","","","","","","","","","","","","","","","","","","","","","","","","","","","","","","","","","","","","","","","","","","",""
"2249","","","{""green_ball"":[""Ball always moves in the direction I press"",""Ball sometimes shakes and moves in a random direction""]}","survey-multi-select","41","966406","0.0-8.0-5.8-0.8","83","1","2025-07-02 10:19:07","80fe4187154257d5fb01684ea91b68b9","41.10.149.159","Mozilla/5.0 (Windows NT 10.0; Win64; x64) AppleWebKit/537.36 (KHTML, like Gecko) Chrome/138.0.0.0 Safari/537.36","WebKit","Chrome","138.0.0.0","Windows","10.0","https://app.prolific.com/","en-US,en;q=0.9","668be7aeec30f3aae126f42a","683db6dfa200031b80f2a654","686507870859b38fe639c100","668be7aeec30f3aae126f42a","","","[0]","","","","quiz","","","","","","","","","","","","","","","","","","","","","","","","","","","","","","","","","","","","","false",""
"1894","","<p align='center'><b>INCORRECT.</b> Usually the green ball moves in the indicated direction, but sometimes it shakes and moves randomly. </p>","0","html-button-response","42","968301","0.0-8.0-5.8-1.8","83","1","2025-07-02 10:19:07","80fe4187154257d5fb01684ea91b68b9","41.10.149.159","Mozilla/5.0 (Windows NT 10.0; Win64; x64) AppleWebKit/537.36 (KHTML, like Gecko) Chrome/138.0.0.0 Safari/537.36","WebKit","Chrome","138.0.0.0","Windows","10.0","https://app.prolific.com/","en-US,en;q=0.9","668be7aeec30f3aae126f42a","683db6dfa200031b80f2a654","686507870859b38fe639c100","668be7aeec30f3aae126f42a","","","","","","","","","","","","","","","","","","","","","","","","","","","","","","","","","","","","","","","","","","","","",""
"8105","","","{""green_ball"":[""Ball always moves in the direction I press"",""Ball sometimes shakes and moves in a random direction""]}","survey-multi-select","43","976407","0.0-8.0-5.9-0.9","83","1","2025-07-02 10:19:07","80fe4187154257d5fb01684ea91b68b9","41.10.149.159","Mozilla/5.0 (Windows NT 10.0; Win64; x64) AppleWebKit/537.36 (KHTML, like Gecko) Chrome/138.0.0.0 Safari/537.36","WebKit","Chrome","138.0.0.0","Windows","10.0","https://app.prolific.com/","en-US,en;q=0.9","668be7aeec30f3aae126f42a","683db6dfa200031b80f2a654","686507870859b38fe639c100","668be7aeec30f3aae126f42a","","","[0]","","","","quiz","","","","","","","","","","","","","","","","","","","","","","","","","","","","","","","","","","","","","false",""
"1245","","<p align='center'><b>INCORRECT.</b> Usually the green ball moves in the indicated direction, but sometimes it shakes and moves randomly. </p>","0","html-button-response","44","977653","0.0-8.0-5.9-1.9","83","1","2025-07-02 10:19:07","80fe4187154257d5fb01684ea91b68b9","41.10.149.159","Mozilla/5.0 (Windows NT 10.0; Win64; x64) AppleWebKit/537.36 (KHTML, like Gecko) Chrome/138.0.0.0 Safari/537.36","WebKit","Chrome","138.0.0.0","Windows","10.0","https://app.prolific.com/","en-US,en;q=0.9","668be7aeec30f3aae126f42a","683db6dfa200031b80f2a654","686507870859b38fe639c100","668be7aeec30f3aae126f42a","","","","","","","","","","","","","","","","","","","","","","","","","","","","","","","","","","","","","","","","","","","","",""
"68881","","","{""green_ball"":[""Ball doesn‘t move and I get -1 penalty point"",""Ball sometimes shakes and moves in a random direction""]}","survey-multi-select","45","1046536","0.0-8.0-5.10-0.10","83","1","2025-07-02 10:19:07","80fe4187154257d5fb01684ea91b68b9","41.10.149.159","Mozilla/5.0 (Windows NT 10.0; Win64; x64) AppleWebKit/537.36 (KHTML, like Gecko) Chrome/138.0.0.0 Safari/537.36","WebKit","Chrome","138.0.0.0","Windows","10.0","https://app.prolific.com/","en-US,en;q=0.9","668be7aeec30f3aae126f42a","683db6dfa200031b80f2a654","686507870859b38fe639c100","668be7aeec30f3aae126f42a","","","[0]","","","","quiz","","","","","","","","","","","","","","","","","","","","","","","","","","","","","","","","","","","","","false",""
"1198","","<p align='center'><b>INCORRECT.</b> Usually the green ball moves in the indicated direction, but sometimes it shakes and moves randomly. </p>","0","html-button-response","46","1047735","0.0-8.0-5.10-1.10","83","1","2025-07-02 10:19:07","80fe4187154257d5fb01684ea91b68b9","41.10.149.159","Mozilla/5.0 (Windows NT 10.0; Win64; x64) AppleWebKit/537.36 (KHTML, like Gecko) Chrome/138.0.0.0 Safari/537.36","WebKit","Chrome","138.0.0.0","Windows","10.0","https://app.prolific.com/","en-US,en;q=0.9","668be7aeec30f3aae126f42a","683db6dfa200031b80f2a654","686507870859b38fe639c100","668be7aeec30f3aae126f42a","","","","","","","","","","","","","","","","","","","","","","","","","","","","","","","","","","","","","","","","","","","","",""
"3119","","","{""green_ball"":[""Ball always shakes and moves in a random direction"",""Ball doesn‘t move and I get -1 penalty point""]}","survey-multi-select","47","1050856","0.0-8.0-5.11-0.11","83","1","2025-07-02 10:19:07","80fe4187154257d5fb01684ea91b68b9","41.10.149.159","Mozilla/5.0 (Windows NT 10.0; Win64; x64) AppleWebKit/537.36 (KHTML, like Gecko) Chrome/138.0.0.0 Safari/537.36","WebKit","Chrome","138.0.0.0","Windows","10.0","https://app.prolific.com/","en-US,en;q=0.9","668be7aeec30f3aae126f42a","683db6dfa200031b80f2a654","686507870859b38fe639c100","668be7aeec30f3aae126f42a","","","[0]","","","","quiz","","","","","","","","","","","","","","","","","","","","","","","","","","","","","","","","","","","","","false",""
"948","","<p align='center'><b>INCORRECT.</b> Usually the green ball moves in the indicated direction, but sometimes it shakes and moves randomly. </p>","0","html-button-response","48","1051805","0.0-8.0-5.11-1.11","83","1","2025-07-02 10:19:07","80fe4187154257d5fb01684ea91b68b9","41.10.149.159","Mozilla/5.0 (Windows NT 10.0; Win64; x64) AppleWebKit/537.36 (KHTML, like Gecko) Chrome/138.0.0.0 Safari/537.36","WebKit","Chrome","138.0.0.0","Windows","10.0","https://app.prolific.com/","en-US,en;q=0.9","668be7aeec30f3aae126f42a","683db6dfa200031b80f2a654","686507870859b38fe639c100","668be7aeec30f3aae126f42a","","","","","","","","","","","","","","","","","","","","","","","","","","","","","","","","","","","","","","","","","","","","",""
"6897","","","{""green_ball"":[""Ball doesn‘t move and I get -1 penalty point"",""Ball always moves in the direction I press"",""Ball sometimes shakes and moves in a random direction""]}","survey-multi-select","49","1058704","0.0-8.0-5.12-0.12","83","1","2025-07-02 10:19:07","80fe4187154257d5fb01684ea91b68b9","41.10.149.159","Mozilla/5.0 (Windows NT 10.0; Win64; x64) AppleWebKit/537.36 (KHTML, like Gecko) Chrome/138.0.0.0 Safari/537.36","WebKit","Chrome","138.0.0.0","Windows","10.0","https://app.prolific.com/","en-US,en;q=0.9","668be7aeec30f3aae126f42a","683db6dfa200031b80f2a654","686507870859b38fe639c100","668be7aeec30f3aae126f42a","","","[0]","","","","quiz","","","","","","","","","","","","","","","","","","","","","","","","","","","","","","","","","","","","","false",""
"1372","","<p align='center'><b>INCORRECT.</b> Usually the green ball moves in the indicated direction, but sometimes it shakes and moves randomly. </p>","0","html-button-response","50","1060078","0.0-8.0-5.12-1.12","83","1","2025-07-02 10:19:07","80fe4187154257d5fb01684ea91b68b9","41.10.149.159","Mozilla/5.0 (Windows NT 10.0; Win64; x64) AppleWebKit/537.36 (KHTML, like Gecko) Chrome/138.0.0.0 Safari/537.36","WebKit","Chrome","138.0.0.0","Windows","10.0","https://app.prolific.com/","en-US,en;q=0.9","668be7aeec30f3aae126f42a","683db6dfa200031b80f2a654","686507870859b38fe639c100","668be7aeec30f3aae126f42a","","","","","","","","","","","","","","","","","","","","","","","","","","","","","","","","","","","","","","","","","","","","",""
"6538","","","{""green_ball"":[""Ball always moves in the direction I press""]}","survey-multi-select","51","1066617","0.0-8.0-5.13-0.13","83","1","2025-07-02 10:19:07","80fe4187154257d5fb01684ea91b68b9","41.10.149.159","Mozilla/5.0 (Windows NT 10.0; Win64; x64) AppleWebKit/537.36 (KHTML, like Gecko) Chrome/138.0.0.0 Safari/537.36","WebKit","Chrome","138.0.0.0","Windows","10.0","https://app.prolific.com/","en-US,en;q=0.9","668be7aeec30f3aae126f42a","683db6dfa200031b80f2a654","686507870859b38fe639c100","668be7aeec30f3aae126f42a","","","[0]","","","","quiz","","","","","","","","","","","","","","","","","","","","","","","","","","","","","","","","","","","","","false",""
"5236","","<p align='center'><b>INCORRECT.</b> Usually the green ball moves in the indicated direction, but sometimes it shakes and moves randomly. </p>","0","html-button-response","52","1071854","0.0-8.0-5.13-1.13","83","1","2025-07-02 10:19:07","80fe4187154257d5fb01684ea91b68b9","41.10.149.159","Mozilla/5.0 (Windows NT 10.0; Win64; x64) AppleWebKit/537.36 (KHTML, like Gecko) Chrome/138.0.0.0 Safari/537.36","WebKit","Chrome","138.0.0.0","Windows","10.0","https://app.prolific.com/","en-US,en;q=0.9","668be7aeec30f3aae126f42a","683db6dfa200031b80f2a654","686507870859b38fe639c100","668be7aeec30f3aae126f42a","","","","","","","","","","","","","","","","","","","","","","","","","","","","","","","","","","","","","","","","","","","","",""
"12848","","","{""green_ball"":[""Ball always moves in the direction I press"",""Ball sometimes shakes and moves in a random direction""]}","survey-multi-select","53","1084703","0.0-8.0-5.14-0.14","83","1","2025-07-02 10:19:07","80fe4187154257d5fb01684ea91b68b9","41.10.149.159","Mozilla/5.0 (Windows NT 10.0; Win64; x64) AppleWebKit/537.36 (KHTML, like Gecko) Chrome/138.0.0.0 Safari/537.36","WebKit","Chrome","138.0.0.0","Windows","10.0","https://app.prolific.com/","en-US,en;q=0.9","668be7aeec30f3aae126f42a","683db6dfa200031b80f2a654","686507870859b38fe639c100","668be7aeec30f3aae126f42a","","","[0]","","","","quiz","","","","","","","","","","","","","","","","","","","","","","","","","","","","","","","","","","","","","false",""
"1179","","<p align='center'><b>INCORRECT.</b> Usually the green ball moves in the indicated direction, but sometimes it shakes and moves randomly. </p>","0","html-button-response","54","1085883","0.0-8.0-5.14-1.14","83","1","2025-07-02 10:19:07","80fe4187154257d5fb01684ea91b68b9","41.10.149.159","Mozilla/5.0 (Windows NT 10.0; Win64; x64) AppleWebKit/537.36 (KHTML, like Gecko) Chrome/138.0.0.0 Safari/537.36","WebKit","Chrome","138.0.0.0","Windows","10.0","https://app.prolific.com/","en-US,en;q=0.9","668be7aeec30f3aae126f42a","683db6dfa200031b80f2a654","686507870859b38fe639c100","668be7aeec30f3aae126f42a","","","","","","","","","","","","","","","","","","","","","","","","","","","","","","","","","","","","","","","","","","","","",""
"8684","","","{""green_ball"":[""Ball always shakes and moves in a random direction""]}","survey-multi-select","55","1094568","0.0-8.0-5.15-0.15","83","1","2025-07-02 10:19:07","80fe4187154257d5fb01684ea91b68b9","41.10.149.159","Mozilla/5.0 (Windows NT 10.0; Win64; x64) AppleWebKit/537.36 (KHTML, like Gecko) Chrome/138.0.0.0 Safari/537.36","WebKit","Chrome","138.0.0.0","Windows","10.0","https://app.prolific.com/","en-US,en;q=0.9","668be7aeec30f3aae126f42a","683db6dfa200031b80f2a654","686507870859b38fe639c100","668be7aeec30f3aae126f42a","","","[0]","","","","quiz","","","","","","","","","","","","","","","","","","","","","","","","","","","","","","","","","","","","","false",""
"1115","","<p align='center'><b>INCORRECT.</b> Usually the green ball moves in the indicated direction, but sometimes it shakes and moves randomly. </p>","0","html-button-response","56","1095684","0.0-8.0-5.15-1.15","83","1","2025-07-02 10:19:07","80fe4187154257d5fb01684ea91b68b9","41.10.149.159","Mozilla/5.0 (Windows NT 10.0; Win64; x64) AppleWebKit/537.36 (KHTML, like Gecko) Chrome/138.0.0.0 Safari/537.36","WebKit","Chrome","138.0.0.0","Windows","10.0","https://app.prolific.com/","en-US,en;q=0.9","668be7aeec30f3aae126f42a","683db6dfa200031b80f2a654","686507870859b38fe639c100","668be7aeec30f3aae126f42a","","","","","","","","","","","","","","","","","","","","","","","","","","","","","","","","","","","","","","","","","","","","",""
"2175","","","{""green_ball"":[""Ball doesn‘t move and I get -1 penalty point""]}","survey-multi-select","57","1097860","0.0-8.0-5.16-0.16","83","1","2025-07-02 10:19:07","80fe4187154257d5fb01684ea91b68b9","41.10.149.159","Mozilla/5.0 (Windows NT 10.0; Win64; x64) AppleWebKit/537.36 (KHTML, like Gecko) Chrome/138.0.0.0 Safari/537.36","WebKit","Chrome","138.0.0.0","Windows","10.0","https://app.prolific.com/","en-US,en;q=0.9","668be7aeec30f3aae126f42a","683db6dfa200031b80f2a654","686507870859b38fe639c100","668be7aeec30f3aae126f42a","","","[0]","","","","quiz","","","","","","","","","","","","","","","","","","","","","","","","","","","","","","","","","","","","","false",""
"992","","<p align='center'><b>INCORRECT.</b> Usually the green ball moves in the indicated direction, but sometimes it shakes and moves randomly. </p>","0","html-button-response","58","1098853","0.0-8.0-5.16-1.16","83","1","2025-07-02 10:19:07","80fe4187154257d5fb01684ea91b68b9","41.10.149.159","Mozilla/5.0 (Windows NT 10.0; Win64; x64) AppleWebKit/537.36 (KHTML, like Gecko) Chrome/138.0.0.0 Safari/537.36","WebKit","Chrome","138.0.0.0","Windows","10.0","https://app.prolific.com/","en-US,en;q=0.9","668be7aeec30f3aae126f42a","683db6dfa200031b80f2a654","686507870859b38fe639c100","668be7aeec30f3aae126f42a","","","","","","","","","","","","","","","","","","","","","","","","","","","","","","","","","","","","","","","","","","","","",""
"2422","","","{""green_ball"":[""Ball always moves in the direction I press""]}","survey-multi-select","59","1101276","0.0-8.0-5.17-0.17","83","1","2025-07-02 10:19:07","80fe4187154257d5fb01684ea91b68b9","41.10.149.159","Mozilla/5.0 (Windows NT 10.0; Win64; x64) AppleWebKit/537.36 (KHTML, like Gecko) Chrome/138.0.0.0 Safari/537.36","WebKit","Chrome","138.0.0.0","Windows","10.0","https://app.prolific.com/","en-US,en;q=0.9","668be7aeec30f3aae126f42a","683db6dfa200031b80f2a654","686507870859b38fe639c100","668be7aeec30f3aae126f42a","","","[0]","","","","quiz","","","","","","","","","","","","","","","","","","","","","","","","","","","","","","","","","","","","","false",""
"849","","<p align='center'><b>INCORRECT.</b> Usually the green ball moves in the indicated direction, but sometimes it shakes and moves randomly. </p>","0","html-button-response","60","1102125","0.0-8.0-5.17-1.17","83","1","2025-07-02 10:19:07","80fe4187154257d5fb01684ea91b68b9","41.10.149.159","Mozilla/5.0 (Windows NT 10.0; Win64; x64) AppleWebKit/537.36 (KHTML, like Gecko) Chrome/138.0.0.0 Safari/537.36","WebKit","Chrome","138.0.0.0","Windows","10.0","https://app.prolific.com/","en-US,en;q=0.9","668be7aeec30f3aae126f42a","683db6dfa200031b80f2a654","686507870859b38fe639c100","668be7aeec30f3aae126f42a","","","","","","","","","","","","","","","","","","","","","","","","","","","","","","","","","","","","","","","","","","","","",""
"7233","","","{""green_ball"":[""Ball doesn‘t move and I get -1 penalty point"",""Ball always moves in the direction I press""]}","survey-multi-select","61","1109360","0.0-8.0-5.18-0.18","83","1","2025-07-02 10:19:07","80fe4187154257d5fb01684ea91b68b9","41.10.149.159","Mozilla/5.0 (Windows NT 10.0; Win64; x64) AppleWebKit/537.36 (KHTML, like Gecko) Chrome/138.0.0.0 Safari/537.36","WebKit","Chrome","138.0.0.0","Windows","10.0","https://app.prolific.com/","en-US,en;q=0.9","668be7aeec30f3aae126f42a","683db6dfa200031b80f2a654","686507870859b38fe639c100","668be7aeec30f3aae126f42a","","","[0]","","","","quiz","","","","","","","","","","","","","","","","","","","","","","","","","","","","","","","","","","","","","false",""
"857","","<p align='center'><b>INCORRECT.</b> Usually the green ball moves in the indicated direction, but sometimes it shakes and moves randomly. </p>","0","html-button-response","62","1110218","0.0-8.0-5.18-1.18","83","1","2025-07-02 10:19:07","80fe4187154257d5fb01684ea91b68b9","41.10.149.159","Mozilla/5.0 (Windows NT 10.0; Win64; x64) AppleWebKit/537.36 (KHTML, like Gecko) Chrome/138.0.0.0 Safari/537.36","WebKit","Chrome","138.0.0.0","Windows","10.0","https://app.prolific.com/","en-US,en;q=0.9","668be7aeec30f3aae126f42a","683db6dfa200031b80f2a654","686507870859b38fe639c100","668be7aeec30f3aae126f42a","","","","","","","","","","","","","","","","","","","","","","","","","","","","","","","","","","","","","","","","","","","","",""
"2235","","","{""green_ball"":[""Ball doesn‘t move and I get -1 penalty point"",""Ball always moves in the direction I press"",""Ball sometimes shakes and moves in a random direction""]}","survey-multi-select","63","1112455","0.0-8.0-5.19-0.19","83","1","2025-07-02 10:19:07","80fe4187154257d5fb01684ea91b68b9","41.10.149.159","Mozilla/5.0 (Windows NT 10.0; Win64; x64) AppleWebKit/537.36 (KHTML, like Gecko) Chrome/138.0.0.0 Safari/537.36","WebKit","Chrome","138.0.0.0","Windows","10.0","https://app.prolific.com/","en-US,en;q=0.9","668be7aeec30f3aae126f42a","683db6dfa200031b80f2a654","686507870859b38fe639c100","668be7aeec30f3aae126f42a","","","[0]","","","","quiz","","","","","","","","","","","","","","","","","","","","","","","","","","","","","","","","","","","","","false",""
"892","","<p align='center'><b>INCORRECT.</b> Usually the green ball moves in the indicated direction, but sometimes it shakes and moves randomly. </p>","0","html-button-response","64","1113347","0.0-8.0-5.19-1.19","83","1","2025-07-02 10:19:07","80fe4187154257d5fb01684ea91b68b9","41.10.149.159","Mozilla/5.0 (Windows NT 10.0; Win64; x64) AppleWebKit/537.36 (KHTML, like Gecko) Chrome/138.0.0.0 Safari/537.36","WebKit","Chrome","138.0.0.0","Windows","10.0","https://app.prolific.com/","en-US,en;q=0.9","668be7aeec30f3aae126f42a","683db6dfa200031b80f2a654","686507870859b38fe639c100","668be7aeec30f3aae126f42a","","","","","","","","","","","","","","","","","","","","","","","","","","","","","","","","","","","","","","","","","","","","",""
"3554","","","{""green_ball"":[""Ball doesn‘t move and I get -1 penalty point"",""Ball sometimes shakes and moves in a random direction""]}","survey-multi-select","65","1116903","0.0-8.0-5.20-0.20","83","1","2025-07-02 10:19:07","80fe4187154257d5fb01684ea91b68b9","41.10.149.159","Mozilla/5.0 (Windows NT 10.0; Win64; x64) AppleWebKit/537.36 (KHTML, like Gecko) Chrome/138.0.0.0 Safari/537.36","WebKit","Chrome","138.0.0.0","Windows","10.0","https://app.prolific.com/","en-US,en;q=0.9","668be7aeec30f3aae126f42a","683db6dfa200031b80f2a654","686507870859b38fe639c100","668be7aeec30f3aae126f42a","","","[0]","","","","quiz","","","","","","","","","","","","","","","","","","","","","","","","","","","","","","","","","","","","","false",""
"16048","","<p align='center'><b>INCORRECT.</b> Usually the green ball moves in the indicated direction, but sometimes it shakes and moves randomly. </p>","0","html-button-response","66","1132952","0.0-8.0-5.20-1.20","83","1","2025-07-02 10:19:07","80fe4187154257d5fb01684ea91b68b9","41.10.149.159","Mozilla/5.0 (Windows NT 10.0; Win64; x64) AppleWebKit/537.36 (KHTML, like Gecko) Chrome/138.0.0.0 Safari/537.36","WebKit","Chrome","138.0.0.0","Windows","10.0","https://app.prolific.com/","en-US,en;q=0.9","668be7aeec30f3aae126f42a","683db6dfa200031b80f2a654","686507870859b38fe639c100","668be7aeec30f3aae126f42a","","","","","","","","","","","","","","","","","","","","","","","","","","","","","","","","","","","","","","","","","","","","",""
"5529","","","{""green_ball"":[""Ball sometimes shakes and moves in a random direction""]}","survey-multi-select","67","1138483","0.0-8.0-5.21-0.21","83","1","2025-07-02 10:19:07","80fe4187154257d5fb01684ea91b68b9","41.10.149.159","Mozilla/5.0 (Windows NT 10.0; Win64; x64) AppleWebKit/537.36 (KHTML, like Gecko) Chrome/138.0.0.0 Safari/537.36","WebKit","Chrome","138.0.0.0","Windows","10.0","https://app.prolific.com/","en-US,en;q=0.9","668be7aeec30f3aae126f42a","683db6dfa200031b80f2a654","686507870859b38fe639c100","668be7aeec30f3aae126f42a","","","[0]","","","","quiz","","","","","","","","","","","","","","","","","","","","","","","","","","","","","","","","","","","","","true",""
"9683","","<p align='center'><b>CORRECT!</b> Indeed, the green ball may sometimes shake and move in a random direction.</p>","0","html-button-response","68","1148167","0.0-8.0-5.21-1.21","83","1","2025-07-02 10:19:07","80fe4187154257d5fb01684ea91b68b9","41.10.149.159","Mozilla/5.0 (Windows NT 10.0; Win64; x64) AppleWebKit/537.36 (KHTML, like Gecko) Chrome/138.0.0.0 Safari/537.36","WebKit","Chrome","138.0.0.0","Windows","10.0","https://app.prolific.com/","en-US,en;q=0.9","668be7aeec30f3aae126f42a","683db6dfa200031b80f2a654","686507870859b38fe639c100","668be7aeec30f3aae126f42a","","","","","","","","","","","","","","","","","","","","","","","","","","","","","","","","","","","","","","","","","","","","",""
"52445","","","{""yellow_ball"":[""Ball doesn‘t move and I get -1 penalty point""]}","survey-multi-select","69","1200613","0.0-8.0-6.0-0.0","83","1","2025-07-02 10:19:07","80fe4187154257d5fb01684ea91b68b9","41.10.149.159","Mozilla/5.0 (Windows NT 10.0; Win64; x64) AppleWebKit/537.36 (KHTML, like Gecko) Chrome/138.0.0.0 Safari/537.36","WebKit","Chrome","138.0.0.0","Windows","10.0","https://app.prolific.com/","en-US,en;q=0.9","668be7aeec30f3aae126f42a","683db6dfa200031b80f2a654","686507870859b38fe639c100","668be7aeec30f3aae126f42a","","","[0]","","","","quiz","","","","","","","","","","","","","","","","","","","","","","","","","","","","","","","","","","","","","true",""
"924","","<p align='center'><b>CORRECT!</b> Indeed, the yellow ball never moves and you receive a penalty.</p>","0","html-button-response","70","1201538","0.0-8.0-6.0-1.0","83","1","2025-07-02 10:19:07","80fe4187154257d5fb01684ea91b68b9","41.10.149.159","Mozilla/5.0 (Windows NT 10.0; Win64; x64) AppleWebKit/537.36 (KHTML, like Gecko) Chrome/138.0.0.0 Safari/537.36","WebKit","Chrome","138.0.0.0","Windows","10.0","https://app.prolific.com/","en-US,en;q=0.9","668be7aeec30f3aae126f42a","683db6dfa200031b80f2a654","686507870859b38fe639c100","668be7aeec30f3aae126f42a","","","","","","","","","","","","","","","","","","","","","","","","","","","","","","","","","","","","","","","","","","","","",""
"12297","","","{""blue_ball"":[""Ball always shakes and moves in a random direction""]}","survey-multi-select","71","1213837","0.0-8.0-7.0-0.0","83","1","2025-07-02 10:19:07","80fe4187154257d5fb01684ea91b68b9","41.10.149.159","Mozilla/5.0 (Windows NT 10.0; Win64; x64) AppleWebKit/537.36 (KHTML, like Gecko) Chrome/138.0.0.0 Safari/537.36","WebKit","Chrome","138.0.0.0","Windows","10.0","https://app.prolific.com/","en-US,en;q=0.9","668be7aeec30f3aae126f42a","683db6dfa200031b80f2a654","686507870859b38fe639c100","668be7aeec30f3aae126f42a","","","[0]","","","","quiz","","","","","","","","","","","","","","","","","","","","","","","","","","","","","","","","","","","","","true",""
"822","","<p align='center'><b>CORRECT!</b> Indeed, the blue ball always shakes and moves in a random direction. Also there is a penalty of -1 point.</p>","0","html-button-response","72","1214661","0.0-8.0-7.0-1.0","83","1","2025-07-02 10:19:07","80fe4187154257d5fb01684ea91b68b9","41.10.149.159","Mozilla/5.0 (Windows NT 10.0; Win64; x64) AppleWebKit/537.36 (KHTML, like Gecko) Chrome/138.0.0.0 Safari/537.36","WebKit","Chrome","138.0.0.0","Windows","10.0","https://app.prolific.com/","en-US,en;q=0.9","668be7aeec30f3aae126f42a","683db6dfa200031b80f2a654","686507870859b38fe639c100","668be7aeec30f3aae126f42a","","","","","","","","","","","","","","","","","","","","","","","","","","","","","","","","","","","","","","","","","","","","",""
"9801","","","{""bonus"":[""When I reach 50% of points""]}","survey-multi-select","73","1224463","0.0-8.0-8.0-0.0","83","1","2025-07-02 10:19:07","80fe4187154257d5fb01684ea91b68b9","41.10.149.159","Mozilla/5.0 (Windows NT 10.0; Win64; x64) AppleWebKit/537.36 (KHTML, like Gecko) Chrome/138.0.0.0 Safari/537.36","WebKit","Chrome","138.0.0.0","Windows","10.0","https://app.prolific.com/","en-US,en;q=0.9","668be7aeec30f3aae126f42a","683db6dfa200031b80f2a654","686507870859b38fe639c100","668be7aeec30f3aae126f42a","","","[0]","","","","quiz","","","","","","","","","","","","","","","","","","","","","","","","","","","","","","","","","","","","","true",""
"908","","<p align='center'><b>CORRECT!</b> Indeed, you receive 2 pounds extra when you reach 50% of points.</p>","0","html-button-response","74","1225373","0.0-8.0-8.0-1.0","83","1","2025-07-02 10:19:07","80fe4187154257d5fb01684ea91b68b9","41.10.149.159","Mozilla/5.0 (Windows NT 10.0; Win64; x64) AppleWebKit/537.36 (KHTML, like Gecko) Chrome/138.0.0.0 Safari/537.36","WebKit","Chrome","138.0.0.0","Windows","10.0","https://app.prolific.com/","en-US,en;q=0.9","668be7aeec30f3aae126f42a","683db6dfa200031b80f2a654","686507870859b38fe639c100","668be7aeec30f3aae126f42a","","","","","","","","","","","","","","","","","","","","","","","","","","","","","","","","","","","","","","","","","","","","",""
"15390","","","","instructions","75","1240764","0.0-8.0-9.0","83","1","2025-07-02 10:19:07","80fe4187154257d5fb01684ea91b68b9","41.10.149.159","Mozilla/5.0 (Windows NT 10.0; Win64; x64) AppleWebKit/537.36 (KHTML, like Gecko) Chrome/138.0.0.0 Safari/537.36","WebKit","Chrome","138.0.0.0","Windows","10.0","https://app.prolific.com/","en-US,en;q=0.9","668be7aeec30f3aae126f42a","683db6dfa200031b80f2a654","686507870859b38fe639c100","668be7aeec30f3aae126f42a","","[{""page_index"":0,""viewing_time"":15390}]","","","","","","","","","","","","","","","","","","","","","","","","","","","","","","","","","","","","","","","","","","",""
"11324","","<p>Before you start with this game please answer the following three questions yourself. </p>
  <p>Through this game, we measure several aspects of your cognitive performance, such as reaction times, multi-tasking capabilities </p>
  <p>and the ability to assess the situation you are in.</p>
  <p></p>
  <p><b>How good do you usually are in such tasks?</b></p>","75","html-slider-response","76","1252092","0.0-9.0-0.0","83","1","2025-07-02 10:19:07","80fe4187154257d5fb01684ea91b68b9","41.10.149.159","Mozilla/5.0 (Windows NT 10.0; Win64; x64) AppleWebKit/537.36 (KHTML, like Gecko) Chrome/138.0.0.0 Safari/537.36","WebKit","Chrome","138.0.0.0","Windows","10.0","https://app.prolific.com/","en-US,en;q=0.9","668be7aeec30f3aae126f42a","683db6dfa200031b80f2a654","686507870859b38fe639c100","668be7aeec30f3aae126f42a","2025-07-02T10:39:59.760Z","","","","","","PreSkillQ","","","","","","","","","","","","","","","","","","","","","","","","","","","","","","","","","","","","","","50"
"5925","","<div style=""width:500px;"">
  <p>How well do you think you will perform in this task compared to other participants?</p>
  </div>","62","html-slider-response","77","1258018","0.0-9.0-1.0","83","1","2025-07-02 10:19:07","80fe4187154257d5fb01684ea91b68b9","41.10.149.159","Mozilla/5.0 (Windows NT 10.0; Win64; x64) AppleWebKit/537.36 (KHTML, like Gecko) Chrome/138.0.0.0 Safari/537.36","WebKit","Chrome","138.0.0.0","Windows","10.0","https://app.prolific.com/","en-US,en;q=0.9","668be7aeec30f3aae126f42a","683db6dfa200031b80f2a654","686507870859b38fe639c100","668be7aeec30f3aae126f42a","2025-07-02T10:40:05.686Z","","","","","","PrePerfQ","","","","","","","","","","","","","","","","","","","","","","","","","","","","","","","","","","","","","","50"
"5403","","<div style=""width:500px;"">
  <p>What best describes how you currently feel?</p>
  </div>","83","html-slider-response","78","1263423","0.0-9.0-2.0","83","1","2025-07-02 10:19:07","80fe4187154257d5fb01684ea91b68b9","41.10.149.159","Mozilla/5.0 (Windows NT 10.0; Win64; x64) AppleWebKit/537.36 (KHTML, like Gecko) Chrome/138.0.0.0 Safari/537.36","WebKit","Chrome","138.0.0.0","Windows","10.0","https://app.prolific.com/","en-US,en;q=0.9","668be7aeec30f3aae126f42a","683db6dfa200031b80f2a654","686507870859b38fe639c100","668be7aeec30f3aae126f42a","2025-07-02T10:40:11.091Z","","","","","","PreMotivationQ","","","","","","","","","","","","","","","","","","","","","","","","","","","","","","","","","","","","","","50"
"","","","","ctl-task-cpt","79","1288708","0.0-10.0-0.0","83","1","2025-07-02 10:19:07","80fe4187154257d5fb01684ea91b68b9","41.10.149.159","Mozilla/5.0 (Windows NT 10.0; Win64; x64) AppleWebKit/537.36 (KHTML, like Gecko) Chrome/138.0.0.0 Safari/537.36","WebKit","Chrome","138.0.0.0","Windows","10.0","https://app.prolific.com/","en-US,en;q=0.9","668be7aeec30f3aae126f42a","683db6dfa200031b80f2a654","686507870859b38fe639c100","668be7aeec30f3aae126f42a","2025-07-02T10:40:36.376Z","","","","","","","","","","","","","","","","win-only","2","g1:SE,g2:NW","1","1","0","1265547.5","2046","7046.3","22267.3","1","4","4","6","2","4","4","4","0","0.030303030303030304","896.7","3000","60","[""left"",""up""]","{""num_key_presses"":6,""num_perfect"":6,""num_errors"":0,""num_randdir"":0,""num_randdir_good_moves"":0,""num_whilered"":0,""num_whileblue"":0,""num_blue"":0,""num_good_moves"":6}","[420.3214133126395,414.07142761775424,0.2,420.3214133126395,414.07142761775424,100.3,420.3214133126395,414.07142761775424,207.5,425.3214133126395,406.57142761775424,314.1,461.5714133126395,307.82142761775424,414.1,311.5714133126395,225.32142761775424,515.3,247.8214133126395,161.57142761775424,619.7,172.8214133126395,104.07142761775425,720.3,92.8214133126395,91.57142761775425,829.3,92.8214133126395,91.57142761775425,929.5,92.8214133126395,91.57142761775425,1030.4,92.8214133126395,91.57142761775425,1135.5,92.8214133126395,91.57142761775425,1236.1,92.8214133126395,91.57142761775425,1340.3,92.8214133126395,91.57142761775425,1447.1,94.0714133126395,91.57142761775425,1550.5,94.0714133126395,92.82142761775425,1651,94.0714133126395,94.07142761775425,1754.6,94.0714133126395,94.07142761775425,1854.7,94.0714133126395,94.07142761775425,1962.5,94.0714133126395,94.07142761775425,2063.9,94.0714133126395,94.07142761775425,2165,94.0714133126395,94.07142761775425,2269.9,94.0714133126395,94.07142761775425,2379.6,97.8214133126395,104.07142761775425,2480,100.3214133126395,126.57142761775425,2580,100.3214133126395,131.57142761775424,2680.1,100.3214133126395,135.32142761775424,2785.6,100.3214133126395,135.32142761775424,2890.9,100.3214133126395,135.32142761775424,2996.6,100.3214133126395,135.32142761775424,3097,100.3214133126395,136.57142761775424,3199.7,101.5714133126395,136.57142761775424,3300.5,101.5714133126395,136.57142761775424,3405.1,101.5714133126395,136.57142761775424,3506.1,101.5714133126395,136.57142761775424,3613.5,101.5714133126395,136.57142761775424,3715.2,101.5714133126395,136.57142761775424,3819.5,101.5714133126395,136.57142761775424,3920,101.5714133126395,136.57142761775424,4029.7,101.5714133126395,136.57142761775424,4135.1,101.5714133126395,136.57142761775424,4235.5,101.5714133126395,136.57142761775424,4340.3,101.5714133126395,136.57142761775424,4441,101.5714133126395,136.57142761775424,4546.4,101.5714133126395,136.57142761775424,4650.5,101.5714133126395,136.57142761775424,4754.7,101.5714133126395,136.57142761775424,4855.8,101.5714133126395,136.57142761775424,4955.8]","[1478.6,1478.6,1000,0,478.6,""smooth"",""left"",""left"",""good_move"",4045.6,2566.7,1733.2,1478.9,833.5,""smooth"",""up"",""up"",""good_move"",6579.3,2533.5,2179.2,4045.8,354.3,""smooth"",""left"",""left"",""good_move"",9278.9,2699.4,2296.4,6579.5,403,""smooth"",""up"",""up"",""good_move"",12312.4,3033.3,2199.2,9279.1,834.1,""smooth"",""up"",""up"",""good_move"",15129.1,2816.5,2405.5,12312.6,411,""smooth"",""left"",""left"",""good_move""]","",""
"7848","","<div style=""width:500px;"">
  <p>What determined the result of this run?</p>
  </div>","100","html-slider-response","80","1296557","0.0-10.0-1.0","83","1","2025-07-02 10:19:07","80fe4187154257d5fb01684ea91b68b9","41.10.149.159","Mozilla/5.0 (Windows NT 10.0; Win64; x64) AppleWebKit/537.36 (KHTML, like Gecko) Chrome/138.0.0.0 Safari/537.36","WebKit","Chrome","138.0.0.0","Windows","10.0","https://app.prolific.com/","en-US,en;q=0.9","668be7aeec30f3aae126f42a","683db6dfa200031b80f2a654","686507870859b38fe639c100","668be7aeec30f3aae126f42a","2025-07-02T10:40:44.225Z","","","","","","AttribQ","","","","","","","","","","","","","","","","","","","","","","","","","","","","","","","","","","","","","","50"
"3775","","<div style=""width:500px;"">
  <p>How much control did you have over the ball?</p>
  </div>","100","html-slider-response","81","1300333","0.0-10.0-2.0","83","1","2025-07-02 10:19:07","80fe4187154257d5fb01684ea91b68b9","41.10.149.159","Mozilla/5.0 (Windows NT 10.0; Win64; x64) AppleWebKit/537.36 (KHTML, like Gecko) Chrome/138.0.0.0 Safari/537.36","WebKit","Chrome","138.0.0.0","Windows","10.0","https://app.prolific.com/","en-US,en;q=0.9","668be7aeec30f3aae126f42a","683db6dfa200031b80f2a654","686507870859b38fe639c100","668be7aeec30f3aae126f42a","2025-07-02T10:40:48.002Z","","","","","","ControlQ","","","","","","","","","","","","","","","","","","","","","","","","","","","","","","","","","","","","","","50"
"11422","","<div style=""width:500px;"">
  <p>How would you describe your current emotional state?</p>
  </div>","73","html-slider-response","82","1311757","0.0-10.0-3.0","83","1","2025-07-02 10:19:07","80fe4187154257d5fb01684ea91b68b9","41.10.149.159","Mozilla/5.0 (Windows NT 10.0; Win64; x64) AppleWebKit/537.36 (KHTML, like Gecko) Chrome/138.0.0.0 Safari/537.36","WebKit","Chrome","138.0.0.0","Windows","10.0","https://app.prolific.com/","en-US,en;q=0.9","668be7aeec30f3aae126f42a","683db6dfa200031b80f2a654","686507870859b38fe639c100","668be7aeec30f3aae126f42a","2025-07-02T10:40:59.425Z","","","","","","StressQ","","","","","","","","","","","","","","","","","","","","","","","","","","","","","","","","","","","","","","50"
"5387","","<div style=""width:500px;"">
  <p>What best describes how you currently feel?</p>
  </div>","63","html-slider-response","83","1317146","0.0-10.0-4.0","83","1","2025-07-02 10:19:07","80fe4187154257d5fb01684ea91b68b9","41.10.149.159","Mozilla/5.0 (Windows NT 10.0; Win64; x64) AppleWebKit/537.36 (KHTML, like Gecko) Chrome/138.0.0.0 Safari/537.36","WebKit","Chrome","138.0.0.0","Windows","10.0","https://app.prolific.com/","en-US,en;q=0.9","668be7aeec30f3aae126f42a","683db6dfa200031b80f2a654","686507870859b38fe639c100","668be7aeec30f3aae126f42a","2025-07-02T10:41:04.814Z","","","","","","MotivationQ","","","","","","","","","","","","","","","","","","","","","","","","","","","","","","","","","","","","","","50"
"","","","","ctl-task-cpt","84","1358101","0.0-10.0-0.1","83","1","2025-07-02 10:19:07","80fe4187154257d5fb01684ea91b68b9","41.10.149.159","Mozilla/5.0 (Windows NT 10.0; Win64; x64) AppleWebKit/537.36 (KHTML, like Gecko) Chrome/138.0.0.0 Safari/537.36","WebKit","Chrome","138.0.0.0","Windows","10.0","https://app.prolific.com/","en-US,en;q=0.9","668be7aeec30f3aae126f42a","683db6dfa200031b80f2a654","686507870859b38fe639c100","668be7aeec30f3aae126f42a","2025-07-02T10:41:45.770Z","","","","","","","","","","","","","","","","win-only","1","g1:NE,g2:SW","0.9","2","0","1319271","1658.6","6660.9","37936.7","1","4","8","6","2","8","8","12","4","0.09090909090909091","1160.5","3000","105","[""down"",""left""]","{""num_key_presses"":8,""num_perfect"":7,""num_errors"":0,""num_randdir"":1,""num_randdir_good_moves"":0,""num_whilered"":0,""num_whileblue"":0,""num_blue"":2,""num_good_moves"":7}","[416.5714133126395,414.07142761775424,0.1,416.5714133126395,414.07142761775424,102.2,416.5714133126395,414.07142761775424,202.3,416.5714133126395,414.07142761775424,302.5,416.5714133126395,414.07142761775424,402.5,411.5714133126395,431.57142761775424,503,340.3214133126395,580.3214276177542,607.8,176.5714133126395,747.8214276177542,713.4,175.3214133126395,747.8214276177542,813.6,126.5714133126395,734.0714276177542,917.1,112.8214133126395,741.5714276177542,1017.7,99.0714133126395,741.5714276177542,1122.2,96.5714133126395,741.5714276177542,1222.6,96.5714133126395,741.5714276177542,1322.6,96.5714133126395,741.5714276177542,1428,96.5714133126395,741.5714276177542,1531.9,96.5714133126395,741.5714276177542,1632.5,96.5714133126395,741.5714276177542,1737.6,96.5714133126395,741.5714276177542,1837.8,96.5714133126395,741.5714276177542,1937.8,96.5714133126395,741.5714276177542,2043.1,96.5714133126395,741.5714276177542,2147.5,96.5714133126395,741.5714276177542,2247.8,96.5714133126395,741.5714276177542,2352.2,96.5714133126395,741.5714276177542,2452.6,96.5714133126395,741.5714276177542,2552.7,96.5714133126395,741.5714276177542,2656.9,96.5714133126395,741.5714276177542,2757.7,96.5714133126395,741.5714276177542,2862.7,96.5714133126395,741.5714276177542,2966.8,96.5714133126395,741.5714276177542,3067.8,96.5714133126395,741.5714276177542,3173.6,96.5714133126395,741.5714276177542,3276.8,96.5714133126395,741.5714276177542,3377.1,96.5714133126395,741.5714276177542,3479.4,96.5714133126395,741.5714276177542,3583.1,96.5714133126395,741.5714276177542,3687.2,96.5714133126395,741.5714276177542,3792.2,96.5714133126395,741.5714276177542,3897.4,96.5714133126395,741.5714276177542,3997.6,96.5714133126395,741.5714276177542,4102.4,96.5714133126395,741.5714276177542,4206.9,96.5714133126395,741.5714276177542,4307,96.5714133126395,741.5714276177542,4407.3,92.8214133126395,746.5714276177542,4512.2,94.0714133126395,755.3214276177542,4617.3,96.5714133126395,761.5714276177542,4717.6,96.5714133126395,764.0714276177542,4817.6,96.5714133126395,764.0714276177542,4921.8]","[1327.3,1327.4,1000,0,327.4,""smooth"",""down"",""down"",""good_move"",4023.9,2696,2326.9,1327.9,369.1,""smooth"",""left"",""left"",""good_move"",7299.2,3275.1,2896.7,4024.1,378.4,""oops"",""down"",""right"",""bad_move"",10673.8,3374.1,3025.7,7299.7,348.4,""smooth"",""down"",""down"",""good_move"",13867,3193,2835.3,10674,357.7,""smooth"",""left"",""left"",""good_move"",20473.9,6606.7,2812.9,17342.5,318.5,""smooth"",""down"",""down"",""good_move"",27852.8,7378.6,3085.4,24324.5,442.9,""smooth"",""left"",""left"",""good_move"",31184,3331.1,2929.5,27853,401.5,""smooth"",""left"",""left"",""good_move""]","",""
"3397","","<div style=""width:500px;"">
  <p>What determined the result of this run?</p>
  </div>","100","html-slider-response","85","1361500","0.0-10.0-1.1","83","1","2025-07-02 10:19:07","80fe4187154257d5fb01684ea91b68b9","41.10.149.159","Mozilla/5.0 (Windows NT 10.0; Win64; x64) AppleWebKit/537.36 (KHTML, like Gecko) Chrome/138.0.0.0 Safari/537.36","WebKit","Chrome","138.0.0.0","Windows","10.0","https://app.prolific.com/","en-US,en;q=0.9","668be7aeec30f3aae126f42a","683db6dfa200031b80f2a654","686507870859b38fe639c100","668be7aeec30f3aae126f42a","2025-07-02T10:41:49.168Z","","","","","","AttribQ","","","","","","","","","","","","","","","","","","","","","","","","","","","","","","","","","","","","","","50"
"5075","","<div style=""width:500px;"">
  <p>How much control did you have over the ball?</p>
  </div>","89","html-slider-response","86","1366576","0.0-10.0-2.1","83","1","2025-07-02 10:19:07","80fe4187154257d5fb01684ea91b68b9","41.10.149.159","Mozilla/5.0 (Windows NT 10.0; Win64; x64) AppleWebKit/537.36 (KHTML, like Gecko) Chrome/138.0.0.0 Safari/537.36","WebKit","Chrome","138.0.0.0","Windows","10.0","https://app.prolific.com/","en-US,en;q=0.9","668be7aeec30f3aae126f42a","683db6dfa200031b80f2a654","686507870859b38fe639c100","668be7aeec30f3aae126f42a","2025-07-02T10:41:54.244Z","","","","","","ControlQ","","","","","","","","","","","","","","","","","","","","","","","","","","","","","","","","","","","","","","50"
"3431","","<div style=""width:500px;"">
  <p>How would you describe your current emotional state?</p>
  </div>","77","html-slider-response","87","1370008","0.0-10.0-3.1","83","1","2025-07-02 10:19:07","80fe4187154257d5fb01684ea91b68b9","41.10.149.159","Mozilla/5.0 (Windows NT 10.0; Win64; x64) AppleWebKit/537.36 (KHTML, like Gecko) Chrome/138.0.0.0 Safari/537.36","WebKit","Chrome","138.0.0.0","Windows","10.0","https://app.prolific.com/","en-US,en;q=0.9","668be7aeec30f3aae126f42a","683db6dfa200031b80f2a654","686507870859b38fe639c100","668be7aeec30f3aae126f42a","2025-07-02T10:41:57.676Z","","","","","","StressQ","","","","","","","","","","","","","","","","","","","","","","","","","","","","","","","","","","","","","","50"
"3599","","<div style=""width:500px;"">
  <p>What best describes how you currently feel?</p>
  </div>","66","html-slider-response","88","1373608","0.0-10.0-4.1","83","1","2025-07-02 10:19:07","80fe4187154257d5fb01684ea91b68b9","41.10.149.159","Mozilla/5.0 (Windows NT 10.0; Win64; x64) AppleWebKit/537.36 (KHTML, like Gecko) Chrome/138.0.0.0 Safari/537.36","WebKit","Chrome","138.0.0.0","Windows","10.0","https://app.prolific.com/","en-US,en;q=0.9","668be7aeec30f3aae126f42a","683db6dfa200031b80f2a654","686507870859b38fe639c100","668be7aeec30f3aae126f42a","2025-07-02T10:42:01.276Z","","","","","","MotivationQ","","","","","","","","","","","","","","","","","","","","","","","","","","","","","","","","","","","","","","50"
"","","","","ctl-task-cpt","89","1391655","0.0-10.0-0.2","83","1","2025-07-02 10:19:07","80fe4187154257d5fb01684ea91b68b9","41.10.149.159","Mozilla/5.0 (Windows NT 10.0; Win64; x64) AppleWebKit/537.36 (KHTML, like Gecko) Chrome/138.0.0.0 Safari/537.36","WebKit","Chrome","138.0.0.0","Windows","10.0","https://app.prolific.com/","en-US,en;q=0.9","668be7aeec30f3aae126f42a","683db6dfa200031b80f2a654","686507870859b38fe639c100","668be7aeec30f3aae126f42a","2025-07-02T10:42:19.323Z","","","","","","","","","","","","","","","","win-only","1","g1:NE,g2:SW","0.8","3","0","1375733","1094.4","6095.7","15035.2","1","4","8","6","1","1","1","13","12","0.09848484848484848","2199.6","3000","1580","[""up"",""right""]","{""num_key_presses"":4,""num_perfect"":3,""num_errors"":0,""num_randdir"":1,""num_randdir_good_moves"":1,""num_whilered"":0,""num_whileblue"":0,""num_blue"":0,""num_good_moves"":4}","[410.3214133126395,411.57142761775424,0.3,411.5714133126395,411.57142761775424,101.5,411.5714133126395,411.57142761775424,207.4,411.5714133126395,411.57142761775424,311.8,411.5714133126395,411.57142761775424,417.5,609.0714133126395,246.57142761775424,519.8,650.3214133126395,206.57142761775424,620.8,675.3214133126395,179.07142761775424,721.7,691.5714133126395,159.07142761775424,821.8,700.3214133126395,150.32142761775424,927.2,286.5714133126395,561.5714276177542,1034,91.5714133126395,729.0714276177542,1135.3,20.321413312639507,781.5714276177542,1236.4,20.321413312639507,781.5714276177542,1336.4,20.321413312639507,781.5714276177542,1436.5,159.0714133126395,684.0714276177542,1541.8,771.5714133126395,290.32142761775424,1651,784.0714133126395,266.57142761775424,1752.3,824.0714133126395,221.57142761775424,1857,816.5714133126395,197.82142761775424,1961.1,790.3214133126395,121.57142761775425,2061.6,772.8214133126395,76.57142761775425,2162.3,772.8214133126395,75.32142761775425,2265.1,772.8214133126395,75.32142761775425,2367.3,771.5714133126395,84.07142761775425,2472.6,770.3214133126395,86.57142761775425,2576.4,770.3214133126395,86.57142761775425,2676.8,770.3214133126395,86.57142761775425,2777.4,770.3214133126395,86.57142761775425,2882.8,771.5714133126395,95.32142761775425,2984.3,771.5714133126395,95.32142761775425,3087.5,771.5714133126395,95.32142761775425,3190.8,771.5714133126395,95.32142761775425,3290.9,771.5714133126395,95.32142761775425,3391.6,771.5714133126395,95.32142761775425,3492,771.5714133126395,95.32142761775425,3592.3,771.5714133126395,95.32142761775425,3701.5,771.5714133126395,95.32142761775425,3801.7,771.5714133126395,95.32142761775425,3902,771.5714133126395,95.32142761775425,4006.7,771.5714133126395,95.32142761775425,4118,771.5714133126395,95.32142761775425,4221.7,771.5714133126395,95.32142761775425,4327,771.5714133126395,95.32142761775425,4434.5,771.5714133126395,95.32142761775425,4536.8,771.5714133126395,95.32142761775425,4636.8,771.5714133126395,95.32142761775425,4741.7,771.5714133126395,95.32142761775425,4842.2,771.5714133126395,95.32142761775425,4950.8]","[1375.6,1375.6,1000,0,375.6,""smooth"",""right"",""right"",""good_move"",4075,2699.1,2256.6,1376,442.4,""smooth"",""up"",""up"",""good_move"",6519,2443.7,2045.3,4075.3,398.5,""oops"",""right"",""right"",""good_move"",8851,2331.5,1944.3,6519.5,387.2,""smooth"",""up"",""up"",""good_move""]","",""
"2960","","<div style=""width:500px;"">
  <p>What determined the result of this run?</p>
  </div>","100","html-slider-response","90","1394617","0.0-10.0-1.2","83","1","2025-07-02 10:19:07","80fe4187154257d5fb01684ea91b68b9","41.10.149.159","Mozilla/5.0 (Windows NT 10.0; Win64; x64) AppleWebKit/537.36 (KHTML, like Gecko) Chrome/138.0.0.0 Safari/537.36","WebKit","Chrome","138.0.0.0","Windows","10.0","https://app.prolific.com/","en-US,en;q=0.9","668be7aeec30f3aae126f42a","683db6dfa200031b80f2a654","686507870859b38fe639c100","668be7aeec30f3aae126f42a","2025-07-02T10:42:22.285Z","","","","","","AttribQ","","","","","","","","","","","","","","","","","","","","","","","","","","","","","","","","","","","","","","50"
"5327","","<div style=""width:500px;"">
  <p>How much control did you have over the ball?</p>
  </div>","96","html-slider-response","91","1399944","0.0-10.0-2.2","83","1","2025-07-02 10:19:07","80fe4187154257d5fb01684ea91b68b9","41.10.149.159","Mozilla/5.0 (Windows NT 10.0; Win64; x64) AppleWebKit/537.36 (KHTML, like Gecko) Chrome/138.0.0.0 Safari/537.36","WebKit","Chrome","138.0.0.0","Windows","10.0","https://app.prolific.com/","en-US,en;q=0.9","668be7aeec30f3aae126f42a","683db6dfa200031b80f2a654","686507870859b38fe639c100","668be7aeec30f3aae126f42a","2025-07-02T10:42:27.613Z","","","","","","ControlQ","","","","","","","","","","","","","","","","","","","","","","","","","","","","","","","","","","","","","","50"
"4191","","<div style=""width:500px;"">
  <p>How would you describe your current emotional state?</p>
  </div>","69","html-slider-response","92","1404137","0.0-10.0-3.2","83","1","2025-07-02 10:19:07","80fe4187154257d5fb01684ea91b68b9","41.10.149.159","Mozilla/5.0 (Windows NT 10.0; Win64; x64) AppleWebKit/537.36 (KHTML, like Gecko) Chrome/138.0.0.0 Safari/537.36","WebKit","Chrome","138.0.0.0","Windows","10.0","https://app.prolific.com/","en-US,en;q=0.9","668be7aeec30f3aae126f42a","683db6dfa200031b80f2a654","686507870859b38fe639c100","668be7aeec30f3aae126f42a","2025-07-02T10:42:31.805Z","","","","","","StressQ","","","","","","","","","","","","","","","","","","","","","","","","","","","","","","","","","","","","","","50"
"5055","","<div style=""width:500px;"">
  <p>What best describes how you currently feel?</p>
  </div>","88","html-slider-response","93","1409193","0.0-10.0-4.2","83","1","2025-07-02 10:19:07","80fe4187154257d5fb01684ea91b68b9","41.10.149.159","Mozilla/5.0 (Windows NT 10.0; Win64; x64) AppleWebKit/537.36 (KHTML, like Gecko) Chrome/138.0.0.0 Safari/537.36","WebKit","Chrome","138.0.0.0","Windows","10.0","https://app.prolific.com/","en-US,en;q=0.9","668be7aeec30f3aae126f42a","683db6dfa200031b80f2a654","686507870859b38fe639c100","668be7aeec30f3aae126f42a","2025-07-02T10:42:36.861Z","","","","","","MotivationQ","","","","","","","","","","","","","","","","","","","","","","","","","","","","","","","","","","","","","","50"
"","","","","ctl-task-cpt","94","1444774","0.0-10.0-0.3","83","1","2025-07-02 10:19:07","80fe4187154257d5fb01684ea91b68b9","41.10.149.159","Mozilla/5.0 (Windows NT 10.0; Win64; x64) AppleWebKit/537.36 (KHTML, like Gecko) Chrome/138.0.0.0 Safari/537.36","WebKit","Chrome","138.0.0.0","Windows","10.0","https://app.prolific.com/","en-US,en;q=0.9","668be7aeec30f3aae126f42a","683db6dfa200031b80f2a654","686507870859b38fe639c100","668be7aeec30f3aae126f42a","2025-07-02T10:43:12.442Z","","","","","","","","","","","","","","","","win-only","3","g1:SW,g2:NE","0.7","4","0","1411317.4","1293.3","6295.6","32563.4","1","4","4","6","2","4","4","17","13","0.12878787878787878","1369.6","3000","905","[""up"",""right""]","{""num_key_presses"":6,""num_perfect"":5,""num_errors"":0,""num_randdir"":1,""num_randdir_good_moves"":1,""num_whilered"":0,""num_whileblue"":0,""num_blue"":3,""num_good_moves"":6}","[415.3214133126395,416.57142761775424,0.2,415.3214133126395,416.57142761775424,102.2,415.3214133126395,416.57142761775424,202.2,415.3214133126395,416.57142761775424,302.2,415.3214133126395,416.57142761775424,402.2,276.5714133126395,577.8214276177542,502.3,151.5714133126395,685.3214276177542,603.4,165.3214133126395,677.8214276177542,703.6,279.0714133126395,541.5714276177542,807.6,541.5714133126395,312.82142761775424,912.8,616.5714133126395,246.57142761775424,1020.2,691.5714133126395,169.07142761775424,1120.4,756.5714133126395,101.57142761775425,1222.1,779.0714133126395,76.57142761775425,1322.6,780.3214133126395,76.57142761775425,1423.5,780.3214133126395,76.57142761775425,1528.1,782.8214133126395,76.57142761775425,1628.3,785.3214133126395,77.82142761775425,1735.3,789.0714133126395,81.57142761775425,1836.3,789.0714133126395,81.57142761775425,1937.2,789.0714133126395,81.57142761775425,2038,789.0714133126395,81.57142761775425,2138,789.0714133126395,81.57142761775425,2242.4,790.3214133126395,81.57142761775425,2351.9,790.3214133126395,81.57142761775425,2452.7,790.3214133126395,81.57142761775425,2553.4,790.3214133126395,81.57142761775425,2657.9,790.3214133126395,81.57142761775425,2768.8,790.3214133126395,81.57142761775425,2869.9,790.3214133126395,81.57142761775425,2972.5,790.3214133126395,81.57142761775425,3077.1,790.3214133126395,81.57142761775425,3177.1,790.3214133126395,81.57142761775425,3285.1,790.3214133126395,81.57142761775425,3386.7,790.3214133126395,81.57142761775425,3487.3,790.3214133126395,81.57142761775425,3592.1,790.3214133126395,81.57142761775425,3692.1,790.3214133126395,81.57142761775425,3792.3,790.3214133126395,81.57142761775425,3892.8,790.3214133126395,81.57142761775425,4002.2,794.0714133126395,71.57142761775425,4104.4,795.3214133126395,70.32142761775425,4207.6,795.3214133126395,70.32142761775425,4307.9,795.3214133126395,70.32142761775425,4412,795.3214133126395,70.32142761775425,4512.2,796.5714133126395,71.57142761775425,4612.2,796.5714133126395,74.07142761775425,4712.8,796.5714133126395,75.32142761775425,4818.2,796.5714133126395,76.57142761775425,4919.3]","[1448.4,1448.4,1000,0,448.4,""smooth"",""up"",""up"",""good_move"",4660.1,3211.4,2885.8,1448.7,325.6,""smooth"",""up"",""up"",""good_move"",10504.6,5844.3,2194.8,7934.8,375,""oops"",""right"",""up"",""good_move"",15639.9,5135.1,1881.9,13400.6,357.4,""smooth"",""right"",""right"",""good_move"",23099.6,7459.2,3179.1,19475,445.5,""smooth"",""right"",""right"",""good_move"",26148.8,3049,2627.9,23099.8,421.1,""smooth"",""right"",""right"",""good_move""]","",""
"3858","","<div style=""width:500px;"">
  <p>What determined the result of this run?</p>
  </div>","100","html-slider-response","95","1448633","0.0-10.0-1.3","83","1","2025-07-02 10:19:07","80fe4187154257d5fb01684ea91b68b9","41.10.149.159","Mozilla/5.0 (Windows NT 10.0; Win64; x64) AppleWebKit/537.36 (KHTML, like Gecko) Chrome/138.0.0.0 Safari/537.36","WebKit","Chrome","138.0.0.0","Windows","10.0","https://app.prolific.com/","en-US,en;q=0.9","668be7aeec30f3aae126f42a","683db6dfa200031b80f2a654","686507870859b38fe639c100","668be7aeec30f3aae126f42a","2025-07-02T10:43:16.301Z","","","","","","AttribQ","","","","","","","","","","","","","","","","","","","","","","","","","","","","","","","","","","","","","","50"
"3121","","<div style=""width:500px;"">
  <p>How much control did you have over the ball?</p>
  </div>","93","html-slider-response","96","1451755","0.0-10.0-2.3","83","1","2025-07-02 10:19:07","80fe4187154257d5fb01684ea91b68b9","41.10.149.159","Mozilla/5.0 (Windows NT 10.0; Win64; x64) AppleWebKit/537.36 (KHTML, like Gecko) Chrome/138.0.0.0 Safari/537.36","WebKit","Chrome","138.0.0.0","Windows","10.0","https://app.prolific.com/","en-US,en;q=0.9","668be7aeec30f3aae126f42a","683db6dfa200031b80f2a654","686507870859b38fe639c100","668be7aeec30f3aae126f42a","2025-07-02T10:43:19.423Z","","","","","","ControlQ","","","","","","","","","","","","","","","","","","","","","","","","","","","","","","","","","","","","","","50"
"5839","","<div style=""width:500px;"">
  <p>How would you describe your current emotional state?</p>
  </div>","25","html-slider-response","97","1457594","0.0-10.0-3.3","83","1","2025-07-02 10:19:07","80fe4187154257d5fb01684ea91b68b9","41.10.149.159","Mozilla/5.0 (Windows NT 10.0; Win64; x64) AppleWebKit/537.36 (KHTML, like Gecko) Chrome/138.0.0.0 Safari/537.36","WebKit","Chrome","138.0.0.0","Windows","10.0","https://app.prolific.com/","en-US,en;q=0.9","668be7aeec30f3aae126f42a","683db6dfa200031b80f2a654","686507870859b38fe639c100","668be7aeec30f3aae126f42a","2025-07-02T10:43:25.263Z","","","","","","StressQ","","","","","","","","","","","","","","","","","","","","","","","","","","","","","","","","","","","","","","50"
"71690","","<div style=""width:500px;"">
  <p>What best describes how you currently feel?</p>
  </div>","74","html-slider-response","98","1529285","0.0-10.0-4.3","83","1","2025-07-02 10:19:07","80fe4187154257d5fb01684ea91b68b9","41.10.149.159","Mozilla/5.0 (Windows NT 10.0; Win64; x64) AppleWebKit/537.36 (KHTML, like Gecko) Chrome/138.0.0.0 Safari/537.36","WebKit","Chrome","138.0.0.0","Windows","10.0","https://app.prolific.com/","en-US,en;q=0.9","668be7aeec30f3aae126f42a","683db6dfa200031b80f2a654","686507870859b38fe639c100","668be7aeec30f3aae126f42a","2025-07-02T10:44:36.953Z","","","","","","MotivationQ","","","","","","","","","","","","","","","","","","","","","","","","","","","","","","","","","","","","","","50"
"","","","","ctl-task-cpt","99","1559328","0.0-10.0-0.4","83","1","2025-07-02 10:19:07","80fe4187154257d5fb01684ea91b68b9","41.10.149.159","Mozilla/5.0 (Windows NT 10.0; Win64; x64) AppleWebKit/537.36 (KHTML, like Gecko) Chrome/138.0.0.0 Safari/537.36","WebKit","Chrome","138.0.0.0","Windows","10.0","https://app.prolific.com/","en-US,en;q=0.9","668be7aeec30f3aae126f42a","683db6dfa200031b80f2a654","686507870859b38fe639c100","668be7aeec30f3aae126f42a","2025-07-02T10:45:06.996Z","","","","","","","","","","","","","","","","win-only","1","g1:NE,g2:SW","0.6","5","0","1531410.2","1006.4","6011.3","27020.9","1","4","4","6","2","4","4","21","17","0.1590909090909091","1728.7","3000","495","[""down"",""left""]","{""num_key_presses"":6,""num_perfect"":5,""num_errors"":0,""num_randdir"":1,""num_randdir_good_moves"":1,""num_whilered"":0,""num_whileblue"":0,""num_blue"":1,""num_good_moves"":6}","[420.3214133126395,412.82142761775424,0.2,420.3214133126395,412.82142761775424,100.2,420.3214133126395,412.82142761775424,210.6,420.3214133126395,412.82142761775424,314.9,420.3214133126395,412.82142761775424,419.2,420.3214133126395,412.82142761775424,520.4,420.3214133126395,412.82142761775424,624.3,420.3214133126395,412.82142761775424,725.1,420.3214133126395,412.82142761775424,829.8,420.3214133126395,412.82142761775424,931,420.3214133126395,412.82142761775424,1033.9,381.5714133126395,482.82142761775424,1136.9,247.8214133126395,587.8214276177542,1239.3,186.5714133126395,629.0714276177542,1344.8,120.3214133126395,691.5714276177542,1448.2,76.5714133126395,729.0714276177542,1549.6,76.5714133126395,729.0714276177542,1654.8,76.5714133126395,730.3214276177542,1754.8,76.5714133126395,730.3214276177542,1861.5,76.5714133126395,730.3214276177542,1964.2,76.5714133126395,730.3214276177542,2066.7,76.5714133126395,730.3214276177542,2169.2,76.5714133126395,730.3214276177542,2274.7,76.5714133126395,730.3214276177542,2375,76.5714133126395,730.3214276177542,2479.3,76.5714133126395,730.3214276177542,2579.9,76.5714133126395,730.3214276177542,2686.9,76.5714133126395,730.3214276177542,2788.8,76.5714133126395,730.3214276177542,2889.3,76.5714133126395,730.3214276177542,2995.4,76.5714133126395,730.3214276177542,3096.2,76.5714133126395,730.3214276177542,3196.8,76.5714133126395,730.3214276177542,3299.8,76.5714133126395,730.3214276177542,3400.5,76.5714133126395,730.3214276177542,3503.9,76.5714133126395,730.3214276177542,3604.9,76.5714133126395,730.3214276177542,3708.6,76.5714133126395,730.3214276177542,3810,76.5714133126395,730.3214276177542,3918.4,76.5714133126395,730.3214276177542,4019,76.5714133126395,730.3214276177542,4119,76.5714133126395,730.3214276177542,4219.4,76.5714133126395,730.3214276177542,4324.2,76.5714133126395,730.3214276177542,4428.9,76.5714133126395,730.3214276177542,4530,76.5714133126395,730.3214276177542,4634.3,76.5714133126395,730.3214276177542,4735,76.5714133126395,730.3214276177542,4835.4,76.5714133126395,730.3214276177542,4938.9]","[1533.1,1533.1,1000,0,533.1,""smooth"",""down"",""down"",""good_move"",4503.6,2970.2,2565.6,1533.4,404.6,""smooth"",""left"",""left"",""good_move"",7046.2,2542.4,2212.5,4503.8,329.9,""smooth"",""down"",""down"",""good_move"",13724.4,6677.9,3105.1,10179.2,440.1,""smooth"",""left"",""left"",""good_move"",16929.5,3204.7,2719.4,13724.8,485.3,""oops"",""down"",""down"",""good_move"",20919.4,3989.5,3644.5,16929.9,345,""smooth"",""left"",""left"",""good_move""]","",""
"6268","","<div style=""width:500px;"">
  <p>What determined the result of this run?</p>
  </div>","100","html-slider-response","100","1565596","0.0-10.0-1.4","83","1","2025-07-02 10:19:07","80fe4187154257d5fb01684ea91b68b9","41.10.149.159","Mozilla/5.0 (Windows NT 10.0; Win64; x64) AppleWebKit/537.36 (KHTML, like Gecko) Chrome/138.0.0.0 Safari/537.36","WebKit","Chrome","138.0.0.0","Windows","10.0","https://app.prolific.com/","en-US,en;q=0.9","668be7aeec30f3aae126f42a","683db6dfa200031b80f2a654","686507870859b38fe639c100","668be7aeec30f3aae126f42a","2025-07-02T10:45:13.264Z","","","","","","AttribQ","","","","","","","","","","","","","","","","","","","","","","","","","","","","","","","","","","","","","","50"
"4333","","<div style=""width:500px;"">
  <p>How much control did you have over the ball?</p>
  </div>","94","html-slider-response","101","1569930","0.0-10.0-2.4","83","1","2025-07-02 10:19:07","80fe4187154257d5fb01684ea91b68b9","41.10.149.159","Mozilla/5.0 (Windows NT 10.0; Win64; x64) AppleWebKit/537.36 (KHTML, like Gecko) Chrome/138.0.0.0 Safari/537.36","WebKit","Chrome","138.0.0.0","Windows","10.0","https://app.prolific.com/","en-US,en;q=0.9","668be7aeec30f3aae126f42a","683db6dfa200031b80f2a654","686507870859b38fe639c100","668be7aeec30f3aae126f42a","2025-07-02T10:45:17.598Z","","","","","","ControlQ","","","","","","","","","","","","","","","","","","","","","","","","","","","","","","","","","","","","","","50"
"4056","","<div style=""width:500px;"">
  <p>How would you describe your current emotional state?</p>
  </div>","31","html-slider-response","102","1573987","0.0-10.0-3.4","83","1","2025-07-02 10:19:07","80fe4187154257d5fb01684ea91b68b9","41.10.149.159","Mozilla/5.0 (Windows NT 10.0; Win64; x64) AppleWebKit/537.36 (KHTML, like Gecko) Chrome/138.0.0.0 Safari/537.36","WebKit","Chrome","138.0.0.0","Windows","10.0","https://app.prolific.com/","en-US,en;q=0.9","668be7aeec30f3aae126f42a","683db6dfa200031b80f2a654","686507870859b38fe639c100","668be7aeec30f3aae126f42a","2025-07-02T10:45:21.655Z","","","","","","StressQ","","","","","","","","","","","","","","","","","","","","","","","","","","","","","","","","","","","","","","50"
"2978","","<div style=""width:500px;"">
  <p>What best describes how you currently feel?</p>
  </div>","89","html-slider-response","103","1576966","0.0-10.0-4.4","83","1","2025-07-02 10:19:07","80fe4187154257d5fb01684ea91b68b9","41.10.149.159","Mozilla/5.0 (Windows NT 10.0; Win64; x64) AppleWebKit/537.36 (KHTML, like Gecko) Chrome/138.0.0.0 Safari/537.36","WebKit","Chrome","138.0.0.0","Windows","10.0","https://app.prolific.com/","en-US,en;q=0.9","668be7aeec30f3aae126f42a","683db6dfa200031b80f2a654","686507870859b38fe639c100","668be7aeec30f3aae126f42a","2025-07-02T10:45:24.635Z","","","","","","MotivationQ","","","","","","","","","","","","","","","","","","","","","","","","","","","","","","","","","","","","","","50"
