"rt","response_timestamp","stimulus","response","trial_type","trial_index","time_elapsed","internal_node_id","run_id","condition","recorded_at","source_code_version","ip","user_agent","device","browser","browser_version","platform","platform_version","referer","accept_language","PROLIFIC_PID","STUDY_ID","SESSION_ID","prolific_id","realtime","view_history","question_order","consent","success","question_id","eventType","responses","item_order","radio_event_ids","radio_event_times","key_event_times","mouse_event_times","straightlining","zigzagging","honeypot","which_type","canvas_config","goals_layout","control_level","trial_number","tutorial_trial_number","trial_start_time","phase1_start_time","phase2_start_time","phase3_start_time","goal_1_value","goal_1_distance","goal_2_value","goal_2_distance","goal_selected","outcome","outcome_total","participant_final_score","participant_initial_score","participant_final_score_prop","goal_choice_rt","allocated_time","allocated_time_remaining","goal_direction","counts","mouse_movements","key_presses","correct","slider_start"
"44734","1751451646369","<p style='font-size:40px;line-height:1.25'><strong>Welcome to the experiment!</strong></p><p style='font-size:1.1em;line-height:1.25'>Thank you for your interest in our experiment! Before you begin, it is important that we obtain your informed consent to participate in the study.</p><p style='font-size:1.1em;line-height:1.25'>On the next screen will be an <strong>information sheet</strong> for you to read. To participate in the study we need you to read this information sheet and the following consent form carefully. If you agree with all the statements, please click the <strong>I agree</strong> button.</p><p style='font-size:1.1em;line-height:1.25'>Press <strong>Next</strong> to read the information sheet.</p>","0","custom-html-button-response","0","44737","0.0-0.0","119","1","2025-07-02 10:19:59","80fe4187154257d5fb01684ea91b68b9","197.184.180.122","Mozilla/5.0 (Windows NT 10.0; Win64; x64) AppleWebKit/537.36 (KHTML, like Gecko) Chrome/137.0.0.0 Safari/537.36","WebKit","Chrome","137.0.0.0","Windows","10.0","https://app.prolific.com/","en-US,en;q=0.9","669533c82c03a4d6320159d3","683db6dfa200031b80f2a654","686507876a29bf167a105667","669533c82c03a4d6320159d3","2025-07-02T10:20:46.372Z","","","","","","","","","","","","","","","","","","","","","","","","","","","","","","","","","","","","","","","","","","","",""
"10903","","","","instructions","1","55643","0.0-1.0","119","1","2025-07-02 10:19:59","80fe4187154257d5fb01684ea91b68b9","197.184.180.122","Mozilla/5.0 (Windows NT 10.0; Win64; x64) AppleWebKit/537.36 (KHTML, like Gecko) Chrome/137.0.0.0 Safari/537.36","WebKit","Chrome","137.0.0.0","Windows","10.0","https://app.prolific.com/","en-US,en;q=0.9","669533c82c03a4d6320159d3","683db6dfa200031b80f2a654","686507876a29bf167a105667","669533c82c03a4d6320159d3","","[{""page_index"":0,""viewing_time"":9633},{""page_index"":1,""viewing_time"":1270}]","","","","","","","","","","","","","","","","","","","","","","","","","","","","","","","","","","","","","","","","","","",""
"3458","","","{""Q0"":"""",""Q1"":"""",""Q2"":"""",""Q3"":"""",""Q4"":"""",""Q5"":"""",""Q6"":""I agree""}","survey-multi-choice","2","59104","0.0-2.0","119","1","2025-07-02 10:19:59","80fe4187154257d5fb01684ea91b68b9","197.184.180.122","Mozilla/5.0 (Windows NT 10.0; Win64; x64) AppleWebKit/537.36 (KHTML, like Gecko) Chrome/137.0.0.0 Safari/537.36","WebKit","Chrome","137.0.0.0","Windows","10.0","https://app.prolific.com/","en-US,en;q=0.9","669533c82c03a4d6320159d3","683db6dfa200031b80f2a654","686507876a29bf167a105667","669533c82c03a4d6320159d3","","","[0,1,2,3,4,5,6]","true","","","","","","","","","","","","","","","","","","","","","","","","","","","","","","","","","","","","","","","","",""
"19493","","","","fullscreen","3","79600","0.0-4.0","119","1","2025-07-02 10:19:59","80fe4187154257d5fb01684ea91b68b9","197.184.180.122","Mozilla/5.0 (Windows NT 10.0; Win64; x64) AppleWebKit/537.36 (KHTML, like Gecko) Chrome/137.0.0.0 Safari/537.36","WebKit","Chrome","137.0.0.0","Windows","10.0","https://app.prolific.com/","en-US,en;q=0.9","669533c82c03a4d6320159d3","683db6dfa200031b80f2a654","686507876a29bf167a105667","669533c82c03a4d6320159d3","","","","","true","","","","","","","","","","","","","","","","","","","","","","","","","","","","","","","","","","","","","","","",""
"6027","1751451687263"," <p style='font-size:1.1em;line-height:1.25'>Thank you for completing the consent form and closing all other tabs.</p><p style='font-size:1.1em;line-height:1.25'>We will now invite you to fill in some demographic information and questionnaires, before starting the game.<br>This will take about 5 minutes.<br></p><p style='font-size:1.1em;line-height:1.25'>Press the <strong>Next</strong> button to continue.</p>","0","custom-html-button-response","4","85629","0.0-5.0","119","1","2025-07-02 10:19:59","80fe4187154257d5fb01684ea91b68b9","197.184.180.122","Mozilla/5.0 (Windows NT 10.0; Win64; x64) AppleWebKit/537.36 (KHTML, like Gecko) Chrome/137.0.0.0 Safari/537.36","WebKit","Chrome","137.0.0.0","Windows","10.0","https://app.prolific.com/","en-US,en;q=0.9","669533c82c03a4d6320159d3","683db6dfa200031b80f2a654","686507876a29bf167a105667","669533c82c03a4d6320159d3","2025-07-02T10:21:27.263Z","","","","","","","","","","","","","","","","","","","","","","","","","","","","","","","","","","","","","","","","","","","",""
"3886","","","{""age"":""38""}","survey-text","5","89520","0.0-6.0-0.0","119","1","2025-07-02 10:19:59","80fe4187154257d5fb01684ea91b68b9","197.184.180.122","Mozilla/5.0 (Windows NT 10.0; Win64; x64) AppleWebKit/537.36 (KHTML, like Gecko) Chrome/137.0.0.0 Safari/537.36","WebKit","Chrome","137.0.0.0","Windows","10.0","https://app.prolific.com/","en-US,en;q=0.9","669533c82c03a4d6320159d3","683db6dfa200031b80f2a654","686507876a29bf167a105667","669533c82c03a4d6320159d3","","","","","","0","demographics","","","","","","","","","","","","","","","","","","","","","","","","","","","","","","","","","","","","","",""
"18847","","","{""gender_identity"":""female/woman""}","survey-multi-choice","6","108368","0.0-6.0-1.0","119","1","2025-07-02 10:19:59","80fe4187154257d5fb01684ea91b68b9","197.184.180.122","Mozilla/5.0 (Windows NT 10.0; Win64; x64) AppleWebKit/537.36 (KHTML, like Gecko) Chrome/137.0.0.0 Safari/537.36","WebKit","Chrome","137.0.0.0","Windows","10.0","https://app.prolific.com/","en-US,en;q=0.9","669533c82c03a4d6320159d3","683db6dfa200031b80f2a654","686507876a29bf167a105667","669533c82c03a4d6320159d3","","","[0]","","","1","demographics","","","","","","","","","","","","","","","","","","","","","","","","","","","","","","","","","","","","","",""
"3435","","","{""assigned_sex"":""female""}","survey-multi-choice","7","111805","0.0-6.0-2.0","119","1","2025-07-02 10:19:59","80fe4187154257d5fb01684ea91b68b9","197.184.180.122","Mozilla/5.0 (Windows NT 10.0; Win64; x64) AppleWebKit/537.36 (KHTML, like Gecko) Chrome/137.0.0.0 Safari/537.36","WebKit","Chrome","137.0.0.0","Windows","10.0","https://app.prolific.com/","en-US,en;q=0.9","669533c82c03a4d6320159d3","683db6dfa200031b80f2a654","686507876a29bf167a105667","669533c82c03a4d6320159d3","","","[0]","","","2","demographics","","","","","","","","","","","","","","","","","","","","","","","","","","","","","","","","","","","","","",""
"5578","","","{""menstrual_cycle"":""No""}","survey-multi-choice","8","117385","0.0-6.0-3.0","119","1","2025-07-02 10:19:59","80fe4187154257d5fb01684ea91b68b9","197.184.180.122","Mozilla/5.0 (Windows NT 10.0; Win64; x64) AppleWebKit/537.36 (KHTML, like Gecko) Chrome/137.0.0.0 Safari/537.36","WebKit","Chrome","137.0.0.0","Windows","10.0","https://app.prolific.com/","en-US,en;q=0.9","669533c82c03a4d6320159d3","683db6dfa200031b80f2a654","686507876a29bf167a105667","669533c82c03a4d6320159d3","","","[0]","","","4","demographics","","","","","","","","","","","","","","","","","","","","","","","","","","","","","","","","","","","","","",""
"23253","","","{""education"":""Higher National Diploma""}","survey-multi-choice","9","140640","0.0-6.0-4.0","119","1","2025-07-02 10:19:59","80fe4187154257d5fb01684ea91b68b9","197.184.180.122","Mozilla/5.0 (Windows NT 10.0; Win64; x64) AppleWebKit/537.36 (KHTML, like Gecko) Chrome/137.0.0.0 Safari/537.36","WebKit","Chrome","137.0.0.0","Windows","10.0","https://app.prolific.com/","en-US,en;q=0.9","669533c82c03a4d6320159d3","683db6dfa200031b80f2a654","686507876a29bf167a105667","669533c82c03a4d6320159d3","","","[0]","","","5","demographics","","","","","","","","","","","","","","","","","","","","","","","","","","","","","","","","","","","","","",""
"7448","","","{""education"":""Higher National Diploma""}","survey-multi-choice","10","148090","0.0-6.0-5.0","119","1","2025-07-02 10:19:59","80fe4187154257d5fb01684ea91b68b9","197.184.180.122","Mozilla/5.0 (Windows NT 10.0; Win64; x64) AppleWebKit/537.36 (KHTML, like Gecko) Chrome/137.0.0.0 Safari/537.36","WebKit","Chrome","137.0.0.0","Windows","10.0","https://app.prolific.com/","en-US,en;q=0.9","669533c82c03a4d6320159d3","683db6dfa200031b80f2a654","686507876a29bf167a105667","669533c82c03a4d6320159d3","2025-07-02T10:22:29.724Z","","[0]","","","6","demographics","","","","","","","","","","","","","","","","","","","","","","","","","","","","","","","","","","","","","",""
"17929","","","{""mental_health_condition"":""no"",""mental_health_treatment"":""no"",""psychiatric_medication"":""no""}","survey-text","11","166022","0.0-7.0-0.0","119","1","2025-07-02 10:19:59","80fe4187154257d5fb01684ea91b68b9","197.184.180.122","Mozilla/5.0 (Windows NT 10.0; Win64; x64) AppleWebKit/537.36 (KHTML, like Gecko) Chrome/137.0.0.0 Safari/537.36","WebKit","Chrome","137.0.0.0","Windows","10.0","https://app.prolific.com/","en-US,en;q=0.9","669533c82c03a4d6320159d3","683db6dfa200031b80f2a654","686507876a29bf167a105667","669533c82c03a4d6320159d3","2025-07-02T10:22:47.657Z","","","","","1","mental_health","","","","","","","","","","","","","","","","","","","","","","","","","","","","","","","","","","","","","",""
"20429","","","{""depression_history"":[""Yes""]}","survey-multi-select","12","186456","0.0-7.0-1.0","119","1","2025-07-02 10:19:59","80fe4187154257d5fb01684ea91b68b9","197.184.180.122","Mozilla/5.0 (Windows NT 10.0; Win64; x64) AppleWebKit/537.36 (KHTML, like Gecko) Chrome/137.0.0.0 Safari/537.36","WebKit","Chrome","137.0.0.0","Windows","10.0","https://app.prolific.com/","en-US,en;q=0.9","669533c82c03a4d6320159d3","683db6dfa200031b80f2a654","686507876a29bf167a105667","669533c82c03a4d6320159d3","","","[0]","","","","mental_health","","","","","","","","","","","","","","","","","","","","","","","","","","","","","","","","","","","","","",""
"16806","","","{""depression_episodes"":""more than 5"",""depression_recent"":""More than 1 year ago""}","survey-multi-choice","13","203264","0.0-7.0-2.0-0.0","119","1","2025-07-02 10:19:59","80fe4187154257d5fb01684ea91b68b9","197.184.180.122","Mozilla/5.0 (Windows NT 10.0; Win64; x64) AppleWebKit/537.36 (KHTML, like Gecko) Chrome/137.0.0.0 Safari/537.36","WebKit","Chrome","137.0.0.0","Windows","10.0","https://app.prolific.com/","en-US,en;q=0.9","669533c82c03a4d6320159d3","683db6dfa200031b80f2a654","686507876a29bf167a105667","669533c82c03a4d6320159d3","2025-07-02T10:23:24.898Z","","[0,1]","","","3","mental_health","","","","","","","","","","","","","","","","","","","","","","","","","","","","","","","","","","","","","",""
"197593.40000003576","","","","survey-template","14","400861","0.0-7.0-3.0","119","1","2025-07-02 10:19:59","80fe4187154257d5fb01684ea91b68b9","197.184.180.122","Mozilla/5.0 (Windows NT 10.0; Win64; x64) AppleWebKit/537.36 (KHTML, like Gecko) Chrome/137.0.0.0 Safari/537.36","WebKit","Chrome","137.0.0.0","Windows","10.0","https://app.prolific.com/","en-US,en;q=0.9","669533c82c03a4d6320159d3","683db6dfa200031b80f2a654","686507876a29bf167a105667","669533c82c03a4d6320159d3","2025-07-02T10:26:42.496Z","","","","","","ius","{""Q01"":""2"",""Q02"":""3"",""Q03"":""1"",""Q04"":""3"",""Q05"":""2"",""Q06"":""1"",""Q07"":""2"",""Q08"":""0"",""Q09"":""3"",""Q10"":""2"",""Q11"":""1"",""Q12"":""3"",""Q13"":""1""}","[0,1,2,3,4,5,6,7,8,9,10,11,12]","[""Q01"",""Q02"",""Q03"",""Q04"",""Q05"",""Q06"",""Q07"",""Q08"",""Q09"",""Q10"",""Q11"",""Q12"",""Q13""]","[140022.60000002384,143334.40000003576,148564.30000001192,151680.5,155928.60000002384,166418.60000002384,171536.5,174740.60000002384,181927.30000001192,184700.5,188846.40000003576,193124.40000003576,196632.60000002384]","[]","[140022.60000002384,143334.40000003576,148564.30000001192,151680.5,155928.60000002384,166418.60000002384,171536.5,174740.60000002384,181927.30000001192,184700.5,188846.40000003576,193124.40000003576,195634.80000001192,196632.60000002384,197590.40000003576]","0.3076923076923077","0.5","0","","","","","","","","","","","","","","","","","","","","","","","","","","","","",""
"3393","1751452005889","<p style='font-size:1.1em;line-height:1.25'>In the following, we will ask you a few questions relating to your experiences over the past month.<br></p><p style='font-size:1.1em;line-height:1.25'>Press the <strong>Next</strong> button to continue.</p>","0","custom-html-button-response","15","404255","0.0-7.0-4.0","119","1","2025-07-02 10:19:59","80fe4187154257d5fb01684ea91b68b9","197.184.180.122","Mozilla/5.0 (Windows NT 10.0; Win64; x64) AppleWebKit/537.36 (KHTML, like Gecko) Chrome/137.0.0.0 Safari/537.36","WebKit","Chrome","137.0.0.0","Windows","10.0","https://app.prolific.com/","en-US,en;q=0.9","669533c82c03a4d6320159d3","683db6dfa200031b80f2a654","686507876a29bf167a105667","669533c82c03a4d6320159d3","2025-07-02T10:26:45.889Z","","","","","","","","","","","","","","","","","","","","","","","","","","","","","","","","","","","","","","","","","","","",""
"150309.60000002384","","","","survey-template","16","554568","0.0-7.0-5.0","119","1","2025-07-02 10:19:59","80fe4187154257d5fb01684ea91b68b9","197.184.180.122","Mozilla/5.0 (Windows NT 10.0; Win64; x64) AppleWebKit/537.36 (KHTML, like Gecko) Chrome/137.0.0.0 Safari/537.36","WebKit","Chrome","137.0.0.0","Windows","10.0","https://app.prolific.com/","en-US,en;q=0.9","669533c82c03a4d6320159d3","683db6dfa200031b80f2a654","686507876a29bf167a105667","669533c82c03a4d6320159d3","2025-07-02T10:29:16.202Z","","","","","","pss","{""Q01"":""2"",""Q02"":""3"",""Q03"":""4"",""Q04"":""2"",""Q05"":""2"",""Q06"":""2"",""Q07"":""3"",""Q08"":""2"",""Q09"":""3"",""Q10"":""3""}","[0,1,2,3,4,5,6,7,8,9]","[""Q01"",""Q02"",""Q03"",""Q04"",""Q05"",""Q06"",""Q10"",""Q09"",""Q08"",""Q07""]","[6599.400000035763,96563.5,102697.30000001192,111101.30000001192,117585.5,126691.40000003576,133565.20000004768,137181.5,141297.30000001192,148087.60000002384]","[]","[0,6599.400000035763,96563.5,102697.30000001192,109129.30000001192,111101.30000001192,117585.5,126691.40000003576,133565.20000004768,136379.5,137181.5,141297.30000001192,147011.40000003576,148087.60000002384,150307.40000003576]","0.5","0.5555555555555556","0","","","","","","","","","","","","","","","","","","","","","","","","","","","","",""
"3886","1751452160089","<p style='font-size:1.1em;line-height:1.25'>Thank you for your answers! Now we will ask you a few more questions relating to your feelings in the last 24 hours.<br></p><p style='font-size:1.1em;line-height:1.25'>Press the <strong>Next</strong> button to continue.</p>","0","custom-html-button-response","17","558456","0.0-7.0-6.0","119","1","2025-07-02 10:19:59","80fe4187154257d5fb01684ea91b68b9","197.184.180.122","Mozilla/5.0 (Windows NT 10.0; Win64; x64) AppleWebKit/537.36 (KHTML, like Gecko) Chrome/137.0.0.0 Safari/537.36","WebKit","Chrome","137.0.0.0","Windows","10.0","https://app.prolific.com/","en-US,en;q=0.9","669533c82c03a4d6320159d3","683db6dfa200031b80f2a654","686507876a29bf167a105667","669533c82c03a4d6320159d3","2025-07-02T10:29:20.090Z","","","","","","","","","","","","","","","","","","","","","","","","","","","","","","","","","","","","","","","","","","","",""
"312812.8000000119","","","","survey-template","18","871273","0.0-7.0-7.0","119","1","2025-07-02 10:19:59","80fe4187154257d5fb01684ea91b68b9","197.184.180.122","Mozilla/5.0 (Windows NT 10.0; Win64; x64) AppleWebKit/537.36 (KHTML, like Gecko) Chrome/137.0.0.0 Safari/537.36","WebKit","Chrome","137.0.0.0","Windows","10.0","https://app.prolific.com/","en-US,en;q=0.9","669533c82c03a4d6320159d3","683db6dfa200031b80f2a654","686507876a29bf167a105667","669533c82c03a4d6320159d3","2025-07-02T10:34:32.907Z","","","","","","drsp","{""Q01"":""2"",""Q02"":""1"",""Q03"":""2"",""Q04"":""3"",""Q05"":""2"",""Q06"":""2"",""Q07"":""3"",""Q08"":""2"",""Q09"":""5"",""Q10"":""5"",""Q11"":""5"",""Q12"":""0"",""Q13"":""0"",""Q14"":""2"",""Q15"":""4"",""Q16"":""4"",""Q17"":""2"",""Q18"":""0"",""Q19"":""0"",""Q20"":""0"",""Q21"":""0""}","[0,1,2,3,4,5,6,7,8,9,10,11,12,13,14,15,16,17,18,19,20]","[""Q01"",""Q02"",""Q03"",""Q04"",""Q05"",""Q06"",""Q07"",""Q08"",""Q09"",""Q10"",""Q11"",""Q12"",""Q13"",""Q14"",""Q15"",""Q16"",""Q17"",""Q18"",""Q19"",""Q20"",""Q21""]","[18382.5,249976.59999996424,252656.59999996424,254502.59999996424,258692.59999996424,261216.89999997616,263078.59999996424,270766.39999997616,272386.8000000119,274972.39999997616,280914.5,282962.5,285408.89999997616,289778.39999997616,292448.5,294022.6999999881,295736.5,300830.8000000119,307302.59999996424,310254.3000000119,311414.59999996424]","[]","[0,18382.5,249976.59999996424,252656.59999996424,254502.59999996424,258692.59999996424,261216.89999997616,263078.59999996424,264394.8000000119,270766.39999997616,272386.8000000119,274972.39999997616,280914.5,282962.5,285408.89999997616,289778.39999997616,292448.5,294022.6999999881,295736.5,300830.8000000119,307302.59999996424,310254.3000000119,311414.59999996424,312808.6999999881]","0.3333333333333333","0.35","0","","","","","","","","","","","","","","","","","","","","","","","","","","","","",""
"9190.300000011921","","","","survey-template","19","880465","0.0-7.0-8.0","119","1","2025-07-02 10:19:59","80fe4187154257d5fb01684ea91b68b9","197.184.180.122","Mozilla/5.0 (Windows NT 10.0; Win64; x64) AppleWebKit/537.36 (KHTML, like Gecko) Chrome/137.0.0.0 Safari/537.36","WebKit","Chrome","137.0.0.0","Windows","10.0","https://app.prolific.com/","en-US,en;q=0.9","669533c82c03a4d6320159d3","683db6dfa200031b80f2a654","686507876a29bf167a105667","669533c82c03a4d6320159d3","2025-07-02T10:34:42.099Z","","","","","","stress","{""Q01"":""3"",""Q02"":""2"",""Q03"":""1""}","[0,1,2]","[""Q01"",""Q02"",""Q03""]","[5047,5841.199999988079,7733.100000023842]","[]","[5047,5841.199999988079,7733.100000023842,9189.199999988079]","0.6666666666666666","0","0","","","","","","","","","","","","","","","","","","","","","","","","","","","","",""
"127607","","","","instructions","20","1008073","0.0-8.0-0.0","119","1","2025-07-02 10:19:59","80fe4187154257d5fb01684ea91b68b9","197.184.180.122","Mozilla/5.0 (Windows NT 10.0; Win64; x64) AppleWebKit/537.36 (KHTML, like Gecko) Chrome/137.0.0.0 Safari/537.36","WebKit","Chrome","137.0.0.0","Windows","10.0","https://app.prolific.com/","en-US,en;q=0.9","669533c82c03a4d6320159d3","683db6dfa200031b80f2a654","686507876a29bf167a105667","669533c82c03a4d6320159d3","","[{""page_index"":0,""viewing_time"":49501},{""page_index"":1,""viewing_time"":18892},{""page_index"":2,""viewing_time"":34164},{""page_index"":3,""viewing_time"":25050}]","","","","","","","","","","","","","","","","","","","","","","","","","","","","","","","","","","","","","","","","","","",""
"","","","","ctl-task-cpt","21","1029281","0.0-8.0-1.0","119","1","2025-07-02 10:19:59","80fe4187154257d5fb01684ea91b68b9","197.184.180.122","Mozilla/5.0 (Windows NT 10.0; Win64; x64) AppleWebKit/537.36 (KHTML, like Gecko) Chrome/137.0.0.0 Safari/537.36","WebKit","Chrome","137.0.0.0","Windows","10.0","https://app.prolific.com/","en-US,en;q=0.9","669533c82c03a4d6320159d3","683db6dfa200031b80f2a654","686507876a29bf167a105667","669533c82c03a4d6320159d3","","","","","","","","","","","","","","","","","win-only","0","g1:NW,g2:SE","1","0","1","1010508.2","5030.2","9032.8","18193.5","2","4","4","6","1","-2","-2","0","0","0","3958.5","4000","-2940","[""left"",""up""]","{""num_key_presses"":0,""num_perfect"":0,""num_errors"":0,""num_randdir"":0,""num_randdir_good_moves"":0,""num_whilered"":0,""num_whileblue"":0,""num_blue"":1,""num_good_moves"":0}","[298.22232142857143,296.12857142857143,0.3,298.22232142857143,296.12857142857143,101.4,298.22232142857143,296.12857142857143,207.5,298.22232142857143,296.12857142857143,310.2,298.22232142857143,296.12857142857143,411.2,298.22232142857143,296.12857142857143,511.4,298.22232142857143,296.12857142857143,615.3,298.22232142857143,296.12857142857143,715.7,289.22232142857143,288.12857142857143,816.1,273.22232142857143,259.12857142857143,921.2,266.22232142857143,253.12857142857143,1027.3,252.22232142857143,246.12857142857143,1132,250.22232142857143,245.12857142857143,1237.7,250.22232142857143,245.12857142857143,1340.1,241.22232142857143,222.12857142857143,1441.2,217.22232142857143,142.12857142857143,1545.3,206.22232142857143,108.12857142857143,1645.8,206.22232142857143,108.12857142857143,1750.4,218.22232142857143,83.12857142857143,1851.3,226.22232142857143,54.128571428571426,1955.7,226.22232142857143,54.128571428571426,2055.8,227.22232142857143,54.128571428571426,2170.2,227.22232142857143,54.128571428571426,2270.7,227.22232142857143,54.128571428571426,2371.1,227.22232142857143,54.128571428571426,2475.6,227.22232142857143,54.128571428571426,2580.5,188.22232142857143,115.12857142857143,2680.5,157.22232142857143,179.12857142857143,2780.7,146.22232142857143,222.12857142857143,2881.2,141.22232142857143,246.12857142857143,2985.3,141.22232142857143,246.12857142857143,3085.8,140.22232142857143,246.12857142857143,3190.2,140.22232142857143,246.12857142857143,3290.5,140.22232142857143,246.12857142857143,3391.1,140.22232142857143,246.12857142857143,3495.8,140.22232142857143,246.12857142857143,3601.3,130.22232142857143,208.12857142857143,3701.5,104.22232142857143,127.12857142857143,3801.7,93.22232142857143,93.12857142857143,3902.9]","[]","",""
"7846","","","","instructions","22","1037127","0.0-8.0-2.0","119","1","2025-07-02 10:19:59","80fe4187154257d5fb01684ea91b68b9","197.184.180.122","Mozilla/5.0 (Windows NT 10.0; Win64; x64) AppleWebKit/537.36 (KHTML, like Gecko) Chrome/137.0.0.0 Safari/537.36","WebKit","Chrome","137.0.0.0","Windows","10.0","https://app.prolific.com/","en-US,en;q=0.9","669533c82c03a4d6320159d3","683db6dfa200031b80f2a654","686507876a29bf167a105667","669533c82c03a4d6320159d3","","[{""page_index"":0,""viewing_time"":7846}]","","","","","","","","","","","","","","","","","","","","","","","","","","","","","","","","","","","","","","","","","","",""
"","","","","ctl-task-cpt","23","1072078","0.0-8.0-3.0","119","1","2025-07-02 10:19:59","80fe4187154257d5fb01684ea91b68b9","197.184.180.122","Mozilla/5.0 (Windows NT 10.0; Win64; x64) AppleWebKit/537.36 (KHTML, like Gecko) Chrome/137.0.0.0 Safari/537.36","WebKit","Chrome","137.0.0.0","Windows","10.0","https://app.prolific.com/","en-US,en;q=0.9","669533c82c03a4d6320159d3","683db6dfa200031b80f2a654","686507876a29bf167a105667","669533c82c03a4d6320159d3","","","","","","","","","","","","","","","","","win-only","0","g1:NW,g2:SE","0.35","0","3","1039560.6","2117","6121.3","31931.7","2","4","8","6","1","2","1","1","0","0.007575757575757576","1325.5","4000","1340","[""left"",""up""]","{""num_key_presses"":7,""num_perfect"":3,""num_errors"":1,""num_randdir"":3,""num_randdir_good_moves"":2,""num_whilered"":0,""num_whileblue"":0,""num_blue"":2,""num_good_moves"":5}","[300.22232142857143,295.12857142857143,0.3,300.22232142857143,295.12857142857143,104.5,300.22232142857143,295.12857142857143,208.8,300.22232142857143,295.12857142857143,308.9,300.22232142857143,295.12857142857143,414.4,300.22232142857143,295.12857142857143,514.4,275.22232142857143,265.12857142857143,619.1,181.22232142857143,204.12857142857143,719.1,144.22232142857143,170.12857142857143,823.5,59.222321428571426,119.12857142857143,924,33.222321428571426,97.12857142857143,1024.9,34.222321428571426,96.12857142857143,1125.4,58.222321428571426,74.12857142857143,1228.9,58.222321428571426,73.12857142857143,1339.2,58.222321428571426,73.12857142857143,1456.1,58.222321428571426,73.12857142857143,1558.9,58.222321428571426,73.12857142857143,1664.2,58.222321428571426,73.12857142857143,1769.2,58.222321428571426,74.12857142857143,1869.5,58.222321428571426,74.12857142857143,1974.7,58.222321428571426,74.12857142857143,2078.7,58.222321428571426,74.12857142857143,2179.4,58.222321428571426,74.12857142857143,2284.5,58.222321428571426,74.12857142857143,2389.7,58.222321428571426,74.12857142857143,2494.5,58.222321428571426,74.12857142857143,2598.3,58.222321428571426,74.12857142857143,2698.8,58.222321428571426,74.12857142857143,2799.3,58.222321428571426,74.12857142857143,2903.4,58.222321428571426,74.12857142857143,3003.7,58.222321428571426,74.12857142857143,3109.8,58.222321428571426,74.12857142857143,3214.5,58.222321428571426,74.12857142857143,3319.3,58.222321428571426,74.12857142857143,3424.8,58.222321428571426,74.12857142857143,3529,58.222321428571426,74.12857142857143,3634.3,58.222321428571426,74.12857142857143,3734.4,58.222321428571426,74.12857142857143,3839.1,58.222321428571426,74.12857142857143,3943.7]","[7691.8,7691.8,3243.4,4720.2,-271.7,""error"",""-"",""-"",""no_move"",12209.1,4516.6,2902,8694.6,612.5,""oops"",""up"",""left"",""good_move"",15050.3,2840.6,2290.1,12209.7,550.5,""smooth"",""up"",""up"",""good_move"",17389.4,2338.6,1907.1,15050.8,431.5,""oops"",""up"",""down"",""bad_move"",20864,3474.1,3137.9,17389.9,336.2,""smooth"",""left"",""left"",""good_move"",23447.8,2583.5,2198.5,20864.3,385,""oops"",""up"",""up"",""good_move"",25723.5,2275.4,1892.3,23448.1,383.1,""smooth"",""up"",""up"",""good_move""]","",""
"11221","","","","instructions","24","1083299","0.0-8.0-4.0","119","1","2025-07-02 10:19:59","80fe4187154257d5fb01684ea91b68b9","197.184.180.122","Mozilla/5.0 (Windows NT 10.0; Win64; x64) AppleWebKit/537.36 (KHTML, like Gecko) Chrome/137.0.0.0 Safari/537.36","WebKit","Chrome","137.0.0.0","Windows","10.0","https://app.prolific.com/","en-US,en;q=0.9","669533c82c03a4d6320159d3","683db6dfa200031b80f2a654","686507876a29bf167a105667","669533c82c03a4d6320159d3","","[{""page_index"":0,""viewing_time"":8431},{""page_index"":1,""viewing_time"":2790}]","","","","","","","","","","","","","","","","","","","","","","","","","","","","","","","","","","","","","","","","","","",""
"16050","","","{""green_ball"":[""Ball always moves in the direction I press"",""Ball sometimes shakes and moves in a random direction""]}","survey-multi-select","25","1099352","0.0-8.0-5.0-0.0","119","1","2025-07-02 10:19:59","80fe4187154257d5fb01684ea91b68b9","197.184.180.122","Mozilla/5.0 (Windows NT 10.0; Win64; x64) AppleWebKit/537.36 (KHTML, like Gecko) Chrome/137.0.0.0 Safari/537.36","WebKit","Chrome","137.0.0.0","Windows","10.0","https://app.prolific.com/","en-US,en;q=0.9","669533c82c03a4d6320159d3","683db6dfa200031b80f2a654","686507876a29bf167a105667","669533c82c03a4d6320159d3","","","[0]","","","","quiz","","","","","","","","","","","","","","","","","","","","","","","","","","","","","","","","","","","","","false",""
"6338","","<p align='center'><b>INCORRECT.</b> Usually the green ball moves in the indicated direction, but sometimes it shakes and moves randomly. </p>","0","html-button-response","26","1105693","0.0-8.0-5.0-1.0","119","1","2025-07-02 10:19:59","80fe4187154257d5fb01684ea91b68b9","197.184.180.122","Mozilla/5.0 (Windows NT 10.0; Win64; x64) AppleWebKit/537.36 (KHTML, like Gecko) Chrome/137.0.0.0 Safari/537.36","WebKit","Chrome","137.0.0.0","Windows","10.0","https://app.prolific.com/","en-US,en;q=0.9","669533c82c03a4d6320159d3","683db6dfa200031b80f2a654","686507876a29bf167a105667","669533c82c03a4d6320159d3","","","","","","","","","","","","","","","","","","","","","","","","","","","","","","","","","","","","","","","","","","","","",""
"11053","","","{""green_ball"":[""Ball sometimes shakes and moves in a random direction""]}","survey-multi-select","27","1116750","0.0-8.0-5.1-0.1","119","1","2025-07-02 10:19:59","80fe4187154257d5fb01684ea91b68b9","197.184.180.122","Mozilla/5.0 (Windows NT 10.0; Win64; x64) AppleWebKit/537.36 (KHTML, like Gecko) Chrome/137.0.0.0 Safari/537.36","WebKit","Chrome","137.0.0.0","Windows","10.0","https://app.prolific.com/","en-US,en;q=0.9","669533c82c03a4d6320159d3","683db6dfa200031b80f2a654","686507876a29bf167a105667","669533c82c03a4d6320159d3","","","[0]","","","","quiz","","","","","","","","","","","","","","","","","","","","","","","","","","","","","","","","","","","","","true",""
"2296","","<p align='center'><b>CORRECT!</b> Indeed, the green ball may sometimes shake and move in a random direction.</p>","0","html-button-response","28","1119048","0.0-8.0-5.1-1.1","119","1","2025-07-02 10:19:59","80fe4187154257d5fb01684ea91b68b9","197.184.180.122","Mozilla/5.0 (Windows NT 10.0; Win64; x64) AppleWebKit/537.36 (KHTML, like Gecko) Chrome/137.0.0.0 Safari/537.36","WebKit","Chrome","137.0.0.0","Windows","10.0","https://app.prolific.com/","en-US,en;q=0.9","669533c82c03a4d6320159d3","683db6dfa200031b80f2a654","686507876a29bf167a105667","669533c82c03a4d6320159d3","","","","","","","","","","","","","","","","","","","","","","","","","","","","","","","","","","","","","","","","","","","","",""
"6806","","","{""yellow_ball"":[""Ball always shakes and moves in a random direction""]}","survey-multi-select","29","1125856","0.0-8.0-6.0-0.0","119","1","2025-07-02 10:19:59","80fe4187154257d5fb01684ea91b68b9","197.184.180.122","Mozilla/5.0 (Windows NT 10.0; Win64; x64) AppleWebKit/537.36 (KHTML, like Gecko) Chrome/137.0.0.0 Safari/537.36","WebKit","Chrome","137.0.0.0","Windows","10.0","https://app.prolific.com/","en-US,en;q=0.9","669533c82c03a4d6320159d3","683db6dfa200031b80f2a654","686507876a29bf167a105667","669533c82c03a4d6320159d3","","","[0]","","","","quiz","","","","","","","","","","","","","","","","","","","","","","","","","","","","","","","","","","","","","false",""
"4538","","<p align='center'><b>INCORRECT.</b> The yellow ball never moves and you reveice a penalty if you press anyways. </p>","0","html-button-response","30","1130396","0.0-8.0-6.0-1.0","119","1","2025-07-02 10:19:59","80fe4187154257d5fb01684ea91b68b9","197.184.180.122","Mozilla/5.0 (Windows NT 10.0; Win64; x64) AppleWebKit/537.36 (KHTML, like Gecko) Chrome/137.0.0.0 Safari/537.36","WebKit","Chrome","137.0.0.0","Windows","10.0","https://app.prolific.com/","en-US,en;q=0.9","669533c82c03a4d6320159d3","683db6dfa200031b80f2a654","686507876a29bf167a105667","669533c82c03a4d6320159d3","","","","","","","","","","","","","","","","","","","","","","","","","","","","","","","","","","","","","","","","","","","","",""
"5154","","","{""yellow_ball"":[""Ball doesn‘t move and I get -1 penalty point""]}","survey-multi-select","31","1135553","0.0-8.0-6.1-0.1","119","1","2025-07-02 10:19:59","80fe4187154257d5fb01684ea91b68b9","197.184.180.122","Mozilla/5.0 (Windows NT 10.0; Win64; x64) AppleWebKit/537.36 (KHTML, like Gecko) Chrome/137.0.0.0 Safari/537.36","WebKit","Chrome","137.0.0.0","Windows","10.0","https://app.prolific.com/","en-US,en;q=0.9","669533c82c03a4d6320159d3","683db6dfa200031b80f2a654","686507876a29bf167a105667","669533c82c03a4d6320159d3","","","[0]","","","","quiz","","","","","","","","","","","","","","","","","","","","","","","","","","","","","","","","","","","","","true",""
"2180","","<p align='center'><b>CORRECT!</b> Indeed, the yellow ball never moves and you receive a penalty.</p>","0","html-button-response","32","1137734","0.0-8.0-6.1-1.1","119","1","2025-07-02 10:19:59","80fe4187154257d5fb01684ea91b68b9","197.184.180.122","Mozilla/5.0 (Windows NT 10.0; Win64; x64) AppleWebKit/537.36 (KHTML, like Gecko) Chrome/137.0.0.0 Safari/537.36","WebKit","Chrome","137.0.0.0","Windows","10.0","https://app.prolific.com/","en-US,en;q=0.9","669533c82c03a4d6320159d3","683db6dfa200031b80f2a654","686507876a29bf167a105667","669533c82c03a4d6320159d3","","","","","","","","","","","","","","","","","","","","","","","","","","","","","","","","","","","","","","","","","","","","",""
"4281","","","{""blue_ball"":[""Ball always shakes and moves in a random direction""]}","survey-multi-select","33","1142020","0.0-8.0-7.0-0.0","119","1","2025-07-02 10:19:59","80fe4187154257d5fb01684ea91b68b9","197.184.180.122","Mozilla/5.0 (Windows NT 10.0; Win64; x64) AppleWebKit/537.36 (KHTML, like Gecko) Chrome/137.0.0.0 Safari/537.36","WebKit","Chrome","137.0.0.0","Windows","10.0","https://app.prolific.com/","en-US,en;q=0.9","669533c82c03a4d6320159d3","683db6dfa200031b80f2a654","686507876a29bf167a105667","669533c82c03a4d6320159d3","","","[0]","","","","quiz","","","","","","","","","","","","","","","","","","","","","","","","","","","","","","","","","","","","","true",""
"1452","","<p align='center'><b>CORRECT!</b> Indeed, the blue ball always shakes and moves in a random direction. Also there is a penalty of -1 point.</p>","0","html-button-response","34","1143474","0.0-8.0-7.0-1.0","119","1","2025-07-02 10:19:59","80fe4187154257d5fb01684ea91b68b9","197.184.180.122","Mozilla/5.0 (Windows NT 10.0; Win64; x64) AppleWebKit/537.36 (KHTML, like Gecko) Chrome/137.0.0.0 Safari/537.36","WebKit","Chrome","137.0.0.0","Windows","10.0","https://app.prolific.com/","en-US,en;q=0.9","669533c82c03a4d6320159d3","683db6dfa200031b80f2a654","686507876a29bf167a105667","669533c82c03a4d6320159d3","","","","","","","","","","","","","","","","","","","","","","","","","","","","","","","","","","","","","","","","","","","","",""
"7170","","","{""bonus"":[""When I reach all possible points""]}","survey-multi-select","35","1150646","0.0-8.0-8.0-0.0","119","1","2025-07-02 10:19:59","80fe4187154257d5fb01684ea91b68b9","197.184.180.122","Mozilla/5.0 (Windows NT 10.0; Win64; x64) AppleWebKit/537.36 (KHTML, like Gecko) Chrome/137.0.0.0 Safari/537.36","WebKit","Chrome","137.0.0.0","Windows","10.0","https://app.prolific.com/","en-US,en;q=0.9","669533c82c03a4d6320159d3","683db6dfa200031b80f2a654","686507876a29bf167a105667","669533c82c03a4d6320159d3","","","[0]","","","","quiz","","","","","","","","","","","","","","","","","","","","","","","","","","","","","","","","","","","","","false",""
"2498","","<p align='center'><b>INCORRECT.</b> You receive 2 pounds extra when you reach 50% of points </p>","0","html-button-response","36","1153146","0.0-8.0-8.0-1.0","119","1","2025-07-02 10:19:59","80fe4187154257d5fb01684ea91b68b9","197.184.180.122","Mozilla/5.0 (Windows NT 10.0; Win64; x64) AppleWebKit/537.36 (KHTML, like Gecko) Chrome/137.0.0.0 Safari/537.36","WebKit","Chrome","137.0.0.0","Windows","10.0","https://app.prolific.com/","en-US,en;q=0.9","669533c82c03a4d6320159d3","683db6dfa200031b80f2a654","686507876a29bf167a105667","669533c82c03a4d6320159d3","","","","","","","","","","","","","","","","","","","","","","","","","","","","","","","","","","","","","","","","","","","","",""
"2164","","","{""bonus"":[""When I reach 50% of points""]}","survey-multi-select","37","1155312","0.0-8.0-8.1-0.1","119","1","2025-07-02 10:19:59","80fe4187154257d5fb01684ea91b68b9","197.184.180.122","Mozilla/5.0 (Windows NT 10.0; Win64; x64) AppleWebKit/537.36 (KHTML, like Gecko) Chrome/137.0.0.0 Safari/537.36","WebKit","Chrome","137.0.0.0","Windows","10.0","https://app.prolific.com/","en-US,en;q=0.9","669533c82c03a4d6320159d3","683db6dfa200031b80f2a654","686507876a29bf167a105667","669533c82c03a4d6320159d3","","","[0]","","","","quiz","","","","","","","","","","","","","","","","","","","","","","","","","","","","","","","","","","","","","true",""
"1532","","<p align='center'><b>CORRECT!</b> Indeed, you receive 2 pounds extra when you reach 50% of points.</p>","0","html-button-response","38","1156846","0.0-8.0-8.1-1.1","119","1","2025-07-02 10:19:59","80fe4187154257d5fb01684ea91b68b9","197.184.180.122","Mozilla/5.0 (Windows NT 10.0; Win64; x64) AppleWebKit/537.36 (KHTML, like Gecko) Chrome/137.0.0.0 Safari/537.36","WebKit","Chrome","137.0.0.0","Windows","10.0","https://app.prolific.com/","en-US,en;q=0.9","669533c82c03a4d6320159d3","683db6dfa200031b80f2a654","686507876a29bf167a105667","669533c82c03a4d6320159d3","","","","","","","","","","","","","","","","","","","","","","","","","","","","","","","","","","","","","","","","","","","","",""
"3689","","","","instructions","39","1160536","0.0-8.0-9.0","119","1","2025-07-02 10:19:59","80fe4187154257d5fb01684ea91b68b9","197.184.180.122","Mozilla/5.0 (Windows NT 10.0; Win64; x64) AppleWebKit/537.36 (KHTML, like Gecko) Chrome/137.0.0.0 Safari/537.36","WebKit","Chrome","137.0.0.0","Windows","10.0","https://app.prolific.com/","en-US,en;q=0.9","669533c82c03a4d6320159d3","683db6dfa200031b80f2a654","686507876a29bf167a105667","669533c82c03a4d6320159d3","","[{""page_index"":0,""viewing_time"":3689}]","","","","","","","","","","","","","","","","","","","","","","","","","","","","","","","","","","","","","","","","","","",""
"16458","","<p>Before you start with this game please answer the following three questions yourself. </p>
  <p>Through this game, we measure several aspects of your cognitive performance, such as reaction times, multi-tasking capabilities </p>
  <p>and the ability to assess the situation you are in.</p>
  <p></p>
  <p><b>How good do you usually are in such tasks?</b></p>","63","html-slider-response","40","1176996","0.0-9.0-0.0","119","1","2025-07-02 10:19:59","80fe4187154257d5fb01684ea91b68b9","197.184.180.122","Mozilla/5.0 (Windows NT 10.0; Win64; x64) AppleWebKit/537.36 (KHTML, like Gecko) Chrome/137.0.0.0 Safari/537.36","WebKit","Chrome","137.0.0.0","Windows","10.0","https://app.prolific.com/","en-US,en;q=0.9","669533c82c03a4d6320159d3","683db6dfa200031b80f2a654","686507876a29bf167a105667","669533c82c03a4d6320159d3","2025-07-02T10:39:38.630Z","","","","","","PreSkillQ","","","","","","","","","","","","","","","","","","","","","","","","","","","","","","","","","","","","","","50"
"5068","","<div style=""width:500px;"">
  <p>How well do you think you will perform in this task compared to other participants?</p>
  </div>","100","html-slider-response","41","1182065","0.0-9.0-1.0","119","1","2025-07-02 10:19:59","80fe4187154257d5fb01684ea91b68b9","197.184.180.122","Mozilla/5.0 (Windows NT 10.0; Win64; x64) AppleWebKit/537.36 (KHTML, like Gecko) Chrome/137.0.0.0 Safari/537.36","WebKit","Chrome","137.0.0.0","Windows","10.0","https://app.prolific.com/","en-US,en;q=0.9","669533c82c03a4d6320159d3","683db6dfa200031b80f2a654","686507876a29bf167a105667","669533c82c03a4d6320159d3","2025-07-02T10:39:43.699Z","","","","","","PrePerfQ","","","","","","","","","","","","","","","","","","","","","","","","","","","","","","","","","","","","","","50"
"4237","","<div style=""width:500px;"">
  <p>What best describes how you currently feel?</p>
  </div>","100","html-slider-response","42","1186303","0.0-9.0-2.0","119","1","2025-07-02 10:19:59","80fe4187154257d5fb01684ea91b68b9","197.184.180.122","Mozilla/5.0 (Windows NT 10.0; Win64; x64) AppleWebKit/537.36 (KHTML, like Gecko) Chrome/137.0.0.0 Safari/537.36","WebKit","Chrome","137.0.0.0","Windows","10.0","https://app.prolific.com/","en-US,en;q=0.9","669533c82c03a4d6320159d3","683db6dfa200031b80f2a654","686507876a29bf167a105667","669533c82c03a4d6320159d3","2025-07-02T10:39:47.938Z","","","","","","PreMotivationQ","","","","","","","","","","","","","","","","","","","","","","","","","","","","","","","","","","","","","","50"
"","","","","ctl-task-cpt","43","1237429","0.0-10.0-0.0","119","1","2025-07-02 10:19:59","80fe4187154257d5fb01684ea91b68b9","197.184.180.122","Mozilla/5.0 (Windows NT 10.0; Win64; x64) AppleWebKit/537.36 (KHTML, like Gecko) Chrome/137.0.0.0 Safari/537.36","WebKit","Chrome","137.0.0.0","Windows","10.0","https://app.prolific.com/","en-US,en;q=0.9","669533c82c03a4d6320159d3","683db6dfa200031b80f2a654","686507876a29bf167a105667","669533c82c03a4d6320159d3","2025-07-02T10:40:39.063Z","","","","","","","","","","","","","","","","win-only","3","g1:SW,g2:NE","1","1","0","1188738.2","13162.2","18170.9","48111.8","1","4","8","6","2","8","8","8","0","0.06060606060606061","1166.9","3000","625","[""up"",""right""]","{""num_key_presses"":6,""num_perfect"":6,""num_errors"":0,""num_randdir"":0,""num_randdir_good_moves"":0,""num_whilered"":0,""num_whileblue"":0,""num_blue"":4,""num_good_moves"":6}","[295.22232142857143,296.12857142857143,0.3,295.22232142857143,296.12857142857143,103.4,295.22232142857143,296.12857142857143,203.9,295.22232142857143,296.12857142857143,312.4,295.22232142857143,296.12857142857143,414.1,295.22232142857143,296.12857142857143,519,295.22232142857143,296.12857142857143,629.1,308.22232142857143,278.12857142857143,729.2,456.22232142857143,161.12857142857143,833.8,499.22232142857143,114.12857142857143,938.4,567.2223214285714,64.12857142857143,1045.9,570.2223214285714,58.128571428571426,1148.6,570.2223214285714,57.128571428571426,1253.1,570.2223214285714,58.128571428571426,1353.3,570.2223214285714,58.128571428571426,1453.6,570.2223214285714,58.128571428571426,1553.8,570.2223214285714,58.128571428571426,1654.8,570.2223214285714,58.128571428571426,1761,570.2223214285714,58.128571428571426,1864.1,570.2223214285714,58.128571428571426,1964.3,570.2223214285714,58.128571428571426,2065,570.2223214285714,58.128571428571426,2170,570.2223214285714,58.128571428571426,2276.6,570.2223214285714,58.128571428571426,2377.1,570.2223214285714,58.128571428571426,2478.8,570.2223214285714,58.128571428571426,2579,570.2223214285714,58.128571428571426,2683.7,570.2223214285714,58.128571428571426,2793.2,570.2223214285714,58.128571428571426,2898.7,570.2223214285714,58.128571428571426,2999.7,570.2223214285714,58.128571428571426,3109.3,570.2223214285714,58.128571428571426,3214.2,570.2223214285714,58.128571428571426,3318.8,570.2223214285714,58.128571428571426,3418.9,570.2223214285714,58.128571428571426,3518.9,570.2223214285714,58.128571428571426,3625.8,570.2223214285714,58.128571428571426,3725.8,570.2223214285714,58.128571428571426,3828.4,570.2223214285714,58.128571428571426,3928.5,570.2223214285714,58.128571428571426,4034.7,570.2223214285714,58.128571428571426,4142.1,570.2223214285714,58.128571428571426,4243.6,570.2223214285714,58.128571428571426,4348.8,570.2223214285714,58.128571428571426,4458.2,570.2223214285714,58.128571428571426,4563.1,570.2223214285714,58.128571428571426,4664,570.2223214285714,58.128571428571426,4768.5,570.2223214285714,58.128571428571426,4868.7,570.2223214285714,58.128571428571426,4969]","[4345.5,4345.6,1886.7,2005,453.9,""smooth"",""right"",""right"",""good_move"",7409.3,3063.2,2624.9,4346.2,438.3,""smooth"",""right"",""right"",""good_move"",10088.1,2678.2,2281.7,7410,396.4,""smooth"",""right"",""right"",""good_move"",16482.2,6393.8,2276.3,13705,500.9,""smooth"",""up"",""up"",""good_move"",18979.4,2496.8,2077.1,16482.6,419.7,""smooth"",""up"",""up"",""good_move"",29827.8,10848.1,2953,26400.7,474.1,""smooth"",""up"",""up"",""good_move""]","",""
"4989","","<div style=""width:500px;"">
  <p>What determined the result of this run?</p>
  </div>","99","html-slider-response","44","1242421","0.0-10.0-1.0","119","1","2025-07-02 10:19:59","80fe4187154257d5fb01684ea91b68b9","197.184.180.122","Mozilla/5.0 (Windows NT 10.0; Win64; x64) AppleWebKit/537.36 (KHTML, like Gecko) Chrome/137.0.0.0 Safari/537.36","WebKit","Chrome","137.0.0.0","Windows","10.0","https://app.prolific.com/","en-US,en;q=0.9","669533c82c03a4d6320159d3","683db6dfa200031b80f2a654","686507876a29bf167a105667","669533c82c03a4d6320159d3","2025-07-02T10:40:44.055Z","","","","","","AttribQ","","","","","","","","","","","","","","","","","","","","","","","","","","","","","","","","","","","","","","50"
"3313","","<div style=""width:500px;"">
  <p>How much control did you have over the ball?</p>
  </div>","100","html-slider-response","45","1245737","0.0-10.0-2.0","119","1","2025-07-02 10:19:59","80fe4187154257d5fb01684ea91b68b9","197.184.180.122","Mozilla/5.0 (Windows NT 10.0; Win64; x64) AppleWebKit/537.36 (KHTML, like Gecko) Chrome/137.0.0.0 Safari/537.36","WebKit","Chrome","137.0.0.0","Windows","10.0","https://app.prolific.com/","en-US,en;q=0.9","669533c82c03a4d6320159d3","683db6dfa200031b80f2a654","686507876a29bf167a105667","669533c82c03a4d6320159d3","2025-07-02T10:40:47.371Z","","","","","","ControlQ","","","","","","","","","","","","","","","","","","","","","","","","","","","","","","","","","","","","","","50"
"4299","","<div style=""width:500px;"">
  <p>How would you describe your current emotional state?</p>
  </div>","1","html-slider-response","46","1250038","0.0-10.0-3.0","119","1","2025-07-02 10:19:59","80fe4187154257d5fb01684ea91b68b9","197.184.180.122","Mozilla/5.0 (Windows NT 10.0; Win64; x64) AppleWebKit/537.36 (KHTML, like Gecko) Chrome/137.0.0.0 Safari/537.36","WebKit","Chrome","137.0.0.0","Windows","10.0","https://app.prolific.com/","en-US,en;q=0.9","669533c82c03a4d6320159d3","683db6dfa200031b80f2a654","686507876a29bf167a105667","669533c82c03a4d6320159d3","2025-07-02T10:40:51.672Z","","","","","","StressQ","","","","","","","","","","","","","","","","","","","","","","","","","","","","","","","","","","","","","","50"
"3557","","<div style=""width:500px;"">
  <p>What best describes how you currently feel?</p>
  </div>","99","html-slider-response","47","1253597","0.0-10.0-4.0","119","1","2025-07-02 10:19:59","80fe4187154257d5fb01684ea91b68b9","197.184.180.122","Mozilla/5.0 (Windows NT 10.0; Win64; x64) AppleWebKit/537.36 (KHTML, like Gecko) Chrome/137.0.0.0 Safari/537.36","WebKit","Chrome","137.0.0.0","Windows","10.0","https://app.prolific.com/","en-US,en;q=0.9","669533c82c03a4d6320159d3","683db6dfa200031b80f2a654","686507876a29bf167a105667","669533c82c03a4d6320159d3","2025-07-02T10:40:55.231Z","","","","","","MotivationQ","","","","","","","","","","","","","","","","","","","","","","","","","","","","","","","","","","","","","","50"
"","","","","ctl-task-cpt","48","1298421","0.0-10.0-0.1","119","1","2025-07-02 10:19:59","80fe4187154257d5fb01684ea91b68b9","197.184.180.122","Mozilla/5.0 (Windows NT 10.0; Win64; x64) AppleWebKit/537.36 (KHTML, like Gecko) Chrome/137.0.0.0 Safari/537.36","WebKit","Chrome","137.0.0.0","Windows","10.0","https://app.prolific.com/","en-US,en;q=0.9","669533c82c03a4d6320159d3","683db6dfa200031b80f2a654","686507876a29bf167a105667","669533c82c03a4d6320159d3","2025-07-02T10:41:40.056Z","","","","","","","","","","","","","","","","win-only","3","g1:SW,g2:NE","0.9","2","0","1256031.9","1878.3","6880.8","41803.6","1","4","4","6","2","-4","-4","4","8","0.030303030303030304","988","3000","-2985","[""up"",""right""]","{""num_key_presses"":7,""num_perfect"":6,""num_errors"":0,""num_randdir"":1,""num_randdir_good_moves"":0,""num_whilered"":0,""num_whileblue"":0,""num_blue"":4,""num_good_moves"":6}","[301.22232142857143,298.12857142857143,0.1,301.22232142857143,298.12857142857143,100.3,301.22232142857143,298.12857142857143,202.5,301.22232142857143,298.12857142857143,303.6,301.22232142857143,298.12857142857143,408.7,389.22232142857143,222.12857142857143,512.5,460.22232142857143,140.12857142857143,614.3,489.22232142857143,108.12857142857143,715.2,523.2223214285714,80.12857142857143,815.8,542.2223214285714,67.12857142857143,918.3,542.2223214285714,65.12857142857143,1022.7,542.2223214285714,65.12857142857143,1133.1,542.2223214285714,65.12857142857143,1233.4,542.2223214285714,66.12857142857143,1337.6,542.2223214285714,66.12857142857143,1438.1,542.2223214285714,66.12857142857143,1538.4,542.2223214285714,66.12857142857143,1643,542.2223214285714,66.12857142857143,1750,542.2223214285714,66.12857142857143,1852.6,542.2223214285714,66.12857142857143,1958.3,542.2223214285714,66.12857142857143,2059.4,542.2223214285714,66.12857142857143,2163.9,542.2223214285714,66.12857142857143,2266.4,542.2223214285714,66.12857142857143,2367.9,542.2223214285714,66.12857142857143,2472.2,542.2223214285714,66.12857142857143,2572.4,542.2223214285714,66.12857142857143,2674.4,542.2223214285714,66.12857142857143,2781.6,542.2223214285714,66.12857142857143,2882.6,542.2223214285714,66.12857142857143,2983.4,542.2223214285714,66.12857142857143,3088.7,542.2223214285714,66.12857142857143,3196.4,542.2223214285714,66.12857142857143,3298.5,542.2223214285714,66.12857142857143,3403.5,542.2223214285714,66.12857142857143,3508.4,542.2223214285714,66.12857142857143,3610.5,542.2223214285714,66.12857142857143,3711.6,542.2223214285714,66.12857142857143,3813.1,542.2223214285714,66.12857142857143,3915.2,542.2223214285714,66.12857142857143,4017.2,542.2223214285714,66.12857142857143,4118,542.2223214285714,66.12857142857143,4218.3,542.2223214285714,66.12857142857143,4318.7,542.2223214285714,66.12857142857143,4425.2,542.2223214285714,66.12857142857143,4528.5,542.2223214285714,66.12857142857143,4630,542.2223214285714,66.12857142857143,4733,542.2223214285714,66.12857142857143,4837.1,542.2223214285714,66.12857142857143,4937.3]","[8573.4,8573.4,2537.5,5536.2,499.7,""smooth"",""right"",""right"",""good_move"",11632.6,3058.6,2649.6,8574,409,""smooth"",""right"",""right"",""good_move"",13813.3,2180.4,1798.9,11632.9,381.5,""smooth"",""right"",""right"",""good_move"",17473.9,3660.3,3246.7,13813.6,413.6,""smooth"",""up"",""up"",""good_move"",20135.7,2660.1,2284.8,17475.6,375.3,""oops"",""up"",""down"",""bad_move"",26021.4,5884.7,2755.1,22879.8,386.5,""smooth"",""up"",""up"",""good_move"",32001.2,5979.5,2796.9,28899.7,304.6,""smooth"",""up"",""up"",""good_move""]","",""
"6613","","<div style=""width:500px;"">
  <p>What determined the result of this run?</p>
  </div>","7","html-slider-response","49","1305035","0.0-10.0-1.1","119","1","2025-07-02 10:19:59","80fe4187154257d5fb01684ea91b68b9","197.184.180.122","Mozilla/5.0 (Windows NT 10.0; Win64; x64) AppleWebKit/537.36 (KHTML, like Gecko) Chrome/137.0.0.0 Safari/537.36","WebKit","Chrome","137.0.0.0","Windows","10.0","https://app.prolific.com/","en-US,en;q=0.9","669533c82c03a4d6320159d3","683db6dfa200031b80f2a654","686507876a29bf167a105667","669533c82c03a4d6320159d3","2025-07-02T10:41:46.669Z","","","","","","AttribQ","","","","","","","","","","","","","","","","","","","","","","","","","","","","","","","","","","","","","","50"
"4089","","<div style=""width:500px;"">
  <p>How much control did you have over the ball?</p>
  </div>","66","html-slider-response","50","1309126","0.0-10.0-2.1","119","1","2025-07-02 10:19:59","80fe4187154257d5fb01684ea91b68b9","197.184.180.122","Mozilla/5.0 (Windows NT 10.0; Win64; x64) AppleWebKit/537.36 (KHTML, like Gecko) Chrome/137.0.0.0 Safari/537.36","WebKit","Chrome","137.0.0.0","Windows","10.0","https://app.prolific.com/","en-US,en;q=0.9","669533c82c03a4d6320159d3","683db6dfa200031b80f2a654","686507876a29bf167a105667","669533c82c03a4d6320159d3","2025-07-02T10:41:50.760Z","","","","","","ControlQ","","","","","","","","","","","","","","","","","","","","","","","","","","","","","","","","","","","","","","50"
"4565","","<div style=""width:500px;"">
  <p>How would you describe your current emotional state?</p>
  </div>","83","html-slider-response","51","1313692","0.0-10.0-3.1","119","1","2025-07-02 10:19:59","80fe4187154257d5fb01684ea91b68b9","197.184.180.122","Mozilla/5.0 (Windows NT 10.0; Win64; x64) AppleWebKit/537.36 (KHTML, like Gecko) Chrome/137.0.0.0 Safari/537.36","WebKit","Chrome","137.0.0.0","Windows","10.0","https://app.prolific.com/","en-US,en;q=0.9","669533c82c03a4d6320159d3","683db6dfa200031b80f2a654","686507876a29bf167a105667","669533c82c03a4d6320159d3","2025-07-02T10:41:55.326Z","","","","","","StressQ","","","","","","","","","","","","","","","","","","","","","","","","","","","","","","","","","","","","","","50"
"4024","","<div style=""width:500px;"">
  <p>What best describes how you currently feel?</p>
  </div>","83","html-slider-response","52","1317718","0.0-10.0-4.1","119","1","2025-07-02 10:19:59","80fe4187154257d5fb01684ea91b68b9","197.184.180.122","Mozilla/5.0 (Windows NT 10.0; Win64; x64) AppleWebKit/537.36 (KHTML, like Gecko) Chrome/137.0.0.0 Safari/537.36","WebKit","Chrome","137.0.0.0","Windows","10.0","https://app.prolific.com/","en-US,en;q=0.9","669533c82c03a4d6320159d3","683db6dfa200031b80f2a654","686507876a29bf167a105667","669533c82c03a4d6320159d3","2025-07-02T10:41:59.352Z","","","","","","MotivationQ","","","","","","","","","","","","","","","","","","","","","","","","","","","","","","","","","","","","","","50"
"","","","","ctl-task-cpt","53","1346005","0.0-10.0-0.2","119","1","2025-07-02 10:19:59","80fe4187154257d5fb01684ea91b68b9","197.184.180.122","Mozilla/5.0 (Windows NT 10.0; Win64; x64) AppleWebKit/537.36 (KHTML, like Gecko) Chrome/137.0.0.0 Safari/537.36","WebKit","Chrome","137.0.0.0","Windows","10.0","https://app.prolific.com/","en-US,en;q=0.9","669533c82c03a4d6320159d3","683db6dfa200031b80f2a654","686507876a29bf167a105667","669533c82c03a4d6320159d3","2025-07-02T10:42:27.640Z","","","","","","","","","","","","","","","","win-only","1","g1:NE,g2:SW","0.8","3","0","1320152.3","1365.1","6367.2","25271.2","1","4","4","6","1","1","1","5","4","0.03787878787878788","1262.9","3000","845","[""up"",""right""]","{""num_key_presses"":6,""num_perfect"":5,""num_errors"":0,""num_randdir"":1,""num_randdir_good_moves"":0,""num_whilered"":0,""num_whileblue"":0,""num_blue"":1,""num_good_moves"":5}","[297.22232142857143,298.12857142857143,0.1,297.22232142857143,298.12857142857143,100.4,297.22232142857143,298.12857142857143,202.4,297.22232142857143,298.12857142857143,305.4,297.22232142857143,298.12857142857143,405.7,356.22232142857143,229.12857142857143,512.9,434.22232142857143,149.12857142857143,616.8,486.22232142857143,103.12857142857143,720.3,512.2223214285714,75.12857142857143,820.6,535.2223214285714,55.128571428571426,921.4,540.2223214285714,52.128571428571426,1029.4,540.2223214285714,51.128571428571426,1130.7,540.2223214285714,51.128571428571426,1235.7,540.2223214285714,51.128571428571426,1337.3,540.2223214285714,51.128571428571426,1445.6,540.2223214285714,51.128571428571426,1545.9,540.2223214285714,51.128571428571426,1650.9,540.2223214285714,51.128571428571426,1755.5,540.2223214285714,51.128571428571426,1855.5,540.2223214285714,51.128571428571426,1956.1,538.2223214285714,69.12857142857143,2062.4,536.2223214285714,144.12857142857143,2162.4,537.2223214285714,240.12857142857143,2262.4,537.2223214285714,298.12857142857143,2365.1,529.2223214285714,326.12857142857143,2465.1,529.2223214285714,329.12857142857143,2565.8,529.2223214285714,329.12857142857143,2665.9,529.2223214285714,329.12857142857143,2770.5,529.2223214285714,329.12857142857143,2878.2,529.2223214285714,329.12857142857143,2978.9,529.2223214285714,329.12857142857143,3081,529.2223214285714,329.12857142857143,3185.8,529.2223214285714,329.12857142857143,3285.8,529.2223214285714,329.12857142857143,3392.9,529.2223214285714,329.12857142857143,3494,529.2223214285714,329.12857142857143,3594.7,529.2223214285714,329.12857142857143,3695.6,529.2223214285714,329.12857142857143,3795.6,529.2223214285714,329.12857142857143,3895.6,529.2223214285714,329.12857142857143,4000.7,529.2223214285714,329.12857142857143,4101.8,529.2223214285714,329.12857142857143,4209.9,529.2223214285714,329.12857142857143,4309.9,529.2223214285714,329.12857142857143,4415.5,529.2223214285714,329.12857142857143,4525.8,529.2223214285714,329.12857142857143,4631.1,529.2223214285714,329.12857142857143,4735.4,529.2223214285714,329.12857142857143,4835.6,529.2223214285714,329.12857142857143,4943.4]","[1371.8,1371.9,1000,0,371.9,""smooth"",""up"",""up"",""good_move"",4921.8,3549.2,3161.1,1372.6,388.1,""smooth"",""up"",""up"",""good_move"",7701.7,2779.5,2471,4922.2,308.5,""oops"",""right"",""down"",""bad_move"",10013.2,2310.9,1931.1,7702.3,379.8,""smooth"",""right"",""right"",""good_move"",16100.6,6086.8,2064.7,13649.3,386.6,""smooth"",""right"",""right"",""good_move"",18805,2704.2,2297.2,16100.8,407,""smooth"",""up"",""up"",""good_move""]","",""
"2434","","<div style=""width:500px;"">
  <p>What determined the result of this run?</p>
  </div>","99","html-slider-response","54","1348441","0.0-10.0-1.2","119","1","2025-07-02 10:19:59","80fe4187154257d5fb01684ea91b68b9","197.184.180.122","Mozilla/5.0 (Windows NT 10.0; Win64; x64) AppleWebKit/537.36 (KHTML, like Gecko) Chrome/137.0.0.0 Safari/537.36","WebKit","Chrome","137.0.0.0","Windows","10.0","https://app.prolific.com/","en-US,en;q=0.9","669533c82c03a4d6320159d3","683db6dfa200031b80f2a654","686507876a29bf167a105667","669533c82c03a4d6320159d3","2025-07-02T10:42:30.075Z","","","","","","AttribQ","","","","","","","","","","","","","","","","","","","","","","","","","","","","","","","","","","","","","","50"
"2819","","<div style=""width:500px;"">
  <p>How much control did you have over the ball?</p>
  </div>","97","html-slider-response","55","1351262","0.0-10.0-2.2","119","1","2025-07-02 10:19:59","80fe4187154257d5fb01684ea91b68b9","197.184.180.122","Mozilla/5.0 (Windows NT 10.0; Win64; x64) AppleWebKit/537.36 (KHTML, like Gecko) Chrome/137.0.0.0 Safari/537.36","WebKit","Chrome","137.0.0.0","Windows","10.0","https://app.prolific.com/","en-US,en;q=0.9","669533c82c03a4d6320159d3","683db6dfa200031b80f2a654","686507876a29bf167a105667","669533c82c03a4d6320159d3","2025-07-02T10:42:32.896Z","","","","","","ControlQ","","","","","","","","","","","","","","","","","","","","","","","","","","","","","","","","","","","","","","50"
"4321","","<div style=""width:500px;"">
  <p>How would you describe your current emotional state?</p>
  </div>","53","html-slider-response","56","1355586","0.0-10.0-3.2","119","1","2025-07-02 10:19:59","80fe4187154257d5fb01684ea91b68b9","197.184.180.122","Mozilla/5.0 (Windows NT 10.0; Win64; x64) AppleWebKit/537.36 (KHTML, like Gecko) Chrome/137.0.0.0 Safari/537.36","WebKit","Chrome","137.0.0.0","Windows","10.0","https://app.prolific.com/","en-US,en;q=0.9","669533c82c03a4d6320159d3","683db6dfa200031b80f2a654","686507876a29bf167a105667","669533c82c03a4d6320159d3","2025-07-02T10:42:37.220Z","","","","","","StressQ","","","","","","","","","","","","","","","","","","","","","","","","","","","","","","","","","","","","","","50"
"5608","","<div style=""width:500px;"">
  <p>What best describes how you currently feel?</p>
  </div>","82","html-slider-response","57","1361195","0.0-10.0-4.2","119","1","2025-07-02 10:19:59","80fe4187154257d5fb01684ea91b68b9","197.184.180.122","Mozilla/5.0 (Windows NT 10.0; Win64; x64) AppleWebKit/537.36 (KHTML, like Gecko) Chrome/137.0.0.0 Safari/537.36","WebKit","Chrome","137.0.0.0","Windows","10.0","https://app.prolific.com/","en-US,en;q=0.9","669533c82c03a4d6320159d3","683db6dfa200031b80f2a654","686507876a29bf167a105667","669533c82c03a4d6320159d3","2025-07-02T10:42:42.829Z","","","","","","MotivationQ","","","","","","","","","","","","","","","","","","","","","","","","","","","","","","","","","","","","","","50"
"","","","","ctl-task-cpt","58","1390998","0.0-10.0-0.3","119","1","2025-07-02 10:19:59","80fe4187154257d5fb01684ea91b68b9","197.184.180.122","Mozilla/5.0 (Windows NT 10.0; Win64; x64) AppleWebKit/537.36 (KHTML, like Gecko) Chrome/137.0.0.0 Safari/537.36","WebKit","Chrome","137.0.0.0","Windows","10.0","https://app.prolific.com/","en-US,en;q=0.9","669533c82c03a4d6320159d3","683db6dfa200031b80f2a654","686507876a29bf167a105667","669533c82c03a4d6320159d3","2025-07-02T10:43:12.632Z","","","","","","","","","","","","","","","","win-only","3","g1:SW,g2:NE","0.7","4","0","1363629.7","2375.1","7376.5","26785.6","1","4","8","6","1","1","1","6","5","0.045454545454545456","1072.6","3000","1260","[""down"",""left""]","{""num_key_presses"":4,""num_perfect"":4,""num_errors"":0,""num_randdir"":0,""num_randdir_good_moves"":0,""num_whilered"":0,""num_whileblue"":0,""num_blue"":2,""num_good_moves"":4}","[299.22232142857143,299.12857142857143,0.4,299.22232142857143,299.12857142857143,102.2,299.22232142857143,299.12857142857143,202.2,299.22232142857143,299.12857142857143,306,299.22232142857143,299.12857142857143,412.8,299.22232142857143,298.12857142857143,515.5,299.22232142857143,297.12857142857143,615.5,167.22232142857143,421.12857142857143,715.9,87.22232142857143,514.1285714285714,821.4,65.22232142857143,548.1285714285714,926,40.222321428571426,574.1285714285714,1035.7,40.222321428571426,574.1285714285714,1136.8,40.222321428571426,574.1285714285714,1240.5,47.222321428571426,570.1285714285714,1340.5,55.222321428571426,565.1285714285714,1446,83.22232142857143,552.1285714285714,1551.5,100.22232142857143,544.1285714285714,1656,100.22232142857143,544.1285714285714,1757.2,100.22232142857143,544.1285714285714,1863.7,100.22232142857143,544.1285714285714,1966.6,100.22232142857143,544.1285714285714,2067.8,100.22232142857143,544.1285714285714,2170.8,100.22232142857143,544.1285714285714,2276.5,100.22232142857143,544.1285714285714,2376.5,100.22232142857143,544.1285714285714,2477,100.22232142857143,544.1285714285714,2581.5,100.22232142857143,544.1285714285714,2682,100.22232142857143,544.1285714285714,2785.6,100.22232142857143,544.1285714285714,2891,100.22232142857143,544.1285714285714,2992.9,100.22232142857143,544.1285714285714,3099.8,100.22232142857143,544.1285714285714,3200.7,100.22232142857143,544.1285714285714,3301,100.22232142857143,544.1285714285714,3401.3,100.22232142857143,544.1285714285714,3507.8,100.22232142857143,544.1285714285714,3610.8,100.22232142857143,544.1285714285714,3718.3,100.22232142857143,544.1285714285714,3820.1,100.22232142857143,544.1285714285714,3920.8,100.22232142857143,544.1285714285714,4025.7,100.22232142857143,544.1285714285714,4129.7,100.22232142857143,544.1285714285714,4231.2,100.22232142857143,544.1285714285714,4335.5,100.22232142857143,544.1285714285714,4443.1,100.22232142857143,544.1285714285714,4545.9,100.22232142857143,544.1285714285714,4649.7,100.22232142857143,544.1285714285714,4750.6,100.22232142857143,544.1285714285714,4851,100.22232142857143,544.1285714285714,4955.6]","[5043.9,5043.9,2115.3,2014.5,914.1,""smooth"",""down"",""down"",""good_move"",8567.4,3523,3169.1,5044.4,353.9,""smooth"",""down"",""down"",""good_move"",15896.1,7328.4,2988.6,12514.7,392.8,""smooth"",""left"",""left"",""good_move"",19306.5,3410.1,3030.7,15896.4,379.4,""smooth"",""left"",""left"",""good_move""]","",""
"3819","","<div style=""width:500px;"">
  <p>What determined the result of this run?</p>
  </div>","100","html-slider-response","59","1394818","0.0-10.0-1.3","119","1","2025-07-02 10:19:59","80fe4187154257d5fb01684ea91b68b9","197.184.180.122","Mozilla/5.0 (Windows NT 10.0; Win64; x64) AppleWebKit/537.36 (KHTML, like Gecko) Chrome/137.0.0.0 Safari/537.36","WebKit","Chrome","137.0.0.0","Windows","10.0","https://app.prolific.com/","en-US,en;q=0.9","669533c82c03a4d6320159d3","683db6dfa200031b80f2a654","686507876a29bf167a105667","669533c82c03a4d6320159d3","2025-07-02T10:43:16.453Z","","","","","","AttribQ","","","","","","","","","","","","","","","","","","","","","","","","","","","","","","","","","","","","","","50"
"2901","","<div style=""width:500px;"">
  <p>How much control did you have over the ball?</p>
  </div>","98","html-slider-response","60","1397723","0.0-10.0-2.3","119","1","2025-07-02 10:19:59","80fe4187154257d5fb01684ea91b68b9","197.184.180.122","Mozilla/5.0 (Windows NT 10.0; Win64; x64) AppleWebKit/537.36 (KHTML, like Gecko) Chrome/137.0.0.0 Safari/537.36","WebKit","Chrome","137.0.0.0","Windows","10.0","https://app.prolific.com/","en-US,en;q=0.9","669533c82c03a4d6320159d3","683db6dfa200031b80f2a654","686507876a29bf167a105667","669533c82c03a4d6320159d3","2025-07-02T10:43:19.358Z","","","","","","ControlQ","","","","","","","","","","","","","","","","","","","","","","","","","","","","","","","","","","","","","","50"
"2873","","<div style=""width:500px;"">
  <p>How would you describe your current emotional state?</p>
  </div>","21","html-slider-response","61","1400598","0.0-10.0-3.3","119","1","2025-07-02 10:19:59","80fe4187154257d5fb01684ea91b68b9","197.184.180.122","Mozilla/5.0 (Windows NT 10.0; Win64; x64) AppleWebKit/537.36 (KHTML, like Gecko) Chrome/137.0.0.0 Safari/537.36","WebKit","Chrome","137.0.0.0","Windows","10.0","https://app.prolific.com/","en-US,en;q=0.9","669533c82c03a4d6320159d3","683db6dfa200031b80f2a654","686507876a29bf167a105667","669533c82c03a4d6320159d3","2025-07-02T10:43:22.232Z","","","","","","StressQ","","","","","","","","","","","","","","","","","","","","","","","","","","","","","","","","","","","","","","50"
"2086","","<div style=""width:500px;"">
  <p>What best describes how you currently feel?</p>
  </div>","84","html-slider-response","62","1402685","0.0-10.0-4.3","119","1","2025-07-02 10:19:59","80fe4187154257d5fb01684ea91b68b9","197.184.180.122","Mozilla/5.0 (Windows NT 10.0; Win64; x64) AppleWebKit/537.36 (KHTML, like Gecko) Chrome/137.0.0.0 Safari/537.36","WebKit","Chrome","137.0.0.0","Windows","10.0","https://app.prolific.com/","en-US,en;q=0.9","669533c82c03a4d6320159d3","683db6dfa200031b80f2a654","686507876a29bf167a105667","669533c82c03a4d6320159d3","2025-07-02T10:43:24.320Z","","","","","","MotivationQ","","","","","","","","","","","","","","","","","","","","","","","","","","","","","","","","","","","","","","50"
"","","","","ctl-task-cpt","63","1434639","0.0-10.0-0.4","119","1","2025-07-02 10:19:59","80fe4187154257d5fb01684ea91b68b9","197.184.180.122","Mozilla/5.0 (Windows NT 10.0; Win64; x64) AppleWebKit/537.36 (KHTML, like Gecko) Chrome/137.0.0.0 Safari/537.36","WebKit","Chrome","137.0.0.0","Windows","10.0","https://app.prolific.com/","en-US,en;q=0.9","669533c82c03a4d6320159d3","683db6dfa200031b80f2a654","686507876a29bf167a105667","669533c82c03a4d6320159d3","2025-07-02T10:43:56.273Z","","","","","","","","","","","","","","","","win-only","2","g1:SE,g2:NW","0.6","5","0","1405120","1129.6","6131.9","28932.5","1","4","8","6","2","8","8","14","6","0.10606060606060606","1354.1","3000","1170","[""left"",""up""]","{""num_key_presses"":6,""num_perfect"":5,""num_errors"":0,""num_randdir"":1,""num_randdir_good_moves"":1,""num_whilered"":0,""num_whileblue"":0,""num_blue"":2,""num_good_moves"":6}","[295.22232142857143,302.12857142857143,0.3,295.22232142857143,302.12857142857143,102.4,295.22232142857143,302.12857142857143,202.9,295.22232142857143,302.12857142857143,306.4,295.22232142857143,302.12857142857143,416.7,295.22232142857143,302.12857142857143,522.8,295.22232142857143,302.12857142857143,627.6,295.22232142857143,302.12857142857143,728.7,263.22232142857143,268.12857142857143,837.4,113.22232142857143,169.12857142857143,937.5,63.222321428571426,128.12857142857143,1041,48.222321428571426,104.12857142857143,1141.3,36.222321428571426,73.12857142857143,1241.9,36.222321428571426,68.12857142857143,1350.4,36.222321428571426,67.12857142857143,1452.4,35.222321428571426,68.12857142857143,1557.6,35.222321428571426,69.12857142857143,1661.5,35.222321428571426,69.12857142857143,1764.9,35.222321428571426,69.12857142857143,1866.6,35.222321428571426,69.12857142857143,1966.6,35.222321428571426,69.12857142857143,2071.8,39.222321428571426,72.12857142857143,2177,53.222321428571426,78.12857142857143,2290.7,169.22232142857143,93.12857142857143,2398.4,284.22232142857143,128.12857142857143,2502.4,388.22232142857143,155.12857142857143,2607.5,448.22232142857143,179.12857142857143,2718.9,453.22232142857143,188.12857142857143,2822.4,453.22232142857143,190.12857142857143,2927.3,454.22232142857143,190.12857142857143,3032.9,354.22232142857143,174.12857142857143,3136.7,189.22232142857143,138.12857142857143,3236.7,131.22232142857143,111.12857142857143,3337.4,96.22232142857143,73.12857142857143,3437.8,50.222321428571426,42.128571428571426,3543.5,49.222321428571426,41.128571428571426,3649.5,49.222321428571426,41.128571428571426,3750.6,49.222321428571426,39.128571428571426,3851.4,49.222321428571426,40.128571428571426,3951.6,49.222321428571426,41.128571428571426,4062.8,52.222321428571426,47.128571428571426,4164.2,62.222321428571426,57.128571428571426,4265,152.22232142857143,132.12857142857143,4366.4,267.22232142857143,234.12857142857143,4466.5,290.22232142857143,263.12857142857143,4566.8,290.22232142857143,264.12857142857143,4670.8,290.22232142857143,265.12857142857143,4770.8,290.22232142857143,265.12857142857143,4871.4,290.22232142857143,265.12857142857143,4980.9]","[1398.2,1398.2,1000,0,398.2,""smooth"",""up"",""up"",""good_move"",8124.7,6726,2583,5136.9,404.8,""smooth"",""up"",""up"",""good_move"",14601.5,6476.6,3234.4,11005.1,362,""smooth"",""left"",""left"",""good_move"",17003.9,2401.8,2042.3,14602.1,359.5,""oops"",""left"",""left"",""good_move"",19560,2555.8,2191.4,17004.2,364.4,""smooth"",""left"",""left"",""good_move"",22685.7,3125.5,2738.5,19560.2,387,""smooth"",""up"",""up"",""good_move""]","",""
"2521","","<div style=""width:500px;"">
  <p>What determined the result of this run?</p>
  </div>","100","html-slider-response","64","1437163","0.0-10.0-1.4","119","1","2025-07-02 10:19:59","80fe4187154257d5fb01684ea91b68b9","197.184.180.122","Mozilla/5.0 (Windows NT 10.0; Win64; x64) AppleWebKit/537.36 (KHTML, like Gecko) Chrome/137.0.0.0 Safari/537.36","WebKit","Chrome","137.0.0.0","Windows","10.0","https://app.prolific.com/","en-US,en;q=0.9","669533c82c03a4d6320159d3","683db6dfa200031b80f2a654","686507876a29bf167a105667","669533c82c03a4d6320159d3","2025-07-02T10:43:58.797Z","","","","","","AttribQ","","","","","","","","","","","","","","","","","","","","","","","","","","","","","","","","","","","","","","50"
"2380","","<div style=""width:500px;"">
  <p>How much control did you have over the ball?</p>
  </div>","95","html-slider-response","65","1439545","0.0-10.0-2.4","119","1","2025-07-02 10:19:59","80fe4187154257d5fb01684ea91b68b9","197.184.180.122","Mozilla/5.0 (Windows NT 10.0; Win64; x64) AppleWebKit/537.36 (KHTML, like Gecko) Chrome/137.0.0.0 Safari/537.36","WebKit","Chrome","137.0.0.0","Windows","10.0","https://app.prolific.com/","en-US,en;q=0.9","669533c82c03a4d6320159d3","683db6dfa200031b80f2a654","686507876a29bf167a105667","669533c82c03a4d6320159d3","2025-07-02T10:44:01.179Z","","","","","","ControlQ","","","","","","","","","","","","","","","","","","","","","","","","","","","","","","","","","","","","","","50"
"4306","","<div style=""width:500px;"">
  <p>How would you describe your current emotional state?</p>
  </div>","38","html-slider-response","66","1443853","0.0-10.0-3.4","119","1","2025-07-02 10:19:59","80fe4187154257d5fb01684ea91b68b9","197.184.180.122","Mozilla/5.0 (Windows NT 10.0; Win64; x64) AppleWebKit/537.36 (KHTML, like Gecko) Chrome/137.0.0.0 Safari/537.36","WebKit","Chrome","137.0.0.0","Windows","10.0","https://app.prolific.com/","en-US,en;q=0.9","669533c82c03a4d6320159d3","683db6dfa200031b80f2a654","686507876a29bf167a105667","669533c82c03a4d6320159d3","2025-07-02T10:44:05.488Z","","","","","","StressQ","","","","","","","","","","","","","","","","","","","","","","","","","","","","","","","","","","","","","","50"
"2399","","<div style=""width:500px;"">
  <p>What best describes how you currently feel?</p>
  </div>","93","html-slider-response","67","1446255","0.0-10.0-4.4","119","1","2025-07-02 10:19:59","80fe4187154257d5fb01684ea91b68b9","197.184.180.122","Mozilla/5.0 (Windows NT 10.0; Win64; x64) AppleWebKit/537.36 (KHTML, like Gecko) Chrome/137.0.0.0 Safari/537.36","WebKit","Chrome","137.0.0.0","Windows","10.0","https://app.prolific.com/","en-US,en;q=0.9","669533c82c03a4d6320159d3","683db6dfa200031b80f2a654","686507876a29bf167a105667","669533c82c03a4d6320159d3","2025-07-02T10:44:07.889Z","","","","","","MotivationQ","","","","","","","","","","","","","","","","","","","","","","","","","","","","","","","","","","","","","","50"
"","","","","ctl-task-cpt","68","1491361","0.0-10.0-0.5","119","1","2025-07-02 10:19:59","80fe4187154257d5fb01684ea91b68b9","197.184.180.122","Mozilla/5.0 (Windows NT 10.0; Win64; x64) AppleWebKit/537.36 (KHTML, like Gecko) Chrome/137.0.0.0 Safari/537.36","WebKit","Chrome","137.0.0.0","Windows","10.0","https://app.prolific.com/","en-US,en;q=0.9","669533c82c03a4d6320159d3","683db6dfa200031b80f2a654","686507876a29bf167a105667","669533c82c03a4d6320159d3","2025-07-02T10:44:52.995Z","","","","","","","","","","","","","","","","win-only","3","g1:SW,g2:NE","0.5","6","0","1448691.5","1474.4","6481.6","42080.7","1","4","4","6","2","4","4","18","14","0.13636363636363635","959.9","3000","1125","[""up"",""right""]","{""num_key_presses"":10,""num_perfect"":5,""num_errors"":0,""num_randdir"":5,""num_randdir_good_moves"":3,""num_whilered"":0,""num_whileblue"":0,""num_blue"":2,""num_good_moves"":8}","[296.22232142857143,297.12857142857143,0.2,296.22232142857143,297.12857142857143,103.8,296.22232142857143,297.12857142857143,210.5,296.22232142857143,297.12857142857143,311.2,296.22232142857143,297.12857142857143,416.9,389.22232142857143,234.12857142857143,529.8,527.2223214285714,133.12857142857143,631.4,544.2223214285714,106.12857142857143,732.2,555.2223214285714,78.12857142857143,837.3,556.2223214285714,74.12857142857143,941.1,556.2223214285714,73.12857142857143,1041.6,556.2223214285714,73.12857142857143,1143.8,556.2223214285714,73.12857142857143,1246.8,556.2223214285714,73.12857142857143,1354.5,556.2223214285714,73.12857142857143,1458.4,556.2223214285714,73.12857142857143,1558.4,556.2223214285714,73.12857142857143,1662,556.2223214285714,73.12857142857143,1774.2,556.2223214285714,73.12857142857143,1876.1,556.2223214285714,73.12857142857143,1976.1,556.2223214285714,73.12857142857143,2076.6,556.2223214285714,73.12857142857143,2176.7,556.2223214285714,73.12857142857143,2277.2,556.2223214285714,73.12857142857143,2381.8,556.2223214285714,73.12857142857143,2482.4,556.2223214285714,73.12857142857143,2588.8,556.2223214285714,73.12857142857143,2690.9,556.2223214285714,73.12857142857143,2791.7,556.2223214285714,73.12857142857143,2892.9,556.2223214285714,73.12857142857143,2996.8,556.2223214285714,73.12857142857143,3097.2,556.2223214285714,73.12857142857143,3204.9,556.2223214285714,73.12857142857143,3307.4,556.2223214285714,73.12857142857143,3411.7,556.2223214285714,73.12857142857143,3521.6,556.2223214285714,73.12857142857143,3621.9,556.2223214285714,73.12857142857143,3726.6,556.2223214285714,73.12857142857143,3827.4,556.2223214285714,73.12857142857143,3931.7,556.2223214285714,73.12857142857143,4043.6,556.2223214285714,73.12857142857143,4153.4,556.2223214285714,73.12857142857143,4254.1,556.2223214285714,73.12857142857143,4356.5,556.2223214285714,73.12857142857143,4457.1,556.2223214285714,73.12857142857143,4561.1,556.2223214285714,73.12857142857143,4661.3,556.2223214285714,73.12857142857143,4770.6,556.2223214285714,73.12857142857143,4872.5,556.2223214285714,73.12857142857143,4977]","[1376.9,1376.9,1000,0,376.9,""smooth"",""up"",""up"",""good_move"",4774.3,3396.9,2968.8,1377.4,428.1,""smooth"",""right"",""right"",""good_move"",7714.3,2939.6,2576.7,4774.7,362.9,""smooth"",""up"",""up"",""good_move"",10880.3,3165.7,2830.4,7714.6,335.3,""oops"",""right"",""up"",""good_move"",14318.1,3437.4,3071.6,10880.7,365.8,""oops"",""right"",""left"",""bad_move"",17323.9,3004.3,2574.9,14319.6,429.4,""oops"",""right"",""down"",""bad_move"",23101.1,5776.8,1784.8,20917.7,398.7,""oops"",""right"",""right"",""good_move"",26112.2,3010.7,2616.6,23101.5,394.1,""smooth"",""right"",""right"",""good_move"",32444.7,6332.2,2642.9,29441.1,360.7,""oops"",""right"",""up"",""good_move"",35303.9,2859.1,2481.8,32444.9,377.3,""smooth"",""right"",""right"",""good_move""]","",""
"2417","","<div style=""width:500px;"">
  <p>What determined the result of this run?</p>
  </div>","90","html-slider-response","69","1493781","0.0-10.0-1.5","119","1","2025-07-02 10:19:59","80fe4187154257d5fb01684ea91b68b9","197.184.180.122","Mozilla/5.0 (Windows NT 10.0; Win64; x64) AppleWebKit/537.36 (KHTML, like Gecko) Chrome/137.0.0.0 Safari/537.36","WebKit","Chrome","137.0.0.0","Windows","10.0","https://app.prolific.com/","en-US,en;q=0.9","669533c82c03a4d6320159d3","683db6dfa200031b80f2a654","686507876a29bf167a105667","669533c82c03a4d6320159d3","2025-07-02T10:44:55.416Z","","","","","","AttribQ","","","","","","","","","","","","","","","","","","","","","","","","","","","","","","","","","","","","","","50"
"2328","","<div style=""width:500px;"">
  <p>How much control did you have over the ball?</p>
  </div>","65","html-slider-response","70","1496113","0.0-10.0-2.5","119","1","2025-07-02 10:19:59","80fe4187154257d5fb01684ea91b68b9","197.184.180.122","Mozilla/5.0 (Windows NT 10.0; Win64; x64) AppleWebKit/537.36 (KHTML, like Gecko) Chrome/137.0.0.0 Safari/537.36","WebKit","Chrome","137.0.0.0","Windows","10.0","https://app.prolific.com/","en-US,en;q=0.9","669533c82c03a4d6320159d3","683db6dfa200031b80f2a654","686507876a29bf167a105667","669533c82c03a4d6320159d3","2025-07-02T10:44:57.747Z","","","","","","ControlQ","","","","","","","","","","","","","","","","","","","","","","","","","","","","","","","","","","","","","","50"
"4401","","<div style=""width:500px;"">
  <p>How would you describe your current emotional state?</p>
  </div>","42","html-slider-response","71","1500517","0.0-10.0-3.5","119","1","2025-07-02 10:19:59","80fe4187154257d5fb01684ea91b68b9","197.184.180.122","Mozilla/5.0 (Windows NT 10.0; Win64; x64) AppleWebKit/537.36 (KHTML, like Gecko) Chrome/137.0.0.0 Safari/537.36","WebKit","Chrome","137.0.0.0","Windows","10.0","https://app.prolific.com/","en-US,en;q=0.9","669533c82c03a4d6320159d3","683db6dfa200031b80f2a654","686507876a29bf167a105667","669533c82c03a4d6320159d3","2025-07-02T10:45:02.151Z","","","","","","StressQ","","","","","","","","","","","","","","","","","","","","","","","","","","","","","","","","","","","","","","50"
"2837","","<div style=""width:500px;"">
  <p>What best describes how you currently feel?</p>
  </div>","83","html-slider-response","72","1503358","0.0-10.0-4.5","119","1","2025-07-02 10:19:59","80fe4187154257d5fb01684ea91b68b9","197.184.180.122","Mozilla/5.0 (Windows NT 10.0; Win64; x64) AppleWebKit/537.36 (KHTML, like Gecko) Chrome/137.0.0.0 Safari/537.36","WebKit","Chrome","137.0.0.0","Windows","10.0","https://app.prolific.com/","en-US,en;q=0.9","669533c82c03a4d6320159d3","683db6dfa200031b80f2a654","686507876a29bf167a105667","669533c82c03a4d6320159d3","2025-07-02T10:45:04.992Z","","","","","","MotivationQ","","","","","","","","","","","","","","","","","","","","","","","","","","","","","","","","","","","","","","50"
"","","","","ctl-task-cpt","73","1558825","0.0-10.0-0.6","119","1","2025-07-02 10:19:59","80fe4187154257d5fb01684ea91b68b9","197.184.180.122","Mozilla/5.0 (Windows NT 10.0; Win64; x64) AppleWebKit/537.36 (KHTML, like Gecko) Chrome/137.0.0.0 Safari/537.36","WebKit","Chrome","137.0.0.0","Windows","10.0","https://app.prolific.com/","en-US,en;q=0.9","669533c82c03a4d6320159d3","683db6dfa200031b80f2a654","686507876a29bf167a105667","669533c82c03a4d6320159d3","2025-07-02T10:46:00.459Z","","","","","","","","","","","","","","","","win-only","0","g1:NW,g2:SE","0.4","7","0","1505793.9","2359.5","7380.6","52440.4","1","4","8","6","1","1","1","19","18","0.14393939393939395","1620","3000","2250","[""left"",""up""]","{""num_key_presses"":8,""num_perfect"":3,""num_errors"":0,""num_randdir"":5,""num_randdir_good_moves"":3,""num_whilered"":0,""num_whileblue"":0,""num_blue"":3,""num_good_moves"":6}","[298.22232142857143,293.12857142857143,0.3,298.22232142857143,293.12857142857143,124.8,298.22232142857143,293.12857142857143,231.2,298.22232142857143,293.12857142857143,333.8,298.22232142857143,293.12857142857143,439.7,298.22232142857143,293.12857142857143,546.2,279.22232142857143,280.12857142857143,650.9,260.22232142857143,264.12857142857143,759,257.22232142857143,262.12857142857143,869.3,257.22232142857143,262.12857142857143,976.2,257.22232142857143,262.12857142857143,1080.2,220.22232142857143,236.12857142857143,1187.8,75.22232142857143,120.12857142857143,1300.5,57.222321428571426,82.12857142857143,1410.9,55.222321428571426,77.12857142857143,1518.7,55.222321428571426,76.12857142857143,1627.4,55.222321428571426,75.12857142857143,1734.5,54.222321428571426,76.12857142857143,1842.1,62.222321428571426,85.12857142857143,1949.2,71.22232142857143,92.12857142857143,2058.8,71.22232142857143,92.12857142857143,2166.3,71.22232142857143,92.12857142857143,2270.5,71.22232142857143,92.12857142857143,2375.7,71.22232142857143,92.12857142857143,2482.6,71.22232142857143,92.12857142857143,2593.3,71.22232142857143,92.12857142857143,2697.6,71.22232142857143,92.12857142857143,2801.5,71.22232142857143,92.12857142857143,2909.1,71.22232142857143,92.12857142857143,3013.1,71.22232142857143,92.12857142857143,3120.1,71.22232142857143,92.12857142857143,3228.6,71.22232142857143,92.12857142857143,3337.1,71.22232142857143,92.12857142857143,3442.3,71.22232142857143,92.12857142857143,3547.7,71.22232142857143,92.12857142857143,3652.9,71.22232142857143,92.12857142857143,3757.9,71.22232142857143,92.12857142857143,3862.6,71.22232142857143,92.12857142857143,3964.6,71.22232142857143,92.12857142857143,4071.9,71.22232142857143,92.12857142857143,4179.6,71.22232142857143,92.12857142857143,4283.2,71.22232142857143,92.12857142857143,4392.6,71.22232142857143,92.12857142857143,4499.1,71.22232142857143,92.12857142857143,4600.9,71.22232142857143,92.12857142857143,4704.3,71.22232142857143,92.12857142857143,4809.6,71.22232142857143,92.12857142857143,4914]","[1378.9,1378.9,1000,0,378.9,""oops"",""left"",""down"",""bad_move"",13075.2,11695.9,3378.5,9307,389.7,""oops"",""left"",""left"",""good_move"",18083.4,5007.7,2754.5,13075.7,2253.2,""oops"",""up"",""up"",""good_move"",23098.3,5014.6,2547.6,18083.7,2467,""oops"",""up"",""left"",""good_move"",28223.2,5124.6,3459.5,23098.6,1665.1,""smooth"",""up"",""up"",""good_move"",33307.4,5083.9,2903.6,28223.5,2180.3,""oops"",""up"",""down"",""bad_move"",36875.6,3568,3175.7,33307.7,392.2,""smooth"",""up"",""up"",""good_move"",44948.9,8073,1858.3,42744.8,345.8,""smooth"",""up"",""up"",""good_move""]","",""
"2372","","<div style=""width:500px;"">
  <p>What determined the result of this run?</p>
  </div>","89","html-slider-response","74","1561198","0.0-10.0-1.6","119","1","2025-07-02 10:19:59","80fe4187154257d5fb01684ea91b68b9","197.184.180.122","Mozilla/5.0 (Windows NT 10.0; Win64; x64) AppleWebKit/537.36 (KHTML, like Gecko) Chrome/137.0.0.0 Safari/537.36","WebKit","Chrome","137.0.0.0","Windows","10.0","https://app.prolific.com/","en-US,en;q=0.9","669533c82c03a4d6320159d3","683db6dfa200031b80f2a654","686507876a29bf167a105667","669533c82c03a4d6320159d3","2025-07-02T10:46:02.833Z","","","","","","AttribQ","","","","","","","","","","","","","","","","","","","","","","","","","","","","","","","","","","","","","","50"
"2508","","<div style=""width:500px;"">
  <p>How much control did you have over the ball?</p>
  </div>","64","html-slider-response","75","1563709","0.0-10.0-2.6","119","1","2025-07-02 10:19:59","80fe4187154257d5fb01684ea91b68b9","197.184.180.122","Mozilla/5.0 (Windows NT 10.0; Win64; x64) AppleWebKit/537.36 (KHTML, like Gecko) Chrome/137.0.0.0 Safari/537.36","WebKit","Chrome","137.0.0.0","Windows","10.0","https://app.prolific.com/","en-US,en;q=0.9","669533c82c03a4d6320159d3","683db6dfa200031b80f2a654","686507876a29bf167a105667","669533c82c03a4d6320159d3","2025-07-02T10:46:05.343Z","","","","","","ControlQ","","","","","","","","","","","","","","","","","","","","","","","","","","","","","","","","","","","","","","50"
"3441","","<div style=""width:500px;"">
  <p>How would you describe your current emotional state?</p>
  </div>","56","html-slider-response","76","1567153","0.0-10.0-3.6","119","1","2025-07-02 10:19:59","80fe4187154257d5fb01684ea91b68b9","197.184.180.122","Mozilla/5.0 (Windows NT 10.0; Win64; x64) AppleWebKit/537.36 (KHTML, like Gecko) Chrome/137.0.0.0 Safari/537.36","WebKit","Chrome","137.0.0.0","Windows","10.0","https://app.prolific.com/","en-US,en;q=0.9","669533c82c03a4d6320159d3","683db6dfa200031b80f2a654","686507876a29bf167a105667","669533c82c03a4d6320159d3","2025-07-02T10:46:08.787Z","","","","","","StressQ","","","","","","","","","","","","","","","","","","","","","","","","","","","","","","","","","","","","","","50"
"2755","","<div style=""width:500px;"">
  <p>What best describes how you currently feel?</p>
  </div>","89","html-slider-response","77","1569909","0.0-10.0-4.6","119","1","2025-07-02 10:19:59","80fe4187154257d5fb01684ea91b68b9","197.184.180.122","Mozilla/5.0 (Windows NT 10.0; Win64; x64) AppleWebKit/537.36 (KHTML, like Gecko) Chrome/137.0.0.0 Safari/537.36","WebKit","Chrome","137.0.0.0","Windows","10.0","https://app.prolific.com/","en-US,en;q=0.9","669533c82c03a4d6320159d3","683db6dfa200031b80f2a654","686507876a29bf167a105667","669533c82c03a4d6320159d3","2025-07-02T10:46:11.544Z","","","","","","MotivationQ","","","","","","","","","","","","","","","","","","","","","","","","","","","","","","","","","","","","","","50"
"","","","","ctl-task-cpt","78","1614180","0.0-10.0-0.7","119","1","2025-07-02 10:19:59","80fe4187154257d5fb01684ea91b68b9","197.184.180.122","Mozilla/5.0 (Windows NT 10.0; Win64; x64) AppleWebKit/537.36 (KHTML, like Gecko) Chrome/137.0.0.0 Safari/537.36","WebKit","Chrome","137.0.0.0","Windows","10.0","https://app.prolific.com/","en-US,en;q=0.9","669533c82c03a4d6320159d3","683db6dfa200031b80f2a654","686507876a29bf167a105667","669533c82c03a4d6320159d3","2025-07-02T10:46:55.814Z","","","","","","","","","","","","","","","","win-only","2","g1:SE,g2:NW","0.3","8","0","1572343.9","1542.1","6548.4","41234.5","1","4","4","6","2","4","4","23","19","0.17424242424242425","1154.7","3000","370","[""left"",""up""]","{""num_key_presses"":10,""num_perfect"":3,""num_errors"":0,""num_randdir"":7,""num_randdir_good_moves"":5,""num_whilered"":0,""num_whileblue"":0,""num_blue"":2,""num_good_moves"":8}","[297.22232142857143,291.12857142857143,0.3,297.22232142857143,291.12857142857143,101.3,297.22232142857143,291.12857142857143,203.2,297.22232142857143,291.12857142857143,306.5,297.22232142857143,291.12857142857143,408.6,297.22232142857143,291.12857142857143,509.4,276.22232142857143,279.12857142857143,616.7,100.22232142857143,190.12857142857143,721.1,42.222321428571426,146.12857142857143,823.9,32.222321428571426,127.12857142857143,931.6,40.222321428571426,79.12857142857143,1035,43.222321428571426,66.12857142857143,1139.1,43.222321428571426,65.12857142857143,1245.2,45.222321428571426,64.12857142857143,1346.7,45.222321428571426,64.12857142857143,1447.7,45.222321428571426,64.12857142857143,1552.5,45.222321428571426,64.12857142857143,1654.3,45.222321428571426,64.12857142857143,1754.5,45.222321428571426,64.12857142857143,1857.9,45.222321428571426,64.12857142857143,1967.4,45.222321428571426,64.12857142857143,2068.3,45.222321428571426,64.12857142857143,2171.6,45.222321428571426,64.12857142857143,2283.8,45.222321428571426,64.12857142857143,2385.6,45.222321428571426,64.12857142857143,2488.5,45.222321428571426,64.12857142857143,2589.3,45.222321428571426,64.12857142857143,2689.6,45.222321428571426,64.12857142857143,2796.1,45.222321428571426,64.12857142857143,2899.2,45.222321428571426,64.12857142857143,2999.9,45.222321428571426,64.12857142857143,3101.4,45.222321428571426,64.12857142857143,3204,45.222321428571426,64.12857142857143,3310,45.222321428571426,64.12857142857143,3410.4,45.222321428571426,64.12857142857143,3510.6,45.222321428571426,64.12857142857143,3612.4,45.222321428571426,64.12857142857143,3715,45.222321428571426,64.12857142857143,3818.8,45.222321428571426,64.12857142857143,3920.7,45.222321428571426,64.12857142857143,4021.9,45.222321428571426,64.12857142857143,4125.3,45.222321428571426,64.12857142857143,4233.6,45.222321428571426,64.12857142857143,4336.3,45.222321428571426,64.12857142857143,4438.4,45.222321428571426,64.12857142857143,4543.8,45.222321428571426,64.12857142857143,4650.7,45.222321428571426,64.12857142857143,4755.7,45.222321428571426,64.12857142857143,4865.5,45.222321428571426,64.12857142857143,4965.7]","[1395.6,1395.6,1000,0,395.6,""oops"",""left"",""left"",""good_move"",3927.1,2530.2,2101.6,1396.9,428.6,""smooth"",""up"",""up"",""good_move"",6683.7,2755.9,2374.9,3927.8,381,""oops"",""left"",""down"",""bad_move"",8832.5,2146.7,1749.9,6685.9,396.8,""smooth"",""left"",""left"",""good_move"",14224.7,5392,1923.2,11976.1,325.4,""oops"",""up"",""left"",""good_move"",17071.5,2846.5,2491.9,14225,354.6,""oops"",""up"",""up"",""good_move"",21443.9,4371.7,2814.6,17072.2,1557.1,""oops"",""up"",""right"",""bad_move"",25107.9,3663.6,3237.2,21444.3,426.4,""oops"",""up"",""up"",""good_move"",28167.6,3059.4,2686.3,25108.2,373.1,""oops"",""up"",""left"",""good_move"",34385.9,6218,2203.4,31854.5,328,""smooth"",""up"",""up"",""good_move""]","",""
"2412","","<div style=""width:500px;"">
  <p>What determined the result of this run?</p>
  </div>","80","html-slider-response","79","1616594","0.0-10.0-1.7","119","1","2025-07-02 10:19:59","80fe4187154257d5fb01684ea91b68b9","197.184.180.122","Mozilla/5.0 (Windows NT 10.0; Win64; x64) AppleWebKit/537.36 (KHTML, like Gecko) Chrome/137.0.0.0 Safari/537.36","WebKit","Chrome","137.0.0.0","Windows","10.0","https://app.prolific.com/","en-US,en;q=0.9","669533c82c03a4d6320159d3","683db6dfa200031b80f2a654","686507876a29bf167a105667","669533c82c03a4d6320159d3","2025-07-02T10:46:58.228Z","","","","","","AttribQ","","","","","","","","","","","","","","","","","","","","","","","","","","","","","","","","","","","","","","50"
"2889","","<div style=""width:500px;"">
  <p>How much control did you have over the ball?</p>
  </div>","75","html-slider-response","80","1619486","0.0-10.0-2.7","119","1","2025-07-02 10:19:59","80fe4187154257d5fb01684ea91b68b9","197.184.180.122","Mozilla/5.0 (Windows NT 10.0; Win64; x64) AppleWebKit/537.36 (KHTML, like Gecko) Chrome/137.0.0.0 Safari/537.36","WebKit","Chrome","137.0.0.0","Windows","10.0","https://app.prolific.com/","en-US,en;q=0.9","669533c82c03a4d6320159d3","683db6dfa200031b80f2a654","686507876a29bf167a105667","669533c82c03a4d6320159d3","2025-07-02T10:47:01.121Z","","","","","","ControlQ","","","","","","","","","","","","","","","","","","","","","","","","","","","","","","","","","","","","","","50"
"2435","","<div style=""width:500px;"">
  <p>How would you describe your current emotional state?</p>
  </div>","24","html-slider-response","81","1621926","0.0-10.0-3.7","119","1","2025-07-02 10:19:59","80fe4187154257d5fb01684ea91b68b9","197.184.180.122","Mozilla/5.0 (Windows NT 10.0; Win64; x64) AppleWebKit/537.36 (KHTML, like Gecko) Chrome/137.0.0.0 Safari/537.36","WebKit","Chrome","137.0.0.0","Windows","10.0","https://app.prolific.com/","en-US,en;q=0.9","669533c82c03a4d6320159d3","683db6dfa200031b80f2a654","686507876a29bf167a105667","669533c82c03a4d6320159d3","2025-07-02T10:47:03.560Z","","","","","","StressQ","","","","","","","","","","","","","","","","","","","","","","","","","","","","","","","","","","","","","","50"
"2226","","<div style=""width:500px;"">
  <p>What best describes how you currently feel?</p>
  </div>","83","html-slider-response","82","1624154","0.0-10.0-4.7","119","1","2025-07-02 10:19:59","80fe4187154257d5fb01684ea91b68b9","197.184.180.122","Mozilla/5.0 (Windows NT 10.0; Win64; x64) AppleWebKit/537.36 (KHTML, like Gecko) Chrome/137.0.0.0 Safari/537.36","WebKit","Chrome","137.0.0.0","Windows","10.0","https://app.prolific.com/","en-US,en;q=0.9","669533c82c03a4d6320159d3","683db6dfa200031b80f2a654","686507876a29bf167a105667","669533c82c03a4d6320159d3","2025-07-02T10:47:05.788Z","","","","","","MotivationQ","","","","","","","","","","","","","","","","","","","","","","","","","","","","","","","","","","","","","","50"
"","","","","ctl-task-cpt","83","1725546","0.0-10.0-0.8","119","1","2025-07-02 10:19:59","80fe4187154257d5fb01684ea91b68b9","197.184.180.122","Mozilla/5.0 (Windows NT 10.0; Win64; x64) AppleWebKit/537.36 (KHTML, like Gecko) Chrome/137.0.0.0 Safari/537.36","WebKit","Chrome","137.0.0.0","Windows","10.0","https://app.prolific.com/","en-US,en;q=0.9","669533c82c03a4d6320159d3","683db6dfa200031b80f2a654","686507876a29bf167a105667","669533c82c03a4d6320159d3","2025-07-02T10:48:47.180Z","","","","","","","","","","","","","","","","win-only","0","g1:NW,g2:SE","0.4","9","0","1626589.9","2888.6","7900.6","98365.1","1","4","8","6","2","-8","-8","15","23","0.11363636363636363","1059","3000","-1990","[""down"",""right""]","{""num_key_presses"":20,""num_perfect"":8,""num_errors"":0,""num_randdir"":12,""num_randdir_good_moves"":4,""num_whilered"":0,""num_whileblue"":0,""num_blue"":3,""num_good_moves"":12}","[299.22232142857143,294.12857142857143,0.3,299.22232142857143,294.12857142857143,107.6,299.22232142857143,294.12857142857143,221.1,299.22232142857143,294.12857142857143,332.8,299.22232142857143,294.12857142857143,452.3,299.22232142857143,294.12857142857143,566.6,403.22232142857143,379.12857142857143,681,547.2223214285714,502.12857142857143,784.9,571.2223214285714,532.1285714285714,886.3,573.2223214285714,534.1285714285714,1000.7,574.2223214285714,536.1285714285714,1104.2,574.2223214285714,537.1285714285714,1212.7,573.2223214285714,537.1285714285714,1321.4,573.2223214285714,537.1285714285714,1434.5,572.2223214285714,535.1285714285714,1535,572.2223214285714,535.1285714285714,1644.7,572.2223214285714,535.1285714285714,1762.5,572.2223214285714,535.1285714285714,1873.8,572.2223214285714,535.1285714285714,1985,572.2223214285714,535.1285714285714,2103.3,572.2223214285714,535.1285714285714,2216.9,572.2223214285714,535.1285714285714,2332.6,572.2223214285714,535.1285714285714,2446,572.2223214285714,535.1285714285714,2560.3,572.2223214285714,535.1285714285714,2672.3,572.2223214285714,535.1285714285714,2773,572.2223214285714,535.1285714285714,2884.7,572.2223214285714,535.1285714285714,2998.2,572.2223214285714,535.1285714285714,3114.5,572.2223214285714,535.1285714285714,3225.3,572.2223214285714,535.1285714285714,3341.6,572.2223214285714,535.1285714285714,3454,572.2223214285714,535.1285714285714,3565.3,572.2223214285714,535.1285714285714,3678.6,572.2223214285714,535.1285714285714,3795.5,572.2223214285714,535.1285714285714,3905.3,572.2223214285714,535.1285714285714,4019.7,572.2223214285714,535.1285714285714,4135,572.2223214285714,535.1285714285714,4248.8,572.2223214285714,535.1285714285714,4361.3,572.2223214285714,535.1285714285714,4472.6,572.2223214285714,535.1285714285714,4583.7,572.2223214285714,535.1285714285714,4700.1,572.2223214285714,535.1285714285714,4815.6,572.2223214285714,535.1285714285714,4934.9]","[1423.8,1423.8,1000,0,423.8,""oops"",""down"",""right"",""good_move"",4161.9,2736.3,2323.4,1425.6,412.9,""smooth"",""down"",""down"",""good_move"",7247.7,3085.5,2728.7,4162.3,356.8,""oops"",""down"",""up"",""bad_move"",14856.5,7608.5,2785.8,11642.6,428.1,""smooth"",""down"",""down"",""good_move"",18198.9,3342.3,2910.9,14856.6,431.4,""oops"",""right"",""down"",""good_move"",20772.2,2573,2073.8,18199.2,499.2,""oops"",""right"",""left"",""bad_move"",26263.4,5490.7,2775.9,20772.7,2714.8,""oops"",""right"",""up"",""bad_move"",31791.3,5527.6,2346.2,26263.7,3181.4,""smooth"",""right"",""right"",""good_move"",35639.8,3848.2,3330.7,31791.6,517.5,""smooth"",""right"",""right"",""good_move"",42181.7,6541.6,2317.6,39407.8,456.3,""oops"",""down"",""right"",""good_move"",45078.5,2896.4,2176.5,42182.1,719.9,""smooth"",""down"",""down"",""good_move"",50364.6,5285.8,2465.6,45078.8,2820.2,""oops"",""down"",""left"",""bad_move"",56645.5,6279.8,3101.7,50365.7,3178.1,""smooth"",""right"",""right"",""good_move"",59242.9,2596.9,2161.9,56646,435,""oops"",""down"",""up"",""bad_move"",65277.5,6034.4,2454.6,59243.1,3579.8,""oops"",""down"",""up"",""bad_move"",71414,6136.4,1781.8,65277.6,4354.6,""oops"",""down"",""down"",""good_move"",75846.6,4432.2,2370.2,71414.4,2062,""smooth"",""down"",""down"",""good_move"",78969.2,3122.4,2459.3,75846.9,663.1,""oops"",""down"",""up"",""bad_move"",81763.6,2793,2358.6,78970.6,434.4,""oops"",""down"",""up"",""bad_move"",87697.4,5933.4,2281.2,84991.9,424.3,""smooth"",""down"",""down"",""good_move""]","",""
"4192","","<div style=""width:500px;"">
  <p>What determined the result of this run?</p>
  </div>","0","html-slider-response","84","1729740","0.0-10.0-1.8","119","1","2025-07-02 10:19:59","80fe4187154257d5fb01684ea91b68b9","197.184.180.122","Mozilla/5.0 (Windows NT 10.0; Win64; x64) AppleWebKit/537.36 (KHTML, like Gecko) Chrome/137.0.0.0 Safari/537.36","WebKit","Chrome","137.0.0.0","Windows","10.0","https://app.prolific.com/","en-US,en;q=0.9","669533c82c03a4d6320159d3","683db6dfa200031b80f2a654","686507876a29bf167a105667","669533c82c03a4d6320159d3","2025-07-02T10:48:51.374Z","","","","","","AttribQ","","","","","","","","","","","","","","","","","","","","","","","","","","","","","","","","","","","","","","50"
"2562","","<div style=""width:500px;"">
  <p>How much control did you have over the ball?</p>
  </div>","0","html-slider-response","85","1732305","0.0-10.0-2.8","119","1","2025-07-02 10:19:59","80fe4187154257d5fb01684ea91b68b9","197.184.180.122","Mozilla/5.0 (Windows NT 10.0; Win64; x64) AppleWebKit/537.36 (KHTML, like Gecko) Chrome/137.0.0.0 Safari/537.36","WebKit","Chrome","137.0.0.0","Windows","10.0","https://app.prolific.com/","en-US,en;q=0.9","669533c82c03a4d6320159d3","683db6dfa200031b80f2a654","686507876a29bf167a105667","669533c82c03a4d6320159d3","2025-07-02T10:48:53.939Z","","","","","","ControlQ","","","","","","","","","","","","","","","","","","","","","","","","","","","","","","","","","","","","","","50"
"2997","","<div style=""width:500px;"">
  <p>How would you describe your current emotional state?</p>
  </div>","100","html-slider-response","86","1735307","0.0-10.0-3.8","119","1","2025-07-02 10:19:59","80fe4187154257d5fb01684ea91b68b9","197.184.180.122","Mozilla/5.0 (Windows NT 10.0; Win64; x64) AppleWebKit/537.36 (KHTML, like Gecko) Chrome/137.0.0.0 Safari/537.36","WebKit","Chrome","137.0.0.0","Windows","10.0","https://app.prolific.com/","en-US,en;q=0.9","669533c82c03a4d6320159d3","683db6dfa200031b80f2a654","686507876a29bf167a105667","669533c82c03a4d6320159d3","2025-07-02T10:48:56.941Z","","","","","","StressQ","","","","","","","","","","","","","","","","","","","","","","","","","","","","","","","","","","","","","","50"
"5416","","<div style=""width:500px;"">
  <p>What best describes how you currently feel?</p>
  </div>","78","html-slider-response","87","1740725","0.0-10.0-4.8","119","1","2025-07-02 10:19:59","80fe4187154257d5fb01684ea91b68b9","197.184.180.122","Mozilla/5.0 (Windows NT 10.0; Win64; x64) AppleWebKit/537.36 (KHTML, like Gecko) Chrome/137.0.0.0 Safari/537.36","WebKit","Chrome","137.0.0.0","Windows","10.0","https://app.prolific.com/","en-US,en;q=0.9","669533c82c03a4d6320159d3","683db6dfa200031b80f2a654","686507876a29bf167a105667","669533c82c03a4d6320159d3","2025-07-02T10:49:02.359Z","","","","","","MotivationQ","","","","","","","","","","","","","","","","","","","","","","","","","","","","","","","","","","","","","","50"
