"rt","response_timestamp","stimulus","response","trial_type","trial_index","time_elapsed","internal_node_id","run_id","condition","recorded_at","source_code_version","ip","user_agent","device","browser","browser_version","platform","platform_version","referer","accept_language","PROLIFIC_PID","STUDY_ID","SESSION_ID","prolific_id","realtime","view_history","question_order","consent","success","question_id","eventType","responses","item_order","radio_event_ids","radio_event_times","key_event_times","mouse_event_times","straightlining","zigzagging","honeypot","which_type","canvas_config","goals_layout","control_level","trial_number","tutorial_trial_number","trial_start_time","phase1_start_time","phase2_start_time","phase3_start_time","goal_1_value","goal_1_distance","goal_2_value","goal_2_distance","goal_selected","outcome","outcome_total","participant_final_score","participant_initial_score","participant_final_score_prop","goal_choice_rt","allocated_time","allocated_time_remaining","goal_direction","counts","mouse_movements","key_presses","correct","slider_start"
"23892","1751451692073","<p style='font-size:40px;line-height:1.25'><strong>Welcome to the experiment!</strong></p><p style='font-size:1.1em;line-height:1.25'>Thank you for your interest in our experiment! Before you begin, it is important that we obtain your informed consent to participate in the study.</p><p style='font-size:1.1em;line-height:1.25'>On the next screen will be an <strong>information sheet</strong> for you to read. To participate in the study we need you to read this information sheet and the following consent form carefully. If you agree with all the statements, please click the <strong>I agree</strong> button.</p><p style='font-size:1.1em;line-height:1.25'>Press <strong>Next</strong> to read the information sheet.</p>","0","custom-html-button-response","0","23935","0.0-0.0","137","1","2025-07-02 10:20:37","80fe4187154257d5fb01684ea91b68b9","102.128.184.38","Mozilla/5.0 (Windows NT 10.0; Win64; x64) AppleWebKit/537.36 (KHTML, like Gecko) Chrome/138.0.0.0 Safari/537.36 Edg/138.0.0.0","WebKit","Edge","138.0.0.0","Windows","10.0","https://app.prolific.com/","en-US,en;q=0.9,en-ZA;q=0.8","66952367721687887540318f","683db6dfa200031b80f2a654","686507792cf4c1011f803df8","66952367721687887540318f","2025-07-02T10:21:32.077Z","","","","","","","","","","","","","","","","","","","","","","","","","","","","","","","","","","","","","","","","","","","",""
"11149","","","","instructions","1","35096","0.0-1.0","137","1","2025-07-02 10:20:37","80fe4187154257d5fb01684ea91b68b9","102.128.184.38","Mozilla/5.0 (Windows NT 10.0; Win64; x64) AppleWebKit/537.36 (KHTML, like Gecko) Chrome/138.0.0.0 Safari/537.36 Edg/138.0.0.0","WebKit","Edge","138.0.0.0","Windows","10.0","https://app.prolific.com/","en-US,en;q=0.9,en-ZA;q=0.8","66952367721687887540318f","683db6dfa200031b80f2a654","686507792cf4c1011f803df8","66952367721687887540318f","","[{""page_index"":0,""viewing_time"":9572},{""page_index"":1,""viewing_time"":1573}]","","","","","","","","","","","","","","","","","","","","","","","","","","","","","","","","","","","","","","","","","","",""
"9186","","","{""Q0"":"""",""Q1"":"""",""Q2"":"""",""Q3"":"""",""Q4"":"""",""Q5"":"""",""Q6"":""I agree""}","survey-multi-choice","2","44609","0.0-2.0","137","1","2025-07-02 10:20:37","80fe4187154257d5fb01684ea91b68b9","102.128.184.38","Mozilla/5.0 (Windows NT 10.0; Win64; x64) AppleWebKit/537.36 (KHTML, like Gecko) Chrome/138.0.0.0 Safari/537.36 Edg/138.0.0.0","WebKit","Edge","138.0.0.0","Windows","10.0","https://app.prolific.com/","en-US,en;q=0.9,en-ZA;q=0.8","66952367721687887540318f","683db6dfa200031b80f2a654","686507792cf4c1011f803df8","66952367721687887540318f","","","[0,1,2,3,4,5,6]","true","","","","","","","","","","","","","","","","","","","","","","","","","","","","","","","","","","","","","","","","",""
"6310","","","","fullscreen","3","52056","0.0-4.0","137","1","2025-07-02 10:20:37","80fe4187154257d5fb01684ea91b68b9","102.128.184.38","Mozilla/5.0 (Windows NT 10.0; Win64; x64) AppleWebKit/537.36 (KHTML, like Gecko) Chrome/138.0.0.0 Safari/537.36 Edg/138.0.0.0","WebKit","Edge","138.0.0.0","Windows","10.0","https://app.prolific.com/","en-US,en;q=0.9,en-ZA;q=0.8","66952367721687887540318f","683db6dfa200031b80f2a654","686507792cf4c1011f803df8","66952367721687887540318f","","","","","true","","","","","","","","","","","","","","","","","","","","","","","","","","","","","","","","","","","","","","","",""
"118096","1751451838299"," <p style='font-size:1.1em;line-height:1.25'>Thank you for completing the consent form and closing all other tabs.</p><p style='font-size:1.1em;line-height:1.25'>We will now invite you to fill in some demographic information and questionnaires, before starting the game.<br>This will take about 5 minutes.<br></p><p style='font-size:1.1em;line-height:1.25'>Press the <strong>Next</strong> button to continue.</p>","0","custom-html-button-response","4","170168","0.0-5.0","137","1","2025-07-02 10:20:37","80fe4187154257d5fb01684ea91b68b9","102.128.184.38","Mozilla/5.0 (Windows NT 10.0; Win64; x64) AppleWebKit/537.36 (KHTML, like Gecko) Chrome/138.0.0.0 Safari/537.36 Edg/138.0.0.0","WebKit","Edge","138.0.0.0","Windows","10.0","https://app.prolific.com/","en-US,en;q=0.9,en-ZA;q=0.8","66952367721687887540318f","683db6dfa200031b80f2a654","686507792cf4c1011f803df8","66952367721687887540318f","2025-07-02T10:23:58.312Z","","","","","","","","","","","","","","","","","","","","","","","","","","","","","","","","","","","","","","","","","","","",""
"3784","","","{""age"":""22""}","survey-text","5","174001","0.0-6.0-0.0","137","1","2025-07-02 10:20:37","80fe4187154257d5fb01684ea91b68b9","102.128.184.38","Mozilla/5.0 (Windows NT 10.0; Win64; x64) AppleWebKit/537.36 (KHTML, like Gecko) Chrome/138.0.0.0 Safari/537.36 Edg/138.0.0.0","WebKit","Edge","138.0.0.0","Windows","10.0","https://app.prolific.com/","en-US,en;q=0.9,en-ZA;q=0.8","66952367721687887540318f","683db6dfa200031b80f2a654","686507792cf4c1011f803df8","66952367721687887540318f","","","","","","0","demographics","","","","","","","","","","","","","","","","","","","","","","","","","","","","","","","","","","","","","",""
"3157","","","{""gender_identity"":""female/woman""}","survey-multi-choice","6","177162","0.0-6.0-1.0","137","1","2025-07-02 10:20:37","80fe4187154257d5fb01684ea91b68b9","102.128.184.38","Mozilla/5.0 (Windows NT 10.0; Win64; x64) AppleWebKit/537.36 (KHTML, like Gecko) Chrome/138.0.0.0 Safari/537.36 Edg/138.0.0.0","WebKit","Edge","138.0.0.0","Windows","10.0","https://app.prolific.com/","en-US,en;q=0.9,en-ZA;q=0.8","66952367721687887540318f","683db6dfa200031b80f2a654","686507792cf4c1011f803df8","66952367721687887540318f","","","[0]","","","1","demographics","","","","","","","","","","","","","","","","","","","","","","","","","","","","","","","","","","","","","",""
"4274","","","{""assigned_sex"":""female""}","survey-multi-choice","7","181443","0.0-6.0-2.0","137","1","2025-07-02 10:20:37","80fe4187154257d5fb01684ea91b68b9","102.128.184.38","Mozilla/5.0 (Windows NT 10.0; Win64; x64) AppleWebKit/537.36 (KHTML, like Gecko) Chrome/138.0.0.0 Safari/537.36 Edg/138.0.0.0","WebKit","Edge","138.0.0.0","Windows","10.0","https://app.prolific.com/","en-US,en;q=0.9,en-ZA;q=0.8","66952367721687887540318f","683db6dfa200031b80f2a654","686507792cf4c1011f803df8","66952367721687887540318f","","","[0]","","","2","demographics","","","","","","","","","","","","","","","","","","","","","","","","","","","","","","","","","","","","","",""
"5484","","","{""menstrual_cycle"":""Yes""}","survey-multi-choice","8","186931","0.0-6.0-3.0","137","1","2025-07-02 10:20:37","80fe4187154257d5fb01684ea91b68b9","102.128.184.38","Mozilla/5.0 (Windows NT 10.0; Win64; x64) AppleWebKit/537.36 (KHTML, like Gecko) Chrome/138.0.0.0 Safari/537.36 Edg/138.0.0.0","WebKit","Edge","138.0.0.0","Windows","10.0","https://app.prolific.com/","en-US,en;q=0.9,en-ZA;q=0.8","66952367721687887540318f","683db6dfa200031b80f2a654","686507792cf4c1011f803df8","66952367721687887540318f","","","[0]","","","4","demographics","","","","","","","","","","","","","","","","","","","","","","","","","","","","","","","","","","","","","",""
"4971","","","{""education"":""Master's Degree (e.g., MSc)""}","survey-multi-choice","9","191908","0.0-6.0-4.0","137","1","2025-07-02 10:20:37","80fe4187154257d5fb01684ea91b68b9","102.128.184.38","Mozilla/5.0 (Windows NT 10.0; Win64; x64) AppleWebKit/537.36 (KHTML, like Gecko) Chrome/138.0.0.0 Safari/537.36 Edg/138.0.0.0","WebKit","Edge","138.0.0.0","Windows","10.0","https://app.prolific.com/","en-US,en;q=0.9,en-ZA;q=0.8","66952367721687887540318f","683db6dfa200031b80f2a654","686507792cf4c1011f803df8","66952367721687887540318f","","","[0]","","","5","demographics","","","","","","","","","","","","","","","","","","","","","","","","","","","","","","","","","","","","","",""
"7322","","","{""education"":""Doctoral Degree (e.g., PhD)""}","survey-multi-choice","10","199235","0.0-6.0-5.0","137","1","2025-07-02 10:20:37","80fe4187154257d5fb01684ea91b68b9","102.128.184.38","Mozilla/5.0 (Windows NT 10.0; Win64; x64) AppleWebKit/537.36 (KHTML, like Gecko) Chrome/138.0.0.0 Safari/537.36 Edg/138.0.0.0","WebKit","Edge","138.0.0.0","Windows","10.0","https://app.prolific.com/","en-US,en;q=0.9,en-ZA;q=0.8","66952367721687887540318f","683db6dfa200031b80f2a654","686507792cf4c1011f803df8","66952367721687887540318f","2025-07-02T10:24:27.376Z","","[0]","","","6","demographics","","","","","","","","","","","","","","","","","","","","","","","","","","","","","","","","","","","","","",""
"386260","","","{""mental_health_condition"":""Biopolar"",""mental_health_treatment"":""lithium"",""psychiatric_medication"":""lithium orotate""}","survey-text","11","585527","0.0-7.0-0.0","137","1","2025-07-02 10:20:37","80fe4187154257d5fb01684ea91b68b9","102.128.184.38","Mozilla/5.0 (Windows NT 10.0; Win64; x64) AppleWebKit/537.36 (KHTML, like Gecko) Chrome/138.0.0.0 Safari/537.36 Edg/138.0.0.0","WebKit","Edge","138.0.0.0","Windows","10.0","https://app.prolific.com/","en-US,en;q=0.9,en-ZA;q=0.8","66952367721687887540318f","683db6dfa200031b80f2a654","686507792cf4c1011f803df8","66952367721687887540318f","2025-07-02T10:30:53.672Z","","","","","1","mental_health","","","","","","","","","","","","","","","","","","","","","","","","","","","","","","","","","","","","","",""
"9883","","","{""depression_history"":[""Yes""]}","survey-multi-select","12","595445","0.0-7.0-1.0","137","1","2025-07-02 10:20:37","80fe4187154257d5fb01684ea91b68b9","102.128.184.38","Mozilla/5.0 (Windows NT 10.0; Win64; x64) AppleWebKit/537.36 (KHTML, like Gecko) Chrome/138.0.0.0 Safari/537.36 Edg/138.0.0.0","WebKit","Edge","138.0.0.0","Windows","10.0","https://app.prolific.com/","en-US,en;q=0.9,en-ZA;q=0.8","66952367721687887540318f","683db6dfa200031b80f2a654","686507792cf4c1011f803df8","66952367721687887540318f","","","[0]","","","","mental_health","","","","","","","","","","","","","","","","","","","","","","","","","","","","","","","","","","","","","",""
"13754","","","{""depression_episodes"":""3-5"",""depression_recent"":""Within the past year""}","survey-multi-choice","13","609208","0.0-7.0-2.0-0.0","137","1","2025-07-02 10:20:37","80fe4187154257d5fb01684ea91b68b9","102.128.184.38","Mozilla/5.0 (Windows NT 10.0; Win64; x64) AppleWebKit/537.36 (KHTML, like Gecko) Chrome/138.0.0.0 Safari/537.36 Edg/138.0.0.0","WebKit","Edge","138.0.0.0","Windows","10.0","https://app.prolific.com/","en-US,en;q=0.9,en-ZA;q=0.8","66952367721687887540318f","683db6dfa200031b80f2a654","686507792cf4c1011f803df8","66952367721687887540318f","2025-07-02T10:31:17.349Z","","[0,1]","","","3","mental_health","","","","","","","","","","","","","","","","","","","","","","","","","","","","","","","","","","","","","",""
"213881.5","","","","survey-template","14","823122","0.0-7.0-3.0","137","1","2025-07-02 10:20:37","80fe4187154257d5fb01684ea91b68b9","102.128.184.38","Mozilla/5.0 (Windows NT 10.0; Win64; x64) AppleWebKit/537.36 (KHTML, like Gecko) Chrome/138.0.0.0 Safari/537.36 Edg/138.0.0.0","WebKit","Edge","138.0.0.0","Windows","10.0","https://app.prolific.com/","en-US,en;q=0.9,en-ZA;q=0.8","66952367721687887540318f","683db6dfa200031b80f2a654","686507792cf4c1011f803df8","66952367721687887540318f","2025-07-02T10:34:51.265Z","","","","","","ius","{""Q01"":""3"",""Q02"":""4"",""Q03"":""1"",""Q04"":""4"",""Q05"":""4"",""Q06"":""2"",""Q07"":""4"",""Q08"":""0"",""Q09"":""3"",""Q10"":""1"",""Q11"":""0"",""Q12"":""4"",""Q13"":""4""}","[0,1,2,3,4,5,6,7,8,9,10,11,12]","[""Q02"",""Q01"",""Q03"",""Q04"",""Q05"",""Q06"",""Q07"",""Q08"",""Q09"",""Q10"",""Q11"",""Q13"",""Q12""]","[65184.20000000298,66975.10000000149,77135.60000000149,81455.80000000075,87799.80000000075,162355.20000000298,173618.40000000224,180203.90000000224,189067.40000000224,193722.70000000298,196811.70000000298,209147.1000000015,211645.40000000224]","[]","[62102.10000000149,65184.20000000298,66975.10000000149,75703.10000000149,77135.60000000149,81455.80000000075,87799.80000000075,162355.20000000298,173618.40000000224,180203.90000000224,186898.70000000298,189067.40000000224,191947,193722.70000000298,196811.70000000298,204324,206996,209147.1000000015,211645.40000000224,213868.5]","0.46153846153846156","0.3333333333333333","0","","","","","","","","","","","","","","","","","","","","","","","","","","","","",""
"6355","1751452497634","<p style='font-size:1.1em;line-height:1.25'>In the following, we will ask you a few questions relating to your experiences over the past month.<br></p><p style='font-size:1.1em;line-height:1.25'>Press the <strong>Next</strong> button to continue.</p>","0","custom-html-button-response","15","829495","0.0-7.0-4.0","137","1","2025-07-02 10:20:37","80fe4187154257d5fb01684ea91b68b9","102.128.184.38","Mozilla/5.0 (Windows NT 10.0; Win64; x64) AppleWebKit/537.36 (KHTML, like Gecko) Chrome/138.0.0.0 Safari/537.36 Edg/138.0.0.0","WebKit","Edge","138.0.0.0","Windows","10.0","https://app.prolific.com/","en-US,en;q=0.9,en-ZA;q=0.8","66952367721687887540318f","683db6dfa200031b80f2a654","686507792cf4c1011f803df8","66952367721687887540318f","2025-07-02T10:34:57.637Z","","","","","","","","","","","","","","","","","","","","","","","","","","","","","","","","","","","","","","","","","","","",""
"236677.59999999776","","","","survey-template","16","1066197","0.0-7.0-5.0","137","1","2025-07-02 10:20:37","80fe4187154257d5fb01684ea91b68b9","102.128.184.38","Mozilla/5.0 (Windows NT 10.0; Win64; x64) AppleWebKit/537.36 (KHTML, like Gecko) Chrome/138.0.0.0 Safari/537.36 Edg/138.0.0.0","WebKit","Edge","138.0.0.0","Windows","10.0","https://app.prolific.com/","en-US,en;q=0.9,en-ZA;q=0.8","66952367721687887540318f","683db6dfa200031b80f2a654","686507792cf4c1011f803df8","66952367721687887540318f","2025-07-02T10:38:54.343Z","","","","","","pss","{""Q01"":""3"",""Q02"":""3"",""Q03"":""4"",""Q04"":""2"",""Q05"":""2"",""Q06"":""1"",""Q07"":""1"",""Q08"":""1"",""Q09"":""1"",""Q10"":""1""}","[0,1,2,3,4,5,6,7,8,9]","[""Q01"",""Q02"",""Q03"",""Q04"",""Q05"",""Q06"",""Q06"",""Q07"",""Q08"",""Q10"",""Q09""]","[86515.5,98470.89999999851,100591.79999999702,172884.69999999925,180554.79999999702,184625.79999999702,212066.5,217075.79999999702,223668.09999999776,233211.3999999985,234972.29999999702]","[]","[0.19999999925494194,86515.5,95847.79999999702,98470.89999999851,100256.29999999702,100591.79999999702,172884.69999999925,180554.79999999702,184625.79999999702,208274.59999999776,210146.79999999702,212066.5,215508.19999999925,217075.79999999702,222108.29999999702,223668.09999999776,228907.69999999925,233211.3999999985,234972.29999999702,236668]","0.4","0.2222222222222222","0","","","","","","","","","","","","","","","","","","","","","","","","","","","","",""
"27118","1751452761475","<p style='font-size:1.1em;line-height:1.25'>Thank you for your answers! Now we will ask you a few more questions relating to your feelings in the last 24 hours.<br></p><p style='font-size:1.1em;line-height:1.25'>Press the <strong>Next</strong> button to continue.</p>","0","custom-html-button-response","17","1093338","0.0-7.0-6.0","137","1","2025-07-02 10:20:37","80fe4187154257d5fb01684ea91b68b9","102.128.184.38","Mozilla/5.0 (Windows NT 10.0; Win64; x64) AppleWebKit/537.36 (KHTML, like Gecko) Chrome/138.0.0.0 Safari/537.36 Edg/138.0.0.0","WebKit","Edge","138.0.0.0","Windows","10.0","https://app.prolific.com/","en-US,en;q=0.9,en-ZA;q=0.8","66952367721687887540318f","683db6dfa200031b80f2a654","686507792cf4c1011f803df8","66952367721687887540318f","2025-07-02T10:39:21.479Z","","","","","","","","","","","","","","","","","","","","","","","","","","","","","","","","","","","","","","","","","","","",""
"232828","","","","survey-template","18","1326197","0.0-7.0-7.0","137","1","2025-07-02 10:20:37","80fe4187154257d5fb01684ea91b68b9","102.128.184.38","Mozilla/5.0 (Windows NT 10.0; Win64; x64) AppleWebKit/537.36 (KHTML, like Gecko) Chrome/138.0.0.0 Safari/537.36 Edg/138.0.0.0","WebKit","Edge","138.0.0.0","Windows","10.0","https://app.prolific.com/","en-US,en;q=0.9,en-ZA;q=0.8","66952367721687887540318f","683db6dfa200031b80f2a654","686507792cf4c1011f803df8","66952367721687887540318f","2025-07-02T10:43:14.339Z","","","","","","drsp","{""Q01"":""2"",""Q02"":""0"",""Q03"":""0"",""Q04"":""3"",""Q05"":""4"",""Q06"":""5"",""Q07"":""4"",""Q08"":""1"",""Q09"":""5"",""Q10"":""5"",""Q11"":""5"",""Q12"":""5"",""Q13"":""5"",""Q14"":""5"",""Q15"":""0"",""Q16"":""5"",""Q17"":""1"",""Q18"":""3"",""Q19"":""3"",""Q20"":""4"",""Q21"":""5""}","[0,1,2,3,4,5,6,7,8,9,10,11,12,13,14,15,16,17,18,19,20]","[""Q01"",""Q01"",""Q02"",""Q03"",""Q04"",""Q05"",""Q06"",""Q07"",""Q08"",""Q09"",""Q10"",""Q11"",""Q12"",""Q13"",""Q14"",""Q15"",""Q16"",""Q17"",""Q18"",""Q19"",""Q20"",""Q21""]","[58785.10000000149,61496.400000002235,63279.5,66415.5,72974.5,148894.19999999925,160050.30000000075,164466.40000000224,167282,175202.80000000075,178300.40000000224,180858.40000000224,183491.1000000015,186107.5,190883.69999999925,195258.80000000075,199805.19999999925,206229.40000000224,216180.19999999925,220909.40000000224,227355.80000000075,230445.30000000075]","[]","[0.19999999925494194,58785.10000000149,61496.400000002235,63279.5,65016.900000002235,66415.5,69799.30000000075,71686.69999999925,72974.5,148894.19999999925,154004,155434.5,157939.80000000075,160050.30000000075,164466.40000000224,167282,175202.80000000075,178300.40000000224,180858.40000000224,183491.1000000015,186107.5,190883.69999999925,195258.80000000075,199805.19999999925,206229.40000000224,210405.40000000224,214748,216180.19999999925,220909.40000000224,225876.69999999925,227355.80000000075,230445.30000000075,232813.6000000015]","0.42857142857142855","0.35","0","","","","","","","","","","","","","","","","","","","","","","","","","","","","",""
"24879","","","","survey-template","19","1351090","0.0-7.0-8.0","137","1","2025-07-02 10:20:37","80fe4187154257d5fb01684ea91b68b9","102.128.184.38","Mozilla/5.0 (Windows NT 10.0; Win64; x64) AppleWebKit/537.36 (KHTML, like Gecko) Chrome/138.0.0.0 Safari/537.36 Edg/138.0.0.0","WebKit","Edge","138.0.0.0","Windows","10.0","https://app.prolific.com/","en-US,en;q=0.9,en-ZA;q=0.8","66952367721687887540318f","683db6dfa200031b80f2a654","686507792cf4c1011f803df8","66952367721687887540318f","2025-07-02T10:43:39.231Z","","","","","","stress","{""Q01"":""5"",""Q02"":""5"",""Q03"":""2""}","[0,1,2]","[""Q02"",""Q03"",""Q01""]","[12259.800000000745,17205,23220]","[]","[7261.39999999851,10979.699999999255,12259.800000000745,17205,18692,23220,24876.099999997765]","0.3333333333333333","0.5","0","","","","","","","","","","","","","","","","","","","","","","","","","","","","",""
"146205","","","","instructions","20","1497316","0.0-8.0-0.0","137","1","2025-07-02 10:20:37","80fe4187154257d5fb01684ea91b68b9","102.128.184.38","Mozilla/5.0 (Windows NT 10.0; Win64; x64) AppleWebKit/537.36 (KHTML, like Gecko) Chrome/138.0.0.0 Safari/537.36 Edg/138.0.0.0","WebKit","Edge","138.0.0.0","Windows","10.0","https://app.prolific.com/","en-US,en;q=0.9,en-ZA;q=0.8","66952367721687887540318f","683db6dfa200031b80f2a654","686507792cf4c1011f803df8","66952367721687887540318f","","[{""page_index"":0,""viewing_time"":80793},{""page_index"":1,""viewing_time"":26671},{""page_index"":2,""viewing_time"":14767},{""page_index"":3,""viewing_time"":23970}]","","","","","","","","","","","","","","","","","","","","","","","","","","","","","","","","","","","","","","","","","","",""
"","","","","ctl-task-cpt","21","1528292","0.0-8.0-1.0","137","1","2025-07-02 10:20:37","80fe4187154257d5fb01684ea91b68b9","102.128.184.38","Mozilla/5.0 (Windows NT 10.0; Win64; x64) AppleWebKit/537.36 (KHTML, like Gecko) Chrome/138.0.0.0 Safari/537.36 Edg/138.0.0.0","WebKit","Edge","138.0.0.0","Windows","10.0","https://app.prolific.com/","en-US,en;q=0.9,en-ZA;q=0.8","66952367721687887540318f","683db6dfa200031b80f2a654","686507792cf4c1011f803df8","66952367721687887540318f","","","","","","","","","","","","","","","","","win-only","1","g1:NE,g2:SW","1","0","1","1512167.2","7285.1","11293.2","27883","2","4","4","6","1","2","0","0","0","0","4007.8","4000","1600","[""up"",""right""]","{""num_key_presses"":8,""num_perfect"":4,""num_errors"":2,""num_randdir"":0,""num_randdir_good_moves"":0,""num_whilered"":2,""num_whileblue"":0,""num_blue"":0,""num_good_moves"":4}","[293.22232142857143,296.12857142857143,7.7,293.22232142857143,296.12857142857143,101,293.22232142857143,296.12857142857143,207,293.22232142857143,296.12857142857143,307.2,293.22232142857143,296.12857142857143,417,293.22232142857143,296.12857142857143,524,293.22232142857143,296.12857142857143,628,293.22232142857143,296.12857142857143,737.2,293.22232142857143,296.12857142857143,842.5,293.22232142857143,296.12857142857143,956.1,293.22232142857143,296.12857142857143,1057.7,293.22232142857143,296.12857142857143,1166,293.22232142857143,296.12857142857143,1266,293.22232142857143,296.12857142857143,1367.1,293.22232142857143,296.12857142857143,1473.2,293.22232142857143,296.12857142857143,1580.3,293.22232142857143,296.12857142857143,1683,293.22232142857143,296.12857142857143,1789.7,293.22232142857143,296.12857142857143,1892,293.22232142857143,296.12857142857143,2006.6,293.22232142857143,296.12857142857143,2117.2,293.22232142857143,296.12857142857143,2217.5,293.22232142857143,296.12857142857143,2323.4,293.22232142857143,296.12857142857143,2427.1,293.22232142857143,296.12857142857143,2533,293.22232142857143,296.12857142857143,2633.7,293.22232142857143,296.12857142857143,2736.5,293.22232142857143,296.12857142857143,2837.1,293.22232142857143,296.12857142857143,2937.4,293.22232142857143,296.12857142857143,3043.5,293.22232142857143,296.12857142857143,3147.5,293.22232142857143,296.12857142857143,3252.1,293.22232142857143,296.12857142857143,3356.7,293.22232142857143,296.12857142857143,3465.7,293.22232142857143,296.12857142857143,3565.8,293.22232142857143,296.12857142857143,3667.6,293.22232142857143,296.12857142857143,3772.7,293.22232142857143,296.12857142857143,3873.1,293.22232142857143,296.12857142857143,3973.1]","[2141.6,2141.5,1000,0.1,1141.5,""smooth"",""up"",""up"",""good_move"",2326.1,176.3,2824.5,2150.2,-2648.5,""error"",""-"",""-"",""no_move"",2486,158.5,2824.5,2150.2,-2488.7,""while_red"",""-"",""-"",""no_move"",3134.5,807,2824.5,2150.2,-1840.1,""while_red"",""-"",""-"",""no_move"",7183.2,4855.7,3234.3,3329.3,619.6,""smooth"",""up"",""up"",""good_move"",8350.5,1163,2042.6,7187.5,-879.6,""error"",""-"",""-"",""no_move"",12588.4,4236.1,2391.4,9359.1,838.7,""smooth"",""right"",""right"",""good_move"",16461.6,3870.8,2874.3,12590.9,996.5,""smooth"",""right"",""right"",""good_move""]","",""
"16577","","","","instructions","22","1544870","0.0-8.0-2.0","137","1","2025-07-02 10:20:37","80fe4187154257d5fb01684ea91b68b9","102.128.184.38","Mozilla/5.0 (Windows NT 10.0; Win64; x64) AppleWebKit/537.36 (KHTML, like Gecko) Chrome/138.0.0.0 Safari/537.36 Edg/138.0.0.0","WebKit","Edge","138.0.0.0","Windows","10.0","https://app.prolific.com/","en-US,en;q=0.9,en-ZA;q=0.8","66952367721687887540318f","683db6dfa200031b80f2a654","686507792cf4c1011f803df8","66952367721687887540318f","","[{""page_index"":0,""viewing_time"":16576}]","","","","","","","","","","","","","","","","","","","","","","","","","","","","","","","","","","","","","","","","","","",""
"","","","","ctl-task-cpt","23","1580504","0.0-8.0-3.0","137","1","2025-07-02 10:20:37","80fe4187154257d5fb01684ea91b68b9","102.128.184.38","Mozilla/5.0 (Windows NT 10.0; Win64; x64) AppleWebKit/537.36 (KHTML, like Gecko) Chrome/138.0.0.0 Safari/537.36 Edg/138.0.0.0","WebKit","Edge","138.0.0.0","Windows","10.0","https://app.prolific.com/","en-US,en;q=0.9,en-ZA;q=0.8","66952367721687887540318f","683db6dfa200031b80f2a654","686507792cf4c1011f803df8","66952367721687887540318f","","","","","","","","","","","","","","","","","win-only","1","g1:NE,g2:SW","0.35","0","3","1559646","2418.6","6421.3","32613.7","2","4","8","6","2","8","8","8","0","0.06060606060606061","4002.7","4000","1455","[""down"",""left""]","{""num_key_presses"":6,""num_perfect"":3,""num_errors"":0,""num_randdir"":3,""num_randdir_good_moves"":3,""num_whilered"":0,""num_whileblue"":0,""num_blue"":3,""num_good_moves"":6}","[295.22232142857143,295.12857142857143,2.1,295.22232142857143,295.12857142857143,101.1,295.22232142857143,295.12857142857143,202.9,295.22232142857143,295.12857142857143,303.9,295.22232142857143,295.12857142857143,404.1,295.22232142857143,295.12857142857143,504.3,295.22232142857143,295.12857142857143,605,295.22232142857143,295.12857142857143,731.9,295.22232142857143,295.12857142857143,833,295.22232142857143,295.12857142857143,939.7,295.22232142857143,295.12857142857143,1045.5,295.22232142857143,295.12857142857143,1155.3,295.22232142857143,295.12857142857143,1257.3,295.22232142857143,295.12857142857143,1366.7,295.22232142857143,295.12857142857143,1470.8,295.22232142857143,295.12857142857143,1571.2,295.22232142857143,295.12857142857143,1676.4,295.22232142857143,295.12857142857143,1776.6,295.22232142857143,295.12857142857143,1888.1,295.22232142857143,295.12857142857143,1993.1,295.22232142857143,295.12857142857143,2107.7,295.22232142857143,295.12857142857143,2209.8,295.22232142857143,295.12857142857143,2309.9,295.22232142857143,295.12857142857143,2413,295.22232142857143,295.12857142857143,2514.2,295.22232142857143,295.12857142857143,2624.6,295.22232142857143,295.12857142857143,2728.2,295.22232142857143,295.12857142857143,2839.9,295.22232142857143,295.12857142857143,2943,295.22232142857143,295.12857142857143,3044.9,295.22232142857143,295.12857142857143,3154.2,295.22232142857143,295.12857142857143,3259.4,295.22232142857143,295.12857142857143,3367.3,295.22232142857143,295.12857142857143,3470.4,295.22232142857143,295.12857142857143,3571,295.22232142857143,295.12857142857143,3672.6,295.22232142857143,295.12857142857143,3773,295.22232142857143,295.12857142857143,3879.9,295.22232142857143,295.12857142857143,3987.4]","[1691.6,1691.6,1000,0,691.6,""oops"",""down"",""left"",""good_move"",11301.2,9607.5,2365.9,8329,606.3,""smooth"",""down"",""down"",""good_move"",17275.3,5973.3,1936.3,14809,530.1,""oops"",""left"",""left"",""good_move"",20122.1,2845,1886.4,17277.3,958.5,""smooth"",""left"",""left"",""good_move"",23501.7,3376.5,2895.3,20125.3,481.2,""smooth"",""down"",""down"",""good_move"",26060.1,2557.2,2070.6,23502.9,486.6,""oops"",""down"",""down"",""good_move""]","",""
"44966","","","","instructions","24","1625473","0.0-8.0-4.0","137","1","2025-07-02 10:20:37","80fe4187154257d5fb01684ea91b68b9","102.128.184.38","Mozilla/5.0 (Windows NT 10.0; Win64; x64) AppleWebKit/537.36 (KHTML, like Gecko) Chrome/138.0.0.0 Safari/537.36 Edg/138.0.0.0","WebKit","Edge","138.0.0.0","Windows","10.0","https://app.prolific.com/","en-US,en;q=0.9,en-ZA;q=0.8","66952367721687887540318f","683db6dfa200031b80f2a654","686507792cf4c1011f803df8","66952367721687887540318f","","[{""page_index"":0,""viewing_time"":15603},{""page_index"":1,""viewing_time"":29361}]","","","","","","","","","","","","","","","","","","","","","","","","","","","","","","","","","","","","","","","","","","",""
"12958","","","{""green_ball"":[""Ball always moves in the direction I press""]}","survey-multi-select","25","1638461","0.0-8.0-5.0-0.0","137","1","2025-07-02 10:20:37","80fe4187154257d5fb01684ea91b68b9","102.128.184.38","Mozilla/5.0 (Windows NT 10.0; Win64; x64) AppleWebKit/537.36 (KHTML, like Gecko) Chrome/138.0.0.0 Safari/537.36 Edg/138.0.0.0","WebKit","Edge","138.0.0.0","Windows","10.0","https://app.prolific.com/","en-US,en;q=0.9,en-ZA;q=0.8","66952367721687887540318f","683db6dfa200031b80f2a654","686507792cf4c1011f803df8","66952367721687887540318f","","","[0]","","","","quiz","","","","","","","","","","","","","","","","","","","","","","","","","","","","","","","","","","","","","false",""
"9161","","<p align='center'><b>INCORRECT.</b> Usually the green ball moves in the indicated direction, but sometimes it shakes and moves randomly. </p>","0","html-button-response","26","1647639","0.0-8.0-5.0-1.0","137","1","2025-07-02 10:20:37","80fe4187154257d5fb01684ea91b68b9","102.128.184.38","Mozilla/5.0 (Windows NT 10.0; Win64; x64) AppleWebKit/537.36 (KHTML, like Gecko) Chrome/138.0.0.0 Safari/537.36 Edg/138.0.0.0","WebKit","Edge","138.0.0.0","Windows","10.0","https://app.prolific.com/","en-US,en;q=0.9,en-ZA;q=0.8","66952367721687887540318f","683db6dfa200031b80f2a654","686507792cf4c1011f803df8","66952367721687887540318f","","","","","","","","","","","","","","","","","","","","","","","","","","","","","","","","","","","","","","","","","","","","",""
"22998","","","{""green_ball"":[""Ball always shakes and moves in a random direction"",""Ball always moves in the direction I press""]}","survey-multi-select","27","1670651","0.0-8.0-5.1-0.1","137","1","2025-07-02 10:20:37","80fe4187154257d5fb01684ea91b68b9","102.128.184.38","Mozilla/5.0 (Windows NT 10.0; Win64; x64) AppleWebKit/537.36 (KHTML, like Gecko) Chrome/138.0.0.0 Safari/537.36 Edg/138.0.0.0","WebKit","Edge","138.0.0.0","Windows","10.0","https://app.prolific.com/","en-US,en;q=0.9,en-ZA;q=0.8","66952367721687887540318f","683db6dfa200031b80f2a654","686507792cf4c1011f803df8","66952367721687887540318f","","","[0]","","","","quiz","","","","","","","","","","","","","","","","","","","","","","","","","","","","","","","","","","","","","false",""
"8957","","<p align='center'><b>INCORRECT.</b> Usually the green ball moves in the indicated direction, but sometimes it shakes and moves randomly. </p>","0","html-button-response","28","1679621","0.0-8.0-5.1-1.1","137","1","2025-07-02 10:20:37","80fe4187154257d5fb01684ea91b68b9","102.128.184.38","Mozilla/5.0 (Windows NT 10.0; Win64; x64) AppleWebKit/537.36 (KHTML, like Gecko) Chrome/138.0.0.0 Safari/537.36 Edg/138.0.0.0","WebKit","Edge","138.0.0.0","Windows","10.0","https://app.prolific.com/","en-US,en;q=0.9,en-ZA;q=0.8","66952367721687887540318f","683db6dfa200031b80f2a654","686507792cf4c1011f803df8","66952367721687887540318f","","","","","","","","","","","","","","","","","","","","","","","","","","","","","","","","","","","","","","","","","","","","",""
"15258","","","{""green_ball"":[""Ball always shakes and moves in a random direction"",""Ball always moves in the direction I press"",""Ball sometimes shakes and moves in a random direction""]}","survey-multi-select","29","1694891","0.0-8.0-5.2-0.2","137","1","2025-07-02 10:20:37","80fe4187154257d5fb01684ea91b68b9","102.128.184.38","Mozilla/5.0 (Windows NT 10.0; Win64; x64) AppleWebKit/537.36 (KHTML, like Gecko) Chrome/138.0.0.0 Safari/537.36 Edg/138.0.0.0","WebKit","Edge","138.0.0.0","Windows","10.0","https://app.prolific.com/","en-US,en;q=0.9,en-ZA;q=0.8","66952367721687887540318f","683db6dfa200031b80f2a654","686507792cf4c1011f803df8","66952367721687887540318f","","","[0]","","","","quiz","","","","","","","","","","","","","","","","","","","","","","","","","","","","","","","","","","","","","false",""
"2732","","<p align='center'><b>INCORRECT.</b> Usually the green ball moves in the indicated direction, but sometimes it shakes and moves randomly. </p>","0","html-button-response","30","1697627","0.0-8.0-5.2-1.2","137","1","2025-07-02 10:20:37","80fe4187154257d5fb01684ea91b68b9","102.128.184.38","Mozilla/5.0 (Windows NT 10.0; Win64; x64) AppleWebKit/537.36 (KHTML, like Gecko) Chrome/138.0.0.0 Safari/537.36 Edg/138.0.0.0","WebKit","Edge","138.0.0.0","Windows","10.0","https://app.prolific.com/","en-US,en;q=0.9,en-ZA;q=0.8","66952367721687887540318f","683db6dfa200031b80f2a654","686507792cf4c1011f803df8","66952367721687887540318f","","","","","","","","","","","","","","","","","","","","","","","","","","","","","","","","","","","","","","","","","","","","",""
"2725","","","{""green_ball"":[""Ball sometimes shakes and moves in a random direction""]}","survey-multi-select","31","1700358","0.0-8.0-5.3-0.3","137","1","2025-07-02 10:20:37","80fe4187154257d5fb01684ea91b68b9","102.128.184.38","Mozilla/5.0 (Windows NT 10.0; Win64; x64) AppleWebKit/537.36 (KHTML, like Gecko) Chrome/138.0.0.0 Safari/537.36 Edg/138.0.0.0","WebKit","Edge","138.0.0.0","Windows","10.0","https://app.prolific.com/","en-US,en;q=0.9,en-ZA;q=0.8","66952367721687887540318f","683db6dfa200031b80f2a654","686507792cf4c1011f803df8","66952367721687887540318f","","","[0]","","","","quiz","","","","","","","","","","","","","","","","","","","","","","","","","","","","","","","","","","","","","true",""
"6683","","<p align='center'><b>CORRECT!</b> Indeed, the green ball may sometimes shake and move in a random direction.</p>","0","html-button-response","32","1707045","0.0-8.0-5.3-1.3","137","1","2025-07-02 10:20:37","80fe4187154257d5fb01684ea91b68b9","102.128.184.38","Mozilla/5.0 (Windows NT 10.0; Win64; x64) AppleWebKit/537.36 (KHTML, like Gecko) Chrome/138.0.0.0 Safari/537.36 Edg/138.0.0.0","WebKit","Edge","138.0.0.0","Windows","10.0","https://app.prolific.com/","en-US,en;q=0.9,en-ZA;q=0.8","66952367721687887540318f","683db6dfa200031b80f2a654","686507792cf4c1011f803df8","66952367721687887540318f","","","","","","","","","","","","","","","","","","","","","","","","","","","","","","","","","","","","","","","","","","","","",""
"13578","","","{""yellow_ball"":[""Ball doesn‘t move and I get -1 penalty point""]}","survey-multi-select","33","1720635","0.0-8.0-6.0-0.0","137","1","2025-07-02 10:20:37","80fe4187154257d5fb01684ea91b68b9","102.128.184.38","Mozilla/5.0 (Windows NT 10.0; Win64; x64) AppleWebKit/537.36 (KHTML, like Gecko) Chrome/138.0.0.0 Safari/537.36 Edg/138.0.0.0","WebKit","Edge","138.0.0.0","Windows","10.0","https://app.prolific.com/","en-US,en;q=0.9,en-ZA;q=0.8","66952367721687887540318f","683db6dfa200031b80f2a654","686507792cf4c1011f803df8","66952367721687887540318f","","","[0]","","","","quiz","","","","","","","","","","","","","","","","","","","","","","","","","","","","","","","","","","","","","true",""
"1809","","<p align='center'><b>CORRECT!</b> Indeed, the yellow ball never moves and you receive a penalty.</p>","0","html-button-response","34","1722450","0.0-8.0-6.0-1.0","137","1","2025-07-02 10:20:37","80fe4187154257d5fb01684ea91b68b9","102.128.184.38","Mozilla/5.0 (Windows NT 10.0; Win64; x64) AppleWebKit/537.36 (KHTML, like Gecko) Chrome/138.0.0.0 Safari/537.36 Edg/138.0.0.0","WebKit","Edge","138.0.0.0","Windows","10.0","https://app.prolific.com/","en-US,en;q=0.9,en-ZA;q=0.8","66952367721687887540318f","683db6dfa200031b80f2a654","686507792cf4c1011f803df8","66952367721687887540318f","","","","","","","","","","","","","","","","","","","","","","","","","","","","","","","","","","","","","","","","","","","","",""
"7703","","","{""blue_ball"":[""Ball always shakes and moves in a random direction""]}","survey-multi-select","35","1730166","0.0-8.0-7.0-0.0","137","1","2025-07-02 10:20:37","80fe4187154257d5fb01684ea91b68b9","102.128.184.38","Mozilla/5.0 (Windows NT 10.0; Win64; x64) AppleWebKit/537.36 (KHTML, like Gecko) Chrome/138.0.0.0 Safari/537.36 Edg/138.0.0.0","WebKit","Edge","138.0.0.0","Windows","10.0","https://app.prolific.com/","en-US,en;q=0.9,en-ZA;q=0.8","66952367721687887540318f","683db6dfa200031b80f2a654","686507792cf4c1011f803df8","66952367721687887540318f","","","[0]","","","","quiz","","","","","","","","","","","","","","","","","","","","","","","","","","","","","","","","","","","","","true",""
"2216","","<p align='center'><b>CORRECT!</b> Indeed, the blue ball always shakes and moves in a random direction. Also there is a penalty of -1 point.</p>","0","html-button-response","36","1732387","0.0-8.0-7.0-1.0","137","1","2025-07-02 10:20:37","80fe4187154257d5fb01684ea91b68b9","102.128.184.38","Mozilla/5.0 (Windows NT 10.0; Win64; x64) AppleWebKit/537.36 (KHTML, like Gecko) Chrome/138.0.0.0 Safari/537.36 Edg/138.0.0.0","WebKit","Edge","138.0.0.0","Windows","10.0","https://app.prolific.com/","en-US,en;q=0.9,en-ZA;q=0.8","66952367721687887540318f","683db6dfa200031b80f2a654","686507792cf4c1011f803df8","66952367721687887540318f","","","","","","","","","","","","","","","","","","","","","","","","","","","","","","","","","","","","","","","","","","","","",""
"9383","","","{""bonus"":[""When I reach 80% of points""]}","survey-multi-select","37","1741778","0.0-8.0-8.0-0.0","137","1","2025-07-02 10:20:37","80fe4187154257d5fb01684ea91b68b9","102.128.184.38","Mozilla/5.0 (Windows NT 10.0; Win64; x64) AppleWebKit/537.36 (KHTML, like Gecko) Chrome/138.0.0.0 Safari/537.36 Edg/138.0.0.0","WebKit","Edge","138.0.0.0","Windows","10.0","https://app.prolific.com/","en-US,en;q=0.9,en-ZA;q=0.8","66952367721687887540318f","683db6dfa200031b80f2a654","686507792cf4c1011f803df8","66952367721687887540318f","","","[0]","","","","quiz","","","","","","","","","","","","","","","","","","","","","","","","","","","","","","","","","","","","","false",""
"4349","","<p align='center'><b>INCORRECT.</b> You receive 2 pounds extra when you reach 50% of points </p>","0","html-button-response","38","1746133","0.0-8.0-8.0-1.0","137","1","2025-07-02 10:20:37","80fe4187154257d5fb01684ea91b68b9","102.128.184.38","Mozilla/5.0 (Windows NT 10.0; Win64; x64) AppleWebKit/537.36 (KHTML, like Gecko) Chrome/138.0.0.0 Safari/537.36 Edg/138.0.0.0","WebKit","Edge","138.0.0.0","Windows","10.0","https://app.prolific.com/","en-US,en;q=0.9,en-ZA;q=0.8","66952367721687887540318f","683db6dfa200031b80f2a654","686507792cf4c1011f803df8","66952367721687887540318f","","","","","","","","","","","","","","","","","","","","","","","","","","","","","","","","","","","","","","","","","","","","",""
"2730","","","{""bonus"":[""When I reach 50% of points""]}","survey-multi-select","39","1748878","0.0-8.0-8.1-0.1","137","1","2025-07-02 10:20:37","80fe4187154257d5fb01684ea91b68b9","102.128.184.38","Mozilla/5.0 (Windows NT 10.0; Win64; x64) AppleWebKit/537.36 (KHTML, like Gecko) Chrome/138.0.0.0 Safari/537.36 Edg/138.0.0.0","WebKit","Edge","138.0.0.0","Windows","10.0","https://app.prolific.com/","en-US,en;q=0.9,en-ZA;q=0.8","66952367721687887540318f","683db6dfa200031b80f2a654","686507792cf4c1011f803df8","66952367721687887540318f","","","[0]","","","","quiz","","","","","","","","","","","","","","","","","","","","","","","","","","","","","","","","","","","","","true",""
"2977","","<p align='center'><b>CORRECT!</b> Indeed, you receive 2 pounds extra when you reach 50% of points.</p>","0","html-button-response","40","1751859","0.0-8.0-8.1-1.1","137","1","2025-07-02 10:20:37","80fe4187154257d5fb01684ea91b68b9","102.128.184.38","Mozilla/5.0 (Windows NT 10.0; Win64; x64) AppleWebKit/537.36 (KHTML, like Gecko) Chrome/138.0.0.0 Safari/537.36 Edg/138.0.0.0","WebKit","Edge","138.0.0.0","Windows","10.0","https://app.prolific.com/","en-US,en;q=0.9,en-ZA;q=0.8","66952367721687887540318f","683db6dfa200031b80f2a654","686507792cf4c1011f803df8","66952367721687887540318f","","","","","","","","","","","","","","","","","","","","","","","","","","","","","","","","","","","","","","","","","","","","",""
"2342","","","","instructions","41","1754204","0.0-8.0-9.0","137","1","2025-07-02 10:20:37","80fe4187154257d5fb01684ea91b68b9","102.128.184.38","Mozilla/5.0 (Windows NT 10.0; Win64; x64) AppleWebKit/537.36 (KHTML, like Gecko) Chrome/138.0.0.0 Safari/537.36 Edg/138.0.0.0","WebKit","Edge","138.0.0.0","Windows","10.0","https://app.prolific.com/","en-US,en;q=0.9,en-ZA;q=0.8","66952367721687887540318f","683db6dfa200031b80f2a654","686507792cf4c1011f803df8","66952367721687887540318f","","[{""page_index"":0,""viewing_time"":2340}]","","","","","","","","","","","","","","","","","","","","","","","","","","","","","","","","","","","","","","","","","","",""
"15889","","<p>Before you start with this game please answer the following three questions yourself. </p>
  <p>Through this game, we measure several aspects of your cognitive performance, such as reaction times, multi-tasking capabilities </p>
  <p>and the ability to assess the situation you are in.</p>
  <p></p>
  <p><b>How good do you usually are in such tasks?</b></p>","83","html-slider-response","42","1770112","0.0-9.0-0.0","137","1","2025-07-02 10:20:37","80fe4187154257d5fb01684ea91b68b9","102.128.184.38","Mozilla/5.0 (Windows NT 10.0; Win64; x64) AppleWebKit/537.36 (KHTML, like Gecko) Chrome/138.0.0.0 Safari/537.36 Edg/138.0.0.0","WebKit","Edge","138.0.0.0","Windows","10.0","https://app.prolific.com/","en-US,en;q=0.9,en-ZA;q=0.8","66952367721687887540318f","683db6dfa200031b80f2a654","686507792cf4c1011f803df8","66952367721687887540318f","2025-07-02T10:50:38.254Z","","","","","","PreSkillQ","","","","","","","","","","","","","","","","","","","","","","","","","","","","","","","","","","","","","","50"
"7492","","<div style=""width:500px;"">
  <p>How well do you think you will perform in this task compared to other participants?</p>
  </div>","97","html-slider-response","43","1777611","0.0-9.0-1.0","137","1","2025-07-02 10:20:37","80fe4187154257d5fb01684ea91b68b9","102.128.184.38","Mozilla/5.0 (Windows NT 10.0; Win64; x64) AppleWebKit/537.36 (KHTML, like Gecko) Chrome/138.0.0.0 Safari/537.36 Edg/138.0.0.0","WebKit","Edge","138.0.0.0","Windows","10.0","https://app.prolific.com/","en-US,en;q=0.9,en-ZA;q=0.8","66952367721687887540318f","683db6dfa200031b80f2a654","686507792cf4c1011f803df8","66952367721687887540318f","2025-07-02T10:50:45.753Z","","","","","","PrePerfQ","","","","","","","","","","","","","","","","","","","","","","","","","","","","","","","","","","","","","","50"
"8420","","<div style=""width:500px;"">
  <p>What best describes how you currently feel?</p>
  </div>","99","html-slider-response","44","1786036","0.0-9.0-2.0","137","1","2025-07-02 10:20:37","80fe4187154257d5fb01684ea91b68b9","102.128.184.38","Mozilla/5.0 (Windows NT 10.0; Win64; x64) AppleWebKit/537.36 (KHTML, like Gecko) Chrome/138.0.0.0 Safari/537.36 Edg/138.0.0.0","WebKit","Edge","138.0.0.0","Windows","10.0","https://app.prolific.com/","en-US,en;q=0.9,en-ZA;q=0.8","66952367721687887540318f","683db6dfa200031b80f2a654","686507792cf4c1011f803df8","66952367721687887540318f","2025-07-02T10:50:54.177Z","","","","","","PreMotivationQ","","","","","","","","","","","","","","","","","","","","","","","","","","","","","","","","","","","","","","50"
"","","","","ctl-task-cpt","45","1816767","0.0-10.0-0.0","137","1","2025-07-02 10:20:37","80fe4187154257d5fb01684ea91b68b9","102.128.184.38","Mozilla/5.0 (Windows NT 10.0; Win64; x64) AppleWebKit/537.36 (KHTML, like Gecko) Chrome/138.0.0.0 Safari/537.36 Edg/138.0.0.0","WebKit","Edge","138.0.0.0","Windows","10.0","https://app.prolific.com/","en-US,en;q=0.9,en-ZA;q=0.8","66952367721687887540318f","683db6dfa200031b80f2a654","686507792cf4c1011f803df8","66952367721687887540318f","2025-07-02T10:51:24.908Z","","","","","","","","","","","","","","","","win-only","2","g1:SE,g2:NW","1","1","0","1800821.7","3846.6","8855.1","27699.3","1","4","8","6","2","8","8","8","0","0.06060606060606061","5008.5","3000","1510","[""left"",""up""]","{""num_key_presses"":6,""num_perfect"":6,""num_errors"":0,""num_randdir"":0,""num_randdir_good_moves"":0,""num_whilered"":0,""num_whileblue"":0,""num_blue"":1,""num_good_moves"":6}","[298.22232142857143,301.12857142857143,4.3,298.22232142857143,301.12857142857143,106.7,298.22232142857143,301.12857142857143,212.8,298.22232142857143,301.12857142857143,318.9,298.22232142857143,301.12857142857143,421.7,298.22232142857143,301.12857142857143,529,298.22232142857143,301.12857142857143,641.6,298.22232142857143,301.12857142857143,750.6,298.22232142857143,301.12857142857143,852.5,298.22232142857143,301.12857142857143,954,298.22232142857143,301.12857142857143,1054.2,298.22232142857143,301.12857142857143,1155.3,298.22232142857143,301.12857142857143,1275.1,298.22232142857143,301.12857142857143,1377.6,298.22232142857143,301.12857142857143,1482.3,298.22232142857143,301.12857142857143,1584.2,298.22232142857143,301.12857142857143,1686.8,298.22232142857143,301.12857142857143,1799.2,298.22232142857143,301.12857142857143,1902.3,298.22232142857143,301.12857142857143,2009.7,298.22232142857143,301.12857142857143,2110.7,298.22232142857143,301.12857142857143,2213.8,298.22232142857143,301.12857142857143,2316.3,298.22232142857143,301.12857142857143,2418.9,298.22232142857143,301.12857142857143,2524.9,298.22232142857143,301.12857142857143,2636.4,298.22232142857143,301.12857142857143,2740.9,298.22232142857143,301.12857142857143,2856.9,298.22232142857143,301.12857142857143,2958.6,298.22232142857143,301.12857142857143,3061.2,298.22232142857143,301.12857142857143,3165.2,298.22232142857143,301.12857142857143,3269.7,298.22232142857143,301.12857142857143,3372,298.22232142857143,301.12857142857143,3472.5,298.22232142857143,301.12857142857143,3585.7,298.22232142857143,301.12857142857143,3696.3,298.22232142857143,301.12857142857143,3801.9,298.22232142857143,301.12857142857143,3920.7,298.22232142857143,301.12857142857143,4038.3,298.22232142857143,301.12857142857143,4141,298.22232142857143,301.12857142857143,4243.7,298.22232142857143,301.12857142857143,4358.6,298.22232142857143,301.12857142857143,4471.4,298.22232142857143,301.12857142857143,4587.1,298.22232142857143,301.12857142857143,4705.7,298.22232142857143,301.12857142857143,4807.9,298.22232142857143,301.12857142857143,4911.3]","[1114.9,1114.9,1000,0,114.9,""smooth"",""left"",""left"",""good_move"",6939.3,5820.4,2415,3981.7,542.6,""smooth"",""left"",""left"",""good_move"",9520.4,2579.6,2056.3,6940.8,523.3,""smooth"",""left"",""left"",""good_move"",13086.9,3564.7,3076.4,9522.2,488.3,""smooth"",""up"",""up"",""good_move"",16033.6,2944.9,2443.7,13088.9,501.1,""smooth"",""up"",""up"",""good_move"",18693.7,2658.4,2179,16035.4,479.4,""smooth"",""up"",""up"",""good_move""]","",""
"6118","","<div style=""width:500px;"">
  <p>What determined the result of this run?</p>
  </div>","100","html-slider-response","46","1822895","0.0-10.0-1.0","137","1","2025-07-02 10:20:37","80fe4187154257d5fb01684ea91b68b9","102.128.184.38","Mozilla/5.0 (Windows NT 10.0; Win64; x64) AppleWebKit/537.36 (KHTML, like Gecko) Chrome/138.0.0.0 Safari/537.36 Edg/138.0.0.0","WebKit","Edge","138.0.0.0","Windows","10.0","https://app.prolific.com/","en-US,en;q=0.9,en-ZA;q=0.8","66952367721687887540318f","683db6dfa200031b80f2a654","686507792cf4c1011f803df8","66952367721687887540318f","2025-07-02T10:51:31.037Z","","","","","","AttribQ","","","","","","","","","","","","","","","","","","","","","","","","","","","","","","","","","","","","","","50"
"4508","","<div style=""width:500px;"">
  <p>How much control did you have over the ball?</p>
  </div>","99","html-slider-response","47","1827408","0.0-10.0-2.0","137","1","2025-07-02 10:20:37","80fe4187154257d5fb01684ea91b68b9","102.128.184.38","Mozilla/5.0 (Windows NT 10.0; Win64; x64) AppleWebKit/537.36 (KHTML, like Gecko) Chrome/138.0.0.0 Safari/537.36 Edg/138.0.0.0","WebKit","Edge","138.0.0.0","Windows","10.0","https://app.prolific.com/","en-US,en;q=0.9,en-ZA;q=0.8","66952367721687887540318f","683db6dfa200031b80f2a654","686507792cf4c1011f803df8","66952367721687887540318f","2025-07-02T10:51:35.550Z","","","","","","ControlQ","","","","","","","","","","","","","","","","","","","","","","","","","","","","","","","","","","","","","","50"
"5693","","<div style=""width:500px;"">
  <p>How would you describe your current emotional state?</p>
  </div>","22","html-slider-response","48","1833105","0.0-10.0-3.0","137","1","2025-07-02 10:20:37","80fe4187154257d5fb01684ea91b68b9","102.128.184.38","Mozilla/5.0 (Windows NT 10.0; Win64; x64) AppleWebKit/537.36 (KHTML, like Gecko) Chrome/138.0.0.0 Safari/537.36 Edg/138.0.0.0","WebKit","Edge","138.0.0.0","Windows","10.0","https://app.prolific.com/","en-US,en;q=0.9,en-ZA;q=0.8","66952367721687887540318f","683db6dfa200031b80f2a654","686507792cf4c1011f803df8","66952367721687887540318f","2025-07-02T10:51:41.247Z","","","","","","StressQ","","","","","","","","","","","","","","","","","","","","","","","","","","","","","","","","","","","","","","50"
"10674","","<div style=""width:500px;"">
  <p>What best describes how you currently feel?</p>
  </div>","89","html-slider-response","49","1843783","0.0-10.0-4.0","137","1","2025-07-02 10:20:37","80fe4187154257d5fb01684ea91b68b9","102.128.184.38","Mozilla/5.0 (Windows NT 10.0; Win64; x64) AppleWebKit/537.36 (KHTML, like Gecko) Chrome/138.0.0.0 Safari/537.36 Edg/138.0.0.0","WebKit","Edge","138.0.0.0","Windows","10.0","https://app.prolific.com/","en-US,en;q=0.9,en-ZA;q=0.8","66952367721687887540318f","683db6dfa200031b80f2a654","686507792cf4c1011f803df8","66952367721687887540318f","2025-07-02T10:51:51.925Z","","","","","","MotivationQ","","","","","","","","","","","","","","","","","","","","","","","","","","","","","","","","","","","","","","50"
"","","","","ctl-task-cpt","50","1868736","0.0-10.0-0.1","137","1","2025-07-02 10:20:37","80fe4187154257d5fb01684ea91b68b9","102.128.184.38","Mozilla/5.0 (Windows NT 10.0; Win64; x64) AppleWebKit/537.36 (KHTML, like Gecko) Chrome/138.0.0.0 Safari/537.36 Edg/138.0.0.0","WebKit","Edge","138.0.0.0","Windows","10.0","https://app.prolific.com/","en-US,en;q=0.9,en-ZA;q=0.8","66952367721687887540318f","683db6dfa200031b80f2a654","686507792cf4c1011f803df8","66952367721687887540318f","2025-07-02T10:52:16.878Z","","","","","","","","","","","","","","","","win-only","1","g1:NE,g2:SW","0.9","2","0","1858567.1","5513.9","10522.9","21919.6","1","4","4","6","1","1","1","9","8","0.06818181818181818","5009","3000","1850","[""up"",""right""]","{""num_key_presses"":4,""num_perfect"":4,""num_errors"":0,""num_randdir"":0,""num_randdir_good_moves"":0,""num_whilered"":0,""num_whileblue"":0,""num_blue"":0,""num_good_moves"":4}","[301.22232142857143,295.12857142857143,2.1,301.22232142857143,295.12857142857143,103.3,301.22232142857143,295.12857142857143,208.3,301.22232142857143,295.12857142857143,315.3,301.22232142857143,295.12857142857143,429.1,301.22232142857143,295.12857142857143,531.1,301.22232142857143,295.12857142857143,640.6,301.22232142857143,295.12857142857143,748.9,301.22232142857143,295.12857142857143,850.3,301.22232142857143,295.12857142857143,956.9,301.22232142857143,295.12857142857143,1066.2,301.22232142857143,295.12857142857143,1171,301.22232142857143,295.12857142857143,1273,301.22232142857143,295.12857142857143,1380.9,301.22232142857143,295.12857142857143,1487,301.22232142857143,295.12857142857143,1596.4,301.22232142857143,295.12857142857143,1710.9,301.22232142857143,295.12857142857143,1819.3,301.22232142857143,295.12857142857143,1920,301.22232142857143,295.12857142857143,2023.9,301.22232142857143,295.12857142857143,2128.4,301.22232142857143,295.12857142857143,2233.6,301.22232142857143,295.12857142857143,2340,301.22232142857143,295.12857142857143,2451.6,301.22232142857143,295.12857142857143,2558,301.22232142857143,295.12857142857143,2658.9,301.22232142857143,295.12857142857143,2763.6,301.22232142857143,295.12857142857143,2866.6,301.22232142857143,295.12857142857143,2970.3,301.22232142857143,295.12857142857143,3074.1,301.22232142857143,295.12857142857143,3181.9,301.22232142857143,295.12857142857143,3286.4,301.22232142857143,295.12857142857143,3387,301.22232142857143,295.12857142857143,3492.2,301.22232142857143,295.12857142857143,3595.1,301.22232142857143,295.12857142857143,3697.4,301.22232142857143,295.12857142857143,3802.7,301.22232142857143,295.12857142857143,3908.5,301.22232142857143,295.12857142857143,4016.5,301.22232142857143,295.12857142857143,4118.2,301.22232142857143,295.12857142857143,4218.2,301.22232142857143,295.12857142857143,4318.7,301.22232142857143,295.12857142857143,4418.8,301.22232142857143,295.12857142857143,4528.3,301.22232142857143,295.12857142857143,4634.2,301.22232142857143,295.12857142857143,4739.4,301.22232142857143,295.12857142857143,4848.2,301.22232142857143,295.12857142857143,4951.5]","[1731,1731,1000,0,731,""smooth"",""right"",""right"",""good_move"",4534.4,2799.1,2264.1,1735.3,535,""smooth"",""right"",""right"",""good_move"",8048.9,3512.6,2949.6,4536.4,562.9,""smooth"",""up"",""up"",""good_move"",11200.8,3150.8,2726.1,8050.1,424.6,""smooth"",""up"",""up"",""good_move""]","",""
"4401","","<div style=""width:500px;"">
  <p>What determined the result of this run?</p>
  </div>","92","html-slider-response","51","1873146","0.0-10.0-1.1","137","1","2025-07-02 10:20:37","80fe4187154257d5fb01684ea91b68b9","102.128.184.38","Mozilla/5.0 (Windows NT 10.0; Win64; x64) AppleWebKit/537.36 (KHTML, like Gecko) Chrome/138.0.0.0 Safari/537.36 Edg/138.0.0.0","WebKit","Edge","138.0.0.0","Windows","10.0","https://app.prolific.com/","en-US,en;q=0.9,en-ZA;q=0.8","66952367721687887540318f","683db6dfa200031b80f2a654","686507792cf4c1011f803df8","66952367721687887540318f","2025-07-02T10:52:21.287Z","","","","","","AttribQ","","","","","","","","","","","","","","","","","","","","","","","","","","","","","","","","","","","","","","50"
"5633","","<div style=""width:500px;"">
  <p>How much control did you have over the ball?</p>
  </div>","96","html-slider-response","52","1878784","0.0-10.0-2.1","137","1","2025-07-02 10:20:37","80fe4187154257d5fb01684ea91b68b9","102.128.184.38","Mozilla/5.0 (Windows NT 10.0; Win64; x64) AppleWebKit/537.36 (KHTML, like Gecko) Chrome/138.0.0.0 Safari/537.36 Edg/138.0.0.0","WebKit","Edge","138.0.0.0","Windows","10.0","https://app.prolific.com/","en-US,en;q=0.9,en-ZA;q=0.8","66952367721687887540318f","683db6dfa200031b80f2a654","686507792cf4c1011f803df8","66952367721687887540318f","2025-07-02T10:52:26.925Z","","","","","","ControlQ","","","","","","","","","","","","","","","","","","","","","","","","","","","","","","","","","","","","","","50"
"7147","","<div style=""width:500px;"">
  <p>How would you describe your current emotional state?</p>
  </div>","32","html-slider-response","53","1885936","0.0-10.0-3.1","137","1","2025-07-02 10:20:37","80fe4187154257d5fb01684ea91b68b9","102.128.184.38","Mozilla/5.0 (Windows NT 10.0; Win64; x64) AppleWebKit/537.36 (KHTML, like Gecko) Chrome/138.0.0.0 Safari/537.36 Edg/138.0.0.0","WebKit","Edge","138.0.0.0","Windows","10.0","https://app.prolific.com/","en-US,en;q=0.9,en-ZA;q=0.8","66952367721687887540318f","683db6dfa200031b80f2a654","686507792cf4c1011f803df8","66952367721687887540318f","2025-07-02T10:52:34.077Z","","","","","","StressQ","","","","","","","","","","","","","","","","","","","","","","","","","","","","","","","","","","","","","","50"
"4668","","<div style=""width:500px;"">
  <p>What best describes how you currently feel?</p>
  </div>","86","html-slider-response","54","1890608","0.0-10.0-4.1","137","1","2025-07-02 10:20:37","80fe4187154257d5fb01684ea91b68b9","102.128.184.38","Mozilla/5.0 (Windows NT 10.0; Win64; x64) AppleWebKit/537.36 (KHTML, like Gecko) Chrome/138.0.0.0 Safari/537.36 Edg/138.0.0.0","WebKit","Edge","138.0.0.0","Windows","10.0","https://app.prolific.com/","en-US,en;q=0.9,en-ZA;q=0.8","66952367721687887540318f","683db6dfa200031b80f2a654","686507792cf4c1011f803df8","66952367721687887540318f","2025-07-02T10:52:38.750Z","","","","","","MotivationQ","","","","","","","","","","","","","","","","","","","","","","","","","","","","","","","","","","","","","","50"
"","","","","ctl-task-cpt","55","1919589","0.0-10.0-0.2","137","1","2025-07-02 10:20:37","80fe4187154257d5fb01684ea91b68b9","102.128.184.38","Mozilla/5.0 (Windows NT 10.0; Win64; x64) AppleWebKit/537.36 (KHTML, like Gecko) Chrome/138.0.0.0 Safari/537.36 Edg/138.0.0.0","WebKit","Edge","138.0.0.0","Windows","10.0","https://app.prolific.com/","en-US,en;q=0.9,en-ZA;q=0.8","66952367721687887540318f","683db6dfa200031b80f2a654","686507792cf4c1011f803df8","66952367721687887540318f","2025-07-02T10:53:07.730Z","","","","","","","","","","","","","","","","win-only","0","g1:NW,g2:SE","0.8","3","0","1905384.4","8077.8","13087.7","25943.6","1","4","8","6","1","1","1","10","9","0.07575757575757576","5009.8","3000","1850","[""left"",""up""]","{""num_key_presses"":4,""num_perfect"":3,""num_errors"":0,""num_randdir"":1,""num_randdir_good_moves"":1,""num_whilered"":0,""num_whileblue"":0,""num_blue"":0,""num_good_moves"":4}","[293.22232142857143,292.12857142857143,1.3,293.22232142857143,292.12857142857143,109.1,293.22232142857143,292.12857142857143,211.6,293.22232142857143,292.12857142857143,320.8,293.22232142857143,292.12857142857143,421,293.22232142857143,292.12857142857143,525.2,293.22232142857143,292.12857142857143,630,293.22232142857143,292.12857142857143,730.3,237.22232142857143,347.12857142857143,835.4,230.22232142857143,355.12857142857143,936.5,229.22232142857143,356.12857142857143,1042.6,231.22232142857143,354.12857142857143,1146.4,231.22232142857143,354.12857142857143,1246.7,231.22232142857143,354.12857142857143,1373.4,231.22232142857143,354.12857142857143,1482,231.22232142857143,354.12857142857143,1590.7,231.22232142857143,354.12857142857143,1697.1,231.22232142857143,354.12857142857143,1805.4,231.22232142857143,354.12857142857143,1911.2,231.22232142857143,354.12857142857143,2020.4,231.22232142857143,354.12857142857143,2123.5,231.22232142857143,354.12857142857143,2232.3,231.22232142857143,354.12857142857143,2341.4,231.22232142857143,354.12857142857143,2447.2,231.22232142857143,354.12857142857143,2554.5,231.22232142857143,354.12857142857143,2658,231.22232142857143,354.12857142857143,2764,231.22232142857143,354.12857142857143,2869.8,231.22232142857143,354.12857142857143,2970.6,231.22232142857143,354.12857142857143,3077.4,231.22232142857143,354.12857142857143,3186.5,231.22232142857143,354.12857142857143,3290.6,231.22232142857143,354.12857142857143,3392.7,231.22232142857143,354.12857142857143,3501.3,231.22232142857143,354.12857142857143,3608,231.22232142857143,354.12857142857143,3716.3,231.22232142857143,354.12857142857143,3848.6,231.22232142857143,354.12857142857143,3957.5,231.22232142857143,354.12857142857143,4070.3,231.22232142857143,354.12857142857143,4174.1,231.22232142857143,354.12857142857143,4282.1,231.22232142857143,354.12857142857143,4387.9,231.22232142857143,354.12857142857143,4490.7,231.22232142857143,354.12857142857143,4600.6,231.22232142857143,354.12857142857143,4713,231.22232142857143,354.12857142857143,4823.7,231.22232142857143,354.12857142857143,4931.7]","[2038.9,2038.9,1000,0,1038.9,""smooth"",""up"",""up"",""good_move"",5395.8,3355.6,2871.6,2040.2,484,""oops"",""up"",""up"",""good_move"",9056.8,3655.8,2932.1,5401,723.7,""smooth"",""left"",""left"",""good_move"",12672,3612.2,3123.4,9059.8,488.8,""smooth"",""left"",""left"",""good_move""]","",""
"6718","","<div style=""width:500px;"">
  <p>What determined the result of this run?</p>
  </div>","100","html-slider-response","56","1926314","0.0-10.0-1.2","137","1","2025-07-02 10:20:37","80fe4187154257d5fb01684ea91b68b9","102.128.184.38","Mozilla/5.0 (Windows NT 10.0; Win64; x64) AppleWebKit/537.36 (KHTML, like Gecko) Chrome/138.0.0.0 Safari/537.36 Edg/138.0.0.0","WebKit","Edge","138.0.0.0","Windows","10.0","https://app.prolific.com/","en-US,en;q=0.9,en-ZA;q=0.8","66952367721687887540318f","683db6dfa200031b80f2a654","686507792cf4c1011f803df8","66952367721687887540318f","2025-07-02T10:53:14.456Z","","","","","","AttribQ","","","","","","","","","","","","","","","","","","","","","","","","","","","","","","","","","","","","","","50"
"10898","","<div style=""width:500px;"">
  <p>How much control did you have over the ball?</p>
  </div>","91","html-slider-response","57","1937219","0.0-10.0-2.2","137","1","2025-07-02 10:20:37","80fe4187154257d5fb01684ea91b68b9","102.128.184.38","Mozilla/5.0 (Windows NT 10.0; Win64; x64) AppleWebKit/537.36 (KHTML, like Gecko) Chrome/138.0.0.0 Safari/537.36 Edg/138.0.0.0","WebKit","Edge","138.0.0.0","Windows","10.0","https://app.prolific.com/","en-US,en;q=0.9,en-ZA;q=0.8","66952367721687887540318f","683db6dfa200031b80f2a654","686507792cf4c1011f803df8","66952367721687887540318f","2025-07-02T10:53:25.360Z","","","","","","ControlQ","","","","","","","","","","","","","","","","","","","","","","","","","","","","","","","","","","","","","","50"
"6117","","<div style=""width:500px;"">
  <p>How would you describe your current emotional state?</p>
  </div>","19","html-slider-response","58","1943340","0.0-10.0-3.2","137","1","2025-07-02 10:20:37","80fe4187154257d5fb01684ea91b68b9","102.128.184.38","Mozilla/5.0 (Windows NT 10.0; Win64; x64) AppleWebKit/537.36 (KHTML, like Gecko) Chrome/138.0.0.0 Safari/537.36 Edg/138.0.0.0","WebKit","Edge","138.0.0.0","Windows","10.0","https://app.prolific.com/","en-US,en;q=0.9,en-ZA;q=0.8","66952367721687887540318f","683db6dfa200031b80f2a654","686507792cf4c1011f803df8","66952367721687887540318f","2025-07-02T10:53:31.482Z","","","","","","StressQ","","","","","","","","","","","","","","","","","","","","","","","","","","","","","","","","","","","","","","50"
"6219","","<div style=""width:500px;"">
  <p>What best describes how you currently feel?</p>
  </div>","94","html-slider-response","59","1949565","0.0-10.0-4.2","137","1","2025-07-02 10:20:37","80fe4187154257d5fb01684ea91b68b9","102.128.184.38","Mozilla/5.0 (Windows NT 10.0; Win64; x64) AppleWebKit/537.36 (KHTML, like Gecko) Chrome/138.0.0.0 Safari/537.36 Edg/138.0.0.0","WebKit","Edge","138.0.0.0","Windows","10.0","https://app.prolific.com/","en-US,en;q=0.9,en-ZA;q=0.8","66952367721687887540318f","683db6dfa200031b80f2a654","686507792cf4c1011f803df8","66952367721687887540318f","2025-07-02T10:53:37.707Z","","","","","","MotivationQ","","","","","","","","","","","","","","","","","","","","","","","","","","","","","","","","","","","","","","50"
"","","","","ctl-task-cpt","60","1971069","0.0-10.0-0.3","137","1","2025-07-02 10:20:37","80fe4187154257d5fb01684ea91b68b9","102.128.184.38","Mozilla/5.0 (Windows NT 10.0; Win64; x64) AppleWebKit/537.36 (KHTML, like Gecko) Chrome/138.0.0.0 Safari/537.36 Edg/138.0.0.0","WebKit","Edge","138.0.0.0","Windows","10.0","https://app.prolific.com/","en-US,en;q=0.9,en-ZA;q=0.8","66952367721687887540318f","683db6dfa200031b80f2a654","686507792cf4c1011f803df8","66952367721687887540318f","2025-07-02T10:53:59.211Z","","","","","","","","","","","","","","","","win-only","1","g1:NE,g2:SW","0.7","4","0","1964345.3","3371.7","8375.7","18473.3","1","4","4","6","1","1","1","11","10","0.08333333333333333","5004","3000","2120","[""up"",""right""]","{""num_key_presses"":4,""num_perfect"":3,""num_errors"":0,""num_randdir"":1,""num_randdir_good_moves"":1,""num_whilered"":0,""num_whileblue"":0,""num_blue"":0,""num_good_moves"":4}","[296.22232142857143,301.12857142857143,2.9,296.22232142857143,301.12857142857143,110.1,296.22232142857143,301.12857142857143,217.9,296.22232142857143,301.12857142857143,325.8,296.22232142857143,301.12857142857143,437,296.22232142857143,301.12857142857143,549.4,296.22232142857143,301.12857142857143,657.3,296.22232142857143,301.12857142857143,765.9,296.22232142857143,301.12857142857143,874.9,296.22232142857143,301.12857142857143,983,296.22232142857143,301.12857142857143,1085.2,296.22232142857143,301.12857142857143,1193.7,296.22232142857143,301.12857142857143,1298.6,296.22232142857143,301.12857142857143,1402.2,296.22232142857143,301.12857142857143,1504.3,296.22232142857143,301.12857142857143,1610.5,296.22232142857143,301.12857142857143,1715,296.22232142857143,301.12857142857143,1822.6,296.22232142857143,301.12857142857143,1925.2,296.22232142857143,301.12857142857143,2035.6,296.22232142857143,301.12857142857143,2137.2,296.22232142857143,301.12857142857143,2238.4,296.22232142857143,301.12857142857143,2351.2,296.22232142857143,301.12857142857143,2459.2,296.22232142857143,301.12857142857143,2562.7,296.22232142857143,301.12857142857143,2669.6,296.22232142857143,301.12857142857143,2771.7,296.22232142857143,301.12857142857143,2874.7,296.22232142857143,301.12857142857143,2979.5,296.22232142857143,301.12857142857143,3089.3,296.22232142857143,301.12857142857143,3201.5,296.22232142857143,301.12857142857143,3310.6,296.22232142857143,301.12857142857143,3413,296.22232142857143,301.12857142857143,3522.9,296.22232142857143,301.12857142857143,3623.6,296.22232142857143,301.12857142857143,3732.5,296.22232142857143,301.12857142857143,3833.1,296.22232142857143,301.12857142857143,3933.2,296.22232142857143,301.12857142857143,4045.9,296.22232142857143,301.12857142857143,4151.7,296.22232142857143,301.12857142857143,4262,296.22232142857143,301.12857142857143,4365,296.22232142857143,301.12857142857143,4466.9,296.22232142857143,301.12857142857143,4567.9,296.22232142857143,301.12857142857143,4681.7,296.22232142857143,301.12857142857143,4786.3,296.22232142857143,301.12857142857143,4895.1]","[1607.2,1607.2,1000,0,607.2,""smooth"",""right"",""right"",""good_move"",3833.4,2223.6,1683.2,1609.8,540.4,""smooth"",""right"",""right"",""good_move"",6835.3,3001.2,2497,3834.3,504.1,""oops"",""up"",""up"",""good_move"",9874.1,3035.7,2398,6838.6,637.6,""smooth"",""up"",""up"",""good_move""]","",""
"4577","","<div style=""width:500px;"">
  <p>What determined the result of this run?</p>
  </div>","8","html-slider-response","61","1975652","0.0-10.0-1.3","137","1","2025-07-02 10:20:37","80fe4187154257d5fb01684ea91b68b9","102.128.184.38","Mozilla/5.0 (Windows NT 10.0; Win64; x64) AppleWebKit/537.36 (KHTML, like Gecko) Chrome/138.0.0.0 Safari/537.36 Edg/138.0.0.0","WebKit","Edge","138.0.0.0","Windows","10.0","https://app.prolific.com/","en-US,en;q=0.9,en-ZA;q=0.8","66952367721687887540318f","683db6dfa200031b80f2a654","686507792cf4c1011f803df8","66952367721687887540318f","2025-07-02T10:54:03.794Z","","","","","","AttribQ","","","","","","","","","","","","","","","","","","","","","","","","","","","","","","","","","","","","","","50"
"3732","","<div style=""width:500px;"">
  <p>How much control did you have over the ball?</p>
  </div>","28","html-slider-response","62","1979389","0.0-10.0-2.3","137","1","2025-07-02 10:20:37","80fe4187154257d5fb01684ea91b68b9","102.128.184.38","Mozilla/5.0 (Windows NT 10.0; Win64; x64) AppleWebKit/537.36 (KHTML, like Gecko) Chrome/138.0.0.0 Safari/537.36 Edg/138.0.0.0","WebKit","Edge","138.0.0.0","Windows","10.0","https://app.prolific.com/","en-US,en;q=0.9,en-ZA;q=0.8","66952367721687887540318f","683db6dfa200031b80f2a654","686507792cf4c1011f803df8","66952367721687887540318f","2025-07-02T10:54:07.530Z","","","","","","ControlQ","","","","","","","","","","","","","","","","","","","","","","","","","","","","","","","","","","","","","","50"
"4162","","<div style=""width:500px;"">
  <p>How would you describe your current emotional state?</p>
  </div>","21","html-slider-response","63","1983555","0.0-10.0-3.3","137","1","2025-07-02 10:20:37","80fe4187154257d5fb01684ea91b68b9","102.128.184.38","Mozilla/5.0 (Windows NT 10.0; Win64; x64) AppleWebKit/537.36 (KHTML, like Gecko) Chrome/138.0.0.0 Safari/537.36 Edg/138.0.0.0","WebKit","Edge","138.0.0.0","Windows","10.0","https://app.prolific.com/","en-US,en;q=0.9,en-ZA;q=0.8","66952367721687887540318f","683db6dfa200031b80f2a654","686507792cf4c1011f803df8","66952367721687887540318f","2025-07-02T10:54:11.696Z","","","","","","StressQ","","","","","","","","","","","","","","","","","","","","","","","","","","","","","","","","","","","","","","50"
"8989","","<div style=""width:500px;"">
  <p>What best describes how you currently feel?</p>
  </div>","78","html-slider-response","64","1992548","0.0-10.0-4.3","137","1","2025-07-02 10:20:37","80fe4187154257d5fb01684ea91b68b9","102.128.184.38","Mozilla/5.0 (Windows NT 10.0; Win64; x64) AppleWebKit/537.36 (KHTML, like Gecko) Chrome/138.0.0.0 Safari/537.36 Edg/138.0.0.0","WebKit","Edge","138.0.0.0","Windows","10.0","https://app.prolific.com/","en-US,en;q=0.9,en-ZA;q=0.8","66952367721687887540318f","683db6dfa200031b80f2a654","686507792cf4c1011f803df8","66952367721687887540318f","2025-07-02T10:54:20.689Z","","","","","","MotivationQ","","","","","","","","","","","","","","","","","","","","","","","","","","","","","","","","","","","","","","50"
"","","","","ctl-task-cpt","65","2044051","0.0-10.0-0.4","137","1","2025-07-02 10:20:37","80fe4187154257d5fb01684ea91b68b9","102.128.184.38","Mozilla/5.0 (Windows NT 10.0; Win64; x64) AppleWebKit/537.36 (KHTML, like Gecko) Chrome/138.0.0.0 Safari/537.36 Edg/138.0.0.0","WebKit","Edge","138.0.0.0","Windows","10.0","https://app.prolific.com/","en-US,en;q=0.9,en-ZA;q=0.8","66952367721687887540318f","683db6dfa200031b80f2a654","686507792cf4c1011f803df8","66952367721687887540318f","2025-07-02T10:55:12.193Z","","","","","","","","","","","","","","","","win-only","0","g1:NW,g2:SE","0.6","5","0","2007325.9","3401","8417.1","48472.6","1","4","8","6","2","-8","-8","3","11","0.022727272727272728","2194","3000","-950","[""down"",""right""]","{""num_key_presses"":10,""num_perfect"":6,""num_errors"":0,""num_randdir"":4,""num_randdir_good_moves"":0,""num_whilered"":0,""num_whileblue"":0,""num_blue"":1,""num_good_moves"":6}","[292.22232142857143,298.12857142857143,1.8,292.22232142857143,298.12857142857143,104.2,292.22232142857143,298.12857142857143,209.9,292.22232142857143,298.12857142857143,311.4,292.22232142857143,298.12857142857143,422.6,292.22232142857143,298.12857142857143,530.8,292.22232142857143,298.12857142857143,647.9,292.22232142857143,298.12857142857143,748.9,292.22232142857143,298.12857142857143,860.5,292.22232142857143,298.12857142857143,963.6,292.22232142857143,298.12857142857143,1072.8,292.22232142857143,298.12857142857143,1182.6,327.22232142857143,323.12857142857143,1285.8,600.2223214285714,520.1285714285714,1392.6,625.2223214285714,555.1285714285714,1494.4,628.2223214285714,561.1285714285714,1599.6,624.2223214285714,568.1285714285714,1709.9,563.2223214285714,564.1285714285714,1816.3,548.2223214285714,560.1285714285714,1939.1,547.2223214285714,559.1285714285714,2048,547.2223214285714,559.1285714285714,2148.8,547.2223214285714,559.1285714285714,2258.3,547.2223214285714,559.1285714285714,2361.7,547.2223214285714,559.1285714285714,2469.8,547.2223214285714,559.1285714285714,2577.3,547.2223214285714,559.1285714285714,2680.9,547.2223214285714,559.1285714285714,2794.9,547.2223214285714,559.1285714285714,2895.4,547.2223214285714,559.1285714285714,2998.5,547.2223214285714,559.1285714285714,3099.3,547.2223214285714,559.1285714285714,3207.5,547.2223214285714,559.1285714285714,3309.7,547.2223214285714,559.1285714285714,3410.1,547.2223214285714,559.1285714285714,3513.9,547.2223214285714,559.1285714285714,3626.6,547.2223214285714,559.1285714285714,3735.6,547.2223214285714,559.1285714285714,3838.8,547.2223214285714,559.1285714285714,3952.1,547.2223214285714,559.1285714285714,4053.8,547.2223214285714,559.1285714285714,4165.4,547.2223214285714,559.1285714285714,4275.8,547.2223214285714,559.1285714285714,4379.4,547.2223214285714,559.1285714285714,4479.7,547.2223214285714,559.1285714285714,4599,547.2223214285714,559.1285714285714,4711,547.2223214285714,559.1285714285714,4827.9,547.2223214285714,559.1285714285714,4934.1]","[1494.6,1494.6,1000,0,494.6,""smooth"",""right"",""right"",""good_move"",4253,2755.5,1975.1,1497.6,780.3,""smooth"",""right"",""right"",""good_move"",6340,2085.1,1451.1,4255,633.9,""smooth"",""right"",""right"",""good_move"",9452.2,3106.2,2284.3,6346.2,821.8,""smooth"",""down"",""down"",""good_move"",12809.8,3354.4,2871.2,9455.4,483.2,""smooth"",""down"",""down"",""good_move"",16845.9,4033.1,3454.1,12812.8,579,""oops"",""down"",""left"",""bad_move"",21672.9,4824.6,1964.1,16848.4,2860.5,""smooth"",""down"",""down"",""good_move"",24467.2,2789.3,2346.2,21677.9,443.1,""oops"",""right"",""up"",""bad_move"",28733.8,4263.8,3572.5,24470,691.3,""oops"",""right"",""left"",""bad_move"",32684.8,3948.3,3394.2,28736.6,554.1,""oops"",""down"",""up"",""bad_move""]","",""
"10189","","<div style=""width:500px;"">
  <p>What determined the result of this run?</p>
  </div>","9","html-slider-response","66","2054249","0.0-10.0-1.4","137","1","2025-07-02 10:20:37","80fe4187154257d5fb01684ea91b68b9","102.128.184.38","Mozilla/5.0 (Windows NT 10.0; Win64; x64) AppleWebKit/537.36 (KHTML, like Gecko) Chrome/138.0.0.0 Safari/537.36 Edg/138.0.0.0","WebKit","Edge","138.0.0.0","Windows","10.0","https://app.prolific.com/","en-US,en;q=0.9,en-ZA;q=0.8","66952367721687887540318f","683db6dfa200031b80f2a654","686507792cf4c1011f803df8","66952367721687887540318f","2025-07-02T10:55:22.391Z","","","","","","AttribQ","","","","","","","","","","","","","","","","","","","","","","","","","","","","","","","","","","","","","","50"
"5099","","<div style=""width:500px;"">
  <p>How much control did you have over the ball?</p>
  </div>","16","html-slider-response","67","2059354","0.0-10.0-2.4","137","1","2025-07-02 10:20:37","80fe4187154257d5fb01684ea91b68b9","102.128.184.38","Mozilla/5.0 (Windows NT 10.0; Win64; x64) AppleWebKit/537.36 (KHTML, like Gecko) Chrome/138.0.0.0 Safari/537.36 Edg/138.0.0.0","WebKit","Edge","138.0.0.0","Windows","10.0","https://app.prolific.com/","en-US,en;q=0.9,en-ZA;q=0.8","66952367721687887540318f","683db6dfa200031b80f2a654","686507792cf4c1011f803df8","66952367721687887540318f","2025-07-02T10:55:27.496Z","","","","","","ControlQ","","","","","","","","","","","","","","","","","","","","","","","","","","","","","","","","","","","","","","50"
"5568","","<div style=""width:500px;"">
  <p>How would you describe your current emotional state?</p>
  </div>","95","html-slider-response","68","2064928","0.0-10.0-3.4","137","1","2025-07-02 10:20:37","80fe4187154257d5fb01684ea91b68b9","102.128.184.38","Mozilla/5.0 (Windows NT 10.0; Win64; x64) AppleWebKit/537.36 (KHTML, like Gecko) Chrome/138.0.0.0 Safari/537.36 Edg/138.0.0.0","WebKit","Edge","138.0.0.0","Windows","10.0","https://app.prolific.com/","en-US,en;q=0.9,en-ZA;q=0.8","66952367721687887540318f","683db6dfa200031b80f2a654","686507792cf4c1011f803df8","66952367721687887540318f","2025-07-02T10:55:33.070Z","","","","","","StressQ","","","","","","","","","","","","","","","","","","","","","","","","","","","","","","","","","","","","","","50"
"12515","","<div style=""width:500px;"">
  <p>What best describes how you currently feel?</p>
  </div>","70","html-slider-response","69","2077447","0.0-10.0-4.4","137","1","2025-07-02 10:20:37","80fe4187154257d5fb01684ea91b68b9","102.128.184.38","Mozilla/5.0 (Windows NT 10.0; Win64; x64) AppleWebKit/537.36 (KHTML, like Gecko) Chrome/138.0.0.0 Safari/537.36 Edg/138.0.0.0","WebKit","Edge","138.0.0.0","Windows","10.0","https://app.prolific.com/","en-US,en;q=0.9,en-ZA;q=0.8","66952367721687887540318f","683db6dfa200031b80f2a654","686507792cf4c1011f803df8","66952367721687887540318f","2025-07-02T10:55:45.589Z","","","","","","MotivationQ","","","","","","","","","","","","","","","","","","","","","","","","","","","","","","","","","","","","","","50"
"","","","","ctl-task-cpt","70","2153768","0.0-10.0-0.5","137","1","2025-07-02 10:20:37","80fe4187154257d5fb01684ea91b68b9","102.128.184.38","Mozilla/5.0 (Windows NT 10.0; Win64; x64) AppleWebKit/537.36 (KHTML, like Gecko) Chrome/138.0.0.0 Safari/537.36 Edg/138.0.0.0","WebKit","Edge","138.0.0.0","Windows","10.0","https://app.prolific.com/","en-US,en;q=0.9,en-ZA;q=0.8","66952367721687887540318f","683db6dfa200031b80f2a654","686507792cf4c1011f803df8","66952367721687887540318f","2025-07-02T10:57:01.910Z","","","","","","","","","","","","","","","","win-only","0","g1:NW,g2:SE","0.5","6","0","2092229","2396.1","7403.3","73280.7","1","4","4","6","2","-4","-4","0","3","0","5007.2","3000","-870","[""down"",""right""]","{""num_key_presses"":15,""num_perfect"":8,""num_errors"":0,""num_randdir"":7,""num_randdir_good_moves"":2,""num_whilered"":0,""num_whileblue"":0,""num_blue"":4,""num_good_moves"":9}","[292.22232142857143,297.12857142857143,2.4,292.22232142857143,297.12857142857143,112,292.22232142857143,297.12857142857143,231.9,292.22232142857143,297.12857142857143,349.9,292.22232142857143,297.12857142857143,454.6,292.22232142857143,297.12857142857143,560,292.22232142857143,297.12857142857143,664.8,292.22232142857143,297.12857142857143,769.9,292.22232142857143,297.12857142857143,879,292.22232142857143,297.12857142857143,985.7,292.22232142857143,297.12857142857143,1100.2,292.22232142857143,297.12857142857143,1212.9,292.22232142857143,297.12857142857143,1312.9,292.22232142857143,297.12857142857143,1423.9,292.22232142857143,297.12857142857143,1529.8,292.22232142857143,297.12857142857143,1630.3,292.22232142857143,297.12857142857143,1736.7,292.22232142857143,297.12857142857143,1843.2,292.22232142857143,297.12857142857143,1947.3,292.22232142857143,297.12857142857143,2053.7,292.22232142857143,297.12857142857143,2163.9,292.22232142857143,297.12857142857143,2265.3,292.22232142857143,297.12857142857143,2380,292.22232142857143,297.12857142857143,2481.6,292.22232142857143,297.12857142857143,2598.7,292.22232142857143,297.12857142857143,2704.3,292.22232142857143,297.12857142857143,2815.3,292.22232142857143,297.12857142857143,2932.7,292.22232142857143,297.12857142857143,3039.6,292.22232142857143,297.12857142857143,3150.2,292.22232142857143,297.12857142857143,3259.4,292.22232142857143,297.12857142857143,3367.3,292.22232142857143,297.12857142857143,3470.7,292.22232142857143,297.12857142857143,3586,292.22232142857143,297.12857142857143,3704.3,292.22232142857143,297.12857142857143,3804.6,292.22232142857143,297.12857142857143,3912.9,292.22232142857143,297.12857142857143,4028.5,292.22232142857143,297.12857142857143,4129.7,292.22232142857143,297.12857142857143,4238.1,292.22232142857143,297.12857142857143,4347.9,292.22232142857143,297.12857142857143,4461.1,292.22232142857143,297.12857142857143,4570.5,292.22232142857143,297.12857142857143,4681.2,292.22232142857143,297.12857142857143,4797,292.22232142857143,297.12857142857143,4905.4]","[5596.9,5597,3106.4,2025.5,465.1,""smooth"",""right"",""right"",""good_move"",10534.8,4935.6,1679.2,8331.3,524.3,""oops"",""right"",""right"",""good_move"",14125.8,3588,2682,10537.9,905.9,""smooth"",""right"",""right"",""good_move"",17115.7,2988.9,2007.1,14126.8,981.8,""oops"",""down"",""up"",""bad_move"",21310.6,4190.3,2642.9,17120.3,1547.4,""smooth"",""up"",""up"",""bad_move"",28347.5,7035.4,2710,25084.1,553.4,""oops"",""down"",""down"",""good_move"",31545.9,3197.2,2656.3,28348.7,540.9,""oops"",""down"",""left"",""bad_move"",34956.5,3409.1,2590.1,31547.5,819,""oops"",""down"",""left"",""bad_move"",38338.2,3380.9,1523.3,34957.3,1857.6,""smooth"",""down"",""down"",""good_move"",42091.2,3750.9,2683.1,38340.4,1067.7,""smooth"",""down"",""down"",""good_move"",45571.2,3478.2,2755.6,42093,722.6,""oops"",""down"",""left"",""bad_move"",48961.1,3388,2278,45573.1,1110,""smooth"",""down"",""down"",""good_move"",51872.5,2909.8,2350.8,48962.9,558.9,""smooth"",""down"",""down"",""good_move"",54612.4,2738.6,2268.5,51873.8,470.1,""smooth"",""right"",""right"",""good_move"",58943.9,4328.7,3787.5,54615.2,541.2,""oops"",""right"",""left"",""bad_move""]","",""
"4460","","<div style=""width:500px;"">
  <p>What determined the result of this run?</p>
  </div>","12","html-slider-response","71","2158238","0.0-10.0-1.5","137","1","2025-07-02 10:20:37","80fe4187154257d5fb01684ea91b68b9","102.128.184.38","Mozilla/5.0 (Windows NT 10.0; Win64; x64) AppleWebKit/537.36 (KHTML, like Gecko) Chrome/138.0.0.0 Safari/537.36 Edg/138.0.0.0","WebKit","Edge","138.0.0.0","Windows","10.0","https://app.prolific.com/","en-US,en;q=0.9,en-ZA;q=0.8","66952367721687887540318f","683db6dfa200031b80f2a654","686507792cf4c1011f803df8","66952367721687887540318f","2025-07-02T10:57:06.379Z","","","","","","AttribQ","","","","","","","","","","","","","","","","","","","","","","","","","","","","","","","","","","","","","","50"
"4110","","<div style=""width:500px;"">
  <p>How much control did you have over the ball?</p>
  </div>","0","html-slider-response","72","2162353","0.0-10.0-2.5","137","1","2025-07-02 10:20:37","80fe4187154257d5fb01684ea91b68b9","102.128.184.38","Mozilla/5.0 (Windows NT 10.0; Win64; x64) AppleWebKit/537.36 (KHTML, like Gecko) Chrome/138.0.0.0 Safari/537.36 Edg/138.0.0.0","WebKit","Edge","138.0.0.0","Windows","10.0","https://app.prolific.com/","en-US,en;q=0.9,en-ZA;q=0.8","66952367721687887540318f","683db6dfa200031b80f2a654","686507792cf4c1011f803df8","66952367721687887540318f","2025-07-02T10:57:10.494Z","","","","","","ControlQ","","","","","","","","","","","","","","","","","","","","","","","","","","","","","","","","","","","","","","50"
"5300","","<div style=""width:500px;"">
  <p>How would you describe your current emotional state?</p>
  </div>","99","html-slider-response","73","2167658","0.0-10.0-3.5","137","1","2025-07-02 10:20:37","80fe4187154257d5fb01684ea91b68b9","102.128.184.38","Mozilla/5.0 (Windows NT 10.0; Win64; x64) AppleWebKit/537.36 (KHTML, like Gecko) Chrome/138.0.0.0 Safari/537.36 Edg/138.0.0.0","WebKit","Edge","138.0.0.0","Windows","10.0","https://app.prolific.com/","en-US,en;q=0.9,en-ZA;q=0.8","66952367721687887540318f","683db6dfa200031b80f2a654","686507792cf4c1011f803df8","66952367721687887540318f","2025-07-02T10:57:15.801Z","","","","","","StressQ","","","","","","","","","","","","","","","","","","","","","","","","","","","","","","","","","","","","","","50"
"6648","","<div style=""width:500px;"">
  <p>What best describes how you currently feel?</p>
  </div>","39","html-slider-response","74","2174322","0.0-10.0-4.5","137","1","2025-07-02 10:20:37","80fe4187154257d5fb01684ea91b68b9","102.128.184.38","Mozilla/5.0 (Windows NT 10.0; Win64; x64) AppleWebKit/537.36 (KHTML, like Gecko) Chrome/138.0.0.0 Safari/537.36 Edg/138.0.0.0","WebKit","Edge","138.0.0.0","Windows","10.0","https://app.prolific.com/","en-US,en;q=0.9,en-ZA;q=0.8","66952367721687887540318f","683db6dfa200031b80f2a654","686507792cf4c1011f803df8","66952367721687887540318f","2025-07-02T10:57:22.464Z","","","","","","MotivationQ","","","","","","","","","","","","","","","","","","","","","","","","","","","","","","","","","","","","","","50"
"","","","","ctl-task-cpt","75","2215318","0.0-10.0-0.6","137","1","2025-07-02 10:20:37","80fe4187154257d5fb01684ea91b68b9","102.128.184.38","Mozilla/5.0 (Windows NT 10.0; Win64; x64) AppleWebKit/537.36 (KHTML, like Gecko) Chrome/138.0.0.0 Safari/537.36 Edg/138.0.0.0","WebKit","Edge","138.0.0.0","Windows","10.0","https://app.prolific.com/","en-US,en;q=0.9,en-ZA;q=0.8","66952367721687887540318f","683db6dfa200031b80f2a654","686507792cf4c1011f803df8","66952367721687887540318f","2025-07-02T10:58:03.460Z","","","","","","","","","","","","","","","","win-only","0","g1:NW,g2:SE","0.4","7","0","2189103.7","2700.5","7715.2","37953.6","1","4","8","6","1","1","1","1","0","0.007575757575757576","2919.2","3000","1450","[""left"",""up""]","{""num_key_presses"":6,""num_perfect"":4,""num_errors"":0,""num_randdir"":2,""num_randdir_good_moves"":1,""num_whilered"":0,""num_whileblue"":0,""num_blue"":2,""num_good_moves"":5}","[295.22232142857143,288.12857142857143,2.1,295.22232142857143,288.12857142857143,117.5,295.22232142857143,288.12857142857143,235.4,295.22232142857143,288.12857142857143,349.1,295.22232142857143,288.12857142857143,469.3,295.22232142857143,288.12857142857143,586.4,295.22232142857143,288.12857142857143,698.6,295.22232142857143,288.12857142857143,802.8,295.22232142857143,288.12857142857143,916.2,295.22232142857143,288.12857142857143,1019.4,295.22232142857143,288.12857142857143,1131.5,295.22232142857143,288.12857142857143,1249,295.22232142857143,288.12857142857143,1361.8,295.22232142857143,288.12857142857143,1474.3,295.22232142857143,288.12857142857143,1576.4,295.22232142857143,288.12857142857143,1689.2,295.22232142857143,288.12857142857143,1803.1,295.22232142857143,288.12857142857143,1906.3,295.22232142857143,288.12857142857143,2013.8,238.22232142857143,244.12857142857143,2129.9,151.22232142857143,171.12857142857143,2240.5,100.22232142857143,100.12857142857143,2351.3,70.22232142857143,61.128571428571426,2470.8,61.222321428571426,49.128571428571426,2575.7,54.222321428571426,40.128571428571426,2682.5,54.222321428571426,40.128571428571426,2788.7,54.222321428571426,40.128571428571426,2901.6,54.222321428571426,40.128571428571426,3003.3,54.222321428571426,40.128571428571426,3104.2,54.222321428571426,40.128571428571426,3216.5,54.222321428571426,40.128571428571426,3325.6,54.222321428571426,40.128571428571426,3430.1,54.222321428571426,40.128571428571426,3541,132.22232142857143,145.12857142857143,3664.9,147.22232142857143,213.12857142857143,3781.4,121.22232142857143,240.12857142857143,3884.7,103.22232142857143,247.12857142857143,3991.9,95.22232142857143,252.12857142857143,4109.8,94.22232142857143,252.12857142857143,4221.8,91.22232142857143,254.12857142857143,4336.7,91.22232142857143,254.12857142857143,4441,91.22232142857143,254.12857142857143,4557.2,91.22232142857143,254.12857142857143,4674.5,91.22232142857143,254.12857142857143,4783.8,91.22232142857143,254.12857142857143,4885.2,91.22232142857143,254.12857142857143,4992.7]","[2422.3,2422.3,1000,0,1422.3,""smooth"",""up"",""up"",""good_move"",6607,4182.3,2691.9,2424.7,1490.4,""smooth"",""up"",""up"",""good_move"",10712,4103.4,2430.8,6609.2,1673,""smooth"",""left"",""left"",""good_move"",14469.5,3752,2389.6,10717.5,1362.4,""oops"",""left"",""down"",""bad_move"",25219.6,10747.4,2787.5,21902.2,530,""oops"",""left"",""up"",""good_move"",29895.8,4674.5,2257,25221.5,2417.5,""smooth"",""left"",""left"",""good_move""]","",""
"6043","","<div style=""width:500px;"">
  <p>What determined the result of this run?</p>
  </div>","100","html-slider-response","76","2221368","0.0-10.0-1.6","137","1","2025-07-02 10:20:37","80fe4187154257d5fb01684ea91b68b9","102.128.184.38","Mozilla/5.0 (Windows NT 10.0; Win64; x64) AppleWebKit/537.36 (KHTML, like Gecko) Chrome/138.0.0.0 Safari/537.36 Edg/138.0.0.0","WebKit","Edge","138.0.0.0","Windows","10.0","https://app.prolific.com/","en-US,en;q=0.9,en-ZA;q=0.8","66952367721687887540318f","683db6dfa200031b80f2a654","686507792cf4c1011f803df8","66952367721687887540318f","2025-07-02T10:58:09.509Z","","","","","","AttribQ","","","","","","","","","","","","","","","","","","","","","","","","","","","","","","","","","","","","","","50"
"4161","","<div style=""width:500px;"">
  <p>How much control did you have over the ball?</p>
  </div>","100","html-slider-response","77","2225534","0.0-10.0-2.6","137","1","2025-07-02 10:20:37","80fe4187154257d5fb01684ea91b68b9","102.128.184.38","Mozilla/5.0 (Windows NT 10.0; Win64; x64) AppleWebKit/537.36 (KHTML, like Gecko) Chrome/138.0.0.0 Safari/537.36 Edg/138.0.0.0","WebKit","Edge","138.0.0.0","Windows","10.0","https://app.prolific.com/","en-US,en;q=0.9,en-ZA;q=0.8","66952367721687887540318f","683db6dfa200031b80f2a654","686507792cf4c1011f803df8","66952367721687887540318f","2025-07-02T10:58:13.676Z","","","","","","ControlQ","","","","","","","","","","","","","","","","","","","","","","","","","","","","","","","","","","","","","","50"
"5089","","<div style=""width:500px;"">
  <p>How would you describe your current emotional state?</p>
  </div>","0","html-slider-response","78","2230628","0.0-10.0-3.6","137","1","2025-07-02 10:20:37","80fe4187154257d5fb01684ea91b68b9","102.128.184.38","Mozilla/5.0 (Windows NT 10.0; Win64; x64) AppleWebKit/537.36 (KHTML, like Gecko) Chrome/138.0.0.0 Safari/537.36 Edg/138.0.0.0","WebKit","Edge","138.0.0.0","Windows","10.0","https://app.prolific.com/","en-US,en;q=0.9,en-ZA;q=0.8","66952367721687887540318f","683db6dfa200031b80f2a654","686507792cf4c1011f803df8","66952367721687887540318f","2025-07-02T10:58:18.769Z","","","","","","StressQ","","","","","","","","","","","","","","","","","","","","","","","","","","","","","","","","","","","","","","50"
"5684","","<div style=""width:500px;"">
  <p>What best describes how you currently feel?</p>
  </div>","56","html-slider-response","79","2236320","0.0-10.0-4.6","137","1","2025-07-02 10:20:37","80fe4187154257d5fb01684ea91b68b9","102.128.184.38","Mozilla/5.0 (Windows NT 10.0; Win64; x64) AppleWebKit/537.36 (KHTML, like Gecko) Chrome/138.0.0.0 Safari/537.36 Edg/138.0.0.0","WebKit","Edge","138.0.0.0","Windows","10.0","https://app.prolific.com/","en-US,en;q=0.9,en-ZA;q=0.8","66952367721687887540318f","683db6dfa200031b80f2a654","686507792cf4c1011f803df8","66952367721687887540318f","2025-07-02T10:58:24.462Z","","","","","","MotivationQ","","","","","","","","","","","","","","","","","","","","","","","","","","","","","","","","","","","","","","50"
"","","","","ctl-task-cpt","80","2335748","0.0-10.0-0.7","137","1","2025-07-02 10:20:37","80fe4187154257d5fb01684ea91b68b9","102.128.184.38","Mozilla/5.0 (Windows NT 10.0; Win64; x64) AppleWebKit/537.36 (KHTML, like Gecko) Chrome/138.0.0.0 Safari/537.36 Edg/138.0.0.0","WebKit","Edge","138.0.0.0","Windows","10.0","https://app.prolific.com/","en-US,en;q=0.9,en-ZA;q=0.8","66952367721687887540318f","683db6dfa200031b80f2a654","686507792cf4c1011f803df8","66952367721687887540318f","2025-07-02T11:00:03.890Z","","","","","","","","","","","","","","","","win-only","2","g1:SE,g2:NW","0.3","8","0","2251100","2658","7667.3","96387.7","1","4","4","6","1","-1","-1","0","1","0","2663.5","3000","-720","[""down"",""right""]","{""num_key_presses"":20,""num_perfect"":6,""num_errors"":0,""num_randdir"":14,""num_randdir_good_moves"":5,""num_whilered"":0,""num_whileblue"":0,""num_blue"":3,""num_good_moves"":10}","[299.22232142857143,296.12857142857143,1.8,299.22232142857143,296.12857142857143,105,299.22232142857143,296.12857142857143,213.1,299.22232142857143,296.12857142857143,322.1,299.22232142857143,296.12857142857143,436.2,299.22232142857143,296.12857142857143,541.1,299.22232142857143,296.12857142857143,644.2,299.22232142857143,296.12857142857143,760.7,299.22232142857143,296.12857142857143,875.9,299.22232142857143,296.12857142857143,982.6,299.22232142857143,296.12857142857143,1084,299.22232142857143,296.12857142857143,1204.2,299.22232142857143,296.12857142857143,1324,299.22232142857143,296.12857142857143,1427.1,299.22232142857143,296.12857142857143,1528.1,351.22232142857143,317.12857142857143,1631.4,413.22232142857143,363.12857142857143,1745.1,428.22232142857143,393.12857142857143,1862.8,473.22232142857143,448.12857142857143,1981.1,502.22232142857143,504.12857142857143,2081.7,512.2223214285714,518.1285714285714,2190.7,527.2223214285714,528.1285714285714,2319.9,530.2223214285714,529.1285714285714,2433.7,531.2223214285714,529.1285714285714,2538.3,531.2223214285714,529.1285714285714,2659.4,531.2223214285714,529.1285714285714,2769.8,531.2223214285714,529.1285714285714,2886.3,531.2223214285714,529.1285714285714,2994.3,531.2223214285714,529.1285714285714,3112.9,531.2223214285714,529.1285714285714,3224,383.22232142857143,538.1285714285714,3341.7,346.22232142857143,543.1285714285714,3450.1,343.22232142857143,543.1285714285714,3550.7,341.22232142857143,543.1285714285714,3667.5,341.22232142857143,543.1285714285714,3777.9,341.22232142857143,543.1285714285714,3890.2,341.22232142857143,543.1285714285714,4009.3,341.22232142857143,543.1285714285714,4113.7,341.22232142857143,543.1285714285714,4222.3,341.22232142857143,543.1285714285714,4340.6,341.22232142857143,543.1285714285714,4445.4,341.22232142857143,543.1285714285714,4552.1,341.22232142857143,543.1285714285714,4654.6,341.22232142857143,543.1285714285714,4769.1,341.22232142857143,543.1285714285714,4879.6,341.22232142857143,543.1285714285714,4986.4]","[1461.8,1461.8,1000,0,461.8,""oops"",""down"",""left"",""bad_move"",5611.3,4145,2392.8,1466.4,1752.2,""oops"",""down"",""up"",""bad_move"",9848.8,4232.9,2464.8,5615.9,1768.1,""oops"",""right"",""left"",""bad_move"",14452.3,4601.5,2820,9850.8,1781.5,""smooth"",""up"",""up"",""bad_move"",18565.3,4110.3,2497.8,14455,1612.5,""oops"",""down"",""down"",""good_move"",22110.9,3544.1,2823.7,18566.8,720.4,""smooth"",""down"",""down"",""good_move"",25926.9,3814.2,3179.3,22112.7,634.9,""oops"",""down"",""up"",""bad_move"",33984.8,8056.3,3044.3,30428,512.6,""oops"",""right"",""left"",""bad_move"",38389,4402.3,2280.2,33986.8,2122,""smooth"",""down"",""down"",""good_move"",41804.2,3412,2638.1,38392.3,773.8,""oops"",""down"",""down"",""good_move"",52580.1,10774.1,3273.2,48782,525,""oops"",""down"",""down"",""good_move"",55957.7,3376.3,2498.9,52581.4,877.4,""oops"",""right"",""up"",""bad_move"",60117.7,4158.6,2315.6,55959.1,1843,""smooth"",""right"",""right"",""good_move"",63517.2,3396.5,2556.6,60120.8,839.9,""oops"",""right"",""down"",""good_move"",67135.6,3616.6,2951.4,63519,665.2,""oops"",""right"",""right"",""good_move"",70486.6,3349,2717.3,67137.6,631.7,""smooth"",""right"",""right"",""good_move"",73231.7,2743.4,2156,70488.4,587.3,""oops"",""right"",""left"",""bad_move"",77299.5,4066.6,1650,73232.9,2416.6,""smooth"",""right"",""right"",""good_move"",80678.4,3377.4,2905.1,77301,472.3,""oops"",""right"",""left"",""bad_move"",84663.5,3980.9,2422.8,80682.7,1558,""oops"",""right"",""up"",""bad_move""]","",""
"6988","","<div style=""width:500px;"">
  <p>What determined the result of this run?</p>
  </div>","87","html-slider-response","81","2342747","0.0-10.0-1.7","137","1","2025-07-02 10:20:37","80fe4187154257d5fb01684ea91b68b9","102.128.184.38","Mozilla/5.0 (Windows NT 10.0; Win64; x64) AppleWebKit/537.36 (KHTML, like Gecko) Chrome/138.0.0.0 Safari/537.36 Edg/138.0.0.0","WebKit","Edge","138.0.0.0","Windows","10.0","https://app.prolific.com/","en-US,en;q=0.9,en-ZA;q=0.8","66952367721687887540318f","683db6dfa200031b80f2a654","686507792cf4c1011f803df8","66952367721687887540318f","2025-07-02T11:00:10.889Z","","","","","","AttribQ","","","","","","","","","","","","","","","","","","","","","","","","","","","","","","","","","","","","","","50"
"4591","","<div style=""width:500px;"">
  <p>How much control did you have over the ball?</p>
  </div>","62","html-slider-response","82","2347344","0.0-10.0-2.7","137","1","2025-07-02 10:20:37","80fe4187154257d5fb01684ea91b68b9","102.128.184.38","Mozilla/5.0 (Windows NT 10.0; Win64; x64) AppleWebKit/537.36 (KHTML, like Gecko) Chrome/138.0.0.0 Safari/537.36 Edg/138.0.0.0","WebKit","Edge","138.0.0.0","Windows","10.0","https://app.prolific.com/","en-US,en;q=0.9,en-ZA;q=0.8","66952367721687887540318f","683db6dfa200031b80f2a654","686507792cf4c1011f803df8","66952367721687887540318f","2025-07-02T11:00:15.485Z","","","","","","ControlQ","","","","","","","","","","","","","","","","","","","","","","","","","","","","","","","","","","","","","","50"
"4604","","<div style=""width:500px;"">
  <p>How would you describe your current emotional state?</p>
  </div>","77","html-slider-response","83","2351954","0.0-10.0-3.7","137","1","2025-07-02 10:20:37","80fe4187154257d5fb01684ea91b68b9","102.128.184.38","Mozilla/5.0 (Windows NT 10.0; Win64; x64) AppleWebKit/537.36 (KHTML, like Gecko) Chrome/138.0.0.0 Safari/537.36 Edg/138.0.0.0","WebKit","Edge","138.0.0.0","Windows","10.0","https://app.prolific.com/","en-US,en;q=0.9,en-ZA;q=0.8","66952367721687887540318f","683db6dfa200031b80f2a654","686507792cf4c1011f803df8","66952367721687887540318f","2025-07-02T11:00:20.095Z","","","","","","StressQ","","","","","","","","","","","","","","","","","","","","","","","","","","","","","","","","","","","","","","50"
"8488","","<div style=""width:500px;"">
  <p>What best describes how you currently feel?</p>
  </div>","81","html-slider-response","84","2360448","0.0-10.0-4.7","137","1","2025-07-02 10:20:37","80fe4187154257d5fb01684ea91b68b9","102.128.184.38","Mozilla/5.0 (Windows NT 10.0; Win64; x64) AppleWebKit/537.36 (KHTML, like Gecko) Chrome/138.0.0.0 Safari/537.36 Edg/138.0.0.0","WebKit","Edge","138.0.0.0","Windows","10.0","https://app.prolific.com/","en-US,en;q=0.9,en-ZA;q=0.8","66952367721687887540318f","683db6dfa200031b80f2a654","686507792cf4c1011f803df8","66952367721687887540318f","2025-07-02T11:00:28.590Z","","","","","","MotivationQ","","","","","","","","","","","","","","","","","","","","","","","","","","","","","","","","","","","","","","50"
