"rt","response_timestamp","stimulus","response","trial_type","trial_index","time_elapsed","internal_node_id","run_id","condition","recorded_at","source_code_version","ip","user_agent","device","browser","browser_version","platform","platform_version","referer","accept_language","PROLIFIC_PID","STUDY_ID","SESSION_ID","prolific_id","realtime","view_history","question_order","consent","success","question_id","eventType","responses","item_order","radio_event_ids","radio_event_times","key_event_times","mouse_event_times","straightlining","zigzagging","honeypot","which_type","canvas_config","goals_layout","control_level","trial_number","tutorial_trial_number","trial_start_time","phase1_start_time","phase2_start_time","phase3_start_time","goal_1_value","goal_1_distance","goal_2_value","goal_2_distance","goal_selected","outcome","outcome_total","participant_final_score","participant_initial_score","participant_final_score_prop","goal_choice_rt","allocated_time","allocated_time_remaining","goal_direction","counts","mouse_movements","key_presses","correct","slider_start","sub_question"
"246014","1751461136142","<p style='font-size:40px;line-height:1.25'><strong>Welcome to the experiment!</strong></p><p style='font-size:1.1em;line-height:1.25'>Thank you for your interest in our experiment! Before you begin, it is important that we obtain your informed consent to participate in the study.</p><p style='font-size:1.1em;line-height:1.25'>On the next screen will be an <strong>information sheet</strong> for you to read. To participate in the study we need you to read this information sheet and the following consent form carefully. If you agree with all the statements, please click the <strong>I agree</strong> button.</p><p style='font-size:1.1em;line-height:1.25'>Press <strong>Next</strong> to read the information sheet.</p>","0","custom-html-button-response","0","246023","0.0-0.0","254","1","2025-07-02 12:54:30","80fe4187154257d5fb01684ea91b68b9","105.245.52.14","Mozilla/5.0 (Windows NT 10.0; Win64; x64) AppleWebKit/537.36 (KHTML, like Gecko) Chrome/138.0.0.0 Safari/537.36","WebKit","Chrome","138.0.0.0","Windows","10.0","https://app.prolific.com/","en-ZA,en-GB;q=0.9,en-US;q=0.8,en;q=0.7","6697c8b6d9d7baa7edd8c4d3","683db6dfa200031b80f2a654","686526544bdfec7b075bdd30","6697c8b6d9d7baa7edd8c4d3","2025-07-02T12:58:56.147Z","","","","","","","","","","","","","","","","","","","","","","","","","","","","","","","","","","","","","","","","","","","","",""
"20759","","","","instructions","1","266792","0.0-1.0","254","1","2025-07-02 12:54:30","80fe4187154257d5fb01684ea91b68b9","105.245.52.14","Mozilla/5.0 (Windows NT 10.0; Win64; x64) AppleWebKit/537.36 (KHTML, like Gecko) Chrome/138.0.0.0 Safari/537.36","WebKit","Chrome","138.0.0.0","Windows","10.0","https://app.prolific.com/","en-ZA,en-GB;q=0.9,en-US;q=0.8,en;q=0.7","6697c8b6d9d7baa7edd8c4d3","683db6dfa200031b80f2a654","686526544bdfec7b075bdd30","6697c8b6d9d7baa7edd8c4d3","","[{""page_index"":0,""viewing_time"":16093},{""page_index"":1,""viewing_time"":4666}]","","","","","","","","","","","","","","","","","","","","","","","","","","","","","","","","","","","","","","","","","","","",""
"8460","","","{""Q0"":"""",""Q1"":"""",""Q2"":"""",""Q3"":"""",""Q4"":"""",""Q5"":"""",""Q6"":""I agree""}","survey-multi-choice","2","275261","0.0-2.0","254","1","2025-07-02 12:54:30","80fe4187154257d5fb01684ea91b68b9","105.245.52.14","Mozilla/5.0 (Windows NT 10.0; Win64; x64) AppleWebKit/537.36 (KHTML, like Gecko) Chrome/138.0.0.0 Safari/537.36","WebKit","Chrome","138.0.0.0","Windows","10.0","https://app.prolific.com/","en-ZA,en-GB;q=0.9,en-US;q=0.8,en;q=0.7","6697c8b6d9d7baa7edd8c4d3","683db6dfa200031b80f2a654","686526544bdfec7b075bdd30","6697c8b6d9d7baa7edd8c4d3","","","[0,1,2,3,4,5,6]","true","","","","","","","","","","","","","","","","","","","","","","","","","","","","","","","","","","","","","","","","","",""
"1252868","","","","fullscreen","3","1529139","0.0-4.0","254","1","2025-07-02 12:54:30","80fe4187154257d5fb01684ea91b68b9","105.245.52.14","Mozilla/5.0 (Windows NT 10.0; Win64; x64) AppleWebKit/537.36 (KHTML, like Gecko) Chrome/138.0.0.0 Safari/537.36","WebKit","Chrome","138.0.0.0","Windows","10.0","https://app.prolific.com/","en-ZA,en-GB;q=0.9,en-US;q=0.8,en;q=0.7","6697c8b6d9d7baa7edd8c4d3","683db6dfa200031b80f2a654","686526544bdfec7b075bdd30","6697c8b6d9d7baa7edd8c4d3","","","","","true","","","","","","","","","","","","","","","","","","","","","","","","","","","","","","","","","","","","","","","","",""
"10712","1751462429976"," <p style='font-size:1.1em;line-height:1.25'>Thank you for completing the consent form and closing all other tabs.</p><p style='font-size:1.1em;line-height:1.25'>We will now invite you to fill in some demographic information and questionnaires, before starting the game.<br>This will take about 5 minutes.<br></p><p style='font-size:1.1em;line-height:1.25'>Press the <strong>Next</strong> button to continue.</p>","0","custom-html-button-response","4","1539854","0.0-5.0","254","1","2025-07-02 12:54:30","80fe4187154257d5fb01684ea91b68b9","105.245.52.14","Mozilla/5.0 (Windows NT 10.0; Win64; x64) AppleWebKit/537.36 (KHTML, like Gecko) Chrome/138.0.0.0 Safari/537.36","WebKit","Chrome","138.0.0.0","Windows","10.0","https://app.prolific.com/","en-ZA,en-GB;q=0.9,en-US;q=0.8,en;q=0.7","6697c8b6d9d7baa7edd8c4d3","683db6dfa200031b80f2a654","686526544bdfec7b075bdd30","6697c8b6d9d7baa7edd8c4d3","2025-07-02T13:20:29.977Z","","","","","","","","","","","","","","","","","","","","","","","","","","","","","","","","","","","","","","","","","","","","",""
"21250","","","{""age"":""29""}","survey-text","5","1561144","0.0-6.0-0.0","254","1","2025-07-02 12:54:30","80fe4187154257d5fb01684ea91b68b9","105.245.52.14","Mozilla/5.0 (Windows NT 10.0; Win64; x64) AppleWebKit/537.36 (KHTML, like Gecko) Chrome/138.0.0.0 Safari/537.36","WebKit","Chrome","138.0.0.0","Windows","10.0","https://app.prolific.com/","en-ZA,en-GB;q=0.9,en-US;q=0.8,en;q=0.7","6697c8b6d9d7baa7edd8c4d3","683db6dfa200031b80f2a654","686526544bdfec7b075bdd30","6697c8b6d9d7baa7edd8c4d3","","","","","","0","demographics","","","","","","","","","","","","","","","","","","","","","","","","","","","","","","","","","","","","","","",""
"4212","","","{""gender_identity"":""female/woman""}","survey-multi-choice","6","1565361","0.0-6.0-1.0","254","1","2025-07-02 12:54:30","80fe4187154257d5fb01684ea91b68b9","105.245.52.14","Mozilla/5.0 (Windows NT 10.0; Win64; x64) AppleWebKit/537.36 (KHTML, like Gecko) Chrome/138.0.0.0 Safari/537.36","WebKit","Chrome","138.0.0.0","Windows","10.0","https://app.prolific.com/","en-ZA,en-GB;q=0.9,en-US;q=0.8,en;q=0.7","6697c8b6d9d7baa7edd8c4d3","683db6dfa200031b80f2a654","686526544bdfec7b075bdd30","6697c8b6d9d7baa7edd8c4d3","","","[0]","","","1","demographics","","","","","","","","","","","","","","","","","","","","","","","","","","","","","","","","","","","","","","",""
"4819","","","{""assigned_sex"":""female""}","survey-multi-choice","7","1570185","0.0-6.0-2.0","254","1","2025-07-02 12:54:30","80fe4187154257d5fb01684ea91b68b9","105.245.52.14","Mozilla/5.0 (Windows NT 10.0; Win64; x64) AppleWebKit/537.36 (KHTML, like Gecko) Chrome/138.0.0.0 Safari/537.36","WebKit","Chrome","138.0.0.0","Windows","10.0","https://app.prolific.com/","en-ZA,en-GB;q=0.9,en-US;q=0.8,en;q=0.7","6697c8b6d9d7baa7edd8c4d3","683db6dfa200031b80f2a654","686526544bdfec7b075bdd30","6697c8b6d9d7baa7edd8c4d3","","","[0]","","","2","demographics","","","","","","","","","","","","","","","","","","","","","","","","","","","","","","","","","","","","","","",""
"13402","","","{""menstrual_cycle"":""Yes""}","survey-multi-choice","8","1583591","0.0-6.0-3.0","254","1","2025-07-02 12:54:30","80fe4187154257d5fb01684ea91b68b9","105.245.52.14","Mozilla/5.0 (Windows NT 10.0; Win64; x64) AppleWebKit/537.36 (KHTML, like Gecko) Chrome/138.0.0.0 Safari/537.36","WebKit","Chrome","138.0.0.0","Windows","10.0","https://app.prolific.com/","en-ZA,en-GB;q=0.9,en-US;q=0.8,en;q=0.7","6697c8b6d9d7baa7edd8c4d3","683db6dfa200031b80f2a654","686526544bdfec7b075bdd30","6697c8b6d9d7baa7edd8c4d3","","","[0]","","","4","demographics","","","","","","","","","","","","","","","","","","","","","","","","","","","","","","","","","","","","","","",""
"6452","","","{""education"":""Bachelor's Degree (e.g., BA)""}","survey-multi-choice","9","1590046","0.0-6.0-4.0","254","1","2025-07-02 12:54:30","80fe4187154257d5fb01684ea91b68b9","105.245.52.14","Mozilla/5.0 (Windows NT 10.0; Win64; x64) AppleWebKit/537.36 (KHTML, like Gecko) Chrome/138.0.0.0 Safari/537.36","WebKit","Chrome","138.0.0.0","Windows","10.0","https://app.prolific.com/","en-ZA,en-GB;q=0.9,en-US;q=0.8,en;q=0.7","6697c8b6d9d7baa7edd8c4d3","683db6dfa200031b80f2a654","686526544bdfec7b075bdd30","6697c8b6d9d7baa7edd8c4d3","","","[0]","","","5","demographics","","","","","","","","","","","","","","","","","","","","","","","","","","","","","","","","","","","","","","",""
"15964","","","{""education"":""Master's Degree (e.g., MSc)""}","survey-multi-choice","10","1606012","0.0-6.0-5.0","254","1","2025-07-02 12:54:30","80fe4187154257d5fb01684ea91b68b9","105.245.52.14","Mozilla/5.0 (Windows NT 10.0; Win64; x64) AppleWebKit/537.36 (KHTML, like Gecko) Chrome/138.0.0.0 Safari/537.36","WebKit","Chrome","138.0.0.0","Windows","10.0","https://app.prolific.com/","en-ZA,en-GB;q=0.9,en-US;q=0.8,en;q=0.7","6697c8b6d9d7baa7edd8c4d3","683db6dfa200031b80f2a654","686526544bdfec7b075bdd30","6697c8b6d9d7baa7edd8c4d3","2025-07-02T13:21:36.134Z","","[0]","","","6","demographics","","","","","","","","","","","","","","","","","","","","","","","","","","","","","","","","","","","","","","",""
"323329","","","{""mental_health_condition"":"""",""mental_health_treatment"":"""",""psychiatric_medication"":""""}","survey-text","11","1929347","0.0-7.0-0.0","254","1","2025-07-02 12:54:30","80fe4187154257d5fb01684ea91b68b9","105.245.52.14","Mozilla/5.0 (Windows NT 10.0; Win64; x64) AppleWebKit/537.36 (KHTML, like Gecko) Chrome/138.0.0.0 Safari/537.36","WebKit","Chrome","138.0.0.0","Windows","10.0","https://app.prolific.com/","en-ZA,en-GB;q=0.9,en-US;q=0.8,en;q=0.7","6697c8b6d9d7baa7edd8c4d3","683db6dfa200031b80f2a654","686526544bdfec7b075bdd30","6697c8b6d9d7baa7edd8c4d3","2025-07-02T13:26:59.470Z","","","","","1","mental_health","","","","","","","","","","","","","","","","","","","","","","","","","","","","","","","","","","","","","","",""
"12345","","","{""depression_history"":[""Yes""]}","survey-multi-select","12","1941703","0.0-7.0-1.0","254","1","2025-07-02 12:54:30","80fe4187154257d5fb01684ea91b68b9","105.245.52.14","Mozilla/5.0 (Windows NT 10.0; Win64; x64) AppleWebKit/537.36 (KHTML, like Gecko) Chrome/138.0.0.0 Safari/537.36","WebKit","Chrome","138.0.0.0","Windows","10.0","https://app.prolific.com/","en-ZA,en-GB;q=0.9,en-US;q=0.8,en;q=0.7","6697c8b6d9d7baa7edd8c4d3","683db6dfa200031b80f2a654","686526544bdfec7b075bdd30","6697c8b6d9d7baa7edd8c4d3","","","[0]","","","","mental_health","","","","","","","","","","","","","","","","","","","","","","","","","","","","","","","","","","","","","","",""
"13284","","","{""depression_episodes"":""1-2"",""depression_recent"":""More than 1 year ago""}","survey-multi-choice","13","1954993","0.0-7.0-2.0-0.0","254","1","2025-07-02 12:54:30","80fe4187154257d5fb01684ea91b68b9","105.245.52.14","Mozilla/5.0 (Windows NT 10.0; Win64; x64) AppleWebKit/537.36 (KHTML, like Gecko) Chrome/138.0.0.0 Safari/537.36","WebKit","Chrome","138.0.0.0","Windows","10.0","https://app.prolific.com/","en-ZA,en-GB;q=0.9,en-US;q=0.8,en;q=0.7","6697c8b6d9d7baa7edd8c4d3","683db6dfa200031b80f2a654","686526544bdfec7b075bdd30","6697c8b6d9d7baa7edd8c4d3","2025-07-02T13:27:25.115Z","","[0,1]","","","3","mental_health","","","","","","","","","","","","","","","","","","","","","","","","","","","","","","","","","","","","","","",""
"80783.60000000149","","","","survey-template","14","2035794","0.0-7.0-3.0","254","1","2025-07-02 12:54:30","80fe4187154257d5fb01684ea91b68b9","105.245.52.14","Mozilla/5.0 (Windows NT 10.0; Win64; x64) AppleWebKit/537.36 (KHTML, like Gecko) Chrome/138.0.0.0 Safari/537.36","WebKit","Chrome","138.0.0.0","Windows","10.0","https://app.prolific.com/","en-ZA,en-GB;q=0.9,en-US;q=0.8,en;q=0.7","6697c8b6d9d7baa7edd8c4d3","683db6dfa200031b80f2a654","686526544bdfec7b075bdd30","6697c8b6d9d7baa7edd8c4d3","2025-07-02T13:28:45.916Z","","","","","","ius","{""Q01"":""2"",""Q02"":""2"",""Q03"":""1"",""Q04"":""3"",""Q05"":""1"",""Q06"":""1"",""Q07"":""0"",""Q08"":""0"",""Q09"":""2"",""Q10"":""2"",""Q11"":""0"",""Q12"":""2"",""Q13"":""1""}","[0,1,2,3,4,5,6,7,8,9,10,11,12]","[""Q01"",""Q02"",""Q03"",""Q04"",""Q04"",""Q05"",""Q05"",""Q06"",""Q07"",""Q08"",""Q07"",""Q09"",""Q10"",""Q10"",""Q11"",""Q12"",""Q13""]","[9075.30000000447,11618.60000000149,16670.20000000298,19792.80000000447,21936.5,29567.5,37091.20000000298,41683.60000000149,50421.80000000447,52714.80000000447,55415,58201.90000000596,63341.90000000596,66501.60000000149,68825.5,74122.30000000447,79511.60000000149]","[]","[9075.30000000447,11618.60000000149,16670.20000000298,19792.80000000447,21936.5,29567.5,37091.20000000298,41683.60000000149,46342.10000000149,49294.70000000298,50421.80000000447,52714.80000000447,54133.40000000596,55415,58201.90000000596,62266.10000000149,63341.90000000596,66501.60000000149,68825.5,72133.80000000447,74122.30000000447,79511.60000000149,80781.40000000596]","0.38461538461538464","0.25","0","","","","","","","","","","","","","","","","","","","","","","","","","","","","","",""
"4186","1751462930104","<p style='font-size:1.1em;line-height:1.25'>In the following, we will ask you a few questions relating to your experiences over the past month.<br></p><p style='font-size:1.1em;line-height:1.25'>Press the <strong>Next</strong> button to continue.</p>","0","custom-html-button-response","15","2039983","0.0-7.0-4.0","254","1","2025-07-02 12:54:30","80fe4187154257d5fb01684ea91b68b9","105.245.52.14","Mozilla/5.0 (Windows NT 10.0; Win64; x64) AppleWebKit/537.36 (KHTML, like Gecko) Chrome/138.0.0.0 Safari/537.36","WebKit","Chrome","138.0.0.0","Windows","10.0","https://app.prolific.com/","en-ZA,en-GB;q=0.9,en-US;q=0.8,en;q=0.7","6697c8b6d9d7baa7edd8c4d3","683db6dfa200031b80f2a654","686526544bdfec7b075bdd30","6697c8b6d9d7baa7edd8c4d3","2025-07-02T13:28:50.105Z","","","","","","","","","","","","","","","","","","","","","","","","","","","","","","","","","","","","","","","","","","","","",""
"64294.20000000298","","","","survey-template","16","2104282","0.0-7.0-5.0","254","1","2025-07-02 12:54:30","80fe4187154257d5fb01684ea91b68b9","105.245.52.14","Mozilla/5.0 (Windows NT 10.0; Win64; x64) AppleWebKit/537.36 (KHTML, like Gecko) Chrome/138.0.0.0 Safari/537.36","WebKit","Chrome","138.0.0.0","Windows","10.0","https://app.prolific.com/","en-ZA,en-GB;q=0.9,en-US;q=0.8,en;q=0.7","6697c8b6d9d7baa7edd8c4d3","683db6dfa200031b80f2a654","686526544bdfec7b075bdd30","6697c8b6d9d7baa7edd8c4d3","2025-07-02T13:29:54.404Z","","","","","","pss","{""Q01"":""1"",""Q02"":""2"",""Q03"":""3"",""Q04"":""2"",""Q05"":""2"",""Q06"":""4"",""Q07"":""2"",""Q08"":""3"",""Q09"":""2"",""Q10"":""2""}","[0,1,2,3,4,5,6,7,8,9]","[""Q01"",""Q02"",""Q03"",""Q04"",""Q05"",""Q06"",""Q06"",""Q07"",""Q08"",""Q09"",""Q10""]","[12025.60000000149,16763.5,20247.20000000298,26180.80000000447,31433.80000000447,37947.10000000149,40787.40000000596,45144,50822.60000000149,56117.40000000596,62581.40000000596]","[]","[0.20000000298023224,12025.60000000149,16763.5,20247.20000000298,26180.80000000447,29951.70000000298,31433.80000000447,37947.10000000149,40787.40000000596,43976.10000000149,45144,50822.60000000149,54877.60000000149,56117.40000000596,62581.40000000596,64291.70000000298]","0.6","0.5555555555555556","0","","","","","","","","","","","","","","","","","","","","","","","","","","","","","",""
"3492","1751462997899","<p style='font-size:1.1em;line-height:1.25'>Thank you for your answers! Now we will ask you a few more questions relating to your feelings in the last 24 hours.<br></p><p style='font-size:1.1em;line-height:1.25'>Press the <strong>Next</strong> button to continue.</p>","0","custom-html-button-response","17","2107777","0.0-7.0-6.0","254","1","2025-07-02 12:54:30","80fe4187154257d5fb01684ea91b68b9","105.245.52.14","Mozilla/5.0 (Windows NT 10.0; Win64; x64) AppleWebKit/537.36 (KHTML, like Gecko) Chrome/138.0.0.0 Safari/537.36","WebKit","Chrome","138.0.0.0","Windows","10.0","https://app.prolific.com/","en-ZA,en-GB;q=0.9,en-US;q=0.8,en;q=0.7","6697c8b6d9d7baa7edd8c4d3","683db6dfa200031b80f2a654","686526544bdfec7b075bdd30","6697c8b6d9d7baa7edd8c4d3","2025-07-02T13:29:57.899Z","","","","","","","","","","","","","","","","","","","","","","","","","","","","","","","","","","","","","","","","","","","","",""
"108563.5","","","","survey-template","18","2216349","0.0-7.0-7.0","254","1","2025-07-02 12:54:30","80fe4187154257d5fb01684ea91b68b9","105.245.52.14","Mozilla/5.0 (Windows NT 10.0; Win64; x64) AppleWebKit/537.36 (KHTML, like Gecko) Chrome/138.0.0.0 Safari/537.36","WebKit","Chrome","138.0.0.0","Windows","10.0","https://app.prolific.com/","en-ZA,en-GB;q=0.9,en-US;q=0.8,en;q=0.7","6697c8b6d9d7baa7edd8c4d3","683db6dfa200031b80f2a654","686526544bdfec7b075bdd30","6697c8b6d9d7baa7edd8c4d3","2025-07-02T13:31:46.471Z","","","","","","drsp","{""Q01"":""0"",""Q02"":""2"",""Q03"":""0"",""Q04"":""2"",""Q05"":""1"",""Q06"":""0"",""Q07"":""3"",""Q08"":""0"",""Q09"":""2"",""Q10"":""3"",""Q11"":""3"",""Q12"":""0"",""Q13"":""2"",""Q14"":""3"",""Q15"":""3"",""Q16"":""4"",""Q17"":""0"",""Q18"":""1"",""Q19"":""0"",""Q20"":""0"",""Q21"":""0""}","[0,1,2,3,4,5,6,7,8,9,10,11,12,13,14,15,16,17,18,19,20]","[""Q01"",""Q02"",""Q03"",""Q04"",""Q05"",""Q06"",""Q07"",""Q08"",""Q07"",""Q09"",""Q10"",""Q11"",""Q12"",""Q13"",""Q14"",""Q15"",""Q16"",""Q17"",""Q18"",""Q18"",""Q19"",""Q20"",""Q21"",""Q20""]","[6371.19999999553,8573,10876.89999999851,14458,16700.60000000149,19351.5,27562,31152.10000000149,33713.19999999553,37179.79999999702,39635.79999999702,44417.5,46353.89999999851,51200.5,55167.79999999702,62603.29999999702,64339.89999999851,70643.89999999851,78899.29999999702,82449.69999999553,89086,94677.69999999553,99620.60000000149,102301.89999999851]","[]","[0.3999999985098839,5569,6371.19999999553,8573,10876.89999999851,14458,16700.60000000149,19351.5,27562,31152.10000000149,33713.19999999553,37179.79999999702,39635.79999999702,44417.5,46353.89999999851,51200.5,53771.10000000149,55167.79999999702,62603.29999999702,64339.89999999851,66889.89999999851,70643.89999999851,72670.5,78899.29999999702,81293.60000000149,82449.69999999553,89086,94677.69999999553,98580.10000000149,99620.60000000149,102301.89999999851,108555.60000000149]","0.42857142857142855","0.35","0","","","","","","","","","","","","","","","","","","","","","","","","","","","","","",""
"18367.10000000149","","","","survey-template","19","2234721","0.0-7.0-8.0","254","1","2025-07-02 12:54:30","80fe4187154257d5fb01684ea91b68b9","105.245.52.14","Mozilla/5.0 (Windows NT 10.0; Win64; x64) AppleWebKit/537.36 (KHTML, like Gecko) Chrome/138.0.0.0 Safari/537.36","WebKit","Chrome","138.0.0.0","Windows","10.0","https://app.prolific.com/","en-ZA,en-GB;q=0.9,en-US;q=0.8,en;q=0.7","6697c8b6d9d7baa7edd8c4d3","683db6dfa200031b80f2a654","686526544bdfec7b075bdd30","6697c8b6d9d7baa7edd8c4d3","2025-07-02T13:32:04.843Z","","","","","","stress","{""Q01"":""3"",""Q02"":""4"",""Q03"":""3""}","[0,1,2]","[""Q01"",""Q02"",""Q03""]","[8182.4000000059605,11094.5,17253.10000000149]","[]","[8182.4000000059605,11094.5,16098.5,17253.10000000149,18365.80000000447]","0.6666666666666666","0","0","","","","","","","","","","","","","","","","","","","","","","","","","","","","","",""
"280358","","","","instructions","20","2515083","0.0-8.0-0.0","254","1","2025-07-02 12:54:30","80fe4187154257d5fb01684ea91b68b9","105.245.52.14","Mozilla/5.0 (Windows NT 10.0; Win64; x64) AppleWebKit/537.36 (KHTML, like Gecko) Chrome/138.0.0.0 Safari/537.36","WebKit","Chrome","138.0.0.0","Windows","10.0","https://app.prolific.com/","en-ZA,en-GB;q=0.9,en-US;q=0.8,en;q=0.7","6697c8b6d9d7baa7edd8c4d3","683db6dfa200031b80f2a654","686526544bdfec7b075bdd30","6697c8b6d9d7baa7edd8c4d3","","[{""page_index"":0,""viewing_time"":29253},{""page_index"":1,""viewing_time"":41160},{""page_index"":2,""viewing_time"":154389},{""page_index"":3,""viewing_time"":55556}]","","","","","","","","","","","","","","","","","","","","","","","","","","","","","","","","","","","","","","","","","","","",""
"","","","","ctl-task-cpt","21","2539689","0.0-8.0-1.0","254","1","2025-07-02 12:54:30","80fe4187154257d5fb01684ea91b68b9","105.245.52.14","Mozilla/5.0 (Windows NT 10.0; Win64; x64) AppleWebKit/537.36 (KHTML, like Gecko) Chrome/138.0.0.0 Safari/537.36","WebKit","Chrome","138.0.0.0","Windows","10.0","https://app.prolific.com/","en-ZA,en-GB;q=0.9,en-US;q=0.8,en;q=0.7","6697c8b6d9d7baa7edd8c4d3","683db6dfa200031b80f2a654","686526544bdfec7b075bdd30","6697c8b6d9d7baa7edd8c4d3","","","","","","","","","","","","","","","","","win-only","0","g1:NW,g2:SE","1","0","1","2545994.3","3349.7","7357.2","21596.4","2","4","4","6","1","2","0","0","0","0","4007.4","4000","2340","[""left"",""up""]","{""num_key_presses"":6,""num_perfect"":4,""num_errors"":2,""num_randdir"":0,""num_randdir_good_moves"":0,""num_whilered"":0,""num_whileblue"":0,""num_blue"":0,""num_good_moves"":4}","[419.57142857142856,419.1808016640799,1,419.57142857142856,419.1808016640799,103.6,419.57142857142856,419.1808016640799,208.4,419.57142857142856,419.1808016640799,310.9,419.57142857142856,419.1808016640799,411.7,419.57142857142856,419.1808016640799,513.6,419.57142857142856,419.1808016640799,660.1,419.57142857142856,419.1808016640799,767.1,419.57142857142856,419.1808016640799,867.1,419.57142857142856,425.1808016640799,970.1,419.57142857142856,440.1808016640799,1070.8,433.07142857142856,458.1808016640799,1175.4,443.57142857142856,465.6808016640799,1275.8,443.57142857142856,465.6808016640799,1379.7,443.57142857142856,465.6808016640799,1485.7,443.57142857142856,465.6808016640799,1586.6,455.57142857142856,468.6808016640799,1690.1,502.07142857142856,483.6808016640799,1790.9,521.5714285714286,488.1808016640799,1891.8,536.5714285714286,494.1808016640799,1994.7,598.0714285714286,518.1808016640799,2099.3,608.5714285714286,522.6808016640799,2199.3,608.5714285714286,522.6808016640799,2301.6,608.5714285714286,522.6808016640799,2402.1,608.5714285714286,522.6808016640799,2512.7,608.5714285714286,522.6808016640799,2616.8,608.5714285714286,522.6808016640799,2716.9,608.5714285714286,522.6808016640799,2824.4,608.5714285714286,522.6808016640799,2926.1,608.5714285714286,522.6808016640799,3032.1,608.5714285714286,522.6808016640799,3132.2,608.5714285714286,522.6808016640799,3233.6,608.5714285714286,522.6808016640799,3334.3,608.5714285714286,522.6808016640799,3434.6,608.5714285714286,522.6808016640799,3544.4,608.5714285714286,522.6808016640799,3645.9,608.5714285714286,522.6808016640799,3749.6,608.5714285714286,522.6808016640799,3851.7,608.5714285714286,522.6808016640799,3951.9]","[1176.9,1176.9,1000,0,176.9,""smooth"",""left"",""left"",""good_move"",1619.1,441.2,2340.9,1178.1,-1899.9,""error"",""-"",""-"",""no_move"",5668,4048.2,2389,2624.1,654.9,""smooth"",""up"",""up"",""good_move"",6191.3,522.4,2954.1,5668.9,-2431.7,""error"",""-"",""-"",""no_move"",10593,4400.8,2848.8,7194.3,549.9,""smooth"",""up"",""up"",""good_move"",14104.3,3510.8,2606.3,10593.5,904.6,""smooth"",""left"",""left"",""good_move""]","","",""
"17040","","","","instructions","22","2556731","0.0-8.0-2.0","254","1","2025-07-02 12:54:30","80fe4187154257d5fb01684ea91b68b9","105.245.52.14","Mozilla/5.0 (Windows NT 10.0; Win64; x64) AppleWebKit/537.36 (KHTML, like Gecko) Chrome/138.0.0.0 Safari/537.36","WebKit","Chrome","138.0.0.0","Windows","10.0","https://app.prolific.com/","en-ZA,en-GB;q=0.9,en-US;q=0.8,en;q=0.7","6697c8b6d9d7baa7edd8c4d3","683db6dfa200031b80f2a654","686526544bdfec7b075bdd30","6697c8b6d9d7baa7edd8c4d3","","[{""page_index"":0,""viewing_time"":17040}]","","","","","","","","","","","","","","","","","","","","","","","","","","","","","","","","","","","","","","","","","","","",""
"","","","","ctl-task-cpt","23","2602143","0.0-8.0-3.0","254","1","2025-07-02 12:54:30","80fe4187154257d5fb01684ea91b68b9","105.245.52.14","Mozilla/5.0 (Windows NT 10.0; Win64; x64) AppleWebKit/537.36 (KHTML, like Gecko) Chrome/138.0.0.0 Safari/537.36","WebKit","Chrome","138.0.0.0","Windows","10.0","https://app.prolific.com/","en-ZA,en-GB;q=0.9,en-US;q=0.8,en;q=0.7","6697c8b6d9d7baa7edd8c4d3","683db6dfa200031b80f2a654","686526544bdfec7b075bdd30","6697c8b6d9d7baa7edd8c4d3","","","","","","","","","","","","","","","","","win-only","0","g1:NW,g2:SE","0.35","0","3","2587636.9","1956.6","5964.4","42403.4","2","4","8","6","2","-8","-8","0","0","0","1913.7","4000","-2275","[""down"",""right""]","{""num_key_presses"":11,""num_perfect"":5,""num_errors"":0,""num_randdir"":6,""num_randdir_good_moves"":3,""num_whilered"":0,""num_whileblue"":0,""num_blue"":1,""num_good_moves"":8}","[416.57142857142856,426.6808016640799,0.8,416.57142857142856,426.6808016640799,107.8,416.57142857142856,426.6808016640799,210.7,416.57142857142856,426.6808016640799,314.2,416.57142857142856,426.6808016640799,416.6,416.57142857142856,426.6808016640799,519.4,416.57142857142856,426.6808016640799,619.7,416.57142857142856,426.6808016640799,727.5,416.57142857142856,426.6808016640799,834.7,416.57142857142856,426.6808016640799,935.8,416.57142857142856,426.6808016640799,1037.3,728.5714285714286,701.1808016640799,1150.5,758.5714285714286,740.1808016640799,1258.9,772.0714285714286,759.6808016640799,1361.5,800.5714285714286,792.6808016640799,1465.6,800.5714285714286,788.1808016640799,1569.3,793.0714285714286,776.1808016640799,1673.6,788.5714285714286,773.1808016640799,1776.9,788.5714285714286,773.1808016640799,1882.9,788.5714285714286,773.1808016640799,1983.4,788.5714285714286,773.1808016640799,2083.6,788.5714285714286,773.1808016640799,2184.9,788.5714285714286,773.1808016640799,2295.2,788.5714285714286,773.1808016640799,2401.9,788.5714285714286,773.1808016640799,2502.6,773.5714285714286,746.1808016640799,2604.9,676.0714285714286,564.6808016640799,2704.9,662.5714285714286,527.1808016640799,2808.8,662.5714285714286,527.1808016640799,2920.2,662.5714285714286,527.1808016640799,3035.2,662.5714285714286,527.1808016640799,3150.1,662.5714285714286,527.1808016640799,3258.5,662.5714285714286,527.1808016640799,3359.7,662.5714285714286,527.1808016640799,3459.7,662.5714285714286,527.1808016640799,3560,662.5714285714286,527.1808016640799,3665.4,662.5714285714286,527.1808016640799,3769.5,662.5714285714286,527.1808016640799,3869.6,662.5714285714286,527.1808016640799,3974.4]","[1597.8,1597.8,1000,0,597.8,""smooth"",""right"",""right"",""good_move"",3701.5,2102.7,1684.4,1598.8,418.3,""oops"",""down"",""left"",""bad_move"",7293.6,3591.7,3085.3,3702,506.3,""oops"",""down"",""down"",""good_move"",11117,3822.3,3288.1,7294.7,534.2,""oops"",""down"",""down"",""good_move"",13873.3,2755.5,2176.8,11117.8,578.7,""smooth"",""right"",""right"",""good_move"",19768.7,5894.4,1949.6,17294.5,524.6,""oops"",""down"",""left"",""bad_move"",22212.7,2443.4,1799,19769.3,644.4,""oops"",""down"",""right"",""good_move"",25317.7,3104.5,2616.4,22213.2,488.1,""smooth"",""right"",""right"",""good_move"",28532.8,3214.7,2775.7,25318.1,439,""smooth"",""down"",""down"",""good_move"",31269.5,2736.2,2383.4,28533.3,352.8,""oops"",""right"",""up"",""bad_move"",34154.6,2884.3,2518.7,31270.3,365.6,""smooth"",""right"",""right"",""good_move""]","","",""
"34237","","","","instructions","24","2636381","0.0-8.0-4.0","254","1","2025-07-02 12:54:30","80fe4187154257d5fb01684ea91b68b9","105.245.52.14","Mozilla/5.0 (Windows NT 10.0; Win64; x64) AppleWebKit/537.36 (KHTML, like Gecko) Chrome/138.0.0.0 Safari/537.36","WebKit","Chrome","138.0.0.0","Windows","10.0","https://app.prolific.com/","en-ZA,en-GB;q=0.9,en-US;q=0.8,en;q=0.7","6697c8b6d9d7baa7edd8c4d3","683db6dfa200031b80f2a654","686526544bdfec7b075bdd30","6697c8b6d9d7baa7edd8c4d3","","[{""page_index"":0,""viewing_time"":2169},{""page_index"":1,""viewing_time"":32067}]","","","","","","","","","","","","","","","","","","","","","","","","","","","","","","","","","","","","","","","","","","","",""
"18663","","","{""green_ball"":[""Ball sometimes shakes and moves in a random direction""]}","survey-multi-select","25","2655048","0.0-8.0-5.0-0.0","254","1","2025-07-02 12:54:30","80fe4187154257d5fb01684ea91b68b9","105.245.52.14","Mozilla/5.0 (Windows NT 10.0; Win64; x64) AppleWebKit/537.36 (KHTML, like Gecko) Chrome/138.0.0.0 Safari/537.36","WebKit","Chrome","138.0.0.0","Windows","10.0","https://app.prolific.com/","en-ZA,en-GB;q=0.9,en-US;q=0.8,en;q=0.7","6697c8b6d9d7baa7edd8c4d3","683db6dfa200031b80f2a654","686526544bdfec7b075bdd30","6697c8b6d9d7baa7edd8c4d3","","","[0]","","","","quiz","","","","","","","","","","","","","","","","","","","","","","","","","","","","","","","","","","","","","true","",""
"3717","","<p align='center'><b>CORRECT!</b> Indeed, the green ball may sometimes shake and move in a random direction.</p>","0","html-button-response","26","2658770","0.0-8.0-5.0-1.0","254","1","2025-07-02 12:54:30","80fe4187154257d5fb01684ea91b68b9","105.245.52.14","Mozilla/5.0 (Windows NT 10.0; Win64; x64) AppleWebKit/537.36 (KHTML, like Gecko) Chrome/138.0.0.0 Safari/537.36","WebKit","Chrome","138.0.0.0","Windows","10.0","https://app.prolific.com/","en-ZA,en-GB;q=0.9,en-US;q=0.8,en;q=0.7","6697c8b6d9d7baa7edd8c4d3","683db6dfa200031b80f2a654","686526544bdfec7b075bdd30","6697c8b6d9d7baa7edd8c4d3","","","","","","","","","","","","","","","","","","","","","","","","","","","","","","","","","","","","","","","","","","","","","",""
"12834","","","{""yellow_ball"":[""Ball doesn‘t move and I get -1 penalty point""]}","survey-multi-select","27","2671613","0.0-8.0-6.0-0.0","254","1","2025-07-02 12:54:30","80fe4187154257d5fb01684ea91b68b9","105.245.52.14","Mozilla/5.0 (Windows NT 10.0; Win64; x64) AppleWebKit/537.36 (KHTML, like Gecko) Chrome/138.0.0.0 Safari/537.36","WebKit","Chrome","138.0.0.0","Windows","10.0","https://app.prolific.com/","en-ZA,en-GB;q=0.9,en-US;q=0.8,en;q=0.7","6697c8b6d9d7baa7edd8c4d3","683db6dfa200031b80f2a654","686526544bdfec7b075bdd30","6697c8b6d9d7baa7edd8c4d3","","","[0]","","","","quiz","","","","","","","","","","","","","","","","","","","","","","","","","","","","","","","","","","","","","true","",""
"1975","","<p align='center'><b>CORRECT!</b> Indeed, the yellow ball never moves and you receive a penalty.</p>","0","html-button-response","28","2673590","0.0-8.0-6.0-1.0","254","1","2025-07-02 12:54:30","80fe4187154257d5fb01684ea91b68b9","105.245.52.14","Mozilla/5.0 (Windows NT 10.0; Win64; x64) AppleWebKit/537.36 (KHTML, like Gecko) Chrome/138.0.0.0 Safari/537.36","WebKit","Chrome","138.0.0.0","Windows","10.0","https://app.prolific.com/","en-ZA,en-GB;q=0.9,en-US;q=0.8,en;q=0.7","6697c8b6d9d7baa7edd8c4d3","683db6dfa200031b80f2a654","686526544bdfec7b075bdd30","6697c8b6d9d7baa7edd8c4d3","","","","","","","","","","","","","","","","","","","","","","","","","","","","","","","","","","","","","","","","","","","","","",""
"7537","","","{""blue_ball"":[""Ball doesn‘t move and I get -1 penalty point""]}","survey-multi-select","29","2681131","0.0-8.0-7.0-0.0","254","1","2025-07-02 12:54:30","80fe4187154257d5fb01684ea91b68b9","105.245.52.14","Mozilla/5.0 (Windows NT 10.0; Win64; x64) AppleWebKit/537.36 (KHTML, like Gecko) Chrome/138.0.0.0 Safari/537.36","WebKit","Chrome","138.0.0.0","Windows","10.0","https://app.prolific.com/","en-ZA,en-GB;q=0.9,en-US;q=0.8,en;q=0.7","6697c8b6d9d7baa7edd8c4d3","683db6dfa200031b80f2a654","686526544bdfec7b075bdd30","6697c8b6d9d7baa7edd8c4d3","","","[0]","","","","quiz","","","","","","","","","","","","","","","","","","","","","","","","","","","","","","","","","","","","","false","",""
"2995","","<p align='center'><b>INCORRECT.</b> The blue ball always shakes and moves randomly.</p>","0","html-button-response","30","2684130","0.0-8.0-7.0-1.0","254","1","2025-07-02 12:54:30","80fe4187154257d5fb01684ea91b68b9","105.245.52.14","Mozilla/5.0 (Windows NT 10.0; Win64; x64) AppleWebKit/537.36 (KHTML, like Gecko) Chrome/138.0.0.0 Safari/537.36","WebKit","Chrome","138.0.0.0","Windows","10.0","https://app.prolific.com/","en-ZA,en-GB;q=0.9,en-US;q=0.8,en;q=0.7","6697c8b6d9d7baa7edd8c4d3","683db6dfa200031b80f2a654","686526544bdfec7b075bdd30","6697c8b6d9d7baa7edd8c4d3","","","","","","","","","","","","","","","","","","","","","","","","","","","","","","","","","","","","","","","","","","","","","",""
"6601","","","{""blue_ball"":[""Ball always shakes and moves in a random direction""]}","survey-multi-select","31","2690739","0.0-8.0-7.1-0.1","254","1","2025-07-02 12:54:30","80fe4187154257d5fb01684ea91b68b9","105.245.52.14","Mozilla/5.0 (Windows NT 10.0; Win64; x64) AppleWebKit/537.36 (KHTML, like Gecko) Chrome/138.0.0.0 Safari/537.36","WebKit","Chrome","138.0.0.0","Windows","10.0","https://app.prolific.com/","en-ZA,en-GB;q=0.9,en-US;q=0.8,en;q=0.7","6697c8b6d9d7baa7edd8c4d3","683db6dfa200031b80f2a654","686526544bdfec7b075bdd30","6697c8b6d9d7baa7edd8c4d3","","","[0]","","","","quiz","","","","","","","","","","","","","","","","","","","","","","","","","","","","","","","","","","","","","true","",""
"3800","","<p align='center'><b>CORRECT!</b> Indeed, the blue ball always shakes and moves in a random direction. Also there is a penalty of -1 point.</p>","0","html-button-response","32","2694541","0.0-8.0-7.1-1.1","254","1","2025-07-02 12:54:30","80fe4187154257d5fb01684ea91b68b9","105.245.52.14","Mozilla/5.0 (Windows NT 10.0; Win64; x64) AppleWebKit/537.36 (KHTML, like Gecko) Chrome/138.0.0.0 Safari/537.36","WebKit","Chrome","138.0.0.0","Windows","10.0","https://app.prolific.com/","en-ZA,en-GB;q=0.9,en-US;q=0.8,en;q=0.7","6697c8b6d9d7baa7edd8c4d3","683db6dfa200031b80f2a654","686526544bdfec7b075bdd30","6697c8b6d9d7baa7edd8c4d3","","","","","","","","","","","","","","","","","","","","","","","","","","","","","","","","","","","","","","","","","","","","","",""
"6107","","","{""bonus"":[""When I reach 50% of points""]}","survey-multi-select","33","2700652","0.0-8.0-8.0-0.0","254","1","2025-07-02 12:54:30","80fe4187154257d5fb01684ea91b68b9","105.245.52.14","Mozilla/5.0 (Windows NT 10.0; Win64; x64) AppleWebKit/537.36 (KHTML, like Gecko) Chrome/138.0.0.0 Safari/537.36","WebKit","Chrome","138.0.0.0","Windows","10.0","https://app.prolific.com/","en-ZA,en-GB;q=0.9,en-US;q=0.8,en;q=0.7","6697c8b6d9d7baa7edd8c4d3","683db6dfa200031b80f2a654","686526544bdfec7b075bdd30","6697c8b6d9d7baa7edd8c4d3","","","[0]","","","","quiz","","","","","","","","","","","","","","","","","","","","","","","","","","","","","","","","","","","","","true","",""
"2296","","<p align='center'><b>CORRECT!</b> Indeed, you receive 2 pounds extra when you reach 50% of points.</p>","0","html-button-response","34","2702954","0.0-8.0-8.0-1.0","254","1","2025-07-02 12:54:30","80fe4187154257d5fb01684ea91b68b9","105.245.52.14","Mozilla/5.0 (Windows NT 10.0; Win64; x64) AppleWebKit/537.36 (KHTML, like Gecko) Chrome/138.0.0.0 Safari/537.36","WebKit","Chrome","138.0.0.0","Windows","10.0","https://app.prolific.com/","en-ZA,en-GB;q=0.9,en-US;q=0.8,en;q=0.7","6697c8b6d9d7baa7edd8c4d3","683db6dfa200031b80f2a654","686526544bdfec7b075bdd30","6697c8b6d9d7baa7edd8c4d3","","","","","","","","","","","","","","","","","","","","","","","","","","","","","","","","","","","","","","","","","","","","","",""
"131169","","","","instructions","35","2834129","0.0-8.0-9.0","254","1","2025-07-02 12:54:30","80fe4187154257d5fb01684ea91b68b9","105.245.52.14","Mozilla/5.0 (Windows NT 10.0; Win64; x64) AppleWebKit/537.36 (KHTML, like Gecko) Chrome/138.0.0.0 Safari/537.36","WebKit","Chrome","138.0.0.0","Windows","10.0","https://app.prolific.com/","en-ZA,en-GB;q=0.9,en-US;q=0.8,en;q=0.7","6697c8b6d9d7baa7edd8c4d3","683db6dfa200031b80f2a654","686526544bdfec7b075bdd30","6697c8b6d9d7baa7edd8c4d3","","[{""page_index"":0,""viewing_time"":131168}]","","","","","","","","","","","","","","","","","","","","","","","","","","","","","","","","","","","","","","","","","","","",""
"24188","","<p>Before you start with this game please answer the following three questions yourself. </p>
  <p>Through this game, we measure several aspects of your cognitive performance, such as reaction times, multi-tasking capabilities </p>
  <p>and the ability to assess the situation you are in.</p>
  <p></p>
  <p><b>How good do you usually are in such tasks?</b></p>","53","html-slider-response","36","2858330","0.0-9.0-0.0","254","1","2025-07-02 12:54:30","80fe4187154257d5fb01684ea91b68b9","105.245.52.14","Mozilla/5.0 (Windows NT 10.0; Win64; x64) AppleWebKit/537.36 (KHTML, like Gecko) Chrome/138.0.0.0 Safari/537.36","WebKit","Chrome","138.0.0.0","Windows","10.0","https://app.prolific.com/","en-ZA,en-GB;q=0.9,en-US;q=0.8,en;q=0.7","6697c8b6d9d7baa7edd8c4d3","683db6dfa200031b80f2a654","686526544bdfec7b075bdd30","6697c8b6d9d7baa7edd8c4d3","2025-07-02T13:42:28.452Z","","","","","","PreSkillQ","","","","","","","","","","","","","","","","","","","","","","","","","","","","","","","","","","","","","","50",""
"7467","","<div style=""width:500px;"">
  <p>How well do you think you will perform in this task compared to other participants?</p>
  </div>","50","html-slider-response","37","2865803","0.0-9.0-1.0","254","1","2025-07-02 12:54:30","80fe4187154257d5fb01684ea91b68b9","105.245.52.14","Mozilla/5.0 (Windows NT 10.0; Win64; x64) AppleWebKit/537.36 (KHTML, like Gecko) Chrome/138.0.0.0 Safari/537.36","WebKit","Chrome","138.0.0.0","Windows","10.0","https://app.prolific.com/","en-ZA,en-GB;q=0.9,en-US;q=0.8,en;q=0.7","6697c8b6d9d7baa7edd8c4d3","683db6dfa200031b80f2a654","686526544bdfec7b075bdd30","6697c8b6d9d7baa7edd8c4d3","2025-07-02T13:42:35.925Z","","","","","","PrePerfQ","","","","","","","","","","","","","","","","","","","","","","","","","","","","","","","","","","","","","","50",""
"6080","","<div style=""width:500px;"">
  <p>What best describes how you currently feel?</p>
  </div>","46","html-slider-response","38","2871889","0.0-9.0-2.0","254","1","2025-07-02 12:54:30","80fe4187154257d5fb01684ea91b68b9","105.245.52.14","Mozilla/5.0 (Windows NT 10.0; Win64; x64) AppleWebKit/537.36 (KHTML, like Gecko) Chrome/138.0.0.0 Safari/537.36","WebKit","Chrome","138.0.0.0","Windows","10.0","https://app.prolific.com/","en-ZA,en-GB;q=0.9,en-US;q=0.8,en;q=0.7","6697c8b6d9d7baa7edd8c4d3","683db6dfa200031b80f2a654","686526544bdfec7b075bdd30","6697c8b6d9d7baa7edd8c4d3","2025-07-02T13:42:42.012Z","","","","","","PreMotivationQ","","","","","","","","","","","","","","","","","","","","","","","","","","","","","","","","","","","","","","50",""
"","","","","ctl-task-cpt","39","2896870","0.0-10.0-0.0","254","1","2025-07-02 12:54:30","80fe4187154257d5fb01684ea91b68b9","105.245.52.14","Mozilla/5.0 (Windows NT 10.0; Win64; x64) AppleWebKit/537.36 (KHTML, like Gecko) Chrome/138.0.0.0 Safari/537.36","WebKit","Chrome","138.0.0.0","Windows","10.0","https://app.prolific.com/","en-ZA,en-GB;q=0.9,en-US;q=0.8,en;q=0.7","6697c8b6d9d7baa7edd8c4d3","683db6dfa200031b80f2a654","686526544bdfec7b075bdd30","6697c8b6d9d7baa7edd8c4d3","2025-07-02T13:43:06.993Z","","","","","","","","","","","","","","","","win-only","2","g1:SE,g2:NW","1","1","0","2902807.3","3003.4","8011.6","21953.4","1","4","8","6","1","1","1","1","0","0.007575757575757576","2736.2","3000","1620","[""down"",""right""]","{""num_key_presses"":4,""num_perfect"":4,""num_errors"":0,""num_randdir"":0,""num_randdir_good_moves"":0,""num_whilered"":0,""num_whileblue"":0,""num_blue"":1,""num_good_moves"":4}","[422.57142857142856,405.6808016640799,1,422.57142857142856,405.6808016640799,104.8,422.57142857142856,405.6808016640799,216.2,422.57142857142856,405.6808016640799,320.9,422.57142857142856,405.6808016640799,429.6,422.57142857142856,405.6808016640799,529.9,422.57142857142856,405.6808016640799,635.6,458.57142857142856,440.1808016640799,745,520.0714285714286,500.1808016640799,858.8,524.5714285714286,506.1808016640799,961.4,520.0714285714286,494.1808016640799,1067.5,656.5714285714286,572.1808016640799,1176,683.5714285714286,606.6808016640799,1276.2,686.5714285714286,618.6808016640799,1377.3,616.0714285714286,563.1808016640799,1479.6,524.5714285714286,446.1808016640799,1590.1,514.0714285714286,435.6808016640799,1692.8,514.0714285714286,435.6808016640799,1794.5,605.5714285714286,563.1808016640799,1901,682.0714285714286,656.1808016640799,2012.2,683.5714285714286,663.6808016640799,2113.6,683.5714285714286,663.6808016640799,2216.9,683.5714285714286,663.6808016640799,2319.2,719.5714285714286,701.1808016640799,2434.1,731.5714285714286,714.6808016640799,2535.6,731.5714285714286,714.6808016640799,2649.4,731.5714285714286,714.6808016640799,2759.9,731.5714285714286,714.6808016640799,2861.2,731.5714285714286,714.6808016640799,2965.9,731.5714285714286,714.6808016640799,3072,731.5714285714286,714.6808016640799,3183.5,731.5714285714286,714.6808016640799,3285,731.5714285714286,714.6808016640799,3393.2,731.5714285714286,714.6808016640799,3493.4,731.5714285714286,714.6808016640799,3596.1,680.5714285714286,659.1808016640799,3705.2,623.5714285714286,584.1808016640799,3805.8,620.5714285714286,581.1808016640799,3909.2,620.5714285714286,581.1808016640799,4010.1,620.5714285714286,581.1808016640799,4113.7,620.5714285714286,581.1808016640799,4219.9,620.5714285714286,581.1808016640799,4325.7,620.5714285714286,581.1808016640799,4427.8,620.5714285714286,581.1808016640799,4533.5,620.5714285714286,581.1808016640799,4637.3,620.5714285714286,581.1808016640799,4740.9,620.5714285714286,581.1808016640799,4843.7,620.5714285714286,581.1808016640799,4944.5]","[5793.5,5793.6,3162.1,2000.9,630.6,""smooth"",""down"",""down"",""good_move"",8663.5,2868.1,2308.9,5795.4,559.2,""smooth"",""right"",""right"",""good_move"",11047.5,2382.8,1990,8664.9,392.7,""smooth"",""down"",""down"",""good_move"",13798.5,2749.8,2337.8,11048.8,412,""smooth"",""right"",""right"",""good_move""]","","",""
"9238","","<div style=""width:500px;"">
  <p>What determined the result of this run?</p>
  </div>","100","html-slider-response","40","2906113","0.0-10.0-1.0","254","1","2025-07-02 12:54:30","80fe4187154257d5fb01684ea91b68b9","105.245.52.14","Mozilla/5.0 (Windows NT 10.0; Win64; x64) AppleWebKit/537.36 (KHTML, like Gecko) Chrome/138.0.0.0 Safari/537.36","WebKit","Chrome","138.0.0.0","Windows","10.0","https://app.prolific.com/","en-ZA,en-GB;q=0.9,en-US;q=0.8,en;q=0.7","6697c8b6d9d7baa7edd8c4d3","683db6dfa200031b80f2a654","686526544bdfec7b075bdd30","6697c8b6d9d7baa7edd8c4d3","2025-07-02T13:43:16.235Z","","","","","","AttribQ","","","","","","","","","","","","","","","","","","","","","","","","","","","","","","","","","","","","","","50",""
"4408","","<div style=""width:500px;"">
  <p>How much control did you have over the ball?</p>
  </div>","100","html-slider-response","41","2910526","0.0-10.0-2.0","254","1","2025-07-02 12:54:30","80fe4187154257d5fb01684ea91b68b9","105.245.52.14","Mozilla/5.0 (Windows NT 10.0; Win64; x64) AppleWebKit/537.36 (KHTML, like Gecko) Chrome/138.0.0.0 Safari/537.36","WebKit","Chrome","138.0.0.0","Windows","10.0","https://app.prolific.com/","en-ZA,en-GB;q=0.9,en-US;q=0.8,en;q=0.7","6697c8b6d9d7baa7edd8c4d3","683db6dfa200031b80f2a654","686526544bdfec7b075bdd30","6697c8b6d9d7baa7edd8c4d3","2025-07-02T13:43:20.648Z","","","","","","ControlQ","","","","","","","","","","","","","","","","","","","","","","","","","","","","","","","","","","","","","","50",""
"5007","","<div style=""width:500px;"">
  <p>How would you describe your current emotional state?</p>
  </div>","46","html-slider-response","42","2915537","0.0-10.0-3.0","254","1","2025-07-02 12:54:30","80fe4187154257d5fb01684ea91b68b9","105.245.52.14","Mozilla/5.0 (Windows NT 10.0; Win64; x64) AppleWebKit/537.36 (KHTML, like Gecko) Chrome/138.0.0.0 Safari/537.36","WebKit","Chrome","138.0.0.0","Windows","10.0","https://app.prolific.com/","en-ZA,en-GB;q=0.9,en-US;q=0.8,en;q=0.7","6697c8b6d9d7baa7edd8c4d3","683db6dfa200031b80f2a654","686526544bdfec7b075bdd30","6697c8b6d9d7baa7edd8c4d3","2025-07-02T13:43:25.659Z","","","","","","StressQ","","","","","","","","","","","","","","","","","","","","","","","","","","","","","","","","","","","","","","50",""
"6216","","<div style=""width:500px;"">
  <p>What best describes how you currently feel?</p>
  </div>","57","html-slider-response","43","2921757","0.0-10.0-4.0","254","1","2025-07-02 12:54:30","80fe4187154257d5fb01684ea91b68b9","105.245.52.14","Mozilla/5.0 (Windows NT 10.0; Win64; x64) AppleWebKit/537.36 (KHTML, like Gecko) Chrome/138.0.0.0 Safari/537.36","WebKit","Chrome","138.0.0.0","Windows","10.0","https://app.prolific.com/","en-ZA,en-GB;q=0.9,en-US;q=0.8,en;q=0.7","6697c8b6d9d7baa7edd8c4d3","683db6dfa200031b80f2a654","686526544bdfec7b075bdd30","6697c8b6d9d7baa7edd8c4d3","2025-07-02T13:43:31.879Z","","","","","","MotivationQ","","","","","","","","","","","","","","","","","","","","","","","","","","","","","","","","","","","","","","50",""
"","","","","ctl-task-cpt","44","2955308","0.0-10.0-0.1","254","1","2025-07-02 12:54:30","80fe4187154257d5fb01684ea91b68b9","105.245.52.14","Mozilla/5.0 (Windows NT 10.0; Win64; x64) AppleWebKit/537.36 (KHTML, like Gecko) Chrome/138.0.0.0 Safari/537.36","WebKit","Chrome","138.0.0.0","Windows","10.0","https://app.prolific.com/","en-ZA,en-GB;q=0.9,en-US;q=0.8,en;q=0.7","6697c8b6d9d7baa7edd8c4d3","683db6dfa200031b80f2a654","686526544bdfec7b075bdd30","6697c8b6d9d7baa7edd8c4d3","2025-07-02T13:44:05.431Z","","","","","","","","","","","","","","","","win-only","1","g1:NE,g2:SW","0.9","2","0","2952671.3","3561","8561.9","30521.4","1","4","4","6","2","4","4","5","1","0.03787878787878788","1698.8","3000","1105","[""down"",""left""]","{""num_key_presses"":6,""num_perfect"":6,""num_errors"":0,""num_randdir"":0,""num_randdir_good_moves"":0,""num_whilered"":0,""num_whileblue"":0,""num_blue"":2,""num_good_moves"":6}","[413.57142857142856,404.1808016640799,0.7,413.57142857142856,404.1808016640799,102.5,413.57142857142856,404.1808016640799,223,413.57142857142856,404.1808016640799,325.7,413.57142857142856,404.1808016640799,431,413.57142857142856,404.1808016640799,537.8,413.57142857142856,404.1808016640799,645.4,413.57142857142856,404.1808016640799,746.9,257.57142857142856,587.1808016640799,847.8,143.57142857142856,758.1808016640799,950.2,119.57142857142857,780.6808016640799,1059.6,104.57142857142857,788.1808016640799,1168,92.57142857142857,800.1808016640799,1270.6,77.57142857142857,801.6808016640799,1370.7,77.57142857142857,801.6808016640799,1481.7,77.57142857142857,801.6808016640799,1591,77.57142857142857,801.6808016640799,1693.6,77.57142857142857,801.6808016640799,1797.4,77.57142857142857,801.6808016640799,1912.2,77.57142857142857,801.6808016640799,2013.2,77.57142857142857,801.6808016640799,2115,77.57142857142857,801.6808016640799,2223.1,77.57142857142857,801.6808016640799,2327.9,77.57142857142857,801.6808016640799,2435.5,77.57142857142857,797.1808016640799,2551.2,19.07142857142857,714.6808016640799,2655,-103.92857142857143,690.6808016640799,2757.5,-156.42857142857144,708.6808016640799,2869.7,-156.42857142857144,708.6808016640799,2971.8,-156.42857142857144,708.6808016640799,3074.8,-156.42857142857144,708.6808016640799,3178.5,-156.42857142857144,708.6808016640799,3282.7,-156.42857142857144,708.6808016640799,3386.4,-156.42857142857144,708.6808016640799,3490.7,-156.42857142857144,708.6808016640799,3594.4,-156.42857142857144,708.6808016640799,3694.8,-156.42857142857144,708.6808016640799,3794.8,-156.42857142857144,708.6808016640799,3895.2,-156.42857142857144,708.6808016640799,3996.4,-156.42857142857144,708.6808016640799,4107.6,-156.42857142857144,708.6808016640799,4210.8,-156.42857142857144,708.6808016640799,4311.6,-156.42857142857144,708.6808016640799,4413.2,-156.42857142857144,708.6808016640799,4516.1,-156.42857142857144,708.6808016640799,4622.4,-156.42857142857144,708.6808016640799,4726.2,-156.42857142857144,708.6808016640799,4838.2,-156.42857142857144,708.6808016640799,4943.2]","[1746.1,1746.1,1000,0,746.1,""smooth"",""down"",""down"",""good_move"",7532.6,5785.4,2027.1,5074.7,430.8,""smooth"",""down"",""down"",""good_move"",10291.8,2758.8,2313.3,7533,445.5,""smooth"",""left"",""left"",""good_move"",12910.5,2617.8,2261.2,10292.7,356.6,""smooth"",""left"",""left"",""good_move"",15352,2440.9,2083.8,12911.1,357.1,""smooth"",""left"",""left"",""good_move"",21842.3,6490,2615.8,18690,536.5,""smooth"",""down"",""down"",""good_move""]","","",""
"5767","","<div style=""width:500px;"">
  <p>What determined the result of this run?</p>
  </div>","100","html-slider-response","45","2961078","0.0-10.0-1.1","254","1","2025-07-02 12:54:30","80fe4187154257d5fb01684ea91b68b9","105.245.52.14","Mozilla/5.0 (Windows NT 10.0; Win64; x64) AppleWebKit/537.36 (KHTML, like Gecko) Chrome/138.0.0.0 Safari/537.36","WebKit","Chrome","138.0.0.0","Windows","10.0","https://app.prolific.com/","en-ZA,en-GB;q=0.9,en-US;q=0.8,en;q=0.7","6697c8b6d9d7baa7edd8c4d3","683db6dfa200031b80f2a654","686526544bdfec7b075bdd30","6697c8b6d9d7baa7edd8c4d3","2025-07-02T13:44:11.200Z","","","","","","AttribQ","","","","","","","","","","","","","","","","","","","","","","","","","","","","","","","","","","","","","","50",""
"4562","","<div style=""width:500px;"">
  <p>How much control did you have over the ball?</p>
  </div>","100","html-slider-response","46","2965645","0.0-10.0-2.1","254","1","2025-07-02 12:54:30","80fe4187154257d5fb01684ea91b68b9","105.245.52.14","Mozilla/5.0 (Windows NT 10.0; Win64; x64) AppleWebKit/537.36 (KHTML, like Gecko) Chrome/138.0.0.0 Safari/537.36","WebKit","Chrome","138.0.0.0","Windows","10.0","https://app.prolific.com/","en-ZA,en-GB;q=0.9,en-US;q=0.8,en;q=0.7","6697c8b6d9d7baa7edd8c4d3","683db6dfa200031b80f2a654","686526544bdfec7b075bdd30","6697c8b6d9d7baa7edd8c4d3","2025-07-02T13:44:15.767Z","","","","","","ControlQ","","","","","","","","","","","","","","","","","","","","","","","","","","","","","","","","","","","","","","50",""
"5958","","<div style=""width:500px;"">
  <p>How would you describe your current emotional state?</p>
  </div>","41","html-slider-response","47","2971606","0.0-10.0-3.1","254","1","2025-07-02 12:54:30","80fe4187154257d5fb01684ea91b68b9","105.245.52.14","Mozilla/5.0 (Windows NT 10.0; Win64; x64) AppleWebKit/537.36 (KHTML, like Gecko) Chrome/138.0.0.0 Safari/537.36","WebKit","Chrome","138.0.0.0","Windows","10.0","https://app.prolific.com/","en-ZA,en-GB;q=0.9,en-US;q=0.8,en;q=0.7","6697c8b6d9d7baa7edd8c4d3","683db6dfa200031b80f2a654","686526544bdfec7b075bdd30","6697c8b6d9d7baa7edd8c4d3","2025-07-02T13:44:21.728Z","","","","","","StressQ","","","","","","","","","","","","","","","","","","","","","","","","","","","","","","","","","","","","","","50",""
"5546","","<div style=""width:500px;"">
  <p>What best describes how you currently feel?</p>
  </div>","64","html-slider-response","48","2977156","0.0-10.0-4.1","254","1","2025-07-02 12:54:30","80fe4187154257d5fb01684ea91b68b9","105.245.52.14","Mozilla/5.0 (Windows NT 10.0; Win64; x64) AppleWebKit/537.36 (KHTML, like Gecko) Chrome/138.0.0.0 Safari/537.36","WebKit","Chrome","138.0.0.0","Windows","10.0","https://app.prolific.com/","en-ZA,en-GB;q=0.9,en-US;q=0.8,en;q=0.7","6697c8b6d9d7baa7edd8c4d3","683db6dfa200031b80f2a654","686526544bdfec7b075bdd30","6697c8b6d9d7baa7edd8c4d3","2025-07-02T13:44:27.278Z","","","","","","MotivationQ","","","","","","","","","","","","","","","","","","","","","","","","","","","","","","","","","","","","","","50",""
"","","","","ctl-task-cpt","49","3007344","0.0-10.0-0.2","254","1","2025-07-02 12:54:30","80fe4187154257d5fb01684ea91b68b9","105.245.52.14","Mozilla/5.0 (Windows NT 10.0; Win64; x64) AppleWebKit/537.36 (KHTML, like Gecko) Chrome/138.0.0.0 Safari/537.36","WebKit","Chrome","138.0.0.0","Windows","10.0","https://app.prolific.com/","en-ZA,en-GB;q=0.9,en-US;q=0.8,en;q=0.7","6697c8b6d9d7baa7edd8c4d3","683db6dfa200031b80f2a654","686526544bdfec7b075bdd30","6697c8b6d9d7baa7edd8c4d3","2025-07-02T13:44:57.467Z","","","","","","","","","","","","","","","","win-only","2","g1:SE,g2:NW","0.8","3","0","3008066.9","5477.9","10484.1","27165.8","1","4","4","6","1","1","1","6","5","0.045454545454545456","2478","3000","1380","[""down"",""right""]","{""num_key_presses"":6,""num_perfect"":5,""num_errors"":0,""num_randdir"":1,""num_randdir_good_moves"":0,""num_whilered"":0,""num_whileblue"":0,""num_blue"":0,""num_good_moves"":5}","[413.57142857142856,407.1808016640799,0.7,413.57142857142856,407.1808016640799,117.9,413.57142857142856,407.1808016640799,222.2,413.57142857142856,407.1808016640799,322.8,413.57142857142856,407.1808016640799,428.9,413.57142857142856,407.1808016640799,540.6,413.57142857142856,407.1808016640799,658.2,413.57142857142856,407.1808016640799,759,413.57142857142856,407.1808016640799,864.6,413.57142857142856,407.1808016640799,965.9,413.57142857142856,407.1808016640799,1071.6,434.57142857142856,431.1808016640799,1182.8,467.57142857142856,467.1808016640799,1293.9,475.07142857142856,476.1808016640799,1399.5,476.57142857142856,477.6808016640799,1502.7,476.57142857142856,477.6808016640799,1604.8,476.57142857142856,477.6808016640799,1706.5,550.0714285714286,546.6808016640799,1808.7,614.5714285714286,623.1808016640799,1911.2,686.5714285714286,666.6808016640799,2013.3,742.0714285714286,714.6808016640799,2113.6,761.5714285714286,731.1808016640799,2220.4,761.5714285714286,731.1808016640799,2328.1,761.5714285714286,731.1808016640799,2432.3,761.5714285714286,731.1808016640799,2535.6,761.5714285714286,731.1808016640799,2636.8,761.5714285714286,731.1808016640799,2758,761.5714285714286,731.1808016640799,2877.5,761.5714285714286,731.1808016640799,2980.3,761.5714285714286,731.1808016640799,3083.6,707.5714285714286,728.1808016640799,3186.4,644.5714285714286,726.6808016640799,3292,616.0714285714286,728.1808016640799,3396.2,602.5714285714286,737.1808016640799,3500.1,602.5714285714286,737.1808016640799,3601.7,602.5714285714286,737.1808016640799,3711.6,602.5714285714286,737.1808016640799,3814.3,602.5714285714286,737.1808016640799,3917.3,602.5714285714286,737.1808016640799,4018.9,602.5714285714286,737.1808016640799,4119,602.5714285714286,737.1808016640799,4219.5,602.5714285714286,737.1808016640799,4320.9,602.5714285714286,737.1808016640799,4426.3,602.5714285714286,737.1808016640799,4528.8,602.5714285714286,737.1808016640799,4635.1,602.5714285714286,737.1808016640799,4735.4,602.5714285714286,737.1808016640799,4841.2,602.5714285714286,737.1808016640799,4953.4]","[1615.7,1615.7,1000,0,615.7,""smooth"",""down"",""down"",""good_move"",4137.1,2520.7,2078.3,1616.4,442.4,""smooth"",""down"",""down"",""good_move"",7110.6,2973.2,2589.7,4137.5,383.4,""smooth"",""right"",""right"",""good_move"",9982.2,2870.2,2493.1,7112,377.1,""oops"",""right"",""left"",""bad_move"",13021.7,3038.4,2624.9,9983.4,413.5,""smooth"",""right"",""right"",""good_move"",16543,3520.4,3170.5,13022.6,349.9,""smooth"",""right"",""right"",""good_move""]","","",""
"7238","","<div style=""width:500px;"">
  <p>What determined the result of this run?</p>
  </div>","100","html-slider-response","50","3014586","0.0-10.0-1.2","254","1","2025-07-02 12:54:30","80fe4187154257d5fb01684ea91b68b9","105.245.52.14","Mozilla/5.0 (Windows NT 10.0; Win64; x64) AppleWebKit/537.36 (KHTML, like Gecko) Chrome/138.0.0.0 Safari/537.36","WebKit","Chrome","138.0.0.0","Windows","10.0","https://app.prolific.com/","en-ZA,en-GB;q=0.9,en-US;q=0.8,en;q=0.7","6697c8b6d9d7baa7edd8c4d3","683db6dfa200031b80f2a654","686526544bdfec7b075bdd30","6697c8b6d9d7baa7edd8c4d3","2025-07-02T13:45:04.708Z","","","","","","AttribQ","","","","","","","","","","","","","","","","","","","","","","","","","","","","","","","","","","","","","","50",""
"11058","","<div style=""width:500px;"">
  <p>How much control did you have over the ball?</p>
  </div>","49","html-slider-response","51","3025648","0.0-10.0-2.2","254","1","2025-07-02 12:54:30","80fe4187154257d5fb01684ea91b68b9","105.245.52.14","Mozilla/5.0 (Windows NT 10.0; Win64; x64) AppleWebKit/537.36 (KHTML, like Gecko) Chrome/138.0.0.0 Safari/537.36","WebKit","Chrome","138.0.0.0","Windows","10.0","https://app.prolific.com/","en-ZA,en-GB;q=0.9,en-US;q=0.8,en;q=0.7","6697c8b6d9d7baa7edd8c4d3","683db6dfa200031b80f2a654","686526544bdfec7b075bdd30","6697c8b6d9d7baa7edd8c4d3","2025-07-02T13:45:15.771Z","","","","","","ControlQ","","","","","","","","","","","","","","","","","","","","","","","","","","","","","","","","","","","","","","50",""
"8189","","<div style=""width:500px;"">
  <p>How would you describe your current emotional state?</p>
  </div>","48","html-slider-response","52","3033843","0.0-10.0-3.2","254","1","2025-07-02 12:54:30","80fe4187154257d5fb01684ea91b68b9","105.245.52.14","Mozilla/5.0 (Windows NT 10.0; Win64; x64) AppleWebKit/537.36 (KHTML, like Gecko) Chrome/138.0.0.0 Safari/537.36","WebKit","Chrome","138.0.0.0","Windows","10.0","https://app.prolific.com/","en-ZA,en-GB;q=0.9,en-US;q=0.8,en;q=0.7","6697c8b6d9d7baa7edd8c4d3","683db6dfa200031b80f2a654","686526544bdfec7b075bdd30","6697c8b6d9d7baa7edd8c4d3","2025-07-02T13:45:23.965Z","","","","","","StressQ","","","","","","","","","","","","","","","","","","","","","","","","","","","","","","","","","","","","","","50",""
"4468","","<div style=""width:500px;"">
  <p>What best describes how you currently feel?</p>
  </div>","57","html-slider-response","53","3038316","0.0-10.0-4.2","254","1","2025-07-02 12:54:30","80fe4187154257d5fb01684ea91b68b9","105.245.52.14","Mozilla/5.0 (Windows NT 10.0; Win64; x64) AppleWebKit/537.36 (KHTML, like Gecko) Chrome/138.0.0.0 Safari/537.36","WebKit","Chrome","138.0.0.0","Windows","10.0","https://app.prolific.com/","en-ZA,en-GB;q=0.9,en-US;q=0.8,en;q=0.7","6697c8b6d9d7baa7edd8c4d3","683db6dfa200031b80f2a654","686526544bdfec7b075bdd30","6697c8b6d9d7baa7edd8c4d3","2025-07-02T13:45:28.438Z","","","","","","MotivationQ","","","","","","","","","","","","","","","","","","","","","","","","","","","","","","","","","","","","","","50",""
"","","","","ctl-task-cpt","54","3088633","0.0-10.0-0.3","254","1","2025-07-02 12:54:30","80fe4187154257d5fb01684ea91b68b9","105.245.52.14","Mozilla/5.0 (Windows NT 10.0; Win64; x64) AppleWebKit/537.36 (KHTML, like Gecko) Chrome/138.0.0.0 Safari/537.36","WebKit","Chrome","138.0.0.0","Windows","10.0","https://app.prolific.com/","en-ZA,en-GB;q=0.9,en-US;q=0.8,en;q=0.7","6697c8b6d9d7baa7edd8c4d3","683db6dfa200031b80f2a654","686526544bdfec7b075bdd30","6697c8b6d9d7baa7edd8c4d3","2025-07-02T13:46:18.755Z","","","","","","","","","","","","","","","","win-only","2","g1:SE,g2:NW","0.7","4","0","3069225.7","3163.8","8177.2","47299.7","1","4","8","6","2","8","7","13","6","0.09848484848484848","2084.5","3000","150","[""left"",""up""]","{""num_key_presses"":12,""num_perfect"":8,""num_errors"":1,""num_randdir"":3,""num_randdir_good_moves"":1,""num_whilered"":0,""num_whileblue"":1,""num_blue"":3,""num_good_moves"":9}","[415.07142857142856,420.6808016640799,0.5,415.07142857142856,420.6808016640799,107.2,415.07142857142856,420.6808016640799,218.2,415.07142857142856,420.6808016640799,339,415.07142857142856,420.6808016640799,439.5,415.07142857142856,420.6808016640799,553.5,415.07142857142856,420.6808016640799,662.3,415.07142857142856,420.6808016640799,772.1,415.07142857142856,420.6808016640799,872.1,416.57142857142856,422.1808016640799,974.9,379.07142857142856,371.1808016640799,1092.9,368.57142857142856,362.1808016640799,1208.4,368.57142857142856,362.1808016640799,1329.4,248.57142857142856,225.68080166407992,1434.3,199.07142857142856,185.18080166407992,1543.6,161.57142857142856,147.68080166407992,1646.8,134.57142857142856,122.18080166407994,1752.6,118.07142857142857,104.18080166407994,1857,118.07142857142857,104.18080166407994,1958.2,118.07142857142857,104.18080166407994,2058.6,118.07142857142857,104.18080166407994,2170.4,118.07142857142857,104.18080166407994,2273.8,118.07142857142857,104.18080166407994,2373.8,118.07142857142857,104.18080166407994,2477.3,118.07142857142857,104.18080166407994,2578.5,97.07142857142857,140.18080166407992,2689.1,-63.42857142857143,296.1808016640799,2790.5,-144.42857142857144,369.6808016640799,2900.6,-216.42857142857144,492.6808016640799,3003.5,-223.92857142857144,518.1808016640799,3104.7,-223.92857142857144,518.1808016640799,3205.1,-223.92857142857144,518.1808016640799,3308.8,-223.92857142857144,518.1808016640799,3414.2,-223.92857142857144,518.1808016640799,3515.6,-223.92857142857144,518.1808016640799,3618.1,-223.92857142857144,518.1808016640799,3723.9,-223.92857142857144,518.1808016640799,3827.2,-223.92857142857144,518.1808016640799,3931.4,-223.92857142857144,518.1808016640799,4036.7,-223.92857142857144,518.1808016640799,4138.7,-223.92857142857144,518.1808016640799,4242.8,-223.92857142857144,518.1808016640799,4344.5,-223.92857142857144,518.1808016640799,4444.8,-223.92857142857144,518.1808016640799,4546.9,-223.92857142857144,518.1808016640799,4648.8,-223.92857142857144,518.1808016640799,4758.9,-223.92857142857144,518.1808016640799,4863,-223.92857142857144,518.1808016640799,4971.1]","[1432.4,1432.4,1000,0,432.4,""smooth"",""up"",""up"",""good_move"",3979,2545.4,2149.2,1433.6,396.2,""smooth"",""up"",""up"",""good_move"",6753.4,2773.7,2432.6,3979.7,341.1,""oops"",""up"",""up"",""good_move"",8914.9,2160.9,1740.4,6754,420.5,""smooth"",""left"",""left"",""good_move"",12772.9,3857.3,3484.2,8915.7,373.1,""while_blue"",""left"",""down"",""bad_move"",16073.4,3291.1,2824.1,12782.5,466.9,""smooth"",""up"",""up"",""good_move"",18755.3,2681.3,2145,16074.1,536.2,""smooth"",""left"",""left"",""good_move"",22109,3353.3,2799.9,18755.8,553.4,""oops"",""left"",""right"",""bad_move"",25024.7,2914.4,2564.2,22110.3,350.2,""smooth"",""left"",""left"",""good_move"",27535.1,2509.5,2142,25025.6,367.5,""oops"",""left"",""right"",""bad_move"",30428.6,2892.9,2589.7,27535.8,303.1,""smooth"",""left"",""left"",""good_move"",38981.8,8552.5,1824.8,36718.5,438.5,""smooth"",""left"",""left"",""good_move""]","","",""
"6905","","<div style=""width:500px;"">
  <p>What determined the result of this run?</p>
  </div>","49","html-slider-response","55","3095540","0.0-10.0-1.3","254","1","2025-07-02 12:54:30","80fe4187154257d5fb01684ea91b68b9","105.245.52.14","Mozilla/5.0 (Windows NT 10.0; Win64; x64) AppleWebKit/537.36 (KHTML, like Gecko) Chrome/138.0.0.0 Safari/537.36","WebKit","Chrome","138.0.0.0","Windows","10.0","https://app.prolific.com/","en-ZA,en-GB;q=0.9,en-US;q=0.8,en;q=0.7","6697c8b6d9d7baa7edd8c4d3","683db6dfa200031b80f2a654","686526544bdfec7b075bdd30","6697c8b6d9d7baa7edd8c4d3","2025-07-02T13:46:25.662Z","","","","","","AttribQ","","","","","","","","","","","","","","","","","","","","","","","","","","","","","","","","","","","","","","50",""
"2953","","<div style=""width:500px;"">
  <p>How much control did you have over the ball?</p>
  </div>","50","html-slider-response","56","3098497","0.0-10.0-2.3","254","1","2025-07-02 12:54:30","80fe4187154257d5fb01684ea91b68b9","105.245.52.14","Mozilla/5.0 (Windows NT 10.0; Win64; x64) AppleWebKit/537.36 (KHTML, like Gecko) Chrome/138.0.0.0 Safari/537.36","WebKit","Chrome","138.0.0.0","Windows","10.0","https://app.prolific.com/","en-ZA,en-GB;q=0.9,en-US;q=0.8,en;q=0.7","6697c8b6d9d7baa7edd8c4d3","683db6dfa200031b80f2a654","686526544bdfec7b075bdd30","6697c8b6d9d7baa7edd8c4d3","2025-07-02T13:46:28.619Z","","","","","","ControlQ","","","","","","","","","","","","","","","","","","","","","","","","","","","","","","","","","","","","","","50",""
"5270","","<div style=""width:500px;"">
  <p>How would you describe your current emotional state?</p>
  </div>","53","html-slider-response","57","3103771","0.0-10.0-3.3","254","1","2025-07-02 12:54:30","80fe4187154257d5fb01684ea91b68b9","105.245.52.14","Mozilla/5.0 (Windows NT 10.0; Win64; x64) AppleWebKit/537.36 (KHTML, like Gecko) Chrome/138.0.0.0 Safari/537.36","WebKit","Chrome","138.0.0.0","Windows","10.0","https://app.prolific.com/","en-ZA,en-GB;q=0.9,en-US;q=0.8,en;q=0.7","6697c8b6d9d7baa7edd8c4d3","683db6dfa200031b80f2a654","686526544bdfec7b075bdd30","6697c8b6d9d7baa7edd8c4d3","2025-07-02T13:46:33.894Z","","","","","","StressQ","","","","","","","","","","","","","","","","","","","","","","","","","","","","","","","","","","","","","","50",""
"5889","","<div style=""width:500px;"">
  <p>What best describes how you currently feel?</p>
  </div>","56","html-slider-response","58","3109663","0.0-10.0-4.3","254","1","2025-07-02 12:54:30","80fe4187154257d5fb01684ea91b68b9","105.245.52.14","Mozilla/5.0 (Windows NT 10.0; Win64; x64) AppleWebKit/537.36 (KHTML, like Gecko) Chrome/138.0.0.0 Safari/537.36","WebKit","Chrome","138.0.0.0","Windows","10.0","https://app.prolific.com/","en-ZA,en-GB;q=0.9,en-US;q=0.8,en;q=0.7","6697c8b6d9d7baa7edd8c4d3","683db6dfa200031b80f2a654","686526544bdfec7b075bdd30","6697c8b6d9d7baa7edd8c4d3","2025-07-02T13:46:39.785Z","","","","","","MotivationQ","","","","","","","","","","","","","","","","","","","","","","","","","","","","","","","","","","","","","","50",""
"","","","","ctl-task-cpt","59","3167547","0.0-10.0-0.4","254","1","2025-07-02 12:54:30","80fe4187154257d5fb01684ea91b68b9","105.245.52.14","Mozilla/5.0 (Windows NT 10.0; Win64; x64) AppleWebKit/537.36 (KHTML, like Gecko) Chrome/138.0.0.0 Safari/537.36","WebKit","Chrome","138.0.0.0","Windows","10.0","https://app.prolific.com/","en-ZA,en-GB;q=0.9,en-US;q=0.8,en;q=0.7","6697c8b6d9d7baa7edd8c4d3","683db6dfa200031b80f2a654","686526544bdfec7b075bdd30","6697c8b6d9d7baa7edd8c4d3","2025-07-02T13:47:37.669Z","","","","","","","","","","","","","","","","win-only","2","g1:SE,g2:NW","0.6","5","0","3140574.2","2958.2","7959.8","54860.3","1","4","4","6","2","-4","-6","7","13","0.05303030303030303","2030.6","3000","-1820","[""left"",""up""]","{""num_key_presses"":11,""num_perfect"":5,""num_errors"":2,""num_randdir"":4,""num_randdir_good_moves"":1,""num_whilered"":0,""num_whileblue"":1,""num_blue"":5,""num_good_moves"":5}","[419.57142857142856,413.1808016640799,0.2,419.57142857142856,413.1808016640799,104.7,419.57142857142856,413.1808016640799,208.3,419.57142857142856,413.1808016640799,329.3,419.57142857142856,413.1808016640799,430.8,419.57142857142856,413.1808016640799,531.9,419.57142857142856,413.1808016640799,636.5,419.57142857142856,413.1808016640799,739.1,419.57142857142856,413.1808016640799,844.3,427.07142857142856,419.1808016640799,949.5,515.5714285714286,497.1808016640799,1054.6,533.5714285714286,518.1808016640799,1159.3,533.5714285714286,518.1808016640799,1265.8,533.5714285714286,518.1808016640799,1369.4,245.57142857142856,167.18080166407992,1475.3,190.07142857142856,101.18080166407994,1577.3,139.07142857142856,65.18080166407994,1683.2,107.57142857142857,54.68080166407994,1783.8,77.57142857142857,54.68080166407994,1895.5,77.57142857142857,54.68080166407994,1998.7,77.57142857142857,54.68080166407994,2100.1,77.57142857142857,54.68080166407994,2200.2,77.57142857142857,54.68080166407994,2305.5,77.57142857142857,54.68080166407994,2413,-237.42857142857144,227.18080166407992,2517.9,-430.92857142857144,384.6808016640799,2663.2,-430.92857142857144,384.6808016640799,2765.7,-430.92857142857144,384.6808016640799,2872.9,-430.92857142857144,384.6808016640799,2976.2,-430.92857142857144,384.6808016640799,3080.2,-430.92857142857144,384.6808016640799,3187.2,-430.92857142857144,384.6808016640799,3295,-430.92857142857144,384.6808016640799,3396,-430.92857142857144,384.6808016640799,3507.8,-430.92857142857144,384.6808016640799,3627,-430.92857142857144,384.6808016640799,3729.3,-430.92857142857144,384.6808016640799,3830.3,-430.92857142857144,384.6808016640799,3931.2,-430.92857142857144,384.6808016640799,4034,-430.92857142857144,384.6808016640799,4135.3,-430.92857142857144,384.6808016640799,4239.2,-430.92857142857144,384.6808016640799,4340.5,-430.92857142857144,384.6808016640799,4441.4,-430.92857142857144,384.6808016640799,4546.3,-430.92857142857144,384.6808016640799,4648.4,-430.92857142857144,384.6808016640799,4754,-430.92857142857144,384.6808016640799,4863.2,-430.92857142857144,384.6808016640799,4970.9]","[1441.3,1441.3,1000,0,441.3,""smooth"",""up"",""up"",""good_move"",4576.3,3134.4,2659,1442,475.4,""smooth"",""up"",""up"",""good_move"",10964.1,6387.3,3220.2,7329.3,414.6,""smooth"",""left"",""left"",""good_move"",20791.1,9826.1,1869,18440.2,482,""oops"",""left"",""down"",""bad_move"",23446,2654,2156.7,20792,497.3,""oops"",""left"",""right"",""bad_move"",30865,7418,3210.8,27085.8,568.4,""oops"",""up"",""down"",""bad_move"",33921.1,3055.8,2140.3,30865.3,915.5,""smooth"",""right"",""right"",""bad_move"",34384,462,2004.3,33922.1,-1542.3,""error"",""-"",""-"",""no_move"",38342.6,3958,2488.5,35385.6,468.5,""smooth"",""left"",""left"",""good_move"",41091.7,2747.9,2299.4,38343.8,448.5,""oops"",""left"",""left"",""good_move"",44262.9,3171,2771.7,41092,399.3,""while_blue"",""left"",""right"",""bad_move""]","","",""
"5747","","<div style=""width:500px;"">
  <p>What determined the result of this run?</p>
  </div>","7","html-slider-response","60","3173295","0.0-10.0-1.4","254","1","2025-07-02 12:54:30","80fe4187154257d5fb01684ea91b68b9","105.245.52.14","Mozilla/5.0 (Windows NT 10.0; Win64; x64) AppleWebKit/537.36 (KHTML, like Gecko) Chrome/138.0.0.0 Safari/537.36","WebKit","Chrome","138.0.0.0","Windows","10.0","https://app.prolific.com/","en-ZA,en-GB;q=0.9,en-US;q=0.8,en;q=0.7","6697c8b6d9d7baa7edd8c4d3","683db6dfa200031b80f2a654","686526544bdfec7b075bdd30","6697c8b6d9d7baa7edd8c4d3","2025-07-02T13:47:43.418Z","","","","","","AttribQ","","","","","","","","","","","","","","","","","","","","","","","","","","","","","","","","","","","","","","50",""
"6878","","<div style=""width:500px;"">
  <p>How much control did you have over the ball?</p>
  </div>","4","html-slider-response","61","3180177","0.0-10.0-2.4","254","1","2025-07-02 12:54:30","80fe4187154257d5fb01684ea91b68b9","105.245.52.14","Mozilla/5.0 (Windows NT 10.0; Win64; x64) AppleWebKit/537.36 (KHTML, like Gecko) Chrome/138.0.0.0 Safari/537.36","WebKit","Chrome","138.0.0.0","Windows","10.0","https://app.prolific.com/","en-ZA,en-GB;q=0.9,en-US;q=0.8,en;q=0.7","6697c8b6d9d7baa7edd8c4d3","683db6dfa200031b80f2a654","686526544bdfec7b075bdd30","6697c8b6d9d7baa7edd8c4d3","2025-07-02T13:47:50.299Z","","","","","","ControlQ","","","","","","","","","","","","","","","","","","","","","","","","","","","","","","","","","","","","","","50",""
"4960","","<div style=""width:500px;"">
  <p>How would you describe your current emotional state?</p>
  </div>","69","html-slider-response","62","3185140","0.0-10.0-3.4","254","1","2025-07-02 12:54:30","80fe4187154257d5fb01684ea91b68b9","105.245.52.14","Mozilla/5.0 (Windows NT 10.0; Win64; x64) AppleWebKit/537.36 (KHTML, like Gecko) Chrome/138.0.0.0 Safari/537.36","WebKit","Chrome","138.0.0.0","Windows","10.0","https://app.prolific.com/","en-ZA,en-GB;q=0.9,en-US;q=0.8,en;q=0.7","6697c8b6d9d7baa7edd8c4d3","683db6dfa200031b80f2a654","686526544bdfec7b075bdd30","6697c8b6d9d7baa7edd8c4d3","2025-07-02T13:47:55.262Z","","","","","","StressQ","","","","","","","","","","","","","","","","","","","","","","","","","","","","","","","","","","","","","","50",""
"7807","","<div style=""width:500px;"">
  <p>What best describes how you currently feel?</p>
  </div>","54","html-slider-response","63","3192951","0.0-10.0-4.4","254","1","2025-07-02 12:54:30","80fe4187154257d5fb01684ea91b68b9","105.245.52.14","Mozilla/5.0 (Windows NT 10.0; Win64; x64) AppleWebKit/537.36 (KHTML, like Gecko) Chrome/138.0.0.0 Safari/537.36","WebKit","Chrome","138.0.0.0","Windows","10.0","https://app.prolific.com/","en-ZA,en-GB;q=0.9,en-US;q=0.8,en;q=0.7","6697c8b6d9d7baa7edd8c4d3","683db6dfa200031b80f2a654","686526544bdfec7b075bdd30","6697c8b6d9d7baa7edd8c4d3","2025-07-02T13:48:03.073Z","","","","","","MotivationQ","","","","","","","","","","","","","","","","","","","","","","","","","","","","","","","","","","","","","","50",""
"","","","","ctl-task-cpt","64","3252231","0.0-10.0-0.5","254","1","2025-07-02 12:54:30","80fe4187154257d5fb01684ea91b68b9","105.245.52.14","Mozilla/5.0 (Windows NT 10.0; Win64; x64) AppleWebKit/537.36 (KHTML, like Gecko) Chrome/138.0.0.0 Safari/537.36","WebKit","Chrome","138.0.0.0","Windows","10.0","https://app.prolific.com/","en-ZA,en-GB;q=0.9,en-US;q=0.8,en;q=0.7","6697c8b6d9d7baa7edd8c4d3","683db6dfa200031b80f2a654","686526544bdfec7b075bdd30","6697c8b6d9d7baa7edd8c4d3","2025-07-02T13:49:02.353Z","","","","","","","","","","","","","","","","win-only","1","g1:NE,g2:SW","0.5","6","0","3223863.2","21634.1","26635.7","56255.2","1","4","8","6","1","1","1","8","7","0.06060606060606061","1877.7","3000","950","[""up"",""right""]","{""num_key_presses"":8,""num_perfect"":5,""num_errors"":0,""num_randdir"":3,""num_randdir_good_moves"":1,""num_whilered"":0,""num_whileblue"":0,""num_blue"":2,""num_good_moves"":6}","[422.57142857142856,416.1808016640799,0.9,422.57142857142856,416.1808016640799,103.2,422.57142857142856,416.1808016640799,210.8,422.57142857142856,416.1808016640799,312,422.57142857142856,416.1808016640799,413.6,422.57142857142856,416.1808016640799,514.2,422.57142857142856,416.1808016640799,621.9,422.57142857142856,416.1808016640799,731,422.57142857142856,416.1808016640799,834.7,422.57142857142856,416.1808016640799,938.5,779.5714285714286,-15.819198335920063,1046.8,857.5714285714286,-87.81919833592006,1155.5,869.5714285714286,-90.81919833592006,1260.8,869.5714285714286,-84.81919833592006,1362.2,794.5714285714286,18.680801664079937,1476.6,775.0714285714286,36.68080166407994,1584,767.5714285714286,45.68080166407994,1686.4,767.5714285714286,45.68080166407994,1793.7,767.5714285714286,45.68080166407994,1895.9,767.5714285714286,45.68080166407994,1999.3,767.5714285714286,45.68080166407994,2106.7,767.5714285714286,45.68080166407994,2219.1,767.5714285714286,45.68080166407994,2330.3,767.5714285714286,45.68080166407994,2437.2,704.5714285714286,128.18080166407992,2549.8,652.0714285714286,278.1808016640799,2651.4,842.5714285714286,426.6808016640799,2754,1070.5714285714287,467.1808016640799,2854.7,1073.5714285714287,467.1808016640799,2962,1073.5714285714287,467.1808016640799,3080.9,1073.5714285714287,467.1808016640799,3184.5,1073.5714285714287,467.1808016640799,3287.7,1073.5714285714287,467.1808016640799,3388.6,1073.5714285714287,467.1808016640799,3495.1,1073.5714285714287,467.1808016640799,3596.4,1073.5714285714287,467.1808016640799,3703,1073.5714285714287,467.1808016640799,3805.4,1073.5714285714287,467.1808016640799,3917.9,1073.5714285714287,467.1808016640799,4023.4,1073.5714285714287,467.1808016640799,4136.7,1073.5714285714287,467.1808016640799,4240.3,1073.5714285714287,467.1808016640799,4346.5,1073.5714285714287,467.1808016640799,4450.8,1073.5714285714287,467.1808016640799,4556.8,1073.5714285714287,467.1808016640799,4664.3,1073.5714285714287,467.1808016640799,4766.3,1073.5714285714287,467.1808016640799,4869,1073.5714285714287,467.1808016640799,4976]","[5734,5734,3203.2,2009.1,521.7,""smooth"",""up"",""up"",""good_move"",13252.1,7516.8,3402.9,9275.5,573.8,""smooth"",""up"",""up"",""good_move"",16045.1,2792.6,2251.3,13252.6,541.3,""smooth"",""right"",""right"",""good_move"",18447.1,2401.1,1922.8,16046,478.4,""oops"",""right"",""left"",""bad_move"",20851,2403,1872.1,18448,530.9,""oops"",""right"",""down"",""bad_move"",23812.5,2960.6,2546.7,20851.9,413.9,""smooth"",""right"",""right"",""good_move"",26597.7,2784.2,2323.2,23813.5,461.1,""smooth"",""up"",""up"",""good_move"",29448,2849.5,2494.5,26598.5,355,""oops"",""right"",""right"",""good_move""]","","",""
"8126","","<div style=""width:500px;"">
  <p>What determined the result of this run?</p>
  </div>","57","html-slider-response","65","3260360","0.0-10.0-1.5","254","1","2025-07-02 12:54:30","80fe4187154257d5fb01684ea91b68b9","105.245.52.14","Mozilla/5.0 (Windows NT 10.0; Win64; x64) AppleWebKit/537.36 (KHTML, like Gecko) Chrome/138.0.0.0 Safari/537.36","WebKit","Chrome","138.0.0.0","Windows","10.0","https://app.prolific.com/","en-ZA,en-GB;q=0.9,en-US;q=0.8,en;q=0.7","6697c8b6d9d7baa7edd8c4d3","683db6dfa200031b80f2a654","686526544bdfec7b075bdd30","6697c8b6d9d7baa7edd8c4d3","2025-07-02T13:49:10.482Z","","","","","","AttribQ","","","","","","","","","","","","","","","","","","","","","","","","","","","","","","","","","","","","","","50",""
"4532","","<div style=""width:500px;"">
  <p>How much control did you have over the ball?</p>
  </div>","50","html-slider-response","66","3264896","0.0-10.0-2.5","254","1","2025-07-02 12:54:30","80fe4187154257d5fb01684ea91b68b9","105.245.52.14","Mozilla/5.0 (Windows NT 10.0; Win64; x64) AppleWebKit/537.36 (KHTML, like Gecko) Chrome/138.0.0.0 Safari/537.36","WebKit","Chrome","138.0.0.0","Windows","10.0","https://app.prolific.com/","en-ZA,en-GB;q=0.9,en-US;q=0.8,en;q=0.7","6697c8b6d9d7baa7edd8c4d3","683db6dfa200031b80f2a654","686526544bdfec7b075bdd30","6697c8b6d9d7baa7edd8c4d3","2025-07-02T13:49:15.018Z","","","","","","ControlQ","","","","","","","","","","","","","","","","","","","","","","","","","","","","","","","","","","","","","","50",""
"4435","","<div style=""width:500px;"">
  <p>How would you describe your current emotional state?</p>
  </div>","52","html-slider-response","67","3269335","0.0-10.0-3.5","254","1","2025-07-02 12:54:30","80fe4187154257d5fb01684ea91b68b9","105.245.52.14","Mozilla/5.0 (Windows NT 10.0; Win64; x64) AppleWebKit/537.36 (KHTML, like Gecko) Chrome/138.0.0.0 Safari/537.36","WebKit","Chrome","138.0.0.0","Windows","10.0","https://app.prolific.com/","en-ZA,en-GB;q=0.9,en-US;q=0.8,en;q=0.7","6697c8b6d9d7baa7edd8c4d3","683db6dfa200031b80f2a654","686526544bdfec7b075bdd30","6697c8b6d9d7baa7edd8c4d3","2025-07-02T13:49:19.458Z","","","","","","StressQ","","","","","","","","","","","","","","","","","","","","","","","","","","","","","","","","","","","","","","50",""
"3999","","<div style=""width:500px;"">
  <p>What best describes how you currently feel?</p>
  </div>","54","html-slider-response","68","3273338","0.0-10.0-4.5","254","1","2025-07-02 12:54:30","80fe4187154257d5fb01684ea91b68b9","105.245.52.14","Mozilla/5.0 (Windows NT 10.0; Win64; x64) AppleWebKit/537.36 (KHTML, like Gecko) Chrome/138.0.0.0 Safari/537.36","WebKit","Chrome","138.0.0.0","Windows","10.0","https://app.prolific.com/","en-ZA,en-GB;q=0.9,en-US;q=0.8,en;q=0.7","6697c8b6d9d7baa7edd8c4d3","683db6dfa200031b80f2a654","686526544bdfec7b075bdd30","6697c8b6d9d7baa7edd8c4d3","2025-07-02T13:49:23.460Z","","","","","","MotivationQ","","","","","","","","","","","","","","","","","","","","","","","","","","","","","","","","","","","","","","50",""
"","","","","ctl-task-cpt","69","3332548","0.0-10.0-0.6","254","1","2025-07-02 12:54:30","80fe4187154257d5fb01684ea91b68b9","105.245.52.14","Mozilla/5.0 (Windows NT 10.0; Win64; x64) AppleWebKit/537.36 (KHTML, like Gecko) Chrome/138.0.0.0 Safari/537.36","WebKit","Chrome","138.0.0.0","Windows","10.0","https://app.prolific.com/","en-ZA,en-GB;q=0.9,en-US;q=0.8,en;q=0.7","6697c8b6d9d7baa7edd8c4d3","683db6dfa200031b80f2a654","686526544bdfec7b075bdd30","6697c8b6d9d7baa7edd8c4d3","2025-07-02T13:50:22.670Z","","","","","","","","","","","","","","","","win-only","2","g1:SE,g2:NW","0.4","7","0","3304247.3","1820.6","6831.9","56177.5","1","4","4","6","2","-4","-5","3","8","0.022727272727272728","2982.1","3000","-1680","[""left"",""up""]","{""num_key_presses"":15,""num_perfect"":6,""num_errors"":1,""num_randdir"":8,""num_randdir_good_moves"":3,""num_whilered"":0,""num_whileblue"":0,""num_blue"":1,""num_good_moves"":9}","[421.07142857142856,416.1808016640799,0.3,421.07142857142856,416.1808016640799,103.7,421.07142857142856,416.1808016640799,214.6,421.07142857142856,416.1808016640799,321.3,421.07142857142856,416.1808016640799,421.8,421.07142857142856,416.1808016640799,538.9,421.07142857142856,416.1808016640799,650.4,421.07142857142856,416.1808016640799,759.8,421.07142857142856,416.1808016640799,867.9,421.07142857142856,416.1808016640799,976.2,421.07142857142856,416.1808016640799,1094.7,421.07142857142856,416.1808016640799,1198.3,455.57142857142856,455.1808016640799,1300.5,581.5714285714286,609.6808016640799,1409.4,731.5714285714286,741.6808016640799,1519.5,758.5714285714286,767.1808016640799,1622.1,766.0714285714286,776.1808016640799,1726.7,766.0714285714286,779.1808016640799,1836.7,766.0714285714286,779.1808016640799,1937.2,766.0714285714286,779.1808016640799,2041.1,766.0714285714286,779.1808016640799,2147,-43.92857142857143,204.68080166407992,2249.2,-78.42857142857143,119.18080166407994,2357.8,-78.42857142857143,96.68080166407994,2466.3,14.57142857142857,71.18080166407994,2569.6,71.57142857142857,77.18080166407994,2670.5,74.57142857142857,77.18080166407994,2772.7,76.07142857142857,77.18080166407994,2879.1,76.07142857142857,77.18080166407994,2986,76.07142857142857,77.18080166407994,3101.5,76.07142857142857,77.18080166407994,3202.8,76.07142857142857,77.18080166407994,3307.6,76.07142857142857,77.18080166407994,3414.8,-135.42857142857144,248.18080166407992,3524.2,-214.92857142857144,459.6808016640799,3627.2,-214.92857142857144,459.6808016640799,3732.5,-214.92857142857144,459.6808016640799,3837,-214.92857142857144,459.6808016640799,3939.5,-214.92857142857144,459.6808016640799,4047.6,-214.92857142857144,459.6808016640799,4152.8,-214.92857142857144,459.6808016640799,4259.3,-214.92857142857144,459.6808016640799,4365.7,-214.92857142857144,459.6808016640799,4467.7,-214.92857142857144,459.6808016640799,4573.5,-214.92857142857144,459.6808016640799,4678.3,-214.92857142857144,459.6808016640799,4781.5,-214.92857142857144,459.6808016640799,4889.8,-214.92857142857144,459.6808016640799,4993.7]","[1476.4,1476.4,1000,0,476.4,""oops"",""up"",""down"",""bad_move"",4160.5,2682.7,2183.1,1477.8,499.6,""oops"",""up"",""left"",""good_move"",7183.4,3022.1,2638.2,4161.3,383.9,""oops"",""up"",""left"",""good_move"",9945.8,2761.9,3028.4,7183.9,-266.5,""error"",""-"",""-"",""no_move"",14169.1,4222.7,2758.1,10953.8,457.2,""oops"",""left"",""right"",""bad_move"",21025,6855.5,2419.5,18120.9,484.6,""smooth"",""up"",""up"",""good_move"",23863,2837.1,2442,21025.9,395.1,""smooth"",""up"",""up"",""good_move"",26495.8,2632.6,2197.1,23863.2,435.5,""oops"",""up"",""right"",""bad_move"",29694.9,3198.5,2802.1,26496.4,396.5,""oops"",""up"",""left"",""good_move"",32817.4,3121.4,2716.3,29696,405.1,""smooth"",""up"",""up"",""good_move"",35894.5,3076.3,2717.5,32818.2,358.8,""smooth"",""up"",""up"",""good_move"",38500.4,2604.9,2244,35895.5,360.9,""smooth"",""left"",""left"",""good_move"",40819.5,2318.3,1906.7,38501.2,411.6,""oops"",""left"",""right"",""bad_move"",43782.8,2962.5,2606.6,40820.3,355.9,""smooth"",""left"",""left"",""good_move"",46796.3,3013.1,2671.2,43783.2,341.9,""oops"",""left"",""down"",""bad_move""]","","",""
"574107","","<div style=""width:500px;"">
  <p>What determined the result of this run?</p>
  </div>","51","html-slider-response","70","3906659","0.0-10.0-1.6","254","1","2025-07-02 12:54:30","80fe4187154257d5fb01684ea91b68b9","105.245.52.14","Mozilla/5.0 (Windows NT 10.0; Win64; x64) AppleWebKit/537.36 (KHTML, like Gecko) Chrome/138.0.0.0 Safari/537.36","WebKit","Chrome","138.0.0.0","Windows","10.0","https://app.prolific.com/","en-ZA,en-GB;q=0.9,en-US;q=0.8,en;q=0.7","6697c8b6d9d7baa7edd8c4d3","683db6dfa200031b80f2a654","686526544bdfec7b075bdd30","6697c8b6d9d7baa7edd8c4d3","2025-07-02T13:59:56.782Z","","","","","","AttribQ","","","","","","","","","","","","","","","","","","","","","","","","","","","","","","","","","","","","","","50",""
"9536","","<div style=""width:500px;"">
  <p>How much control did you have over the ball?</p>
  </div>","36","html-slider-response","71","3916200","0.0-10.0-2.6","254","1","2025-07-02 12:54:30","80fe4187154257d5fb01684ea91b68b9","105.245.52.14","Mozilla/5.0 (Windows NT 10.0; Win64; x64) AppleWebKit/537.36 (KHTML, like Gecko) Chrome/138.0.0.0 Safari/537.36","WebKit","Chrome","138.0.0.0","Windows","10.0","https://app.prolific.com/","en-ZA,en-GB;q=0.9,en-US;q=0.8,en;q=0.7","6697c8b6d9d7baa7edd8c4d3","683db6dfa200031b80f2a654","686526544bdfec7b075bdd30","6697c8b6d9d7baa7edd8c4d3","2025-07-02T14:00:06.322Z","","","","","","ControlQ","","","","","","","","","","","","","","","","","","","","","","","","","","","","","","","","","","","","","","50",""
"3393","","<div style=""width:500px;"">
  <p>How would you describe your current emotional state?</p>
  </div>","50","html-slider-response","72","3919597","0.0-10.0-3.6","254","1","2025-07-02 12:54:30","80fe4187154257d5fb01684ea91b68b9","105.245.52.14","Mozilla/5.0 (Windows NT 10.0; Win64; x64) AppleWebKit/537.36 (KHTML, like Gecko) Chrome/138.0.0.0 Safari/537.36","WebKit","Chrome","138.0.0.0","Windows","10.0","https://app.prolific.com/","en-ZA,en-GB;q=0.9,en-US;q=0.8,en;q=0.7","6697c8b6d9d7baa7edd8c4d3","683db6dfa200031b80f2a654","686526544bdfec7b075bdd30","6697c8b6d9d7baa7edd8c4d3","2025-07-02T14:00:09.719Z","","","","","","StressQ","","","","","","","","","","","","","","","","","","","","","","","","","","","","","","","","","","","","","","50",""
"6752","","<div style=""width:500px;"">
  <p>What best describes how you currently feel?</p>
  </div>","60","html-slider-response","73","3926350","0.0-10.0-4.6","254","1","2025-07-02 12:54:30","80fe4187154257d5fb01684ea91b68b9","105.245.52.14","Mozilla/5.0 (Windows NT 10.0; Win64; x64) AppleWebKit/537.36 (KHTML, like Gecko) Chrome/138.0.0.0 Safari/537.36","WebKit","Chrome","138.0.0.0","Windows","10.0","https://app.prolific.com/","en-ZA,en-GB;q=0.9,en-US;q=0.8,en;q=0.7","6697c8b6d9d7baa7edd8c4d3","683db6dfa200031b80f2a654","686526544bdfec7b075bdd30","6697c8b6d9d7baa7edd8c4d3","2025-07-02T14:00:16.472Z","","","","","","MotivationQ","","","","","","","","","","","","","","","","","","","","","","","","","","","","","","","","","","","","","","50",""
"","","","","ctl-task-cpt","74","3974992","0.0-10.0-0.7","254","1","2025-07-02 12:54:30","80fe4187154257d5fb01684ea91b68b9","105.245.52.14","Mozilla/5.0 (Windows NT 10.0; Win64; x64) AppleWebKit/537.36 (KHTML, like Gecko) Chrome/138.0.0.0 Safari/537.36","WebKit","Chrome","138.0.0.0","Windows","10.0","https://app.prolific.com/","en-ZA,en-GB;q=0.9,en-US;q=0.8,en;q=0.7","6697c8b6d9d7baa7edd8c4d3","683db6dfa200031b80f2a654","686526544bdfec7b075bdd30","6697c8b6d9d7baa7edd8c4d3","2025-07-02T14:01:05.114Z","","","","","","","","","","","","","","","","win-only","3","g1:SW,g2:NE","0.3","8","0","3957256.4","3507.5","8510.9","45623.1","1","4","8","6","1","-1","-2","1","3","0.007575757575757576","1773.2","3000","-2190","[""down"",""left""]","{""num_key_presses"":11,""num_perfect"":3,""num_errors"":1,""num_randdir"":7,""num_randdir_good_moves"":2,""num_whilered"":0,""num_whileblue"":1,""num_blue"":3,""num_good_moves"":6}","[412.07142857142856,423.6808016640799,0.2,412.07142857142856,423.6808016640799,100.2,412.07142857142856,423.6808016640799,210.2,412.07142857142856,423.6808016640799,313.9,412.07142857142856,423.6808016640799,423.9,412.07142857142856,423.6808016640799,539.4,412.07142857142856,423.6808016640799,653.2,412.07142857142856,423.6808016640799,767.3,412.07142857142856,423.6808016640799,875.9,412.07142857142856,423.6808016640799,976,284.57142857142856,539.1808016640799,1089.6,208.07142857142856,633.6808016640799,1207.6,182.57142857142856,678.6808016640799,1310.1,116.57142857142857,728.1808016640799,1419.8,74.57142857142857,761.1808016640799,1523.3,74.57142857142857,762.6808016640799,1626.6,74.57142857142857,762.6808016640799,1729.4,74.57142857142857,762.6808016640799,1832.5,74.57142857142857,762.6808016640799,1939.4,74.57142857142857,762.6808016640799,2042.9,74.57142857142857,762.6808016640799,2151.9,74.57142857142857,762.6808016640799,2253.1,74.57142857142857,762.6808016640799,2354,74.57142857142857,762.6808016640799,2454.2,-331.92857142857144,845.1808016640799,2558.8,-351.42857142857144,851.1808016640799,2672.1,-351.42857142857144,851.1808016640799,2776.4,-351.42857142857144,851.1808016640799,2878.6,-351.42857142857144,851.1808016640799,2983.3,-351.42857142857144,851.1808016640799,3083.8,-351.42857142857144,851.1808016640799,3202.1,-351.42857142857144,851.1808016640799,3303.6,-351.42857142857144,851.1808016640799,3408.6,-351.42857142857144,851.1808016640799,3509.1,-351.42857142857144,851.1808016640799,3613.3,-351.42857142857144,851.1808016640799,3718,-351.42857142857144,851.1808016640799,3819.4,-351.42857142857144,851.1808016640799,3932.2,-351.42857142857144,851.1808016640799,4033.8,-351.42857142857144,851.1808016640799,4142.4,-351.42857142857144,851.1808016640799,4243.4,-351.42857142857144,851.1808016640799,4348.8,-351.42857142857144,851.1808016640799,4454.2,-351.42857142857144,851.1808016640799,4558,-351.42857142857144,851.1808016640799,4666.6,-351.42857142857144,851.1808016640799,4768.7,-351.42857142857144,851.1808016640799,4868.7,-351.42857142857144,851.1808016640799,4974.3]","[3782.9,3782.9,1334.5,2009.6,438.8,""smooth"",""down"",""down"",""good_move"",7136.2,3351.9,2847,3784.3,504.9,""oops"",""down"",""right"",""bad_move"",10332.8,3196.3,2797.6,7136.5,398.7,""smooth"",""left"",""left"",""good_move"",13597.2,3264,2843.4,10333.2,420.6,""oops"",""left"",""up"",""bad_move"",16263.3,2665.1,2236.1,13598.2,429,""oops"",""left"",""left"",""good_move"",18340.1,2076.6,1608.2,16263.6,468.3,""oops"",""down"",""right"",""bad_move"",21557.7,3217.3,2831,18340.4,386.4,""oops"",""down"",""up"",""bad_move"",24251.8,2693.8,2382.5,21558,311.3,""smooth"",""left"",""left"",""good_move"",26350.3,2098.2,1708.5,24252.1,389.7,""oops"",""left"",""down"",""good_move"",29316.4,2965.7,2596.3,26350.7,369.4,""oops"",""left"",""right"",""bad_move"",31832.2,2515.2,2274.7,29317,240.5,""while_blue"",""down"",""left"",""good_move""]","","",""
"4613","","<div style=""width:500px;"">
  <p>What determined the result of this run?</p>
  </div>","3","html-slider-response","75","3979606","0.0-10.0-1.7","254","1","2025-07-02 12:54:30","80fe4187154257d5fb01684ea91b68b9","105.245.52.14","Mozilla/5.0 (Windows NT 10.0; Win64; x64) AppleWebKit/537.36 (KHTML, like Gecko) Chrome/138.0.0.0 Safari/537.36","WebKit","Chrome","138.0.0.0","Windows","10.0","https://app.prolific.com/","en-ZA,en-GB;q=0.9,en-US;q=0.8,en;q=0.7","6697c8b6d9d7baa7edd8c4d3","683db6dfa200031b80f2a654","686526544bdfec7b075bdd30","6697c8b6d9d7baa7edd8c4d3","2025-07-02T14:01:09.728Z","","","","","","AttribQ","","","","","","","","","","","","","","","","","","","","","","","","","","","","","","","","","","","","","","50",""
"4060","","<div style=""width:500px;"">
  <p>How much control did you have over the ball?</p>
  </div>","12","html-slider-response","76","3983667","0.0-10.0-2.7","254","1","2025-07-02 12:54:30","80fe4187154257d5fb01684ea91b68b9","105.245.52.14","Mozilla/5.0 (Windows NT 10.0; Win64; x64) AppleWebKit/537.36 (KHTML, like Gecko) Chrome/138.0.0.0 Safari/537.36","WebKit","Chrome","138.0.0.0","Windows","10.0","https://app.prolific.com/","en-ZA,en-GB;q=0.9,en-US;q=0.8,en;q=0.7","6697c8b6d9d7baa7edd8c4d3","683db6dfa200031b80f2a654","686526544bdfec7b075bdd30","6697c8b6d9d7baa7edd8c4d3","2025-07-02T14:01:13.790Z","","","","","","ControlQ","","","","","","","","","","","","","","","","","","","","","","","","","","","","","","","","","","","","","","50",""
"4421","","<div style=""width:500px;"">
  <p>How would you describe your current emotional state?</p>
  </div>","86","html-slider-response","77","3988090","0.0-10.0-3.7","254","1","2025-07-02 12:54:30","80fe4187154257d5fb01684ea91b68b9","105.245.52.14","Mozilla/5.0 (Windows NT 10.0; Win64; x64) AppleWebKit/537.36 (KHTML, like Gecko) Chrome/138.0.0.0 Safari/537.36","WebKit","Chrome","138.0.0.0","Windows","10.0","https://app.prolific.com/","en-ZA,en-GB;q=0.9,en-US;q=0.8,en;q=0.7","6697c8b6d9d7baa7edd8c4d3","683db6dfa200031b80f2a654","686526544bdfec7b075bdd30","6697c8b6d9d7baa7edd8c4d3","2025-07-02T14:01:18.212Z","","","","","","StressQ","","","","","","","","","","","","","","","","","","","","","","","","","","","","","","","","","","","","","","50",""
"2850","","<div style=""width:500px;"">
  <p>What best describes how you currently feel?</p>
  </div>","50","html-slider-response","78","3990942","0.0-10.0-4.7","254","1","2025-07-02 12:54:30","80fe4187154257d5fb01684ea91b68b9","105.245.52.14","Mozilla/5.0 (Windows NT 10.0; Win64; x64) AppleWebKit/537.36 (KHTML, like Gecko) Chrome/138.0.0.0 Safari/537.36","WebKit","Chrome","138.0.0.0","Windows","10.0","https://app.prolific.com/","en-ZA,en-GB;q=0.9,en-US;q=0.8,en;q=0.7","6697c8b6d9d7baa7edd8c4d3","683db6dfa200031b80f2a654","686526544bdfec7b075bdd30","6697c8b6d9d7baa7edd8c4d3","2025-07-02T14:01:21.064Z","","","","","","MotivationQ","","","","","","","","","","","","","","","","","","","","","","","","","","","","","","","","","","","","","","50",""
"","","","","ctl-task-cpt","79","4016411","0.0-10.0-0.8","254","1","2025-07-02 12:54:30","80fe4187154257d5fb01684ea91b68b9","105.245.52.14","Mozilla/5.0 (Windows NT 10.0; Win64; x64) AppleWebKit/537.36 (KHTML, like Gecko) Chrome/138.0.0.0 Safari/537.36","WebKit","Chrome","138.0.0.0","Windows","10.0","https://app.prolific.com/","en-ZA,en-GB;q=0.9,en-US;q=0.8,en;q=0.7","6697c8b6d9d7baa7edd8c4d3","683db6dfa200031b80f2a654","686526544bdfec7b075bdd30","6697c8b6d9d7baa7edd8c4d3","2025-07-02T14:01:46.533Z","","","","","","","","","","","","","","","","win-only","0","g1:NW,g2:SE","0.4","9","0","4021849.1","2405.5","7410.1","22430.3","1","4","4","6","1","1","1","2","1","0.015151515151515152","1834.2","3000","1560","[""left"",""up""]","{""num_key_presses"":6,""num_perfect"":2,""num_errors"":0,""num_randdir"":4,""num_randdir_good_moves"":3,""num_whilered"":0,""num_whileblue"":0,""num_blue"":0,""num_good_moves"":5}","[412.07142857142856,410.1808016640799,0.3,412.07142857142856,410.1808016640799,100.8,412.07142857142856,410.1808016640799,200.7,412.07142857142856,410.1808016640799,304.5,412.07142857142856,410.1808016640799,405.4,412.07142857142856,410.1808016640799,506.5,412.07142857142856,410.1808016640799,610.6,412.07142857142856,410.1808016640799,721.9,412.07142857142856,410.1808016640799,825.6,412.07142857142856,410.1808016640799,940.1,412.07142857142856,410.1808016640799,1040.5,175.07142857142856,57.68080166407994,1146.1,146.57142857142856,17.180801664079937,1255.9,118.07142857142857,11.180801664079937,1356.6,83.57142857142857,14.180801664079937,1460,68.57142857142857,27.680801664079937,1560.3,68.57142857142857,27.680801664079937,1660.9,68.57142857142857,27.680801664079937,1762.6,68.57142857142857,27.680801664079937,1869.4,68.57142857142857,27.680801664079937,1970.6,68.57142857142857,27.680801664079937,2074.7,68.57142857142857,27.680801664079937,2177.4,68.57142857142857,27.680801664079937,2293.9,68.57142857142857,27.680801664079937,2400.8,-6.428571428571431,260.1808016640799,2506.3,22.07142857142857,549.6808016640799,2626.5,22.07142857142857,549.6808016640799,2735.4,22.07142857142857,549.6808016640799,2838.6,22.07142857142857,549.6808016640799,2946.6,22.07142857142857,549.6808016640799,3050.5,22.07142857142857,549.6808016640799,3159.6,22.07142857142857,549.6808016640799,3269.7,22.07142857142857,549.6808016640799,3374.6,22.07142857142857,549.6808016640799,3490.7,22.07142857142857,549.6808016640799,3611.1,22.07142857142857,549.6808016640799,3715.1,22.07142857142857,549.6808016640799,3820.8,22.07142857142857,549.6808016640799,3925.2,22.07142857142857,549.6808016640799,4040.4,22.07142857142857,549.6808016640799,4140.6,22.07142857142857,549.6808016640799,4266.5,22.07142857142857,549.6808016640799,4370,22.07142857142857,549.6808016640799,4470.4,22.07142857142857,549.6808016640799,4578,22.07142857142857,549.6808016640799,4693.1,22.07142857142857,549.6808016640799,4806.1,22.07142857142857,549.6808016640799,4910.4]","[1367.5,1367.5,1000,0,367.5,""smooth"",""up"",""up"",""good_move"",4280.8,2913.1,2492.4,1367.7,420.7,""oops"",""up"",""left"",""good_move"",7143.4,2862.3,2486.3,4281.1,376,""oops"",""up"",""left"",""good_move"",9858.5,2714.7,2363.3,7143.8,351.4,""oops"",""up"",""right"",""bad_move"",12957.8,3098.9,2786.5,9858.9,312.4,""smooth"",""up"",""up"",""good_move"",14866.5,1908.4,1501.9,12958.1,406.5,""oops"",""left"",""left"",""good_move""]","","",""
"168763","","<div style=""width:500px;"">
  <p>What determined the result of this run?</p>
  </div>","31","html-slider-response","80","4185176","0.0-10.0-1.8","254","1","2025-07-02 12:54:30","80fe4187154257d5fb01684ea91b68b9","105.245.52.14","Mozilla/5.0 (Windows NT 10.0; Win64; x64) AppleWebKit/537.36 (KHTML, like Gecko) Chrome/138.0.0.0 Safari/537.36","WebKit","Chrome","138.0.0.0","Windows","10.0","https://app.prolific.com/","en-ZA,en-GB;q=0.9,en-US;q=0.8,en;q=0.7","6697c8b6d9d7baa7edd8c4d3","683db6dfa200031b80f2a654","686526544bdfec7b075bdd30","6697c8b6d9d7baa7edd8c4d3","2025-07-02T14:04:35.298Z","","","","","","AttribQ","","","","","","","","","","","","","","","","","","","","","","","","","","","","","","","","","","","","","","50",""
"3863","","<div style=""width:500px;"">
  <p>How much control did you have over the ball?</p>
  </div>","32","html-slider-response","81","4189042","0.0-10.0-2.8","254","1","2025-07-02 12:54:30","80fe4187154257d5fb01684ea91b68b9","105.245.52.14","Mozilla/5.0 (Windows NT 10.0; Win64; x64) AppleWebKit/537.36 (KHTML, like Gecko) Chrome/138.0.0.0 Safari/537.36","WebKit","Chrome","138.0.0.0","Windows","10.0","https://app.prolific.com/","en-ZA,en-GB;q=0.9,en-US;q=0.8,en;q=0.7","6697c8b6d9d7baa7edd8c4d3","683db6dfa200031b80f2a654","686526544bdfec7b075bdd30","6697c8b6d9d7baa7edd8c4d3","2025-07-02T14:04:39.164Z","","","","","","ControlQ","","","","","","","","","","","","","","","","","","","","","","","","","","","","","","","","","","","","","","50",""
"4665","","<div style=""width:500px;"">
  <p>How would you describe your current emotional state?</p>
  </div>","50","html-slider-response","82","4193709","0.0-10.0-3.8","254","1","2025-07-02 12:54:30","80fe4187154257d5fb01684ea91b68b9","105.245.52.14","Mozilla/5.0 (Windows NT 10.0; Win64; x64) AppleWebKit/537.36 (KHTML, like Gecko) Chrome/138.0.0.0 Safari/537.36","WebKit","Chrome","138.0.0.0","Windows","10.0","https://app.prolific.com/","en-ZA,en-GB;q=0.9,en-US;q=0.8,en;q=0.7","6697c8b6d9d7baa7edd8c4d3","683db6dfa200031b80f2a654","686526544bdfec7b075bdd30","6697c8b6d9d7baa7edd8c4d3","2025-07-02T14:04:43.831Z","","","","","","StressQ","","","","","","","","","","","","","","","","","","","","","","","","","","","","","","","","","","","","","","50",""
"3451","","<div style=""width:500px;"">
  <p>What best describes how you currently feel?</p>
  </div>","50","html-slider-response","83","4197162","0.0-10.0-4.8","254","1","2025-07-02 12:54:30","80fe4187154257d5fb01684ea91b68b9","105.245.52.14","Mozilla/5.0 (Windows NT 10.0; Win64; x64) AppleWebKit/537.36 (KHTML, like Gecko) Chrome/138.0.0.0 Safari/537.36","WebKit","Chrome","138.0.0.0","Windows","10.0","https://app.prolific.com/","en-ZA,en-GB;q=0.9,en-US;q=0.8,en;q=0.7","6697c8b6d9d7baa7edd8c4d3","683db6dfa200031b80f2a654","686526544bdfec7b075bdd30","6697c8b6d9d7baa7edd8c4d3","2025-07-02T14:04:47.284Z","","","","","","MotivationQ","","","","","","","","","","","","","","","","","","","","","","","","","","","","","","","","","","","","","","50",""
