"rt","response_timestamp","stimulus","response","trial_type","trial_index","time_elapsed","internal_node_id","run_id","condition","recorded_at","source_code_version","ip","user_agent","device","browser","browser_version","platform","platform_version","referer","accept_language","PROLIFIC_PID","STUDY_ID","SESSION_ID","prolific_id","realtime","view_history","question_order","consent","success","question_id","eventType","responses","item_order","radio_event_ids","radio_event_times","key_event_times","mouse_event_times","straightlining","zigzagging","honeypot","which_type","canvas_config","goals_layout","control_level","trial_number","tutorial_trial_number","trial_start_time","phase1_start_time","phase2_start_time","phase3_start_time","goal_1_value","goal_1_distance","goal_2_value","goal_2_distance","goal_selected","outcome","outcome_total","participant_final_score","participant_initial_score","participant_final_score_prop","goal_choice_rt","allocated_time","allocated_time_remaining","goal_direction","counts","mouse_movements","key_presses","correct","slider_start"
"8351","1751451585571","<p style='font-size:40px;line-height:1.25'><strong>Welcome to the experiment!</strong></p><p style='font-size:1.1em;line-height:1.25'>Thank you for your interest in our experiment! Before you begin, it is important that we obtain your informed consent to participate in the study.</p><p style='font-size:1.1em;line-height:1.25'>On the next screen will be an <strong>information sheet</strong> for you to read. To participate in the study we need you to read this information sheet and the following consent form carefully. If you agree with all the statements, please click the <strong>I agree</strong> button.</p><p style='font-size:1.1em;line-height:1.25'>Press <strong>Next</strong> to read the information sheet.</p>","0","custom-html-button-response","0","8353","0.0-0.0","108","1","2025-07-02 10:19:35","80fe4187154257d5fb01684ea91b68b9","31.21.169.6","Mozilla/5.0 (Windows NT 10.0; Win64; x64) AppleWebKit/537.36 (KHTML, like Gecko) Chrome/137.0.0.0 Safari/537.36","WebKit","Chrome","137.0.0.0","Windows","10.0","https://app.prolific.com/","en-US,en;q=0.9,nl;q=0.8","6698f8ca0354d4ef9692bf7a","683db6dfa200031b80f2a654","6865078fd83a145f622eb4f4","6698f8ca0354d4ef9692bf7a","2025-07-02T10:19:45.572Z","","","","","","","","","","","","","","","","","","","","","","","","","","","","","","","","","","","","","","","","","","","",""
"108105","","","","instructions","1","116460","0.0-1.0","108","1","2025-07-02 10:19:35","80fe4187154257d5fb01684ea91b68b9","31.21.169.6","Mozilla/5.0 (Windows NT 10.0; Win64; x64) AppleWebKit/537.36 (KHTML, like Gecko) Chrome/137.0.0.0 Safari/537.36","WebKit","Chrome","137.0.0.0","Windows","10.0","https://app.prolific.com/","en-US,en;q=0.9,nl;q=0.8","6698f8ca0354d4ef9692bf7a","683db6dfa200031b80f2a654","6865078fd83a145f622eb4f4","6698f8ca0354d4ef9692bf7a","","[{""page_index"":0,""viewing_time"":65746},{""page_index"":1,""viewing_time"":42359}]","","","","","","","","","","","","","","","","","","","","","","","","","","","","","","","","","","","","","","","","","","",""
"6007","","","{""Q0"":"""",""Q1"":"""",""Q2"":"""",""Q3"":"""",""Q4"":"""",""Q5"":"""",""Q6"":""I agree""}","survey-multi-choice","2","122469","0.0-2.0","108","1","2025-07-02 10:19:35","80fe4187154257d5fb01684ea91b68b9","31.21.169.6","Mozilla/5.0 (Windows NT 10.0; Win64; x64) AppleWebKit/537.36 (KHTML, like Gecko) Chrome/137.0.0.0 Safari/537.36","WebKit","Chrome","137.0.0.0","Windows","10.0","https://app.prolific.com/","en-US,en;q=0.9,nl;q=0.8","6698f8ca0354d4ef9692bf7a","683db6dfa200031b80f2a654","6865078fd83a145f622eb4f4","6698f8ca0354d4ef9692bf7a","","","[0,1,2,3,4,5,6]","true","","","","","","","","","","","","","","","","","","","","","","","","","","","","","","","","","","","","","","","","",""
"8682","","","","fullscreen","3","132168","0.0-4.0","108","1","2025-07-02 10:19:35","80fe4187154257d5fb01684ea91b68b9","31.21.169.6","Mozilla/5.0 (Windows NT 10.0; Win64; x64) AppleWebKit/537.36 (KHTML, like Gecko) Chrome/137.0.0.0 Safari/537.36","WebKit","Chrome","137.0.0.0","Windows","10.0","https://app.prolific.com/","en-US,en;q=0.9,nl;q=0.8","6698f8ca0354d4ef9692bf7a","683db6dfa200031b80f2a654","6865078fd83a145f622eb4f4","6698f8ca0354d4ef9692bf7a","","","","","true","","","","","","","","","","","","","","","","","","","","","","","","","","","","","","","","","","","","","","","",""
"5589","1751451714977"," <p style='font-size:1.1em;line-height:1.25'>Thank you for completing the consent form and closing all other tabs.</p><p style='font-size:1.1em;line-height:1.25'>We will now invite you to fill in some demographic information and questionnaires, before starting the game.<br>This will take about 5 minutes.<br></p><p style='font-size:1.1em;line-height:1.25'>Press the <strong>Next</strong> button to continue.</p>","0","custom-html-button-response","4","137760","0.0-5.0","108","1","2025-07-02 10:19:35","80fe4187154257d5fb01684ea91b68b9","31.21.169.6","Mozilla/5.0 (Windows NT 10.0; Win64; x64) AppleWebKit/537.36 (KHTML, like Gecko) Chrome/137.0.0.0 Safari/537.36","WebKit","Chrome","137.0.0.0","Windows","10.0","https://app.prolific.com/","en-US,en;q=0.9,nl;q=0.8","6698f8ca0354d4ef9692bf7a","683db6dfa200031b80f2a654","6865078fd83a145f622eb4f4","6698f8ca0354d4ef9692bf7a","2025-07-02T10:21:54.978Z","","","","","","","","","","","","","","","","","","","","","","","","","","","","","","","","","","","","","","","","","","","",""
"5391","","","{""age"":""28""}","survey-text","5","143153","0.0-6.0-0.0","108","1","2025-07-02 10:19:35","80fe4187154257d5fb01684ea91b68b9","31.21.169.6","Mozilla/5.0 (Windows NT 10.0; Win64; x64) AppleWebKit/537.36 (KHTML, like Gecko) Chrome/137.0.0.0 Safari/537.36","WebKit","Chrome","137.0.0.0","Windows","10.0","https://app.prolific.com/","en-US,en;q=0.9,nl;q=0.8","6698f8ca0354d4ef9692bf7a","683db6dfa200031b80f2a654","6865078fd83a145f622eb4f4","6698f8ca0354d4ef9692bf7a","","","","","","0","demographics","","","","","","","","","","","","","","","","","","","","","","","","","","","","","","","","","","","","","",""
"4416","","","{""gender_identity"":""female/woman""}","survey-multi-choice","6","147569","0.0-6.0-1.0","108","1","2025-07-02 10:19:35","80fe4187154257d5fb01684ea91b68b9","31.21.169.6","Mozilla/5.0 (Windows NT 10.0; Win64; x64) AppleWebKit/537.36 (KHTML, like Gecko) Chrome/137.0.0.0 Safari/537.36","WebKit","Chrome","137.0.0.0","Windows","10.0","https://app.prolific.com/","en-US,en;q=0.9,nl;q=0.8","6698f8ca0354d4ef9692bf7a","683db6dfa200031b80f2a654","6865078fd83a145f622eb4f4","6698f8ca0354d4ef9692bf7a","","","[0]","","","1","demographics","","","","","","","","","","","","","","","","","","","","","","","","","","","","","","","","","","","","","",""
"3086","","","{""assigned_sex"":""female""}","survey-multi-choice","7","150656","0.0-6.0-2.0","108","1","2025-07-02 10:19:35","80fe4187154257d5fb01684ea91b68b9","31.21.169.6","Mozilla/5.0 (Windows NT 10.0; Win64; x64) AppleWebKit/537.36 (KHTML, like Gecko) Chrome/137.0.0.0 Safari/537.36","WebKit","Chrome","137.0.0.0","Windows","10.0","https://app.prolific.com/","en-US,en;q=0.9,nl;q=0.8","6698f8ca0354d4ef9692bf7a","683db6dfa200031b80f2a654","6865078fd83a145f622eb4f4","6698f8ca0354d4ef9692bf7a","","","[0]","","","2","demographics","","","","","","","","","","","","","","","","","","","","","","","","","","","","","","","","","","","","","",""
"9064","","","{""menstrual_cycle"":""Yes""}","survey-multi-choice","8","159721","0.0-6.0-3.0","108","1","2025-07-02 10:19:35","80fe4187154257d5fb01684ea91b68b9","31.21.169.6","Mozilla/5.0 (Windows NT 10.0; Win64; x64) AppleWebKit/537.36 (KHTML, like Gecko) Chrome/137.0.0.0 Safari/537.36","WebKit","Chrome","137.0.0.0","Windows","10.0","https://app.prolific.com/","en-US,en;q=0.9,nl;q=0.8","6698f8ca0354d4ef9692bf7a","683db6dfa200031b80f2a654","6865078fd83a145f622eb4f4","6698f8ca0354d4ef9692bf7a","","","[0]","","","4","demographics","","","","","","","","","","","","","","","","","","","","","","","","","","","","","","","","","","","","","",""
"11458","","","{""education"":""Master's Degree (e.g., MSc)""}","survey-multi-choice","9","171180","0.0-6.0-4.0","108","1","2025-07-02 10:19:35","80fe4187154257d5fb01684ea91b68b9","31.21.169.6","Mozilla/5.0 (Windows NT 10.0; Win64; x64) AppleWebKit/537.36 (KHTML, like Gecko) Chrome/137.0.0.0 Safari/537.36","WebKit","Chrome","137.0.0.0","Windows","10.0","https://app.prolific.com/","en-US,en;q=0.9,nl;q=0.8","6698f8ca0354d4ef9692bf7a","683db6dfa200031b80f2a654","6865078fd83a145f622eb4f4","6698f8ca0354d4ef9692bf7a","","","[0]","","","5","demographics","","","","","","","","","","","","","","","","","","","","","","","","","","","","","","","","","","","","","",""
"7212","","","{""education"":""Bachelor's Degree (e.g., BA)""}","survey-multi-choice","10","178393","0.0-6.0-5.0","108","1","2025-07-02 10:19:35","80fe4187154257d5fb01684ea91b68b9","31.21.169.6","Mozilla/5.0 (Windows NT 10.0; Win64; x64) AppleWebKit/537.36 (KHTML, like Gecko) Chrome/137.0.0.0 Safari/537.36","WebKit","Chrome","137.0.0.0","Windows","10.0","https://app.prolific.com/","en-US,en;q=0.9,nl;q=0.8","6698f8ca0354d4ef9692bf7a","683db6dfa200031b80f2a654","6865078fd83a145f622eb4f4","6698f8ca0354d4ef9692bf7a","2025-07-02T10:22:35.611Z","","[0]","","","6","demographics","","","","","","","","","","","","","","","","","","","","","","","","","","","","","","","","","","","","","",""
"17670","","","{""mental_health_condition"":""No"",""mental_health_treatment"":""No"",""psychiatric_medication"":""None""}","survey-text","11","196065","0.0-7.0-0.0","108","1","2025-07-02 10:19:35","80fe4187154257d5fb01684ea91b68b9","31.21.169.6","Mozilla/5.0 (Windows NT 10.0; Win64; x64) AppleWebKit/537.36 (KHTML, like Gecko) Chrome/137.0.0.0 Safari/537.36","WebKit","Chrome","137.0.0.0","Windows","10.0","https://app.prolific.com/","en-US,en;q=0.9,nl;q=0.8","6698f8ca0354d4ef9692bf7a","683db6dfa200031b80f2a654","6865078fd83a145f622eb4f4","6698f8ca0354d4ef9692bf7a","2025-07-02T10:22:53.283Z","","","","","1","mental_health","","","","","","","","","","","","","","","","","","","","","","","","","","","","","","","","","","","","","",""
"14126","","","{""depression_history"":[""No""]}","survey-multi-select","12","210192","0.0-7.0-1.0","108","1","2025-07-02 10:19:35","80fe4187154257d5fb01684ea91b68b9","31.21.169.6","Mozilla/5.0 (Windows NT 10.0; Win64; x64) AppleWebKit/537.36 (KHTML, like Gecko) Chrome/137.0.0.0 Safari/537.36","WebKit","Chrome","137.0.0.0","Windows","10.0","https://app.prolific.com/","en-US,en;q=0.9,nl;q=0.8","6698f8ca0354d4ef9692bf7a","683db6dfa200031b80f2a654","6865078fd83a145f622eb4f4","6698f8ca0354d4ef9692bf7a","","","[0]","","","","mental_health","","","","","","","","","","","","","","","","","","","","","","","","","","","","","","","","","","","","","",""
"82751.90000000596","","","","survey-template","13","292947","0.0-7.0-3.0","108","1","2025-07-02 10:19:35","80fe4187154257d5fb01684ea91b68b9","31.21.169.6","Mozilla/5.0 (Windows NT 10.0; Win64; x64) AppleWebKit/537.36 (KHTML, like Gecko) Chrome/137.0.0.0 Safari/537.36","WebKit","Chrome","137.0.0.0","Windows","10.0","https://app.prolific.com/","en-US,en;q=0.9,nl;q=0.8","6698f8ca0354d4ef9692bf7a","683db6dfa200031b80f2a654","6865078fd83a145f622eb4f4","6698f8ca0354d4ef9692bf7a","2025-07-02T10:24:30.165Z","","","","","","ius","{""Q01"":""2"",""Q02"":""0"",""Q03"":""0"",""Q04"":""1"",""Q05"":""1"",""Q06"":""0"",""Q07"":""1"",""Q08"":""0"",""Q09"":""2"",""Q10"":""0"",""Q11"":""2"",""Q12"":""1"",""Q13"":""0""}","[0,1,2,3,4,5,6,7,8,9,10,11,12]","[""Q01"",""Q02"",""Q03"",""Q04"",""Q05"",""Q06"",""Q07"",""Q08"",""Q09"",""Q09"",""Q10"",""Q11"",""Q12"",""Q13"",""Q12"",""Q12""]","[8230.5,15734,19093.90000000596,23214.30000001192,34649.80000001192,38138.40000000596,44138,47050.20000001788,53740,56257.80000001192,58881.5,63994.30000001192,70418.40000000596,73580.30000001192,74553.90000000596,81282.10000002384]","[]","[7517.700000017881,8230.5,15734,19093.90000000596,22631.30000001192,23214.30000001192,34649.80000001192,38138.40000000596,44138,47050.20000001788,53740,55698.20000001788,56257.80000001192,58881.5,63994.30000001192,70418.40000000596,73580.30000001192,74553.90000000596,80194.5,81282.10000002384,82749.70000001788]","0.46153846153846156","0.5","0","","","","","","","","","","","","","","","","","","","","","","","","","","","","",""
"3796","1751451873962","<p style='font-size:1.1em;line-height:1.25'>In the following, we will ask you a few questions relating to your experiences over the past month.<br></p><p style='font-size:1.1em;line-height:1.25'>Press the <strong>Next</strong> button to continue.</p>","0","custom-html-button-response","14","296744","0.0-7.0-4.0","108","1","2025-07-02 10:19:35","80fe4187154257d5fb01684ea91b68b9","31.21.169.6","Mozilla/5.0 (Windows NT 10.0; Win64; x64) AppleWebKit/537.36 (KHTML, like Gecko) Chrome/137.0.0.0 Safari/537.36","WebKit","Chrome","137.0.0.0","Windows","10.0","https://app.prolific.com/","en-US,en;q=0.9,nl;q=0.8","6698f8ca0354d4ef9692bf7a","683db6dfa200031b80f2a654","6865078fd83a145f622eb4f4","6698f8ca0354d4ef9692bf7a","2025-07-02T10:24:33.963Z","","","","","","","","","","","","","","","","","","","","","","","","","","","","","","","","","","","","","","","","","","","",""
"58322.59999999404","","","","survey-template","15","355069","0.0-7.0-5.0","108","1","2025-07-02 10:19:35","80fe4187154257d5fb01684ea91b68b9","31.21.169.6","Mozilla/5.0 (Windows NT 10.0; Win64; x64) AppleWebKit/537.36 (KHTML, like Gecko) Chrome/137.0.0.0 Safari/537.36","WebKit","Chrome","137.0.0.0","Windows","10.0","https://app.prolific.com/","en-US,en;q=0.9,nl;q=0.8","6698f8ca0354d4ef9692bf7a","683db6dfa200031b80f2a654","6865078fd83a145f622eb4f4","6698f8ca0354d4ef9692bf7a","2025-07-02T10:25:32.287Z","","","","","","pss","{""Q01"":""1"",""Q02"":""0"",""Q03"":""0"",""Q04"":""0"",""Q05"":""0"",""Q06"":""2"",""Q07"":""1"",""Q08"":""1"",""Q09"":""0"",""Q10"":""0""}","[0,1,2,3,4,5,6,7,8,9]","[""Q01"",""Q02"",""Q03"",""Q04"",""Q05"",""Q06"",""Q07"",""Q08"",""Q09"",""Q10"",""Q10""]","[8570.5,12898.59999999404,16250.59999999404,20852.399999976158,25155,30562.59999999404,38466.69999998808,42746.69999998808,49116,56086.39999997616,57223.59999999404]","[]","[0,8570.5,12898.59999999404,16250.59999999404,20852.399999976158,25155,30562.59999999404,38466.69999998808,42746.69999998808,49116,56086.39999997616,57223.59999999404,58320.19999998808]","0.4","0.3333333333333333","0","","","","","","","","","","","","","","","","","","","","","","","","","","","","",""
"2972","1751451935260","<p style='font-size:1.1em;line-height:1.25'>Thank you for your answers! Now we will ask you a few more questions relating to your feelings in the last 24 hours.<br></p><p style='font-size:1.1em;line-height:1.25'>Press the <strong>Next</strong> button to continue.</p>","0","custom-html-button-response","16","358042","0.0-7.0-6.0","108","1","2025-07-02 10:19:35","80fe4187154257d5fb01684ea91b68b9","31.21.169.6","Mozilla/5.0 (Windows NT 10.0; Win64; x64) AppleWebKit/537.36 (KHTML, like Gecko) Chrome/137.0.0.0 Safari/537.36","WebKit","Chrome","137.0.0.0","Windows","10.0","https://app.prolific.com/","en-US,en;q=0.9,nl;q=0.8","6698f8ca0354d4ef9692bf7a","683db6dfa200031b80f2a654","6865078fd83a145f622eb4f4","6698f8ca0354d4ef9692bf7a","2025-07-02T10:25:35.260Z","","","","","","","","","","","","","","","","","","","","","","","","","","","","","","","","","","","","","","","","","","","",""
"69900.20000001788","","","","survey-template","17","427945","0.0-7.0-7.0","108","1","2025-07-02 10:19:35","80fe4187154257d5fb01684ea91b68b9","31.21.169.6","Mozilla/5.0 (Windows NT 10.0; Win64; x64) AppleWebKit/537.36 (KHTML, like Gecko) Chrome/137.0.0.0 Safari/537.36","WebKit","Chrome","137.0.0.0","Windows","10.0","https://app.prolific.com/","en-US,en;q=0.9,nl;q=0.8","6698f8ca0354d4ef9692bf7a","683db6dfa200031b80f2a654","6865078fd83a145f622eb4f4","6698f8ca0354d4ef9692bf7a","2025-07-02T10:26:45.163Z","","","","","","drsp","{""Q01"":""1"",""Q02"":""1"",""Q03"":""0"",""Q04"":""0"",""Q05"":""1"",""Q06"":""1"",""Q07"":""1"",""Q08"":""0"",""Q09"":""1"",""Q10"":""1"",""Q11"":""2"",""Q12"":""1"",""Q13"":""3"",""Q14"":""4"",""Q15"":""2"",""Q16"":""3"",""Q17"":""1"",""Q18"":""2"",""Q19"":""3"",""Q20"":""4"",""Q21"":""3""}","[0,1,2,3,4,5,6,7,8,9,10,11,12,13,14,15,16,17,18,19,20]","[""Q01"",""Q02"",""Q03"",""Q04"",""Q05"",""Q06"",""Q07"",""Q08"",""Q09"",""Q10"",""Q11"",""Q12"",""Q13"",""Q14"",""Q15"",""Q15"",""Q16"",""Q17"",""Q18"",""Q19"",""Q20"",""Q21""]","[5820.200000017881,8604.200000017881,9732.800000011921,11252.40000000596,13390.300000011921,21548.70000001788,22229,24556.600000023842,25668,28804.100000023842,30390.20000001788,34692.30000001192,36492.60000002384,39368.20000001788,41924.5,43908.30000001192,46748.60000002384,48908.30000001192,58820.60000002384,63244.90000000596,66628.40000000596,69160.40000000596]","[]","[0.10000002384185791,5820.200000017881,8604.200000017881,9732.800000011921,11252.40000000596,13390.300000011921,19005.20000001788,20236.600000023842,20934.90000000596,21548.70000001788,22229,24556.600000023842,25668,28804.100000023842,30390.20000001788,34692.30000001192,36492.60000002384,39368.20000001788,41924.5,43908.30000001192,46748.60000002384,48908.30000001192,58820.60000002384,63244.90000000596,66628.40000000596,69160.40000000596,69896.40000000596]","0.42857142857142855","0.6","0","","","","","","","","","","","","","","","","","","","","","","","","","","","","",""
"25242.69999998808","","","","survey-template","18","453189","0.0-7.0-8.0","108","1","2025-07-02 10:19:35","80fe4187154257d5fb01684ea91b68b9","31.21.169.6","Mozilla/5.0 (Windows NT 10.0; Win64; x64) AppleWebKit/537.36 (KHTML, like Gecko) Chrome/137.0.0.0 Safari/537.36","WebKit","Chrome","137.0.0.0","Windows","10.0","https://app.prolific.com/","en-US,en;q=0.9,nl;q=0.8","6698f8ca0354d4ef9692bf7a","683db6dfa200031b80f2a654","6865078fd83a145f622eb4f4","6698f8ca0354d4ef9692bf7a","2025-07-02T10:27:10.407Z","","","","","","stress","{""Q01"":""0"",""Q02"":""0"",""Q03"":""1""}","[0,1,2]","[""Q01"",""Q02"",""Q03""]","[8874.5,14193.300000011921,18477.80000001192]","[]","[8874.5,14193.300000011921,18477.80000001192,25241.90000000596]","0.3333333333333333","0.5","0","","","","","","","","","","","","","","","","","","","","","","","","","","","","",""
"88742","","","","instructions","19","541932","0.0-8.0-0.0","108","1","2025-07-02 10:19:35","80fe4187154257d5fb01684ea91b68b9","31.21.169.6","Mozilla/5.0 (Windows NT 10.0; Win64; x64) AppleWebKit/537.36 (KHTML, like Gecko) Chrome/137.0.0.0 Safari/537.36","WebKit","Chrome","137.0.0.0","Windows","10.0","https://app.prolific.com/","en-US,en;q=0.9,nl;q=0.8","6698f8ca0354d4ef9692bf7a","683db6dfa200031b80f2a654","6865078fd83a145f622eb4f4","6698f8ca0354d4ef9692bf7a","","[{""page_index"":0,""viewing_time"":26801},{""page_index"":1,""viewing_time"":28754},{""page_index"":2,""viewing_time"":8474},{""page_index"":3,""viewing_time"":24713}]","","","","","","","","","","","","","","","","","","","","","","","","","","","","","","","","","","","","","","","","","","",""
"","","","","ctl-task-cpt","20","587756","0.0-8.0-1.0","108","1","2025-07-02 10:19:35","80fe4187154257d5fb01684ea91b68b9","31.21.169.6","Mozilla/5.0 (Windows NT 10.0; Win64; x64) AppleWebKit/537.36 (KHTML, like Gecko) Chrome/137.0.0.0 Safari/537.36","WebKit","Chrome","137.0.0.0","Windows","10.0","https://app.prolific.com/","en-US,en;q=0.9,nl;q=0.8","6698f8ca0354d4ef9692bf7a","683db6dfa200031b80f2a654","6865078fd83a145f622eb4f4","6698f8ca0354d4ef9692bf7a","","","","","","","","","","","","","","","","","win-only","0","g1:NW,g2:SE","1","0","1","542678.9","4555","8556.9","42819.3","2","4","4","6","2","4","2","2","0","0.015151515151515152","2134.8","4000","1720","[""down"",""right""]","{""num_key_presses"":8,""num_perfect"":6,""num_errors"":2,""num_randdir"":0,""num_randdir_good_moves"":0,""num_whilered"":0,""num_whileblue"":0,""num_blue"":4,""num_good_moves"":6}","[421.5714133126395,414.07142761775424,0.3,421.5714133126395,414.07142761775424,100.8,421.5714133126395,414.07142761775424,201,421.5714133126395,414.07142761775424,305.3,421.5714133126395,414.07142761775424,411.4,405.3214133126395,427.82142761775424,515.7,416.5714133126395,431.57142761775424,620.4,491.5714133126395,481.57142761775424,720.4,641.5714133126395,569.0714276177542,820.4,671.5714133126395,615.3214276177542,921.5,676.5714133126395,667.8214276177542,1025.4,421.5714133126395,499.07142761775424,1125.4,134.0714133126395,187.82142761775424,1225.9,62.82141331263951,80.32142761775425,1325.9,61.57141331263951,76.57142761775425,1426.5,62.82141331263951,76.57142761775425,1531.5,359.0714133126395,321.57142761775424,1636.1,910.3214133126395,771.5714276177542,1741.9,909.0714133126395,771.5714276177542,1846.1,816.5714133126395,722.8214276177542,1946.9,755.3214133126395,720.3214276177542,2050.4,755.3214133126395,720.3214276177542,2151.6,755.3214133126395,720.3214276177542,2255.7,755.3214133126395,720.3214276177542,2356.8,755.3214133126395,720.3214276177542,2461.9,755.3214133126395,720.3214276177542,2565.4,755.3214133126395,720.3214276177542,2666,755.3214133126395,720.3214276177542,2770.7,755.3214133126395,720.3214276177542,2875.9,755.3214133126395,720.3214276177542,2976.2,755.3214133126395,720.3214276177542,3080.8,755.3214133126395,720.3214276177542,3186.3,740.3214133126395,716.5714276177542,3291.3,666.5714133126395,677.8214276177542,3395.8,676.5714133126395,681.5714276177542,3496.1,725.3214133126395,707.8214276177542,3601.9,781.5714133126395,737.8214276177542,3705.4,791.5714133126395,745.3214276177542,3806.3,794.0714133126395,746.5714276177542,3911]","[293.9,293.8,1000,0.1,-706.2,""error"",""-"",""-"",""no_move"",3957.7,3663.6,2342.1,1299.4,316.2,""smooth"",""down"",""down"",""good_move"",4176.9,219.1,2671.2,3957.8,-2452.1,""error"",""-"",""-"",""no_move"",8074.8,3897.7,2503.5,5180.7,390.6,""smooth"",""down"",""down"",""good_move"",18079.9,10004.8,2795.6,14864.4,419.9,""smooth"",""down"",""down"",""good_move"",24699.6,6619.5,2686.5,21634.2,378.9,""smooth"",""right"",""right"",""good_move"",28296.1,3596.1,3116.6,24700.1,479.5,""smooth"",""right"",""right"",""good_move"",34170.8,5874.2,2086.7,31748.7,335.4,""smooth"",""right"",""right"",""good_move""]","",""
"11293","","","","instructions","21","599049","0.0-8.0-2.0","108","1","2025-07-02 10:19:35","80fe4187154257d5fb01684ea91b68b9","31.21.169.6","Mozilla/5.0 (Windows NT 10.0; Win64; x64) AppleWebKit/537.36 (KHTML, like Gecko) Chrome/137.0.0.0 Safari/537.36","WebKit","Chrome","137.0.0.0","Windows","10.0","https://app.prolific.com/","en-US,en;q=0.9,nl;q=0.8","6698f8ca0354d4ef9692bf7a","683db6dfa200031b80f2a654","6865078fd83a145f622eb4f4","6698f8ca0354d4ef9692bf7a","","[{""page_index"":0,""viewing_time"":11292}]","","","","","","","","","","","","","","","","","","","","","","","","","","","","","","","","","","","","","","","","","","",""
"","","","","ctl-task-cpt","22","630556","0.0-8.0-3.0","108","1","2025-07-02 10:19:35","80fe4187154257d5fb01684ea91b68b9","31.21.169.6","Mozilla/5.0 (Windows NT 10.0; Win64; x64) AppleWebKit/537.36 (KHTML, like Gecko) Chrome/137.0.0.0 Safari/537.36","WebKit","Chrome","137.0.0.0","Windows","10.0","https://app.prolific.com/","en-US,en;q=0.9,nl;q=0.8","6698f8ca0354d4ef9692bf7a","683db6dfa200031b80f2a654","6865078fd83a145f622eb4f4","6698f8ca0354d4ef9692bf7a","","","","","","","","","","","","","","","","","win-only","0","g1:NW,g2:SE","0.35","0","3","599794.7","1525.9","5530.7","28495.6","2","4","8","6","2","8","8","8","0","0.06060606060606061","1528.5","4000","1740","[""down"",""right""]","{""num_key_presses"":6,""num_perfect"":4,""num_errors"":0,""num_randdir"":2,""num_randdir_good_moves"":2,""num_whilered"":0,""num_whileblue"":0,""num_blue"":2,""num_good_moves"":6}","[409.0714133126395,420.32142761775424,0.2,409.0714133126395,420.32142761775424,104.8,409.0714133126395,420.32142761775424,209.3,409.0714133126395,420.32142761775424,309.4,409.0714133126395,420.32142761775424,409.7,409.0714133126395,420.32142761775424,509.7,409.0714133126395,420.32142761775424,614.8,409.0714133126395,420.32142761775424,715.2,409.0714133126395,420.32142761775424,820.2,749.0714133126395,581.5714276177542,924.5,749.0714133126395,664.0714276177542,1025,739.0714133126395,691.5714276177542,1129.2,690.3214133126395,715.3214276177542,1229.2,704.0714133126395,726.5714276177542,1330.7,762.8214133126395,747.8214276177542,1434.8,762.8214133126395,747.8214276177542,1539.5,762.8214133126395,747.8214276177542,1639.5,762.8214133126395,747.8214276177542,1740.1,762.8214133126395,747.8214276177542,1845.1,762.8214133126395,747.8214276177542,1949.4,762.8214133126395,747.8214276177542,2049.4,762.8214133126395,747.8214276177542,2154.8,762.8214133126395,747.8214276177542,2255.1,762.8214133126395,747.8214276177542,2359.5,762.8214133126395,747.8214276177542,2459.7,762.8214133126395,747.8214276177542,2560.9,762.8214133126395,747.8214276177542,2664.3,762.8214133126395,747.8214276177542,2764.5,762.8214133126395,747.8214276177542,2865.1,762.8214133126395,747.8214276177542,2970.1,762.8214133126395,747.8214276177542,3074.4,762.8214133126395,747.8214276177542,3174.5,762.8214133126395,747.8214276177542,3279.3,762.8214133126395,747.8214276177542,3385.2,762.8214133126395,747.8214276177542,3485.2,762.8214133126395,747.8214276177542,3589.6,762.8214133126395,747.8214276177542,3690.1,762.8214133126395,747.8214276177542,3790.1,762.8214133126395,747.8214276177542,3894.2,762.8214133126395,747.8214276177542,3994.9]","[5016.8,5016.8,2681.3,2004.6,330.9,""smooth"",""down"",""down"",""good_move"",7871.3,2854.1,2387.2,5017.3,466.8,""oops"",""down"",""down"",""good_move"",13932.2,6060.5,2094.8,11454.7,382.7,""smooth"",""down"",""down"",""good_move"",16840.8,2908.2,2487.1,13932.6,421.1,""smooth"",""right"",""right"",""good_move"",19821.8,2980.7,2616.3,16841.1,364.4,""oops"",""right"",""right"",""good_move"",22879.2,3057.1,2731.2,19822.1,325.9,""smooth"",""right"",""right"",""good_move""]","",""
"32955","","","","instructions","23","663512","0.0-8.0-4.0","108","1","2025-07-02 10:19:35","80fe4187154257d5fb01684ea91b68b9","31.21.169.6","Mozilla/5.0 (Windows NT 10.0; Win64; x64) AppleWebKit/537.36 (KHTML, like Gecko) Chrome/137.0.0.0 Safari/537.36","WebKit","Chrome","137.0.0.0","Windows","10.0","https://app.prolific.com/","en-US,en;q=0.9,nl;q=0.8","6698f8ca0354d4ef9692bf7a","683db6dfa200031b80f2a654","6865078fd83a145f622eb4f4","6698f8ca0354d4ef9692bf7a","","[{""page_index"":0,""viewing_time"":10371},{""page_index"":1,""viewing_time"":22584}]","","","","","","","","","","","","","","","","","","","","","","","","","","","","","","","","","","","","","","","","","","",""
"16286","","","{""green_ball"":[""Ball sometimes shakes and moves in a random direction""]}","survey-multi-select","24","679800","0.0-8.0-5.0-0.0","108","1","2025-07-02 10:19:35","80fe4187154257d5fb01684ea91b68b9","31.21.169.6","Mozilla/5.0 (Windows NT 10.0; Win64; x64) AppleWebKit/537.36 (KHTML, like Gecko) Chrome/137.0.0.0 Safari/537.36","WebKit","Chrome","137.0.0.0","Windows","10.0","https://app.prolific.com/","en-US,en;q=0.9,nl;q=0.8","6698f8ca0354d4ef9692bf7a","683db6dfa200031b80f2a654","6865078fd83a145f622eb4f4","6698f8ca0354d4ef9692bf7a","","","[0]","","","","quiz","","","","","","","","","","","","","","","","","","","","","","","","","","","","","","","","","","","","","true",""
"3069","","<p align='center'><b>CORRECT!</b> Indeed, the green ball may sometimes shake and move in a random direction.</p>","0","html-button-response","25","682871","0.0-8.0-5.0-1.0","108","1","2025-07-02 10:19:35","80fe4187154257d5fb01684ea91b68b9","31.21.169.6","Mozilla/5.0 (Windows NT 10.0; Win64; x64) AppleWebKit/537.36 (KHTML, like Gecko) Chrome/137.0.0.0 Safari/537.36","WebKit","Chrome","137.0.0.0","Windows","10.0","https://app.prolific.com/","en-US,en;q=0.9,nl;q=0.8","6698f8ca0354d4ef9692bf7a","683db6dfa200031b80f2a654","6865078fd83a145f622eb4f4","6698f8ca0354d4ef9692bf7a","","","","","","","","","","","","","","","","","","","","","","","","","","","","","","","","","","","","","","","","","","","","",""
"10592","","","{""yellow_ball"":[""Ball doesn‘t move and I get -1 penalty point""]}","survey-multi-select","26","693464","0.0-8.0-6.0-0.0","108","1","2025-07-02 10:19:35","80fe4187154257d5fb01684ea91b68b9","31.21.169.6","Mozilla/5.0 (Windows NT 10.0; Win64; x64) AppleWebKit/537.36 (KHTML, like Gecko) Chrome/137.0.0.0 Safari/537.36","WebKit","Chrome","137.0.0.0","Windows","10.0","https://app.prolific.com/","en-US,en;q=0.9,nl;q=0.8","6698f8ca0354d4ef9692bf7a","683db6dfa200031b80f2a654","6865078fd83a145f622eb4f4","6698f8ca0354d4ef9692bf7a","","","[0]","","","","quiz","","","","","","","","","","","","","","","","","","","","","","","","","","","","","","","","","","","","","true",""
"1183","","<p align='center'><b>CORRECT!</b> Indeed, the yellow ball never moves and you receive a penalty.</p>","0","html-button-response","27","694648","0.0-8.0-6.0-1.0","108","1","2025-07-02 10:19:35","80fe4187154257d5fb01684ea91b68b9","31.21.169.6","Mozilla/5.0 (Windows NT 10.0; Win64; x64) AppleWebKit/537.36 (KHTML, like Gecko) Chrome/137.0.0.0 Safari/537.36","WebKit","Chrome","137.0.0.0","Windows","10.0","https://app.prolific.com/","en-US,en;q=0.9,nl;q=0.8","6698f8ca0354d4ef9692bf7a","683db6dfa200031b80f2a654","6865078fd83a145f622eb4f4","6698f8ca0354d4ef9692bf7a","","","","","","","","","","","","","","","","","","","","","","","","","","","","","","","","","","","","","","","","","","","","",""
"7151","","","{""blue_ball"":[""Ball always shakes and moves in a random direction""]}","survey-multi-select","28","701801","0.0-8.0-7.0-0.0","108","1","2025-07-02 10:19:35","80fe4187154257d5fb01684ea91b68b9","31.21.169.6","Mozilla/5.0 (Windows NT 10.0; Win64; x64) AppleWebKit/537.36 (KHTML, like Gecko) Chrome/137.0.0.0 Safari/537.36","WebKit","Chrome","137.0.0.0","Windows","10.0","https://app.prolific.com/","en-US,en;q=0.9,nl;q=0.8","6698f8ca0354d4ef9692bf7a","683db6dfa200031b80f2a654","6865078fd83a145f622eb4f4","6698f8ca0354d4ef9692bf7a","","","[0]","","","","quiz","","","","","","","","","","","","","","","","","","","","","","","","","","","","","","","","","","","","","true",""
"3265","","<p align='center'><b>CORRECT!</b> Indeed, the blue ball always shakes and moves in a random direction. Also there is a penalty of -1 point.</p>","0","html-button-response","29","705067","0.0-8.0-7.0-1.0","108","1","2025-07-02 10:19:35","80fe4187154257d5fb01684ea91b68b9","31.21.169.6","Mozilla/5.0 (Windows NT 10.0; Win64; x64) AppleWebKit/537.36 (KHTML, like Gecko) Chrome/137.0.0.0 Safari/537.36","WebKit","Chrome","137.0.0.0","Windows","10.0","https://app.prolific.com/","en-US,en;q=0.9,nl;q=0.8","6698f8ca0354d4ef9692bf7a","683db6dfa200031b80f2a654","6865078fd83a145f622eb4f4","6698f8ca0354d4ef9692bf7a","","","","","","","","","","","","","","","","","","","","","","","","","","","","","","","","","","","","","","","","","","","","",""
"3236","","","{""bonus"":[""When I reach 50% of points""]}","survey-multi-select","30","708305","0.0-8.0-8.0-0.0","108","1","2025-07-02 10:19:35","80fe4187154257d5fb01684ea91b68b9","31.21.169.6","Mozilla/5.0 (Windows NT 10.0; Win64; x64) AppleWebKit/537.36 (KHTML, like Gecko) Chrome/137.0.0.0 Safari/537.36","WebKit","Chrome","137.0.0.0","Windows","10.0","https://app.prolific.com/","en-US,en;q=0.9,nl;q=0.8","6698f8ca0354d4ef9692bf7a","683db6dfa200031b80f2a654","6865078fd83a145f622eb4f4","6698f8ca0354d4ef9692bf7a","","","[0]","","","","quiz","","","","","","","","","","","","","","","","","","","","","","","","","","","","","","","","","","","","","true",""
"1046","","<p align='center'><b>CORRECT!</b> Indeed, you receive 2 pounds extra when you reach 50% of points.</p>","0","html-button-response","31","709352","0.0-8.0-8.0-1.0","108","1","2025-07-02 10:19:35","80fe4187154257d5fb01684ea91b68b9","31.21.169.6","Mozilla/5.0 (Windows NT 10.0; Win64; x64) AppleWebKit/537.36 (KHTML, like Gecko) Chrome/137.0.0.0 Safari/537.36","WebKit","Chrome","137.0.0.0","Windows","10.0","https://app.prolific.com/","en-US,en;q=0.9,nl;q=0.8","6698f8ca0354d4ef9692bf7a","683db6dfa200031b80f2a654","6865078fd83a145f622eb4f4","6698f8ca0354d4ef9692bf7a","","","","","","","","","","","","","","","","","","","","","","","","","","","","","","","","","","","","","","","","","","","","",""
"2760","","","","instructions","32","712112","0.0-8.0-9.0","108","1","2025-07-02 10:19:35","80fe4187154257d5fb01684ea91b68b9","31.21.169.6","Mozilla/5.0 (Windows NT 10.0; Win64; x64) AppleWebKit/537.36 (KHTML, like Gecko) Chrome/137.0.0.0 Safari/537.36","WebKit","Chrome","137.0.0.0","Windows","10.0","https://app.prolific.com/","en-US,en;q=0.9,nl;q=0.8","6698f8ca0354d4ef9692bf7a","683db6dfa200031b80f2a654","6865078fd83a145f622eb4f4","6698f8ca0354d4ef9692bf7a","","[{""page_index"":0,""viewing_time"":2759}]","","","","","","","","","","","","","","","","","","","","","","","","","","","","","","","","","","","","","","","","","","",""
"8871","","<p>Before you start with this game please answer the following three questions yourself. </p>
  <p>Through this game, we measure several aspects of your cognitive performance, such as reaction times, multi-tasking capabilities </p>
  <p>and the ability to assess the situation you are in.</p>
  <p></p>
  <p><b>How good do you usually are in such tasks?</b></p>","100","html-slider-response","33","720984","0.0-9.0-0.0","108","1","2025-07-02 10:19:35","80fe4187154257d5fb01684ea91b68b9","31.21.169.6","Mozilla/5.0 (Windows NT 10.0; Win64; x64) AppleWebKit/537.36 (KHTML, like Gecko) Chrome/137.0.0.0 Safari/537.36","WebKit","Chrome","137.0.0.0","Windows","10.0","https://app.prolific.com/","en-US,en;q=0.9,nl;q=0.8","6698f8ca0354d4ef9692bf7a","683db6dfa200031b80f2a654","6865078fd83a145f622eb4f4","6698f8ca0354d4ef9692bf7a","2025-07-02T10:31:38.202Z","","","","","","PreSkillQ","","","","","","","","","","","","","","","","","","","","","","","","","","","","","","","","","","","","","","50"
"6759","","<div style=""width:500px;"">
  <p>How well do you think you will perform in this task compared to other participants?</p>
  </div>","84","html-slider-response","34","727744","0.0-9.0-1.0","108","1","2025-07-02 10:19:35","80fe4187154257d5fb01684ea91b68b9","31.21.169.6","Mozilla/5.0 (Windows NT 10.0; Win64; x64) AppleWebKit/537.36 (KHTML, like Gecko) Chrome/137.0.0.0 Safari/537.36","WebKit","Chrome","137.0.0.0","Windows","10.0","https://app.prolific.com/","en-US,en;q=0.9,nl;q=0.8","6698f8ca0354d4ef9692bf7a","683db6dfa200031b80f2a654","6865078fd83a145f622eb4f4","6698f8ca0354d4ef9692bf7a","2025-07-02T10:31:44.962Z","","","","","","PrePerfQ","","","","","","","","","","","","","","","","","","","","","","","","","","","","","","","","","","","","","","50"
"4302","","<div style=""width:500px;"">
  <p>What best describes how you currently feel?</p>
  </div>","89","html-slider-response","35","732048","0.0-9.0-2.0","108","1","2025-07-02 10:19:35","80fe4187154257d5fb01684ea91b68b9","31.21.169.6","Mozilla/5.0 (Windows NT 10.0; Win64; x64) AppleWebKit/537.36 (KHTML, like Gecko) Chrome/137.0.0.0 Safari/537.36","WebKit","Chrome","137.0.0.0","Windows","10.0","https://app.prolific.com/","en-US,en;q=0.9,nl;q=0.8","6698f8ca0354d4ef9692bf7a","683db6dfa200031b80f2a654","6865078fd83a145f622eb4f4","6698f8ca0354d4ef9692bf7a","2025-07-02T10:31:49.266Z","","","","","","PreMotivationQ","","","","","","","","","","","","","","","","","","","","","","","","","","","","","","","","","","","","","","50"
"","","","","ctl-task-cpt","36","758321","0.0-10.0-0.0","108","1","2025-07-02 10:19:35","80fe4187154257d5fb01684ea91b68b9","31.21.169.6","Mozilla/5.0 (Windows NT 10.0; Win64; x64) AppleWebKit/537.36 (KHTML, like Gecko) Chrome/137.0.0.0 Safari/537.36","WebKit","Chrome","137.0.0.0","Windows","10.0","https://app.prolific.com/","en-US,en;q=0.9,nl;q=0.8","6698f8ca0354d4ef9692bf7a","683db6dfa200031b80f2a654","6865078fd83a145f622eb4f4","6698f8ca0354d4ef9692bf7a","2025-07-02T10:32:15.539Z","","","","","","","","","","","","","","","","win-only","2","g1:SE,g2:NW","1","1","0","732794.7","2533.9","7536.6","23256.2","1","4","8","6","2","8","8","8","0","0.06060606060606061","848.3","3000","1085","[""left"",""up""]","{""num_key_presses"":6,""num_perfect"":6,""num_errors"":0,""num_randdir"":0,""num_randdir_good_moves"":0,""num_whilered"":0,""num_whileblue"":0,""num_blue"":0,""num_good_moves"":6}","[411.5714133126395,419.07142761775424,0.1,411.5714133126395,419.07142761775424,101.7,411.5714133126395,419.07142761775424,207.4,522.8214133126395,486.57142761775424,312.4,556.5714133126395,559.0714276177542,416.3,232.8214133126395,335.32142761775424,516.7,81.5714133126395,146.57142761775424,617.7,60.32141331263951,110.32142761775425,722.2,71.5714133126395,94.07142761775425,822.2,71.5714133126395,94.07142761775425,922.2,71.5714133126395,94.07142761775425,1028.1,71.5714133126395,94.07142761775425,1131.3,71.5714133126395,94.07142761775425,1232.7,71.5714133126395,94.07142761775425,1337.1,71.5714133126395,94.07142761775425,1442.3,71.5714133126395,94.07142761775425,1546.6,71.5714133126395,94.07142761775425,1647.3,71.5714133126395,94.07142761775425,1747.3,71.5714133126395,94.07142761775425,1847.7,71.5714133126395,94.07142761775425,1951.6,71.5714133126395,94.07142761775425,2053.7,71.5714133126395,94.07142761775425,2156.8,71.5714133126395,94.07142761775425,2261.9,71.5714133126395,94.07142761775425,2362.1,71.5714133126395,94.07142761775425,2462.3,71.5714133126395,94.07142761775425,2562.7,71.5714133126395,94.07142761775425,2666.8,71.5714133126395,94.07142761775425,2771.7,71.5714133126395,94.07142761775425,2871.8,71.5714133126395,94.07142761775425,2972.5,71.5714133126395,94.07142761775425,3077.6,71.5714133126395,94.07142761775425,3181.3,71.5714133126395,94.07142761775425,3282.5,71.5714133126395,94.07142761775425,3387.3,71.5714133126395,94.07142761775425,3492.6,71.5714133126395,94.07142761775425,3596.6,71.5714133126395,94.07142761775425,3697.3,71.5714133126395,94.07142761775425,3797.8,71.5714133126395,94.07142761775425,3902.6,71.5714133126395,94.07142761775425,4007.3,71.5714133126395,94.07142761775425,4111.7,71.5714133126395,94.07142761775425,4217,71.5714133126395,94.07142761775425,4317.3,71.5714133126395,94.07142761775425,4422.3,71.5714133126395,94.07142761775425,4522.6,71.5714133126395,94.07142761775425,4628.1,71.5714133126395,94.07142761775425,4731.7,71.5714133126395,94.07142761775425,4831.7,71.5714133126395,94.07142761775425,4936.6]","[1357,1357,1000,0,357,""smooth"",""left"",""left"",""good_move"",4498.8,3141.5,2759.4,1357.3,382.1,""smooth"",""left"",""left"",""good_move"",7408.3,2909.3,2564.7,4499,344.6,""smooth"",""left"",""left"",""good_move"",10420.3,3011.9,2739.1,7408.4,272.8,""smooth"",""up"",""up"",""good_move"",13446.5,3025.7,2737.9,10420.8,287.8,""smooth"",""up"",""up"",""good_move"",15630.7,2183.9,1887.8,13446.8,296.1,""smooth"",""up"",""up"",""good_move""]","",""
"2669","","<div style=""width:500px;"">
  <p>What determined the result of this run?</p>
  </div>","100","html-slider-response","37","760992","0.0-10.0-1.0","108","1","2025-07-02 10:19:35","80fe4187154257d5fb01684ea91b68b9","31.21.169.6","Mozilla/5.0 (Windows NT 10.0; Win64; x64) AppleWebKit/537.36 (KHTML, like Gecko) Chrome/137.0.0.0 Safari/537.36","WebKit","Chrome","137.0.0.0","Windows","10.0","https://app.prolific.com/","en-US,en;q=0.9,nl;q=0.8","6698f8ca0354d4ef9692bf7a","683db6dfa200031b80f2a654","6865078fd83a145f622eb4f4","6698f8ca0354d4ef9692bf7a","2025-07-02T10:32:18.210Z","","","","","","AttribQ","","","","","","","","","","","","","","","","","","","","","","","","","","","","","","","","","","","","","","50"
"2384","","<div style=""width:500px;"">
  <p>How much control did you have over the ball?</p>
  </div>","100","html-slider-response","38","763376","0.0-10.0-2.0","108","1","2025-07-02 10:19:35","80fe4187154257d5fb01684ea91b68b9","31.21.169.6","Mozilla/5.0 (Windows NT 10.0; Win64; x64) AppleWebKit/537.36 (KHTML, like Gecko) Chrome/137.0.0.0 Safari/537.36","WebKit","Chrome","137.0.0.0","Windows","10.0","https://app.prolific.com/","en-US,en;q=0.9,nl;q=0.8","6698f8ca0354d4ef9692bf7a","683db6dfa200031b80f2a654","6865078fd83a145f622eb4f4","6698f8ca0354d4ef9692bf7a","2025-07-02T10:32:20.594Z","","","","","","ControlQ","","","","","","","","","","","","","","","","","","","","","","","","","","","","","","","","","","","","","","50"
"8431","","<div style=""width:500px;"">
  <p>How would you describe your current emotional state?</p>
  </div>","16","html-slider-response","39","771808","0.0-10.0-3.0","108","1","2025-07-02 10:19:35","80fe4187154257d5fb01684ea91b68b9","31.21.169.6","Mozilla/5.0 (Windows NT 10.0; Win64; x64) AppleWebKit/537.36 (KHTML, like Gecko) Chrome/137.0.0.0 Safari/537.36","WebKit","Chrome","137.0.0.0","Windows","10.0","https://app.prolific.com/","en-US,en;q=0.9,nl;q=0.8","6698f8ca0354d4ef9692bf7a","683db6dfa200031b80f2a654","6865078fd83a145f622eb4f4","6698f8ca0354d4ef9692bf7a","2025-07-02T10:32:29.026Z","","","","","","StressQ","","","","","","","","","","","","","","","","","","","","","","","","","","","","","","","","","","","","","","50"
"3464","","<div style=""width:500px;"">
  <p>What best describes how you currently feel?</p>
  </div>","100","html-slider-response","40","775273","0.0-10.0-4.0","108","1","2025-07-02 10:19:35","80fe4187154257d5fb01684ea91b68b9","31.21.169.6","Mozilla/5.0 (Windows NT 10.0; Win64; x64) AppleWebKit/537.36 (KHTML, like Gecko) Chrome/137.0.0.0 Safari/537.36","WebKit","Chrome","137.0.0.0","Windows","10.0","https://app.prolific.com/","en-US,en;q=0.9,nl;q=0.8","6698f8ca0354d4ef9692bf7a","683db6dfa200031b80f2a654","6865078fd83a145f622eb4f4","6698f8ca0354d4ef9692bf7a","2025-07-02T10:32:32.491Z","","","","","","MotivationQ","","","","","","","","","","","","","","","","","","","","","","","","","","","","","","","","","","","","","","50"
"","","","","ctl-task-cpt","41","820951","0.0-10.0-0.1","108","1","2025-07-02 10:19:35","80fe4187154257d5fb01684ea91b68b9","31.21.169.6","Mozilla/5.0 (Windows NT 10.0; Win64; x64) AppleWebKit/537.36 (KHTML, like Gecko) Chrome/137.0.0.0 Safari/537.36","WebKit","Chrome","137.0.0.0","Windows","10.0","https://app.prolific.com/","en-US,en;q=0.9,nl;q=0.8","6698f8ca0354d4ef9692bf7a","683db6dfa200031b80f2a654","6865078fd83a145f622eb4f4","6698f8ca0354d4ef9692bf7a","2025-07-02T10:33:18.169Z","","","","","","","","","","","","","","","","win-only","1","g1:NE,g2:SW","0.9","2","0","776019.6","2236.9","7240.6","42670.7","1","4","4","6","2","4","4","12","8","0.09090909090909091","1724.4","3000","655","[""down"",""left""]","{""num_key_presses"":6,""num_perfect"":5,""num_errors"":0,""num_randdir"":1,""num_randdir_good_moves"":1,""num_whilered"":0,""num_whileblue"":0,""num_blue"":5,""num_good_moves"":6}","[419.0714133126395,409.07142761775424,0.4,419.0714133126395,409.07142761775424,104.5,419.0714133126395,409.07142761775424,208.3,419.0714133126395,409.07142761775424,308.3,416.5714133126395,411.57142761775424,408.3,344.0714133126395,497.82142761775424,508.6,307.8214133126395,566.5714276177542,613.5,305.3214133126395,585.3214276177542,714.3,279.0714133126395,664.0714276177542,818.7,221.5714133126395,717.8214276177542,919,194.0714133126395,726.5714276177542,1023.2,146.5714133126395,736.5714276177542,1123.4,90.3214133126395,747.8214276177542,1224.4,75.3214133126395,760.3214276177542,1328.4,75.3214133126395,760.3214276177542,1428.6,75.3214133126395,760.3214276177542,1533.5,75.3214133126395,760.3214276177542,1634.9,75.3214133126395,760.3214276177542,1739.8,75.3214133126395,760.3214276177542,1844.3,75.3214133126395,760.3214276177542,1949.7,75.3214133126395,760.3214276177542,2053.9,75.3214133126395,760.3214276177542,2158.5,75.3214133126395,760.3214276177542,2259.7,75.3214133126395,760.3214276177542,2364,75.3214133126395,760.3214276177542,2469.4,75.3214133126395,760.3214276177542,2573.4,75.3214133126395,760.3214276177542,2674.5,75.3214133126395,760.3214276177542,2778.6,75.3214133126395,760.3214276177542,2883.8,75.3214133126395,760.3214276177542,2984.1,75.3214133126395,760.3214276177542,3084.4,75.3214133126395,760.3214276177542,3188.7,75.3214133126395,760.3214276177542,3288.8,75.3214133126395,760.3214276177542,3393.9,75.3214133126395,760.3214276177542,3498.4,75.3214133126395,760.3214276177542,3599.1,75.3214133126395,760.3214276177542,3704.1,75.3214133126395,760.3214276177542,3805.1,75.3214133126395,760.3214276177542,3909.2,75.3214133126395,760.3214276177542,4009.9,75.3214133126395,760.3214276177542,4113.3,75.3214133126395,760.3214276177542,4214.2,75.3214133126395,760.3214276177542,4314.2,75.3214133126395,760.3214276177542,4418.8,75.3214133126395,760.3214276177542,4523.3,75.3214133126395,760.3214276177542,4624.3,75.3214133126395,760.3214276177542,4728.6,75.3214133126395,760.3214276177542,4834.1,75.3214133126395,760.3214276177542,4939.1]","[7751.9,7751.9,2204,5209.9,338,""smooth"",""down"",""down"",""good_move"",14890.3,7138.2,3022.2,11429.8,438.3,""smooth"",""down"",""down"",""good_move"",20926.9,6036.4,2818.2,17724.6,384.1,""oops"",""down"",""left"",""good_move"",24649.1,3722,3285.6,20927.1,436.4,""smooth"",""left"",""left"",""good_move"",27939.4,3290.1,2876.3,24649.3,413.8,""smooth"",""left"",""left"",""good_move"",35343.1,7403.6,2563.2,32410.5,369.4,""smooth"",""down"",""down"",""good_move""]","",""
"7660","","<div style=""width:500px;"">
  <p>What determined the result of this run?</p>
  </div>","33","html-slider-response","42","828612","0.0-10.0-1.1","108","1","2025-07-02 10:19:35","80fe4187154257d5fb01684ea91b68b9","31.21.169.6","Mozilla/5.0 (Windows NT 10.0; Win64; x64) AppleWebKit/537.36 (KHTML, like Gecko) Chrome/137.0.0.0 Safari/537.36","WebKit","Chrome","137.0.0.0","Windows","10.0","https://app.prolific.com/","en-US,en;q=0.9,nl;q=0.8","6698f8ca0354d4ef9692bf7a","683db6dfa200031b80f2a654","6865078fd83a145f622eb4f4","6698f8ca0354d4ef9692bf7a","2025-07-02T10:33:25.830Z","","","","","","AttribQ","","","","","","","","","","","","","","","","","","","","","","","","","","","","","","","","","","","","","","50"
"4532","","<div style=""width:500px;"">
  <p>How much control did you have over the ball?</p>
  </div>","88","html-slider-response","43","833145","0.0-10.0-2.1","108","1","2025-07-02 10:19:35","80fe4187154257d5fb01684ea91b68b9","31.21.169.6","Mozilla/5.0 (Windows NT 10.0; Win64; x64) AppleWebKit/537.36 (KHTML, like Gecko) Chrome/137.0.0.0 Safari/537.36","WebKit","Chrome","137.0.0.0","Windows","10.0","https://app.prolific.com/","en-US,en;q=0.9,nl;q=0.8","6698f8ca0354d4ef9692bf7a","683db6dfa200031b80f2a654","6865078fd83a145f622eb4f4","6698f8ca0354d4ef9692bf7a","2025-07-02T10:33:30.363Z","","","","","","ControlQ","","","","","","","","","","","","","","","","","","","","","","","","","","","","","","","","","","","","","","50"
"6302","","<div style=""width:500px;"">
  <p>How would you describe your current emotional state?</p>
  </div>","30","html-slider-response","44","839448","0.0-10.0-3.1","108","1","2025-07-02 10:19:35","80fe4187154257d5fb01684ea91b68b9","31.21.169.6","Mozilla/5.0 (Windows NT 10.0; Win64; x64) AppleWebKit/537.36 (KHTML, like Gecko) Chrome/137.0.0.0 Safari/537.36","WebKit","Chrome","137.0.0.0","Windows","10.0","https://app.prolific.com/","en-US,en;q=0.9,nl;q=0.8","6698f8ca0354d4ef9692bf7a","683db6dfa200031b80f2a654","6865078fd83a145f622eb4f4","6698f8ca0354d4ef9692bf7a","2025-07-02T10:33:36.666Z","","","","","","StressQ","","","","","","","","","","","","","","","","","","","","","","","","","","","","","","","","","","","","","","50"
"6693","","<div style=""width:500px;"">
  <p>What best describes how you currently feel?</p>
  </div>","79","html-slider-response","45","846141","0.0-10.0-4.1","108","1","2025-07-02 10:19:35","80fe4187154257d5fb01684ea91b68b9","31.21.169.6","Mozilla/5.0 (Windows NT 10.0; Win64; x64) AppleWebKit/537.36 (KHTML, like Gecko) Chrome/137.0.0.0 Safari/537.36","WebKit","Chrome","137.0.0.0","Windows","10.0","https://app.prolific.com/","en-US,en;q=0.9,nl;q=0.8","6698f8ca0354d4ef9692bf7a","683db6dfa200031b80f2a654","6865078fd83a145f622eb4f4","6698f8ca0354d4ef9692bf7a","2025-07-02T10:33:43.359Z","","","","","","MotivationQ","","","","","","","","","","","","","","","","","","","","","","","","","","","","","","","","","","","","","","50"
"","","","","ctl-task-cpt","46","892431","0.0-10.0-0.2","108","1","2025-07-02 10:19:35","80fe4187154257d5fb01684ea91b68b9","31.21.169.6","Mozilla/5.0 (Windows NT 10.0; Win64; x64) AppleWebKit/537.36 (KHTML, like Gecko) Chrome/137.0.0.0 Safari/537.36","WebKit","Chrome","137.0.0.0","Windows","10.0","https://app.prolific.com/","en-US,en;q=0.9,nl;q=0.8","6698f8ca0354d4ef9692bf7a","683db6dfa200031b80f2a654","6865078fd83a145f622eb4f4","6698f8ca0354d4ef9692bf7a","2025-07-02T10:34:29.649Z","","","","","","","","","","","","","","","","win-only","2","g1:SE,g2:NW","0.8","3","0","846887.6","2141.1","7146.5","43271.6","1","4","8","6","2","8","8","20","12","0.15151515151515152","1463.7","3000","450","[""left"",""up""]","{""num_key_presses"":6,""num_perfect"":5,""num_errors"":0,""num_randdir"":1,""num_randdir_good_moves"":1,""num_whilered"":0,""num_whileblue"":0,""num_blue"":5,""num_good_moves"":6}","[421.5714133126395,414.07142761775424,0.2,421.5714133126395,414.07142761775424,100.7,421.5714133126395,414.07142761775424,204.4,421.5714133126395,414.07142761775424,310.1,421.5714133126395,414.07142761775424,414.3,405.3214133126395,401.57142761775424,515.2,257.8214133126395,239.07142761775424,619.5,239.0714133126395,194.07142761775424,720.3,221.5714133126395,165.32142761775424,824.4,221.5714133126395,169.07142761775424,924.5,232.8214133126395,182.82142761775424,1025.3,244.0714133126395,199.07142761775424,1129.3,171.5714133126395,136.57142761775424,1230.3,37.82141331263951,61.57142761775425,1330.5,34.07141331263951,54.07142761775425,1435.2,34.07141331263951,54.07142761775425,1540.5,34.07141331263951,54.07142761775425,1644.3,37.82141331263951,56.57142761775425,1749.3,55.32141331263951,92.82142761775425,1849.6,55.32141331263951,92.82142761775425,1950.7,55.32141331263951,92.82142761775425,2055,55.32141331263951,92.82142761775425,2155.1,55.32141331263951,92.82142761775425,2260.6,55.32141331263951,92.82142761775425,2364.6,55.32141331263951,92.82142761775425,2465.3,55.32141331263951,92.82142761775425,2570.6,55.32141331263951,92.82142761775425,2674.4,55.32141331263951,92.82142761775425,2775,55.32141331263951,92.82142761775425,2875.2,55.32141331263951,92.82142761775425,2975.2,55.32141331263951,92.82142761775425,3079.7,55.32141331263951,92.82142761775425,3184.7,55.32141331263951,92.82142761775425,3289.6,55.32141331263951,92.82142761775425,3389.6,55.32141331263951,92.82142761775425,3490.4,55.32141331263951,92.82142761775425,3594.6,55.32141331263951,92.82142761775425,3695.4,55.32141331263951,92.82142761775425,3800.6,55.32141331263951,92.82142761775425,3904.5,55.32141331263951,92.82142761775425,4005.3,55.32141331263951,92.82142761775425,4110,55.32141331263951,92.82142761775425,4215.2,55.32141331263951,92.82142761775425,4319.6,55.32141331263951,92.82142761775425,4424.5,55.32141331263951,92.82142761775425,4524.5,55.32141331263951,92.82142761775425,4624.9,55.32141331263951,92.82142761775425,4729.3,55.32141331263951,92.82142761775425,4830.7,55.32141331263951,92.82142761775425,4934.4]","[4939.9,4939.9,2610.5,2005.3,324.1,""oops"",""up"",""up"",""good_move"",8490.1,3549.9,3026.7,4940.2,523.2,""smooth"",""left"",""left"",""good_move"",12071.5,3581,3084.3,8490.5,496.7,""smooth"",""left"",""left"",""good_move"",15323.8,3252.1,2854.4,12071.7,397.7,""smooth"",""up"",""up"",""good_move"",32899.9,17575.9,2492.3,30004.6,403,""smooth"",""up"",""up"",""good_move"",36038.1,3138,2697.8,32900.1,440.2,""smooth"",""left"",""left"",""good_move""]","",""
"7928","","<div style=""width:500px;"">
  <p>What determined the result of this run?</p>
  </div>","75","html-slider-response","47","900360","0.0-10.0-1.2","108","1","2025-07-02 10:19:35","80fe4187154257d5fb01684ea91b68b9","31.21.169.6","Mozilla/5.0 (Windows NT 10.0; Win64; x64) AppleWebKit/537.36 (KHTML, like Gecko) Chrome/137.0.0.0 Safari/537.36","WebKit","Chrome","137.0.0.0","Windows","10.0","https://app.prolific.com/","en-US,en;q=0.9,nl;q=0.8","6698f8ca0354d4ef9692bf7a","683db6dfa200031b80f2a654","6865078fd83a145f622eb4f4","6698f8ca0354d4ef9692bf7a","2025-07-02T10:34:37.578Z","","","","","","AttribQ","","","","","","","","","","","","","","","","","","","","","","","","","","","","","","","","","","","","","","50"
"3727","","<div style=""width:500px;"">
  <p>How much control did you have over the ball?</p>
  </div>","100","html-slider-response","48","904087","0.0-10.0-2.2","108","1","2025-07-02 10:19:35","80fe4187154257d5fb01684ea91b68b9","31.21.169.6","Mozilla/5.0 (Windows NT 10.0; Win64; x64) AppleWebKit/537.36 (KHTML, like Gecko) Chrome/137.0.0.0 Safari/537.36","WebKit","Chrome","137.0.0.0","Windows","10.0","https://app.prolific.com/","en-US,en;q=0.9,nl;q=0.8","6698f8ca0354d4ef9692bf7a","683db6dfa200031b80f2a654","6865078fd83a145f622eb4f4","6698f8ca0354d4ef9692bf7a","2025-07-02T10:34:41.306Z","","","","","","ControlQ","","","","","","","","","","","","","","","","","","","","","","","","","","","","","","","","","","","","","","50"
"3607","","<div style=""width:500px;"">
  <p>How would you describe your current emotional state?</p>
  </div>","33","html-slider-response","49","907695","0.0-10.0-3.2","108","1","2025-07-02 10:19:35","80fe4187154257d5fb01684ea91b68b9","31.21.169.6","Mozilla/5.0 (Windows NT 10.0; Win64; x64) AppleWebKit/537.36 (KHTML, like Gecko) Chrome/137.0.0.0 Safari/537.36","WebKit","Chrome","137.0.0.0","Windows","10.0","https://app.prolific.com/","en-US,en;q=0.9,nl;q=0.8","6698f8ca0354d4ef9692bf7a","683db6dfa200031b80f2a654","6865078fd83a145f622eb4f4","6698f8ca0354d4ef9692bf7a","2025-07-02T10:34:44.913Z","","","","","","StressQ","","","","","","","","","","","","","","","","","","","","","","","","","","","","","","","","","","","","","","50"
"3608","","<div style=""width:500px;"">
  <p>What best describes how you currently feel?</p>
  </div>","100","html-slider-response","50","911304","0.0-10.0-4.2","108","1","2025-07-02 10:19:35","80fe4187154257d5fb01684ea91b68b9","31.21.169.6","Mozilla/5.0 (Windows NT 10.0; Win64; x64) AppleWebKit/537.36 (KHTML, like Gecko) Chrome/137.0.0.0 Safari/537.36","WebKit","Chrome","137.0.0.0","Windows","10.0","https://app.prolific.com/","en-US,en;q=0.9,nl;q=0.8","6698f8ca0354d4ef9692bf7a","683db6dfa200031b80f2a654","6865078fd83a145f622eb4f4","6698f8ca0354d4ef9692bf7a","2025-07-02T10:34:48.522Z","","","","","","MotivationQ","","","","","","","","","","","","","","","","","","","","","","","","","","","","","","","","","","","","","","50"
"","","","","ctl-task-cpt","51","951415","0.0-10.0-0.3","108","1","2025-07-02 10:19:35","80fe4187154257d5fb01684ea91b68b9","31.21.169.6","Mozilla/5.0 (Windows NT 10.0; Win64; x64) AppleWebKit/537.36 (KHTML, like Gecko) Chrome/137.0.0.0 Safari/537.36","WebKit","Chrome","137.0.0.0","Windows","10.0","https://app.prolific.com/","en-US,en;q=0.9,nl;q=0.8","6698f8ca0354d4ef9692bf7a","683db6dfa200031b80f2a654","6865078fd83a145f622eb4f4","6698f8ca0354d4ef9692bf7a","2025-07-02T10:35:28.633Z","","","","","","","","","","","","","","","","win-only","3","g1:SW,g2:NE","0.7","4","0","912050.8","2038.2","7040.5","37092.9","1","4","4","6","2","-4","-4","16","20","0.12121212121212122","1215.1","3000","-3015","[""up"",""right""]","{""num_key_presses"":7,""num_perfect"":5,""num_errors"":0,""num_randdir"":2,""num_randdir_good_moves"":0,""num_whilered"":0,""num_whileblue"":0,""num_blue"":2,""num_good_moves"":5}","[415.3214133126395,417.82142761775424,0.1,415.3214133126395,417.82142761775424,102.3,415.3214133126395,417.82142761775424,203,415.3214133126395,417.82142761775424,307.4,415.3214133126395,417.82142761775424,413.1,407.8214133126395,432.82142761775424,517.9,400.3214133126395,446.57142761775424,618.5,400.3214133126395,446.57142761775424,722.4,481.5714133126395,359.07142761775424,828.1,649.0714133126395,197.82142761775424,928.3,672.8214133126395,156.57142761775424,1032.4,722.8214133126395,116.57142761775425,1132.8,762.8214133126395,81.57142761775425,1238.1,762.8214133126395,81.57142761775425,1342.1,762.8214133126395,81.57142761775425,1442.2,762.8214133126395,81.57142761775425,1542.2,766.5714133126395,81.57142761775425,1648.9,766.5714133126395,81.57142761775425,1752.4,766.5714133126395,81.57142761775425,1858.1,766.5714133126395,81.57142761775425,1963,766.5714133126395,81.57142761775425,2063,766.5714133126395,81.57142761775425,2167.3,766.5714133126395,81.57142761775425,2267.9,766.5714133126395,81.57142761775425,2372.3,766.5714133126395,81.57142761775425,2476.9,766.5714133126395,81.57142761775425,2577.3,766.5714133126395,81.57142761775425,2682,766.5714133126395,81.57142761775425,2782.4,766.5714133126395,81.57142761775425,2882.6,766.5714133126395,81.57142761775425,2988.2,766.5714133126395,81.57142761775425,3092,766.5714133126395,81.57142761775425,3192.5,766.5714133126395,81.57142761775425,3298.3,766.5714133126395,81.57142761775425,3402,766.5714133126395,81.57142761775425,3502.6,766.5714133126395,81.57142761775425,3607.3,766.5714133126395,81.57142761775425,3707.6,766.5714133126395,81.57142761775425,3812.8,766.5714133126395,81.57142761775425,3917.2,766.5714133126395,81.57142761775425,4018.2,766.5714133126395,81.57142761775425,4118.2,766.5714133126395,81.57142761775425,4222.1,766.5714133126395,81.57142761775425,4322.2,766.5714133126395,81.57142761775425,4427.6,766.5714133126395,81.57142761775425,4532.8,766.5714133126395,81.57142761775425,4633.4,766.5714133126395,81.57142761775425,4737.1,766.5714133126395,81.57142761775425,4838,766.5714133126395,81.57142761775425,4941.9]","[1511.8,1511.8,1000,0,511.8,""smooth"",""right"",""right"",""good_move"",12253.8,10741.6,3158.9,8737.6,357.3,""smooth"",""up"",""up"",""good_move"",15663.8,3409.8,2979.2,12254,430.6,""oops"",""up"",""left"",""bad_move"",17810.8,2146.8,1655.4,15664,491.4,""smooth"",""up"",""up"",""good_move"",20669.9,2858.9,2531.3,17811,327.6,""smooth"",""right"",""right"",""good_move"",23832.6,3162.5,2781.3,20670.1,381.2,""smooth"",""right"",""right"",""good_move"",27419.4,3586.5,3291.8,23833,294.7,""oops"",""right"",""left"",""bad_move""]","",""
"2264","","<div style=""width:500px;"">
  <p>What determined the result of this run?</p>
  </div>","0","html-slider-response","52","953680","0.0-10.0-1.3","108","1","2025-07-02 10:19:35","80fe4187154257d5fb01684ea91b68b9","31.21.169.6","Mozilla/5.0 (Windows NT 10.0; Win64; x64) AppleWebKit/537.36 (KHTML, like Gecko) Chrome/137.0.0.0 Safari/537.36","WebKit","Chrome","137.0.0.0","Windows","10.0","https://app.prolific.com/","en-US,en;q=0.9,nl;q=0.8","6698f8ca0354d4ef9692bf7a","683db6dfa200031b80f2a654","6865078fd83a145f622eb4f4","6698f8ca0354d4ef9692bf7a","2025-07-02T10:35:30.898Z","","","","","","AttribQ","","","","","","","","","","","","","","","","","","","","","","","","","","","","","","","","","","","","","","50"
"1879","","<div style=""width:500px;"">
  <p>How much control did you have over the ball?</p>
  </div>","0","html-slider-response","53","955560","0.0-10.0-2.3","108","1","2025-07-02 10:19:35","80fe4187154257d5fb01684ea91b68b9","31.21.169.6","Mozilla/5.0 (Windows NT 10.0; Win64; x64) AppleWebKit/537.36 (KHTML, like Gecko) Chrome/137.0.0.0 Safari/537.36","WebKit","Chrome","137.0.0.0","Windows","10.0","https://app.prolific.com/","en-US,en;q=0.9,nl;q=0.8","6698f8ca0354d4ef9692bf7a","683db6dfa200031b80f2a654","6865078fd83a145f622eb4f4","6698f8ca0354d4ef9692bf7a","2025-07-02T10:35:32.778Z","","","","","","ControlQ","","","","","","","","","","","","","","","","","","","","","","","","","","","","","","","","","","","","","","50"
"3055","","<div style=""width:500px;"">
  <p>How would you describe your current emotional state?</p>
  </div>","74","html-slider-response","54","958616","0.0-10.0-3.3","108","1","2025-07-02 10:19:35","80fe4187154257d5fb01684ea91b68b9","31.21.169.6","Mozilla/5.0 (Windows NT 10.0; Win64; x64) AppleWebKit/537.36 (KHTML, like Gecko) Chrome/137.0.0.0 Safari/537.36","WebKit","Chrome","137.0.0.0","Windows","10.0","https://app.prolific.com/","en-US,en;q=0.9,nl;q=0.8","6698f8ca0354d4ef9692bf7a","683db6dfa200031b80f2a654","6865078fd83a145f622eb4f4","6698f8ca0354d4ef9692bf7a","2025-07-02T10:35:35.834Z","","","","","","StressQ","","","","","","","","","","","","","","","","","","","","","","","","","","","","","","","","","","","","","","50"
"3928","","<div style=""width:500px;"">
  <p>What best describes how you currently feel?</p>
  </div>","65","html-slider-response","55","962544","0.0-10.0-4.3","108","1","2025-07-02 10:19:35","80fe4187154257d5fb01684ea91b68b9","31.21.169.6","Mozilla/5.0 (Windows NT 10.0; Win64; x64) AppleWebKit/537.36 (KHTML, like Gecko) Chrome/137.0.0.0 Safari/537.36","WebKit","Chrome","137.0.0.0","Windows","10.0","https://app.prolific.com/","en-US,en;q=0.9,nl;q=0.8","6698f8ca0354d4ef9692bf7a","683db6dfa200031b80f2a654","6865078fd83a145f622eb4f4","6698f8ca0354d4ef9692bf7a","2025-07-02T10:35:39.762Z","","","","","","MotivationQ","","","","","","","","","","","","","","","","","","","","","","","","","","","","","","","","","","","","","","50"
"","","","","ctl-task-cpt","56","990791","0.0-10.0-0.4","108","1","2025-07-02 10:19:35","80fe4187154257d5fb01684ea91b68b9","31.21.169.6","Mozilla/5.0 (Windows NT 10.0; Win64; x64) AppleWebKit/537.36 (KHTML, like Gecko) Chrome/137.0.0.0 Safari/537.36","WebKit","Chrome","137.0.0.0","Windows","10.0","https://app.prolific.com/","en-US,en;q=0.9,nl;q=0.8","6698f8ca0354d4ef9692bf7a","683db6dfa200031b80f2a654","6865078fd83a145f622eb4f4","6698f8ca0354d4ef9692bf7a","2025-07-02T10:36:08.010Z","","","","","","","","","","","","","","","","win-only","0","g1:NW,g2:SE","0.6","5","0","963290.8","1141.9","6146.2","25230.8","1","4","8","6","1","1","1","17","16","0.12878787878787878","1751.4","3000","900","[""left"",""up""]","{""num_key_presses"":6,""num_perfect"":4,""num_errors"":0,""num_randdir"":2,""num_randdir_good_moves"":1,""num_whilered"":0,""num_whileblue"":0,""num_blue"":1,""num_good_moves"":5}","[424.0714133126395,417.82142761775424,0.2,424.0714133126395,417.82142761775424,103.1,424.0714133126395,417.82142761775424,204,424.0714133126395,417.82142761775424,308.7,424.0714133126395,417.82142761775424,413.5,474.0714133126395,442.82142761775424,513.8,664.0714133126395,676.5714276177542,614.2,595.3214133126395,645.3214276177542,718.8,427.8214133126395,440.32142761775424,819,289.0714133126395,267.82142761775424,923.6,226.5714133126395,206.57142761775424,1028.5,191.5714133126395,176.57142761775424,1129.2,156.5714133126395,146.57142761775424,1233.5,117.8214133126395,121.57142761775425,1334.3,117.8214133126395,121.57142761775425,1438.9,112.8214133126395,112.82142761775425,1539.3,112.8214133126395,112.82142761775425,1643.7,112.8214133126395,112.82142761775425,1743.9,112.8214133126395,112.82142761775425,1844.9,112.8214133126395,112.82142761775425,1948.7,112.8214133126395,112.82142761775425,2049,112.8214133126395,112.82142761775425,2153.7,112.8214133126395,112.82142761775425,2259.3,112.8214133126395,112.82142761775425,2363.6,112.8214133126395,112.82142761775425,2469,112.8214133126395,112.82142761775425,2574.2,112.8214133126395,112.82142761775425,2678.6,112.8214133126395,112.82142761775425,2783.5,112.8214133126395,112.82142761775425,2884.1,112.8214133126395,112.82142761775425,2984.2,112.8214133126395,112.82142761775425,3088.4,112.8214133126395,112.82142761775425,3189.1,112.8214133126395,112.82142761775425,3293.2,112.8214133126395,112.82142761775425,3393.7,112.8214133126395,112.82142761775425,3499.2,112.8214133126395,112.82142761775425,3604.1,112.8214133126395,112.82142761775425,3708.3,112.8214133126395,112.82142761775425,3808.6,112.8214133126395,112.82142761775425,3914.3,112.8214133126395,112.82142761775425,4014.8,112.8214133126395,112.82142761775425,4118.6,112.8214133126395,112.82142761775425,4219.2,112.8214133126395,112.82142761775425,4320.7,112.8214133126395,112.82142761775425,4424.1,112.8214133126395,112.82142761775425,4528.3,112.8214133126395,112.82142761775425,4628.7,112.8214133126395,112.82142761775425,4729.2,112.8214133126395,112.82142761775425,4833.1,112.8214133126395,112.82142761775425,4934]","[1401.9,1401.9,1000,0,401.9,""smooth"",""left"",""left"",""good_move"",4056.8,2654.6,2339.8,1402.2,314.8,""oops"",""up"",""down"",""bad_move"",10506.5,6449.6,2694.2,7474.9,337.4,""smooth"",""up"",""up"",""good_move"",13576,3069.4,2653.9,10506.7,415.5,""smooth"",""up"",""up"",""good_move"",16462.6,2886.4,2544,13576.2,342.4,""smooth"",""up"",""up"",""good_move"",18995.3,2532.7,2215.7,16462.7,317,""oops"",""left"",""left"",""good_move""]","",""
"3979","","<div style=""width:500px;"">
  <p>What determined the result of this run?</p>
  </div>","68","html-slider-response","57","994772","0.0-10.0-1.4","108","1","2025-07-02 10:19:35","80fe4187154257d5fb01684ea91b68b9","31.21.169.6","Mozilla/5.0 (Windows NT 10.0; Win64; x64) AppleWebKit/537.36 (KHTML, like Gecko) Chrome/137.0.0.0 Safari/537.36","WebKit","Chrome","137.0.0.0","Windows","10.0","https://app.prolific.com/","en-US,en;q=0.9,nl;q=0.8","6698f8ca0354d4ef9692bf7a","683db6dfa200031b80f2a654","6865078fd83a145f622eb4f4","6698f8ca0354d4ef9692bf7a","2025-07-02T10:36:11.990Z","","","","","","AttribQ","","","","","","","","","","","","","","","","","","","","","","","","","","","","","","","","","","","","","","50"
"2403","","<div style=""width:500px;"">
  <p>How much control did you have over the ball?</p>
  </div>","68","html-slider-response","58","997175","0.0-10.0-2.4","108","1","2025-07-02 10:19:35","80fe4187154257d5fb01684ea91b68b9","31.21.169.6","Mozilla/5.0 (Windows NT 10.0; Win64; x64) AppleWebKit/537.36 (KHTML, like Gecko) Chrome/137.0.0.0 Safari/537.36","WebKit","Chrome","137.0.0.0","Windows","10.0","https://app.prolific.com/","en-US,en;q=0.9,nl;q=0.8","6698f8ca0354d4ef9692bf7a","683db6dfa200031b80f2a654","6865078fd83a145f622eb4f4","6698f8ca0354d4ef9692bf7a","2025-07-02T10:36:14.393Z","","","","","","ControlQ","","","","","","","","","","","","","","","","","","","","","","","","","","","","","","","","","","","","","","50"
"4439","","<div style=""width:500px;"">
  <p>How would you describe your current emotional state?</p>
  </div>","42","html-slider-response","59","1001615","0.0-10.0-3.4","108","1","2025-07-02 10:19:35","80fe4187154257d5fb01684ea91b68b9","31.21.169.6","Mozilla/5.0 (Windows NT 10.0; Win64; x64) AppleWebKit/537.36 (KHTML, like Gecko) Chrome/137.0.0.0 Safari/537.36","WebKit","Chrome","137.0.0.0","Windows","10.0","https://app.prolific.com/","en-US,en;q=0.9,nl;q=0.8","6698f8ca0354d4ef9692bf7a","683db6dfa200031b80f2a654","6865078fd83a145f622eb4f4","6698f8ca0354d4ef9692bf7a","2025-07-02T10:36:18.833Z","","","","","","StressQ","","","","","","","","","","","","","","","","","","","","","","","","","","","","","","","","","","","","","","50"
"3065","","<div style=""width:500px;"">
  <p>What best describes how you currently feel?</p>
  </div>","66","html-slider-response","60","1004681","0.0-10.0-4.4","108","1","2025-07-02 10:19:35","80fe4187154257d5fb01684ea91b68b9","31.21.169.6","Mozilla/5.0 (Windows NT 10.0; Win64; x64) AppleWebKit/537.36 (KHTML, like Gecko) Chrome/137.0.0.0 Safari/537.36","WebKit","Chrome","137.0.0.0","Windows","10.0","https://app.prolific.com/","en-US,en;q=0.9,nl;q=0.8","6698f8ca0354d4ef9692bf7a","683db6dfa200031b80f2a654","6865078fd83a145f622eb4f4","6698f8ca0354d4ef9692bf7a","2025-07-02T10:36:21.899Z","","","","","","MotivationQ","","","","","","","","","","","","","","","","","","","","","","","","","","","","","","","","","","","","","","50"
"","","","","ctl-task-cpt","61","1041091","0.0-10.0-0.5","108","1","2025-07-02 10:19:35","80fe4187154257d5fb01684ea91b68b9","31.21.169.6","Mozilla/5.0 (Windows NT 10.0; Win64; x64) AppleWebKit/537.36 (KHTML, like Gecko) Chrome/137.0.0.0 Safari/537.36","WebKit","Chrome","137.0.0.0","Windows","10.0","https://app.prolific.com/","en-US,en;q=0.9,nl;q=0.8","6698f8ca0354d4ef9692bf7a","683db6dfa200031b80f2a654","6865078fd83a145f622eb4f4","6698f8ca0354d4ef9692bf7a","2025-07-02T10:36:58.309Z","","","","","","","","","","","","","","","","win-only","1","g1:NE,g2:SW","0.5","6","0","1005427.7","1252.9","6256.2","33392.1","1","4","4","6","1","1","1","18","17","0.13636363636363635","2207.4","3000","350","[""up"",""right""]","{""num_key_presses"":8,""num_perfect"":3,""num_errors"":0,""num_randdir"":5,""num_randdir_good_moves"":3,""num_whilered"":0,""num_whileblue"":0,""num_blue"":1,""num_good_moves"":6}","[424.0714133126395,419.07142761775424,0.2,424.0714133126395,419.07142761775424,103,424.0714133126395,419.07142761775424,203.3,424.0714133126395,419.07142761775424,307.8,424.0714133126395,419.07142761775424,408.3,424.0714133126395,419.07142761775424,513.1,424.0714133126395,419.07142761775424,617.5,426.5714133126395,397.82142761775424,723.2,416.5714133126395,456.57142761775424,827.9,411.5714133126395,479.07142761775424,928,550.3214133126395,331.57142761775424,1028.5,590.3214133126395,301.57142761775424,1132.8,489.0714133126395,491.57142761775424,1232.9,505.3214133126395,440.32142761775424,1333.2,497.8214133126395,387.82142761775424,1437.3,151.5714133126395,755.3214276177542,1538,94.0714133126395,809.0714276177542,1643.3,612.8214133126395,261.57142761775424,1743.3,837.8214133126395,61.57142761775425,1848.8,860.3214133126395,35.32142761775425,1952.2,851.5714133126395,31.571427617754253,2053,791.5714133126395,61.57142761775425,2157.9,787.8214133126395,62.82142761775425,2258,787.8214133126395,62.82142761775425,2363.1,787.8214133126395,62.82142761775425,2463.3,787.8214133126395,62.82142761775425,2568.3,787.8214133126395,62.82142761775425,2672.6,787.8214133126395,62.82142761775425,2773.2,787.8214133126395,62.82142761775425,2877.7,787.8214133126395,62.82142761775425,2977.8,787.8214133126395,62.82142761775425,3078,787.8214133126395,62.82142761775425,3178.1,787.8214133126395,62.82142761775425,3283.8,787.8214133126395,62.82142761775425,3387.2,787.8214133126395,62.82142761775425,3487.2,787.8214133126395,62.82142761775425,3587.3,787.8214133126395,62.82142761775425,3688.1,787.8214133126395,62.82142761775425,3794.1,787.8214133126395,62.82142761775425,3897.2,787.8214133126395,62.82142761775425,3997.5,787.8214133126395,62.82142761775425,4097.6,787.8214133126395,62.82142761775425,4197.7,787.8214133126395,62.82142761775425,4302.3,787.8214133126395,62.82142761775425,4402.3,787.8214133126395,62.82142761775425,4507.6,787.8214133126395,62.82142761775425,4607.8,787.8214133126395,62.82142761775425,4708.6,787.8214133126395,62.82142761775425,4812.3,787.8214133126395,62.82142761775425,4913.3]","[4270.6,4270.6,1950.4,2009.1,311.1,""oops"",""up"",""right"",""good_move"",7487.7,3216.9,2861.5,4270.8,355.4,""smooth"",""up"",""up"",""good_move"",11060.7,3572.8,3191,7487.9,381.8,""oops"",""up"",""up"",""good_move"",13366.7,2305.9,1961.1,11060.8,344.8,""oops"",""right"",""down"",""bad_move"",17017.9,3650.9,3389,13367,261.9,""oops"",""right"",""left"",""bad_move"",20238,3219.8,2870,17018.2,349.8,""oops"",""up"",""right"",""good_move"",24527.3,4288.9,3957.8,20238.4,331.1,""smooth"",""up"",""up"",""good_move"",27049.6,2522.1,2169.7,24527.5,352.4,""smooth"",""right"",""right"",""good_move""]","",""
"6280","","<div style=""width:500px;"">
  <p>What determined the result of this run?</p>
  </div>","29","html-slider-response","62","1047372","0.0-10.0-1.5","108","1","2025-07-02 10:19:35","80fe4187154257d5fb01684ea91b68b9","31.21.169.6","Mozilla/5.0 (Windows NT 10.0; Win64; x64) AppleWebKit/537.36 (KHTML, like Gecko) Chrome/137.0.0.0 Safari/537.36","WebKit","Chrome","137.0.0.0","Windows","10.0","https://app.prolific.com/","en-US,en;q=0.9,nl;q=0.8","6698f8ca0354d4ef9692bf7a","683db6dfa200031b80f2a654","6865078fd83a145f622eb4f4","6698f8ca0354d4ef9692bf7a","2025-07-02T10:37:04.590Z","","","","","","AttribQ","","","","","","","","","","","","","","","","","","","","","","","","","","","","","","","","","","","","","","50"
"2866","","<div style=""width:500px;"">
  <p>How much control did you have over the ball?</p>
  </div>","39","html-slider-response","63","1050239","0.0-10.0-2.5","108","1","2025-07-02 10:19:35","80fe4187154257d5fb01684ea91b68b9","31.21.169.6","Mozilla/5.0 (Windows NT 10.0; Win64; x64) AppleWebKit/537.36 (KHTML, like Gecko) Chrome/137.0.0.0 Safari/537.36","WebKit","Chrome","137.0.0.0","Windows","10.0","https://app.prolific.com/","en-US,en;q=0.9,nl;q=0.8","6698f8ca0354d4ef9692bf7a","683db6dfa200031b80f2a654","6865078fd83a145f622eb4f4","6698f8ca0354d4ef9692bf7a","2025-07-02T10:37:07.457Z","","","","","","ControlQ","","","","","","","","","","","","","","","","","","","","","","","","","","","","","","","","","","","","","","50"
"3655","","<div style=""width:500px;"">
  <p>How would you describe your current emotional state?</p>
  </div>","63","html-slider-response","64","1053895","0.0-10.0-3.5","108","1","2025-07-02 10:19:35","80fe4187154257d5fb01684ea91b68b9","31.21.169.6","Mozilla/5.0 (Windows NT 10.0; Win64; x64) AppleWebKit/537.36 (KHTML, like Gecko) Chrome/137.0.0.0 Safari/537.36","WebKit","Chrome","137.0.0.0","Windows","10.0","https://app.prolific.com/","en-US,en;q=0.9,nl;q=0.8","6698f8ca0354d4ef9692bf7a","683db6dfa200031b80f2a654","6865078fd83a145f622eb4f4","6698f8ca0354d4ef9692bf7a","2025-07-02T10:37:11.113Z","","","","","","StressQ","","","","","","","","","","","","","","","","","","","","","","","","","","","","","","","","","","","","","","50"
"5364","","<div style=""width:500px;"">
  <p>What best describes how you currently feel?</p>
  </div>","61","html-slider-response","65","1059260","0.0-10.0-4.5","108","1","2025-07-02 10:19:35","80fe4187154257d5fb01684ea91b68b9","31.21.169.6","Mozilla/5.0 (Windows NT 10.0; Win64; x64) AppleWebKit/537.36 (KHTML, like Gecko) Chrome/137.0.0.0 Safari/537.36","WebKit","Chrome","137.0.0.0","Windows","10.0","https://app.prolific.com/","en-US,en;q=0.9,nl;q=0.8","6698f8ca0354d4ef9692bf7a","683db6dfa200031b80f2a654","6865078fd83a145f622eb4f4","6698f8ca0354d4ef9692bf7a","2025-07-02T10:37:16.478Z","","","","","","MotivationQ","","","","","","","","","","","","","","","","","","","","","","","","","","","","","","","","","","","","","","50"
"","","","","ctl-task-cpt","66","1103545","0.0-10.0-0.6","108","1","2025-07-02 10:19:35","80fe4187154257d5fb01684ea91b68b9","31.21.169.6","Mozilla/5.0 (Windows NT 10.0; Win64; x64) AppleWebKit/537.36 (KHTML, like Gecko) Chrome/137.0.0.0 Safari/537.36","WebKit","Chrome","137.0.0.0","Windows","10.0","https://app.prolific.com/","en-US,en;q=0.9,nl;q=0.8","6698f8ca0354d4ef9692bf7a","683db6dfa200031b80f2a654","6865078fd83a145f622eb4f4","6698f8ca0354d4ef9692bf7a","2025-07-02T10:38:00.763Z","","","","","","","","","","","","","","","","win-only","0","g1:NW,g2:SE","0.4","7","0","1060006.4","1166.4","6172.2","41265.8","1","4","8","6","1","-1","-1","17","18","0.12878787878787878","1375.6","3000","-3015","[""left"",""up""]","{""num_key_presses"":8,""num_perfect"":3,""num_errors"":0,""num_randdir"":5,""num_randdir_good_moves"":2,""num_whilered"":0,""num_whileblue"":0,""num_blue"":3,""num_good_moves"":5}","[419.0714133126395,415.32142761775424,0.1,419.0714133126395,415.32142761775424,103.8,419.0714133126395,415.32142761775424,205.1,419.0714133126395,415.32142761775424,309.9,444.0714133126395,441.57142761775424,414.1,486.5714133126395,476.57142761775424,514.2,545.3214133126395,535.3214276177542,616.3,571.5714133126395,561.5714276177542,718.8,436.5714133126395,465.32142761775424,819.2,297.8214133126395,226.57142761775424,924.4,231.5714133126395,159.07142761775424,1028.9,150.3214133126395,115.32142761775425,1129.4,137.8214133126395,107.82142761775425,1234.6,134.0714133126395,106.57142761775425,1339.5,129.0714133126395,105.32142761775425,1442.6,129.0714133126395,105.32142761775425,1544.3,129.0714133126395,105.32142761775425,1644.4,280.3214133126395,156.57142761775424,1749.4,787.8214133126395,281.57142761775424,1854.7,1010.3214133126395,475.32142761775424,1959.5,1010.3214133126395,475.32142761775424,2059.6,1010.3214133126395,475.32142761775424,2159.6,1010.3214133126395,475.32142761775424,2264.5,1010.3214133126395,475.32142761775424,2370.2,1010.3214133126395,475.32142761775424,2474.6,1010.3214133126395,475.32142761775424,2574.8,1010.3214133126395,475.32142761775424,2679,1010.3214133126395,475.32142761775424,2779.5,1010.3214133126395,475.32142761775424,2884.3,1010.3214133126395,475.32142761775424,2989.1,1010.3214133126395,475.32142761775424,3094.4,1010.3214133126395,475.32142761775424,3195.2,1010.3214133126395,475.32142761775424,3299.1,1010.3214133126395,475.32142761775424,3405.5,1010.3214133126395,475.32142761775424,3509.7,1010.3214133126395,475.32142761775424,3614.4,1010.3214133126395,475.32142761775424,3719,1010.3214133126395,475.32142761775424,3819.2,1010.3214133126395,475.32142761775424,3919.8,1010.3214133126395,475.32142761775424,4019.8,1010.3214133126395,475.32142761775424,4124.7,1010.3214133126395,475.32142761775424,4228.8,1010.3214133126395,475.32142761775424,4329.3,1010.3214133126395,475.32142761775424,4435.2,1010.3214133126395,475.32142761775424,4539.4,1010.3214133126395,475.32142761775424,4644.3,1010.3214133126395,475.32142761775424,4745,1010.3214133126395,475.32142761775424,4849.2,1010.3214133126395,475.32142761775424,4953.8]","[1344.8,1344.8,1000,0,344.8,""smooth"",""up"",""up"",""good_move"",3819.4,2474,2088.5,1345.4,385.5,""smooth"",""left"",""left"",""good_move"",16995.3,13175.7,2936.2,13638.1,421,""oops"",""left"",""up"",""good_move"",20557.8,3562.4,3214,16995.5,348.3,""oops"",""left"",""right"",""bad_move"",23502.1,2944,2678.8,20558.2,265.2,""oops"",""left"",""down"",""bad_move"",26287.9,2785.4,2484.7,23502.5,300.7,""oops"",""left"",""left"",""good_move"",28726.6,2438.6,2104.8,26288.1,333.8,""oops"",""left"",""down"",""bad_move"",32261.5,3534.3,3128.5,28727.2,405.8,""smooth"",""up"",""up"",""good_move""]","",""
"3794","","<div style=""width:500px;"">
  <p>What determined the result of this run?</p>
  </div>","0","html-slider-response","67","1107339","0.0-10.0-1.6","108","1","2025-07-02 10:19:35","80fe4187154257d5fb01684ea91b68b9","31.21.169.6","Mozilla/5.0 (Windows NT 10.0; Win64; x64) AppleWebKit/537.36 (KHTML, like Gecko) Chrome/137.0.0.0 Safari/537.36","WebKit","Chrome","137.0.0.0","Windows","10.0","https://app.prolific.com/","en-US,en;q=0.9,nl;q=0.8","6698f8ca0354d4ef9692bf7a","683db6dfa200031b80f2a654","6865078fd83a145f622eb4f4","6698f8ca0354d4ef9692bf7a","2025-07-02T10:38:04.557Z","","","","","","AttribQ","","","","","","","","","","","","","","","","","","","","","","","","","","","","","","","","","","","","","","50"
"2428","","<div style=""width:500px;"">
  <p>How much control did you have over the ball?</p>
  </div>","0","html-slider-response","68","1109768","0.0-10.0-2.6","108","1","2025-07-02 10:19:35","80fe4187154257d5fb01684ea91b68b9","31.21.169.6","Mozilla/5.0 (Windows NT 10.0; Win64; x64) AppleWebKit/537.36 (KHTML, like Gecko) Chrome/137.0.0.0 Safari/537.36","WebKit","Chrome","137.0.0.0","Windows","10.0","https://app.prolific.com/","en-US,en;q=0.9,nl;q=0.8","6698f8ca0354d4ef9692bf7a","683db6dfa200031b80f2a654","6865078fd83a145f622eb4f4","6698f8ca0354d4ef9692bf7a","2025-07-02T10:38:06.986Z","","","","","","ControlQ","","","","","","","","","","","","","","","","","","","","","","","","","","","","","","","","","","","","","","50"
"3487","","<div style=""width:500px;"">
  <p>How would you describe your current emotional state?</p>
  </div>","100","html-slider-response","69","1113255","0.0-10.0-3.6","108","1","2025-07-02 10:19:35","80fe4187154257d5fb01684ea91b68b9","31.21.169.6","Mozilla/5.0 (Windows NT 10.0; Win64; x64) AppleWebKit/537.36 (KHTML, like Gecko) Chrome/137.0.0.0 Safari/537.36","WebKit","Chrome","137.0.0.0","Windows","10.0","https://app.prolific.com/","en-US,en;q=0.9,nl;q=0.8","6698f8ca0354d4ef9692bf7a","683db6dfa200031b80f2a654","6865078fd83a145f622eb4f4","6698f8ca0354d4ef9692bf7a","2025-07-02T10:38:10.474Z","","","","","","StressQ","","","","","","","","","","","","","","","","","","","","","","","","","","","","","","","","","","","","","","50"
"3089","","<div style=""width:500px;"">
  <p>What best describes how you currently feel?</p>
  </div>","37","html-slider-response","70","1116346","0.0-10.0-4.6","108","1","2025-07-02 10:19:35","80fe4187154257d5fb01684ea91b68b9","31.21.169.6","Mozilla/5.0 (Windows NT 10.0; Win64; x64) AppleWebKit/537.36 (KHTML, like Gecko) Chrome/137.0.0.0 Safari/537.36","WebKit","Chrome","137.0.0.0","Windows","10.0","https://app.prolific.com/","en-US,en;q=0.9,nl;q=0.8","6698f8ca0354d4ef9692bf7a","683db6dfa200031b80f2a654","6865078fd83a145f622eb4f4","6698f8ca0354d4ef9692bf7a","2025-07-02T10:38:13.564Z","","","","","","MotivationQ","","","","","","","","","","","","","","","","","","","","","","","","","","","","","","","","","","","","","","50"
"","","","","ctl-task-cpt","71","1147525","0.0-10.0-0.7","108","1","2025-07-02 10:19:35","80fe4187154257d5fb01684ea91b68b9","31.21.169.6","Mozilla/5.0 (Windows NT 10.0; Win64; x64) AppleWebKit/537.36 (KHTML, like Gecko) Chrome/137.0.0.0 Safari/537.36","WebKit","Chrome","137.0.0.0","Windows","10.0","https://app.prolific.com/","en-US,en;q=0.9,nl;q=0.8","6698f8ca0354d4ef9692bf7a","683db6dfa200031b80f2a654","6865078fd83a145f622eb4f4","6698f8ca0354d4ef9692bf7a","2025-07-02T10:38:44.743Z","","","","","","","","","","","","","","","","win-only","3","g1:SW,g2:NE","0.3","8","0","1117094.1","1434.1","6435.4","28160.3","1","4","4","6","1","1","1","18","17","0.13636363636363635","1784.4","3000","390","[""down"",""left""]","{""num_key_presses"":8,""num_perfect"":2,""num_errors"":0,""num_randdir"":6,""num_randdir_good_moves"":4,""num_whilered"":0,""num_whileblue"":0,""num_blue"":0,""num_good_moves"":6}","[417.8214133126395,404.07142761775424,0.2,417.8214133126395,404.07142761775424,102.1,417.8214133126395,404.07142761775424,206.3,417.8214133126395,404.07142761775424,306.7,417.8214133126395,404.07142761775424,406.7,417.8214133126395,404.07142761775424,512.1,426.5714133126395,401.57142761775424,612.4,572.8214133126395,305.32142761775424,716.4,670.3214133126395,197.82142761775424,817.2,681.5714133126395,176.57142761775424,921.7,685.3214133126395,166.57142761775424,1022.5,689.0714133126395,164.07142761775424,1127.4,242.8214133126395,681.5714276177542,1231.3,29.071413312639507,832.8214276177542,1332,31.571413312639507,841.5714276177542,1436.4,19.071413312639507,880.3214276177542,1542,56.57141331263951,806.5714276177542,1646.5,61.57141331263951,756.5714276177542,1746.7,61.57141331263951,756.5714276177542,1847.3,61.57141331263951,756.5714276177542,1951.2,61.57141331263951,756.5714276177542,2051.3,61.57141331263951,756.5714276177542,2152.1,61.57141331263951,756.5714276177542,2256.4,61.57141331263951,756.5714276177542,2356.5,61.57141331263951,756.5714276177542,2457.4,61.57141331263951,756.5714276177542,2562,61.57141331263951,756.5714276177542,2666.2,61.57141331263951,756.5714276177542,2766.3,61.57141331263951,756.5714276177542,2866.6,61.57141331263951,756.5714276177542,2971.2,61.57141331263951,756.5714276177542,3073.1,61.57141331263951,756.5714276177542,3176.6,61.57141331263951,756.5714276177542,3277.1,61.57141331263951,756.5714276177542,3379.7,61.57141331263951,756.5714276177542,3481.3,61.57141331263951,756.5714276177542,3582.5,61.57141331263951,756.5714276177542,3686.2,61.57141331263951,756.5714276177542,3786.5,61.57141331263951,756.5714276177542,3891.3,61.57141331263951,756.5714276177542,3991.3,61.57141331263951,756.5714276177542,4091.9,61.57141331263951,756.5714276177542,4191.9,61.57141331263951,756.5714276177542,4296.2,61.57141331263951,756.5714276177542,4397.8,61.57141331263951,756.5714276177542,4501.2,61.57141331263951,756.5714276177542,4601.3,61.57141331263951,756.5714276177542,4701.4,61.57141331263951,756.5714276177542,4806.8,61.57141331263951,756.5714276177542,4912]","[1487.5,1487.5,1000,0,487.5,""oops"",""left"",""down"",""good_move"",4998.3,3510.6,3237.1,1487.8,273.4,""oops"",""left"",""right"",""bad_move"",7631,2632.5,2253.2,4998.5,379.3,""smooth"",""down"",""down"",""good_move"",9865.9,2234.7,1931.4,7631.2,303.3,""oops"",""left"",""right"",""bad_move"",12820.8,2954.7,2676.8,9866.1,277.9,""oops"",""left"",""left"",""good_move"",15602.5,2781.4,2468.9,12821.1,312.5,""smooth"",""left"",""left"",""good_move"",18302.2,2699.7,2396.8,15602.5,302.9,""oops"",""left"",""left"",""good_move"",21637.7,3335.3,3026.5,18302.4,308.8,""oops"",""left"",""left"",""good_move""]","",""
"5424","","<div style=""width:500px;"">
  <p>What determined the result of this run?</p>
  </div>","24","html-slider-response","72","1152951","0.0-10.0-1.7","108","1","2025-07-02 10:19:35","80fe4187154257d5fb01684ea91b68b9","31.21.169.6","Mozilla/5.0 (Windows NT 10.0; Win64; x64) AppleWebKit/537.36 (KHTML, like Gecko) Chrome/137.0.0.0 Safari/537.36","WebKit","Chrome","137.0.0.0","Windows","10.0","https://app.prolific.com/","en-US,en;q=0.9,nl;q=0.8","6698f8ca0354d4ef9692bf7a","683db6dfa200031b80f2a654","6865078fd83a145f622eb4f4","6698f8ca0354d4ef9692bf7a","2025-07-02T10:38:50.169Z","","","","","","AttribQ","","","","","","","","","","","","","","","","","","","","","","","","","","","","","","","","","","","","","","50"
"3796","","<div style=""width:500px;"">
  <p>How much control did you have over the ball?</p>
  </div>","40","html-slider-response","73","1156749","0.0-10.0-2.7","108","1","2025-07-02 10:19:35","80fe4187154257d5fb01684ea91b68b9","31.21.169.6","Mozilla/5.0 (Windows NT 10.0; Win64; x64) AppleWebKit/537.36 (KHTML, like Gecko) Chrome/137.0.0.0 Safari/537.36","WebKit","Chrome","137.0.0.0","Windows","10.0","https://app.prolific.com/","en-US,en;q=0.9,nl;q=0.8","6698f8ca0354d4ef9692bf7a","683db6dfa200031b80f2a654","6865078fd83a145f622eb4f4","6698f8ca0354d4ef9692bf7a","2025-07-02T10:38:53.967Z","","","","","","ControlQ","","","","","","","","","","","","","","","","","","","","","","","","","","","","","","","","","","","","","","50"
"3254","","<div style=""width:500px;"">
  <p>How would you describe your current emotional state?</p>
  </div>","58","html-slider-response","74","1160004","0.0-10.0-3.7","108","1","2025-07-02 10:19:35","80fe4187154257d5fb01684ea91b68b9","31.21.169.6","Mozilla/5.0 (Windows NT 10.0; Win64; x64) AppleWebKit/537.36 (KHTML, like Gecko) Chrome/137.0.0.0 Safari/537.36","WebKit","Chrome","137.0.0.0","Windows","10.0","https://app.prolific.com/","en-US,en;q=0.9,nl;q=0.8","6698f8ca0354d4ef9692bf7a","683db6dfa200031b80f2a654","6865078fd83a145f622eb4f4","6698f8ca0354d4ef9692bf7a","2025-07-02T10:38:57.222Z","","","","","","StressQ","","","","","","","","","","","","","","","","","","","","","","","","","","","","","","","","","","","","","","50"
"3711","","<div style=""width:500px;"">
  <p>What best describes how you currently feel?</p>
  </div>","42","html-slider-response","75","1163716","0.0-10.0-4.7","108","1","2025-07-02 10:19:35","80fe4187154257d5fb01684ea91b68b9","31.21.169.6","Mozilla/5.0 (Windows NT 10.0; Win64; x64) AppleWebKit/537.36 (KHTML, like Gecko) Chrome/137.0.0.0 Safari/537.36","WebKit","Chrome","137.0.0.0","Windows","10.0","https://app.prolific.com/","en-US,en;q=0.9,nl;q=0.8","6698f8ca0354d4ef9692bf7a","683db6dfa200031b80f2a654","6865078fd83a145f622eb4f4","6698f8ca0354d4ef9692bf7a","2025-07-02T10:39:00.934Z","","","","","","MotivationQ","","","","","","","","","","","","","","","","","","","","","","","","","","","","","","","","","","","","","","50"
"","","","","ctl-task-cpt","76","1192289","0.0-10.0-0.8","108","1","2025-07-02 10:19:35","80fe4187154257d5fb01684ea91b68b9","31.21.169.6","Mozilla/5.0 (Windows NT 10.0; Win64; x64) AppleWebKit/537.36 (KHTML, like Gecko) Chrome/137.0.0.0 Safari/537.36","WebKit","Chrome","137.0.0.0","Windows","10.0","https://app.prolific.com/","en-US,en;q=0.9,nl;q=0.8","6698f8ca0354d4ef9692bf7a","683db6dfa200031b80f2a654","6865078fd83a145f622eb4f4","6698f8ca0354d4ef9692bf7a","2025-07-02T10:39:29.507Z","","","","","","","","","","","","","","","","win-only","3","g1:SW,g2:NE","0.4","9","0","1164461.9","974.5","5975.7","25556.1","1","4","4","6","1","1","1","19","18","0.14393939393939395","1208.3","3000","210","[""down"",""left""]","{""num_key_presses"":6,""num_perfect"":3,""num_errors"":0,""num_randdir"":3,""num_randdir_good_moves"":2,""num_whilered"":0,""num_whileblue"":0,""num_blue"":1,""num_good_moves"":5}","[422.8214133126395,419.07142761775424,0.1,422.8214133126395,419.07142761775424,101.5,422.8214133126395,419.07142761775424,206.7,422.8214133126395,419.07142761775424,311.4,422.8214133126395,416.57142761775424,411.6,421.5714133126395,421.57142761775424,516.2,385.3214133126395,509.07142761775424,617.4,310.3214133126395,595.3214276177542,720.8,215.3214133126395,656.5714276177542,821.1,140.3214133126395,727.8214276177542,921.5,127.8214133126395,735.3214276177542,1025.7,96.5714133126395,736.5714276177542,1126,81.5714133126395,736.5714276177542,1227.3,81.5714133126395,736.5714276177542,1336.4,81.5714133126395,736.5714276177542,1441.5,111.5714133126395,725.3214276177542,1546.3,156.5714133126395,701.5714276177542,1647.2,157.8214133126395,700.3214276177542,1751.2,171.5714133126395,686.5714276177542,1851.8,171.5714133126395,686.5714276177542,1957.8,171.5714133126395,686.5714276177542,2061.5,171.5714133126395,686.5714276177542,2166.6,171.5714133126395,686.5714276177542,2270.7,171.5714133126395,686.5714276177542,2371.9,171.5714133126395,686.5714276177542,2476.5,171.5714133126395,686.5714276177542,2580.8,171.5714133126395,686.5714276177542,2681.4,171.5714133126395,686.5714276177542,2786.8,171.5714133126395,686.5714276177542,2891.8,171.5714133126395,686.5714276177542,2996.3,171.5714133126395,686.5714276177542,3101.3,171.5714133126395,686.5714276177542,3207.3,171.5714133126395,686.5714276177542,3311.7,171.5714133126395,686.5714276177542,3418,171.5714133126395,686.5714276177542,3521.6,171.5714133126395,686.5714276177542,3627.6,171.5714133126395,686.5714276177542,3730.6,171.5714133126395,686.5714276177542,3831.4,171.5714133126395,686.5714276177542,3936.4,171.5714133126395,686.5714276177542,4037,171.5714133126395,686.5714276177542,4140.8,171.5714133126395,686.5714276177542,4241.5,171.5714133126395,686.5714276177542,4341.8,171.5714133126395,686.5714276177542,4447.2,171.5714133126395,686.5714276177542,4547.5,171.5714133126395,686.5714276177542,4651.6,171.5714133126395,686.5714276177542,4756.7,171.5714133126395,686.5714276177542,4856.9,171.5714133126395,686.5714276177542,4960.7]","[1486.3,1486.3,1000,0,486.3,""oops"",""left"",""up"",""bad_move"",4396.5,2910.1,2435.8,1486.5,474.3,""oops"",""down"",""left"",""good_move"",7022.3,2625.6,2149.5,4396.7,476.1,""smooth"",""down"",""down"",""good_move"",10161.7,3139.1,2794.3,7022.6,344.8,""smooth"",""down"",""down"",""good_move"",16888.2,6726.2,2825.2,13580.5,482.5,""smooth"",""down"",""down"",""good_move"",19496,2607.5,2040.6,16888.5,566.9,""oops"",""left"",""left"",""good_move""]","",""
"4935","","<div style=""width:500px;"">
  <p>What determined the result of this run?</p>
  </div>","44","html-slider-response","77","1197226","0.0-10.0-1.8","108","1","2025-07-02 10:19:35","80fe4187154257d5fb01684ea91b68b9","31.21.169.6","Mozilla/5.0 (Windows NT 10.0; Win64; x64) AppleWebKit/537.36 (KHTML, like Gecko) Chrome/137.0.0.0 Safari/537.36","WebKit","Chrome","137.0.0.0","Windows","10.0","https://app.prolific.com/","en-US,en;q=0.9,nl;q=0.8","6698f8ca0354d4ef9692bf7a","683db6dfa200031b80f2a654","6865078fd83a145f622eb4f4","6698f8ca0354d4ef9692bf7a","2025-07-02T10:39:34.444Z","","","","","","AttribQ","","","","","","","","","","","","","","","","","","","","","","","","","","","","","","","","","","","","","","50"
"3037","","<div style=""width:500px;"">
  <p>How much control did you have over the ball?</p>
  </div>","43","html-slider-response","78","1200266","0.0-10.0-2.8","108","1","2025-07-02 10:19:35","80fe4187154257d5fb01684ea91b68b9","31.21.169.6","Mozilla/5.0 (Windows NT 10.0; Win64; x64) AppleWebKit/537.36 (KHTML, like Gecko) Chrome/137.0.0.0 Safari/537.36","WebKit","Chrome","137.0.0.0","Windows","10.0","https://app.prolific.com/","en-US,en;q=0.9,nl;q=0.8","6698f8ca0354d4ef9692bf7a","683db6dfa200031b80f2a654","6865078fd83a145f622eb4f4","6698f8ca0354d4ef9692bf7a","2025-07-02T10:39:37.484Z","","","","","","ControlQ","","","","","","","","","","","","","","","","","","","","","","","","","","","","","","","","","","","","","","50"
"5156","","<div style=""width:500px;"">
  <p>How would you describe your current emotional state?</p>
  </div>","57","html-slider-response","79","1205424","0.0-10.0-3.8","108","1","2025-07-02 10:19:35","80fe4187154257d5fb01684ea91b68b9","31.21.169.6","Mozilla/5.0 (Windows NT 10.0; Win64; x64) AppleWebKit/537.36 (KHTML, like Gecko) Chrome/137.0.0.0 Safari/537.36","WebKit","Chrome","137.0.0.0","Windows","10.0","https://app.prolific.com/","en-US,en;q=0.9,nl;q=0.8","6698f8ca0354d4ef9692bf7a","683db6dfa200031b80f2a654","6865078fd83a145f622eb4f4","6698f8ca0354d4ef9692bf7a","2025-07-02T10:39:42.642Z","","","","","","StressQ","","","","","","","","","","","","","","","","","","","","","","","","","","","","","","","","","","","","","","50"
"5441","","<div style=""width:500px;"">
  <p>What best describes how you currently feel?</p>
  </div>","40","html-slider-response","80","1210866","0.0-10.0-4.8","108","1","2025-07-02 10:19:35","80fe4187154257d5fb01684ea91b68b9","31.21.169.6","Mozilla/5.0 (Windows NT 10.0; Win64; x64) AppleWebKit/537.36 (KHTML, like Gecko) Chrome/137.0.0.0 Safari/537.36","WebKit","Chrome","137.0.0.0","Windows","10.0","https://app.prolific.com/","en-US,en;q=0.9,nl;q=0.8","6698f8ca0354d4ef9692bf7a","683db6dfa200031b80f2a654","6865078fd83a145f622eb4f4","6698f8ca0354d4ef9692bf7a","2025-07-02T10:39:48.084Z","","","","","","MotivationQ","","","","","","","","","","","","","","","","","","","","","","","","","","","","","","","","","","","","","","50"
"","","","","ctl-task-cpt","81","1237017","0.0-10.0-0.9","108","1","2025-07-02 10:19:35","80fe4187154257d5fb01684ea91b68b9","31.21.169.6","Mozilla/5.0 (Windows NT 10.0; Win64; x64) AppleWebKit/537.36 (KHTML, like Gecko) Chrome/137.0.0.0 Safari/537.36","WebKit","Chrome","137.0.0.0","Windows","10.0","https://app.prolific.com/","en-US,en;q=0.9,nl;q=0.8","6698f8ca0354d4ef9692bf7a","683db6dfa200031b80f2a654","6865078fd83a145f622eb4f4","6698f8ca0354d4ef9692bf7a","2025-07-02T10:40:14.235Z","","","","","","","","","","","","","","","","win-only","0","g1:NW,g2:SE","0.5","10","0","1211614.8","1181.8","6186.6","23130.9","1","4","8","6","1","1","1","20","19","0.15151515151515152","1432.2","3000","1715","[""left"",""up""]","{""num_key_presses"":4,""num_perfect"":2,""num_errors"":0,""num_randdir"":2,""num_randdir_good_moves"":2,""num_whilered"":0,""num_whileblue"":0,""num_blue"":2,""num_good_moves"":4}","[417.8214133126395,407.82142761775424,0.1,417.8214133126395,407.82142761775424,103.7,417.8214133126395,407.82142761775424,209.3,417.8214133126395,407.82142761775424,314.8,417.8214133126395,407.82142761775424,418.6,427.8214133126395,411.57142761775424,519.3,625.3214133126395,535.3214276177542,624.1,630.3214133126395,554.0714276177542,730.3,579.0714133126395,546.5714276177542,834.1,405.3214133126395,386.57142761775424,939.1,282.8214133126395,236.57142761775424,1039.3,191.5714133126395,170.32142761775424,1139.8,122.8214133126395,134.07142761775424,1244.6,91.5714133126395,86.57142761775425,1349,91.5714133126395,81.57142761775425,1454.3,91.5714133126395,81.57142761775425,1558.6,91.5714133126395,81.57142761775425,1659.2,91.5714133126395,81.57142761775425,1763.9,91.5714133126395,81.57142761775425,1864.1,91.5714133126395,81.57142761775425,1969.1,91.5714133126395,81.57142761775425,2069.6,91.5714133126395,81.57142761775425,2169.8,91.5714133126395,81.57142761775425,2270,91.5714133126395,81.57142761775425,2373.8,91.5714133126395,81.57142761775425,2474.4,91.5714133126395,81.57142761775425,2579.1,91.5714133126395,81.57142761775425,2684.1,91.5714133126395,81.57142761775425,2784.1,91.5714133126395,81.57142761775425,2884.7,91.5714133126395,81.57142761775425,2988.5,91.5714133126395,81.57142761775425,3089.9,91.5714133126395,81.57142761775425,3193.9,91.5714133126395,81.57142761775425,3294.3,91.5714133126395,81.57142761775425,3399.1,91.5714133126395,81.57142761775425,3504.5,91.5714133126395,81.57142761775425,3604.5,91.5714133126395,81.57142761775425,3704.6,91.5714133126395,81.57142761775425,3809,91.5714133126395,81.57142761775425,3914.2,91.5714133126395,81.57142761775425,4019.9,91.5714133126395,81.57142761775425,4120.2,91.5714133126395,81.57142761775425,4224.2,91.5714133126395,81.57142761775425,4328.9,91.5714133126395,81.57142761775425,4429,91.5714133126395,81.57142761775425,4534.5,91.5714133126395,81.57142761775425,4635,91.5714133126395,81.57142761775425,4738.8,91.5714133126395,81.57142761775425,4839.7,91.5714133126395,81.57142761775425,4944.3]","[1315.5,1315.5,1000,0,315.5,""smooth"",""up"",""up"",""good_move"",4008.5,2692.6,2338.9,1315.9,353.7,""smooth"",""left"",""left"",""good_move"",10620,6611.1,2053.9,8254,312.1,""oops"",""up"",""up"",""good_move"",16855.8,6235.6,2556.8,13974.6,324.4,""oops"",""left"",""left"",""good_move""]","",""
"3493","","<div style=""width:500px;"">
  <p>What determined the result of this run?</p>
  </div>","42","html-slider-response","82","1240512","0.0-10.0-1.9","108","1","2025-07-02 10:19:35","80fe4187154257d5fb01684ea91b68b9","31.21.169.6","Mozilla/5.0 (Windows NT 10.0; Win64; x64) AppleWebKit/537.36 (KHTML, like Gecko) Chrome/137.0.0.0 Safari/537.36","WebKit","Chrome","137.0.0.0","Windows","10.0","https://app.prolific.com/","en-US,en;q=0.9,nl;q=0.8","6698f8ca0354d4ef9692bf7a","683db6dfa200031b80f2a654","6865078fd83a145f622eb4f4","6698f8ca0354d4ef9692bf7a","2025-07-02T10:40:17.730Z","","","","","","AttribQ","","","","","","","","","","","","","","","","","","","","","","","","","","","","","","","","","","","","","","50"
"3049","","<div style=""width:500px;"">
  <p>How much control did you have over the ball?</p>
  </div>","56","html-slider-response","83","1243563","0.0-10.0-2.9","108","1","2025-07-02 10:19:35","80fe4187154257d5fb01684ea91b68b9","31.21.169.6","Mozilla/5.0 (Windows NT 10.0; Win64; x64) AppleWebKit/537.36 (KHTML, like Gecko) Chrome/137.0.0.0 Safari/537.36","WebKit","Chrome","137.0.0.0","Windows","10.0","https://app.prolific.com/","en-US,en;q=0.9,nl;q=0.8","6698f8ca0354d4ef9692bf7a","683db6dfa200031b80f2a654","6865078fd83a145f622eb4f4","6698f8ca0354d4ef9692bf7a","2025-07-02T10:40:20.781Z","","","","","","ControlQ","","","","","","","","","","","","","","","","","","","","","","","","","","","","","","","","","","","","","","50"
"4483","","<div style=""width:500px;"">
  <p>How would you describe your current emotional state?</p>
  </div>","42","html-slider-response","84","1248048","0.0-10.0-3.9","108","1","2025-07-02 10:19:35","80fe4187154257d5fb01684ea91b68b9","31.21.169.6","Mozilla/5.0 (Windows NT 10.0; Win64; x64) AppleWebKit/537.36 (KHTML, like Gecko) Chrome/137.0.0.0 Safari/537.36","WebKit","Chrome","137.0.0.0","Windows","10.0","https://app.prolific.com/","en-US,en;q=0.9,nl;q=0.8","6698f8ca0354d4ef9692bf7a","683db6dfa200031b80f2a654","6865078fd83a145f622eb4f4","6698f8ca0354d4ef9692bf7a","2025-07-02T10:40:25.266Z","","","","","","StressQ","","","","","","","","","","","","","","","","","","","","","","","","","","","","","","","","","","","","","","50"
"4299","","<div style=""width:500px;"">
  <p>What best describes how you currently feel?</p>
  </div>","56","html-slider-response","85","1252350","0.0-10.0-4.9","108","1","2025-07-02 10:19:35","80fe4187154257d5fb01684ea91b68b9","31.21.169.6","Mozilla/5.0 (Windows NT 10.0; Win64; x64) AppleWebKit/537.36 (KHTML, like Gecko) Chrome/137.0.0.0 Safari/537.36","WebKit","Chrome","137.0.0.0","Windows","10.0","https://app.prolific.com/","en-US,en;q=0.9,nl;q=0.8","6698f8ca0354d4ef9692bf7a","683db6dfa200031b80f2a654","6865078fd83a145f622eb4f4","6698f8ca0354d4ef9692bf7a","2025-07-02T10:40:29.568Z","","","","","","MotivationQ","","","","","","","","","","","","","","","","","","","","","","","","","","","","","","","","","","","","","","50"
