"rt","response_timestamp","stimulus","response","trial_type","trial_index","time_elapsed","internal_node_id","run_id","condition","recorded_at","source_code_version","ip","user_agent","device","browser","browser_version","platform","platform_version","referer","accept_language","PROLIFIC_PID","STUDY_ID","SESSION_ID","prolific_id","realtime","view_history","question_order","consent","success","question_id","eventType","responses","item_order","radio_event_ids","radio_event_times","key_event_times","mouse_event_times","straightlining","zigzagging","honeypot","which_type","canvas_config","goals_layout","control_level","trial_number","tutorial_trial_number","trial_start_time","phase1_start_time","phase2_start_time","phase3_start_time","goal_1_value","goal_1_distance","goal_2_value","goal_2_distance","goal_selected","outcome","outcome_total","participant_final_score","participant_initial_score","participant_final_score_prop","goal_choice_rt","allocated_time","allocated_time_remaining","goal_direction","counts","mouse_movements","key_presses","correct","slider_start","sub_question"
"13322","1751451796616","<p style='font-size:40px;line-height:1.25'><strong>Welcome to the experiment!</strong></p><p style='font-size:1.1em;line-height:1.25'>Thank you for your interest in our experiment! Before you begin, it is important that we obtain your informed consent to participate in the study.</p><p style='font-size:1.1em;line-height:1.25'>On the next screen will be an <strong>information sheet</strong> for you to read. To participate in the study we need you to read this information sheet and the following consent form carefully. If you agree with all the statements, please click the <strong>I agree</strong> button.</p><p style='font-size:1.1em;line-height:1.25'>Press <strong>Next</strong> to read the information sheet.</p>","0","custom-html-button-response","0","13331","0.0-0.0","167","1","2025-07-02 10:22:58","80fe4187154257d5fb01684ea91b68b9","41.121.62.88","Mozilla/5.0 (Windows NT 10.0; Win64; x64) AppleWebKit/537.36 (KHTML, like Gecko) Chrome/137.0.0.0 Safari/537.36","WebKit","Chrome","137.0.0.0","Windows","10.0","https://app.prolific.com/","en-GB,en-US;q=0.9,en;q=0.8","669bd8ce24b83b4652aebd40","683db6dfa200031b80f2a654","686507818680783ca8d084b1","669bd8ce24b83b4652aebd40","2025-07-02T10:23:16.623Z","","","","","","","","","","","","","","","","","","","","","","","","","","","","","","","","","","","","","","","","","","","","",""
"22497","","","","instructions","1","35837","0.0-1.0","167","1","2025-07-02 10:22:58","80fe4187154257d5fb01684ea91b68b9","41.121.62.88","Mozilla/5.0 (Windows NT 10.0; Win64; x64) AppleWebKit/537.36 (KHTML, like Gecko) Chrome/137.0.0.0 Safari/537.36","WebKit","Chrome","137.0.0.0","Windows","10.0","https://app.prolific.com/","en-GB,en-US;q=0.9,en;q=0.8","669bd8ce24b83b4652aebd40","683db6dfa200031b80f2a654","686507818680783ca8d084b1","669bd8ce24b83b4652aebd40","","[{""page_index"":0,""viewing_time"":13763},{""page_index"":1,""viewing_time"":8731}]","","","","","","","","","","","","","","","","","","","","","","","","","","","","","","","","","","","","","","","","","","","",""
"12312","","","{""Q0"":"""",""Q1"":"""",""Q2"":"""",""Q3"":"""",""Q4"":"""",""Q5"":"""",""Q6"":""I agree""}","survey-multi-choice","2","48159","0.0-2.0","167","1","2025-07-02 10:22:58","80fe4187154257d5fb01684ea91b68b9","41.121.62.88","Mozilla/5.0 (Windows NT 10.0; Win64; x64) AppleWebKit/537.36 (KHTML, like Gecko) Chrome/137.0.0.0 Safari/537.36","WebKit","Chrome","137.0.0.0","Windows","10.0","https://app.prolific.com/","en-GB,en-US;q=0.9,en;q=0.8","669bd8ce24b83b4652aebd40","683db6dfa200031b80f2a654","686507818680783ca8d084b1","669bd8ce24b83b4652aebd40","","","[0,1,2,3,4,5,6]","true","","","","","","","","","","","","","","","","","","","","","","","","","","","","","","","","","","","","","","","","","",""
"14546","","","","fullscreen","3","63718","0.0-4.0","167","1","2025-07-02 10:22:58","80fe4187154257d5fb01684ea91b68b9","41.121.62.88","Mozilla/5.0 (Windows NT 10.0; Win64; x64) AppleWebKit/537.36 (KHTML, like Gecko) Chrome/137.0.0.0 Safari/537.36","WebKit","Chrome","137.0.0.0","Windows","10.0","https://app.prolific.com/","en-GB,en-US;q=0.9,en;q=0.8","669bd8ce24b83b4652aebd40","683db6dfa200031b80f2a654","686507818680783ca8d084b1","669bd8ce24b83b4652aebd40","","","","","true","","","","","","","","","","","","","","","","","","","","","","","","","","","","","","","","","","","","","","","","",""
"9897","1751451856909"," <p style='font-size:1.1em;line-height:1.25'>Thank you for completing the consent form and closing all other tabs.</p><p style='font-size:1.1em;line-height:1.25'>We will now invite you to fill in some demographic information and questionnaires, before starting the game.<br>This will take about 5 minutes.<br></p><p style='font-size:1.1em;line-height:1.25'>Press the <strong>Next</strong> button to continue.</p>","0","custom-html-button-response","4","73621","0.0-5.0","167","1","2025-07-02 10:22:58","80fe4187154257d5fb01684ea91b68b9","41.121.62.88","Mozilla/5.0 (Windows NT 10.0; Win64; x64) AppleWebKit/537.36 (KHTML, like Gecko) Chrome/137.0.0.0 Safari/537.36","WebKit","Chrome","137.0.0.0","Windows","10.0","https://app.prolific.com/","en-GB,en-US;q=0.9,en;q=0.8","669bd8ce24b83b4652aebd40","683db6dfa200031b80f2a654","686507818680783ca8d084b1","669bd8ce24b83b4652aebd40","2025-07-02T10:24:16.912Z","","","","","","","","","","","","","","","","","","","","","","","","","","","","","","","","","","","","","","","","","","","","",""
"5701","","","{""age"":""26""}","survey-text","5","79337","0.0-6.0-0.0","167","1","2025-07-02 10:22:58","80fe4187154257d5fb01684ea91b68b9","41.121.62.88","Mozilla/5.0 (Windows NT 10.0; Win64; x64) AppleWebKit/537.36 (KHTML, like Gecko) Chrome/137.0.0.0 Safari/537.36","WebKit","Chrome","137.0.0.0","Windows","10.0","https://app.prolific.com/","en-GB,en-US;q=0.9,en;q=0.8","669bd8ce24b83b4652aebd40","683db6dfa200031b80f2a654","686507818680783ca8d084b1","669bd8ce24b83b4652aebd40","","","","","","0","demographics","","","","","","","","","","","","","","","","","","","","","","","","","","","","","","","","","","","","","","",""
"4860","","","{""gender_identity"":""female/woman""}","survey-multi-choice","6","84201","0.0-6.0-1.0","167","1","2025-07-02 10:22:58","80fe4187154257d5fb01684ea91b68b9","41.121.62.88","Mozilla/5.0 (Windows NT 10.0; Win64; x64) AppleWebKit/537.36 (KHTML, like Gecko) Chrome/137.0.0.0 Safari/537.36","WebKit","Chrome","137.0.0.0","Windows","10.0","https://app.prolific.com/","en-GB,en-US;q=0.9,en;q=0.8","669bd8ce24b83b4652aebd40","683db6dfa200031b80f2a654","686507818680783ca8d084b1","669bd8ce24b83b4652aebd40","","","[0]","","","1","demographics","","","","","","","","","","","","","","","","","","","","","","","","","","","","","","","","","","","","","","",""
"4299","","","{""assigned_sex"":""female""}","survey-multi-choice","7","88507","0.0-6.0-2.0","167","1","2025-07-02 10:22:58","80fe4187154257d5fb01684ea91b68b9","41.121.62.88","Mozilla/5.0 (Windows NT 10.0; Win64; x64) AppleWebKit/537.36 (KHTML, like Gecko) Chrome/137.0.0.0 Safari/537.36","WebKit","Chrome","137.0.0.0","Windows","10.0","https://app.prolific.com/","en-GB,en-US;q=0.9,en;q=0.8","669bd8ce24b83b4652aebd40","683db6dfa200031b80f2a654","686507818680783ca8d084b1","669bd8ce24b83b4652aebd40","","","[0]","","","2","demographics","","","","","","","","","","","","","","","","","","","","","","","","","","","","","","","","","","","","","","",""
"4149","","","{""menstrual_cycle"":""Yes""}","survey-multi-choice","8","92664","0.0-6.0-3.0","167","1","2025-07-02 10:22:58","80fe4187154257d5fb01684ea91b68b9","41.121.62.88","Mozilla/5.0 (Windows NT 10.0; Win64; x64) AppleWebKit/537.36 (KHTML, like Gecko) Chrome/137.0.0.0 Safari/537.36","WebKit","Chrome","137.0.0.0","Windows","10.0","https://app.prolific.com/","en-GB,en-US;q=0.9,en;q=0.8","669bd8ce24b83b4652aebd40","683db6dfa200031b80f2a654","686507818680783ca8d084b1","669bd8ce24b83b4652aebd40","","","[0]","","","4","demographics","","","","","","","","","","","","","","","","","","","","","","","","","","","","","","","","","","","","","","",""
"15168","","","{""education"":""Master's Degree (e.g., MSc)""}","survey-multi-choice","9","107843","0.0-6.0-4.0","167","1","2025-07-02 10:22:58","80fe4187154257d5fb01684ea91b68b9","41.121.62.88","Mozilla/5.0 (Windows NT 10.0; Win64; x64) AppleWebKit/537.36 (KHTML, like Gecko) Chrome/137.0.0.0 Safari/537.36","WebKit","Chrome","137.0.0.0","Windows","10.0","https://app.prolific.com/","en-GB,en-US;q=0.9,en;q=0.8","669bd8ce24b83b4652aebd40","683db6dfa200031b80f2a654","686507818680783ca8d084b1","669bd8ce24b83b4652aebd40","","","[0]","","","5","demographics","","","","","","","","","","","","","","","","","","","","","","","","","","","","","","","","","","","","","","",""
"13258","","","{""education"":""Doctoral Degree (e.g., PhD)""}","survey-multi-choice","10","121109","0.0-6.0-5.0","167","1","2025-07-02 10:22:58","80fe4187154257d5fb01684ea91b68b9","41.121.62.88","Mozilla/5.0 (Windows NT 10.0; Win64; x64) AppleWebKit/537.36 (KHTML, like Gecko) Chrome/137.0.0.0 Safari/537.36","WebKit","Chrome","137.0.0.0","Windows","10.0","https://app.prolific.com/","en-GB,en-US;q=0.9,en;q=0.8","669bd8ce24b83b4652aebd40","683db6dfa200031b80f2a654","686507818680783ca8d084b1","669bd8ce24b83b4652aebd40","2025-07-02T10:25:04.401Z","","[0]","","","6","demographics","","","","","","","","","","","","","","","","","","","","","","","","","","","","","","","","","","","","","","",""
"218853","","","{""mental_health_condition"":""Depression"",""mental_health_treatment"":""Antidepressants"",""psychiatric_medication"":""Citalopram, 20mg per day ""}","survey-text","11","339989","0.0-7.0-0.0","167","1","2025-07-02 10:22:58","80fe4187154257d5fb01684ea91b68b9","41.121.62.88","Mozilla/5.0 (Windows NT 10.0; Win64; x64) AppleWebKit/537.36 (KHTML, like Gecko) Chrome/137.0.0.0 Safari/537.36","WebKit","Chrome","137.0.0.0","Windows","10.0","https://app.prolific.com/","en-GB,en-US;q=0.9,en;q=0.8","669bd8ce24b83b4652aebd40","683db6dfa200031b80f2a654","686507818680783ca8d084b1","669bd8ce24b83b4652aebd40","2025-07-02T10:28:43.280Z","","","","","1","mental_health","","","","","","","","","","","","","","","","","","","","","","","","","","","","","","","","","","","","","","",""
"13002","","","{""depression_history"":[""Yes""]}","survey-multi-select","12","352998","0.0-7.0-1.0","167","1","2025-07-02 10:22:58","80fe4187154257d5fb01684ea91b68b9","41.121.62.88","Mozilla/5.0 (Windows NT 10.0; Win64; x64) AppleWebKit/537.36 (KHTML, like Gecko) Chrome/137.0.0.0 Safari/537.36","WebKit","Chrome","137.0.0.0","Windows","10.0","https://app.prolific.com/","en-GB,en-US;q=0.9,en;q=0.8","669bd8ce24b83b4652aebd40","683db6dfa200031b80f2a654","686507818680783ca8d084b1","669bd8ce24b83b4652aebd40","","","[0]","","","","mental_health","","","","","","","","","","","","","","","","","","","","","","","","","","","","","","","","","","","","","","",""
"17318","","","{""depression_episodes"":""3-5"",""depression_recent"":""Within the past year""}","survey-multi-choice","13","370324","0.0-7.0-2.0-0.0","167","1","2025-07-02 10:22:58","80fe4187154257d5fb01684ea91b68b9","41.121.62.88","Mozilla/5.0 (Windows NT 10.0; Win64; x64) AppleWebKit/537.36 (KHTML, like Gecko) Chrome/137.0.0.0 Safari/537.36","WebKit","Chrome","137.0.0.0","Windows","10.0","https://app.prolific.com/","en-GB,en-US;q=0.9,en;q=0.8","669bd8ce24b83b4652aebd40","683db6dfa200031b80f2a654","686507818680783ca8d084b1","669bd8ce24b83b4652aebd40","2025-07-02T10:29:13.615Z","","[0,1]","","","3","mental_health","","","","","","","","","","","","","","","","","","","","","","","","","","","","","","","","","","","","","","",""
"82050.5","","","","survey-template","14","452398","0.0-7.0-3.0","167","1","2025-07-02 10:22:58","80fe4187154257d5fb01684ea91b68b9","41.121.62.88","Mozilla/5.0 (Windows NT 10.0; Win64; x64) AppleWebKit/537.36 (KHTML, like Gecko) Chrome/137.0.0.0 Safari/537.36","WebKit","Chrome","137.0.0.0","Windows","10.0","https://app.prolific.com/","en-GB,en-US;q=0.9,en;q=0.8","669bd8ce24b83b4652aebd40","683db6dfa200031b80f2a654","686507818680783ca8d084b1","669bd8ce24b83b4652aebd40","2025-07-02T10:30:35.689Z","","","","","","ius","{""Q01"":""1"",""Q02"":""1"",""Q03"":""1"",""Q04"":""3"",""Q05"":""1"",""Q06"":""0"",""Q07"":""1"",""Q08"":""0"",""Q09"":""4"",""Q10"":""1"",""Q11"":""0"",""Q12"":""3"",""Q13"":""2""}","[0,1,2,3,4,5,6,7,8,9,10,11,12]","[""Q01"",""Q02"",""Q03"",""Q04"",""Q05"",""Q06"",""Q06"",""Q07"",""Q08"",""Q09"",""Q10"",""Q11"",""Q12"",""Q13""]","[14369.79999999702,19579,25284.89999999851,30515.89999999851,36863,40503.69999999553,45799.5,49252.29999999702,52625.79999999702,62159.29999999702,65356.69999999553,69359.5,76545.5,80825.79999999702]","[]","[14369.79999999702,18389.10000000149,19579,25284.89999999851,30515.89999999851,35911.10000000149,36863,40503.69999999553,45799.5,49252.29999999702,52625.79999999702,62159.29999999702,65356.69999999553,69359.5,76545.5,80825.79999999702,82037]","0.46153846153846156","0.5","0","","","","","","","","","","","","","","","","","","","","","","","","","","","","","",""
"4540","1751452240235","<p style='font-size:1.1em;line-height:1.25'>In the following, we will ask you a few questions relating to your experiences over the past month.<br></p><p style='font-size:1.1em;line-height:1.25'>Press the <strong>Next</strong> button to continue.</p>","0","custom-html-button-response","15","456947","0.0-7.0-4.0","167","1","2025-07-02 10:22:58","80fe4187154257d5fb01684ea91b68b9","41.121.62.88","Mozilla/5.0 (Windows NT 10.0; Win64; x64) AppleWebKit/537.36 (KHTML, like Gecko) Chrome/137.0.0.0 Safari/537.36","WebKit","Chrome","137.0.0.0","Windows","10.0","https://app.prolific.com/","en-GB,en-US;q=0.9,en;q=0.8","669bd8ce24b83b4652aebd40","683db6dfa200031b80f2a654","686507818680783ca8d084b1","669bd8ce24b83b4652aebd40","2025-07-02T10:30:40.238Z","","","","","","","","","","","","","","","","","","","","","","","","","","","","","","","","","","","","","","","","","","","","",""
"105656.89999999851","","","","survey-template","16","562618","0.0-7.0-5.0","167","1","2025-07-02 10:22:58","80fe4187154257d5fb01684ea91b68b9","41.121.62.88","Mozilla/5.0 (Windows NT 10.0; Win64; x64) AppleWebKit/537.36 (KHTML, like Gecko) Chrome/137.0.0.0 Safari/537.36","WebKit","Chrome","137.0.0.0","Windows","10.0","https://app.prolific.com/","en-GB,en-US;q=0.9,en;q=0.8","669bd8ce24b83b4652aebd40","683db6dfa200031b80f2a654","686507818680783ca8d084b1","669bd8ce24b83b4652aebd40","2025-07-02T10:32:25.910Z","","","","","","pss","{""Q01"":""3"",""Q02"":""3"",""Q03"":""2"",""Q04"":""1"",""Q05"":""1"",""Q06"":""1"",""Q07"":""2"",""Q08"":""1"",""Q09"":""3"",""Q10"":""2""}","[0,1,2,3,4,5,6,7,8,9]","[""Q01"",""Q02"",""Q03"",""Q04"",""Q05"",""Q06"",""Q07"",""Q08"",""Q09"",""Q10""]","[9615.39999999851,14555.10000000149,18158,23658,27919.80000000447,84780.60000000149,88889.10000000149,91848,95903.20000000298,104498.60000000149]","[]","[42.600000001490116,9615.39999999851,14555.10000000149,18158,23658,27919.80000000447,83034.5,84780.60000000149,88889.10000000149,91848,95903.20000000298,104498.60000000149,105646.5]","0.6","0.5555555555555556","0","","","","","","","","","","","","","","","","","","","","","","","","","","","","","",""
"58047","1751452403962","<p style='font-size:1.1em;line-height:1.25'>Thank you for your answers! Now we will ask you a few more questions relating to your feelings in the last 24 hours.<br></p><p style='font-size:1.1em;line-height:1.25'>Press the <strong>Next</strong> button to continue.</p>","0","custom-html-button-response","17","620678","0.0-7.0-6.0","167","1","2025-07-02 10:22:58","80fe4187154257d5fb01684ea91b68b9","41.121.62.88","Mozilla/5.0 (Windows NT 10.0; Win64; x64) AppleWebKit/537.36 (KHTML, like Gecko) Chrome/137.0.0.0 Safari/537.36","WebKit","Chrome","137.0.0.0","Windows","10.0","https://app.prolific.com/","en-GB,en-US;q=0.9,en;q=0.8","669bd8ce24b83b4652aebd40","683db6dfa200031b80f2a654","686507818680783ca8d084b1","669bd8ce24b83b4652aebd40","2025-07-02T10:33:23.969Z","","","","","","","","","","","","","","","","","","","","","","","","","","","","","","","","","","","","","","","","","","","","",""
"187562.1000000015","","","","survey-template","18","808253","0.0-7.0-7.0","167","1","2025-07-02 10:22:58","80fe4187154257d5fb01684ea91b68b9","41.121.62.88","Mozilla/5.0 (Windows NT 10.0; Win64; x64) AppleWebKit/537.36 (KHTML, like Gecko) Chrome/137.0.0.0 Safari/537.36","WebKit","Chrome","137.0.0.0","Windows","10.0","https://app.prolific.com/","en-GB,en-US;q=0.9,en;q=0.8","669bd8ce24b83b4652aebd40","683db6dfa200031b80f2a654","686507818680783ca8d084b1","669bd8ce24b83b4652aebd40","2025-07-02T10:36:31.544Z","","","","","","drsp","{""Q01"":""1"",""Q02"":""1"",""Q03"":""0"",""Q04"":""1"",""Q05"":""1"",""Q06"":""0"",""Q07"":""1"",""Q08"":""2"",""Q09"":""1"",""Q10"":""0"",""Q11"":""1"",""Q12"":""4"",""Q13"":""4"",""Q14"":""3"",""Q15"":""3"",""Q16"":""2"",""Q17"":""1"",""Q18"":""2"",""Q19"":""2"",""Q20"":""2"",""Q21"":""3""}","[0,1,2,3,4,5,6,7,8,9,10,11,12,13,14,15,16,17,18,19,20]","[""Q01"",""Q02"",""Q03"",""Q04"",""Q05"",""Q06"",""Q07"",""Q08"",""Q09"",""Q10"",""Q11"",""Q12"",""Q13"",""Q14"",""Q15"",""Q16"",""Q17"",""Q18"",""Q19"",""Q20"",""Q21""]","[12187.20000000298,14054.20000000298,17115.80000000447,22387.10000000149,25167.20000000298,31153.5,34326.10000000149,50942.30000000447,60917.80000000447,68972.10000000149,71200.70000000298,77798.60000000149,94958.20000000298,122289.60000000149,126164.39999999851,129432.5,147306.5,153042.80000000447,177931.80000000447,183181.6000000015,186278.80000000447]","[]","[56.80000000447035,12187.20000000298,14054.20000000298,17115.80000000447,22387.10000000149,23925.80000000447,25167.20000000298,31153.5,34326.10000000149,49753.10000000149,50942.30000000447,60917.80000000447,68972.10000000149,71200.70000000298,74120.20000000298,75502.39999999851,76884.30000000447,77798.60000000149,94958.20000000298,122289.60000000149,126164.39999999851,129432.5,146357.8999999985,147306.5,153042.80000000447,177931.80000000447,183181.6000000015,186278.80000000447,187535.20000000298]","0.38095238095238093","0.65","0","","","","","","","","","","","","","","","","","","","","","","","","","","","","","",""
"12714.89999999851","","","","survey-template","19","820976","0.0-7.0-8.0","167","1","2025-07-02 10:22:58","80fe4187154257d5fb01684ea91b68b9","41.121.62.88","Mozilla/5.0 (Windows NT 10.0; Win64; x64) AppleWebKit/537.36 (KHTML, like Gecko) Chrome/137.0.0.0 Safari/537.36","WebKit","Chrome","137.0.0.0","Windows","10.0","https://app.prolific.com/","en-GB,en-US;q=0.9,en;q=0.8","669bd8ce24b83b4652aebd40","683db6dfa200031b80f2a654","686507818680783ca8d084b1","669bd8ce24b83b4652aebd40","2025-07-02T10:36:44.267Z","","","","","","stress","{""Q01"":""2"",""Q02"":""1"",""Q03"":""2""}","[0,1,2]","[""Q01"",""Q02"",""Q03""]","[4374.70000000298,7905.30000000447,11653.60000000149]","[]","[4374.70000000298,7905.30000000447,11653.60000000149,12708.5]","0.6666666666666666","0","0","","","","","","","","","","","","","","","","","","","","","","","","","","","","","",""
"201998","","","","instructions","20","1022978","0.0-8.0-0.0","167","1","2025-07-02 10:22:58","80fe4187154257d5fb01684ea91b68b9","41.121.62.88","Mozilla/5.0 (Windows NT 10.0; Win64; x64) AppleWebKit/537.36 (KHTML, like Gecko) Chrome/137.0.0.0 Safari/537.36","WebKit","Chrome","137.0.0.0","Windows","10.0","https://app.prolific.com/","en-GB,en-US;q=0.9,en;q=0.8","669bd8ce24b83b4652aebd40","683db6dfa200031b80f2a654","686507818680783ca8d084b1","669bd8ce24b83b4652aebd40","","[{""page_index"":0,""viewing_time"":60470},{""page_index"":1,""viewing_time"":94064},{""page_index"":2,""viewing_time"":15864},{""page_index"":3,""viewing_time"":31595}]","","","","","","","","","","","","","","","","","","","","","","","","","","","","","","","","","","","","","","","","","","","",""
"","","","","ctl-task-cpt","21","1047388","0.0-8.0-1.0","167","1","2025-07-02 10:22:58","80fe4187154257d5fb01684ea91b68b9","41.121.62.88","Mozilla/5.0 (Windows NT 10.0; Win64; x64) AppleWebKit/537.36 (KHTML, like Gecko) Chrome/137.0.0.0 Safari/537.36","WebKit","Chrome","137.0.0.0","Windows","10.0","https://app.prolific.com/","en-GB,en-US;q=0.9,en;q=0.8","669bd8ce24b83b4652aebd40","683db6dfa200031b80f2a654","686507818680783ca8d084b1","669bd8ce24b83b4652aebd40","","","","","","","","","","","","","","","","","win-only","1","g1:NE,g2:SW","1","0","1","1028370.1","11409.4","15428.1","21389.4","2","4","4","6","2","-4","-4","0","0","0","2877.5","4000","-2935","[""down"",""left""]","{""num_key_presses"":0,""num_perfect"":0,""num_errors"":0,""num_randdir"":0,""num_randdir_good_moves"":0,""num_whilered"":0,""num_whileblue"":0,""num_blue"":0,""num_good_moves"":0}","[296.22232142857143,299.12857142857143,2.2,296.22232142857143,299.12857142857143,101.8,296.22232142857143,299.12857142857143,202.4,296.22232142857143,299.12857142857143,305,296.22232142857143,299.12857142857143,427.9,296.22232142857143,299.12857142857143,536.1,296.22232142857143,299.12857142857143,638.4,296.22232142857143,299.12857142857143,742.6,296.22232142857143,299.12857142857143,850.8,296.22232142857143,299.12857142857143,951.3,296.22232142857143,299.12857142857143,1051.6,296.22232142857143,299.12857142857143,1152.1,296.22232142857143,299.12857142857143,1252.3,287.22232142857143,303.12857142857143,1356.2,215.22232142857143,377.12857142857143,1457,166.22232142857143,433.12857142857143,1558.1,150.22232142857143,446.12857142857143,1658.3,132.22232142857143,465.12857142857143,1762.3,121.22232142857143,476.12857142857143,1864.6,121.22232142857143,476.12857142857143,1967.1,121.22232142857143,476.12857142857143,2072.8,121.22232142857143,476.12857142857143,2178.3,121.22232142857143,476.12857142857143,2284.7,103.22232142857143,493.12857142857143,2388.5,71.22232142857143,549.1285714285714,2492.1,65.22232142857143,563.1285714285714,2593.4,64.22232142857143,565.1285714285714,2699.1,64.22232142857143,565.1285714285714,2803.4,64.22232142857143,565.1285714285714,2904.7,64.22232142857143,565.1285714285714,3012.4,64.22232142857143,565.1285714285714,3120.4,64.22232142857143,565.1285714285714,3221.9,64.22232142857143,565.1285714285714,3327.8,64.22232142857143,565.1285714285714,3428.2,64.22232142857143,565.1285714285714,3533.9,64.22232142857143,565.1285714285714,3634.7,65.22232142857143,564.1285714285714,3738.7,92.22232142857143,541.1285714285714,3845.3,175.22232142857143,483.12857142857143,3956]","[]","","",""
"38736","","","","instructions","22","1086125","0.0-8.0-2.0","167","1","2025-07-02 10:22:58","80fe4187154257d5fb01684ea91b68b9","41.121.62.88","Mozilla/5.0 (Windows NT 10.0; Win64; x64) AppleWebKit/537.36 (KHTML, like Gecko) Chrome/137.0.0.0 Safari/537.36","WebKit","Chrome","137.0.0.0","Windows","10.0","https://app.prolific.com/","en-GB,en-US;q=0.9,en;q=0.8","669bd8ce24b83b4652aebd40","683db6dfa200031b80f2a654","686507818680783ca8d084b1","669bd8ce24b83b4652aebd40","","[{""page_index"":0,""viewing_time"":38730}]","","","","","","","","","","","","","","","","","","","","","","","","","","","","","","","","","","","","","","","","","","","",""
"","","","","ctl-task-cpt","23","1102164","0.0-8.0-3.0","167","1","2025-07-02 10:22:58","80fe4187154257d5fb01684ea91b68b9","41.121.62.88","Mozilla/5.0 (Windows NT 10.0; Win64; x64) AppleWebKit/537.36 (KHTML, like Gecko) Chrome/137.0.0.0 Safari/537.36","WebKit","Chrome","137.0.0.0","Windows","10.0","https://app.prolific.com/","en-GB,en-US;q=0.9,en;q=0.8","669bd8ce24b83b4652aebd40","683db6dfa200031b80f2a654","686507818680783ca8d084b1","669bd8ce24b83b4652aebd40","","","","","","","","","","","","","","","","","win-only","1","g1:NE,g2:SW","0.35","0","3","1091519.3","2471.5","6475.3","13015.2","2","4","8","6","1","-2","-2","0","0","0","2220.7","4000","-2395","[""up"",""right""]","{""num_key_presses"":0,""num_perfect"":0,""num_errors"":0,""num_randdir"":0,""num_randdir_good_moves"":0,""num_whilered"":0,""num_whileblue"":0,""num_blue"":0,""num_good_moves"":0}","[294.22232142857143,292.12857142857143,1.3,294.22232142857143,292.12857142857143,102.2,294.22232142857143,292.12857142857143,204.4,294.22232142857143,292.12857142857143,305.8,294.22232142857143,292.12857142857143,406.1,294.22232142857143,292.12857142857143,513.3,294.22232142857143,292.12857142857143,617.8,294.22232142857143,292.12857142857143,720.2,295.22232142857143,288.12857142857143,831.9,321.22232142857143,255.12857142857143,941.5,408.22232142857143,167.12857142857143,1052.2,408.22232142857143,167.12857142857143,1154.7,408.22232142857143,167.12857142857143,1255,408.22232142857143,167.12857142857143,1357.4,507.22232142857143,40.128571428571426,1463.1,547.2223214285714,12.128571428571426,1565.7,552.2223214285714,10.128571428571426,1670,553.2223214285714,12.128571428571426,1772.8,548.2223214285714,17.128571428571426,1873.6,538.2223214285714,30.128571428571426,1975.5,538.2223214285714,30.128571428571426,2075.9,538.2223214285714,30.128571428571426,2181,538.2223214285714,30.128571428571426,2287.6,538.2223214285714,30.128571428571426,2392.2,538.2223214285714,30.128571428571426,2529.8,538.2223214285714,30.128571428571426,2632.2,538.2223214285714,30.128571428571426,2740.4,538.2223214285714,30.128571428571426,2849.9,538.2223214285714,30.128571428571426,2952.2,495.22232142857143,79.12857142857143,3056.2,413.22232142857143,208.12857142857143,3161.7,413.22232142857143,208.12857142857143,3273.3,413.22232142857143,208.12857142857143,3385.5,413.22232142857143,208.12857142857143,3487.2,413.22232142857143,208.12857142857143,3589.9,413.22232142857143,208.12857142857143,3690.4,413.22232142857143,208.12857142857143,3791.3,413.22232142857143,208.12857142857143,3901.8]","[]","","",""
"108737","","","","instructions","24","1210902","0.0-8.0-4.0","167","1","2025-07-02 10:22:58","80fe4187154257d5fb01684ea91b68b9","41.121.62.88","Mozilla/5.0 (Windows NT 10.0; Win64; x64) AppleWebKit/537.36 (KHTML, like Gecko) Chrome/137.0.0.0 Safari/537.36","WebKit","Chrome","137.0.0.0","Windows","10.0","https://app.prolific.com/","en-GB,en-US;q=0.9,en;q=0.8","669bd8ce24b83b4652aebd40","683db6dfa200031b80f2a654","686507818680783ca8d084b1","669bd8ce24b83b4652aebd40","","[{""page_index"":0,""viewing_time"":64168},{""page_index"":1,""viewing_time"":44564}]","","","","","","","","","","","","","","","","","","","","","","","","","","","","","","","","","","","","","","","","","","","",""
"49034","","","{""green_ball"":[""Ball always moves in the direction I press""]}","survey-multi-select","25","1259948","0.0-8.0-5.0-0.0","167","1","2025-07-02 10:22:58","80fe4187154257d5fb01684ea91b68b9","41.121.62.88","Mozilla/5.0 (Windows NT 10.0; Win64; x64) AppleWebKit/537.36 (KHTML, like Gecko) Chrome/137.0.0.0 Safari/537.36","WebKit","Chrome","137.0.0.0","Windows","10.0","https://app.prolific.com/","en-GB,en-US;q=0.9,en;q=0.8","669bd8ce24b83b4652aebd40","683db6dfa200031b80f2a654","686507818680783ca8d084b1","669bd8ce24b83b4652aebd40","","","[0]","","","","quiz","","","","","","","","","","","","","","","","","","","","","","","","","","","","","","","","","","","","","false","",""
"8005","","<p align='center'><b>INCORRECT.</b> Usually the green ball moves in the indicated direction, but sometimes it shakes and moves randomly. </p>","0","html-button-response","26","1267961","0.0-8.0-5.0-1.0","167","1","2025-07-02 10:22:58","80fe4187154257d5fb01684ea91b68b9","41.121.62.88","Mozilla/5.0 (Windows NT 10.0; Win64; x64) AppleWebKit/537.36 (KHTML, like Gecko) Chrome/137.0.0.0 Safari/537.36","WebKit","Chrome","137.0.0.0","Windows","10.0","https://app.prolific.com/","en-GB,en-US;q=0.9,en;q=0.8","669bd8ce24b83b4652aebd40","683db6dfa200031b80f2a654","686507818680783ca8d084b1","669bd8ce24b83b4652aebd40","","","","","","","","","","","","","","","","","","","","","","","","","","","","","","","","","","","","","","","","","","","","","",""
"23802","","","{""green_ball"":[""Ball sometimes shakes and moves in a random direction""]}","survey-multi-select","27","1291778","0.0-8.0-5.1-0.1","167","1","2025-07-02 10:22:58","80fe4187154257d5fb01684ea91b68b9","41.121.62.88","Mozilla/5.0 (Windows NT 10.0; Win64; x64) AppleWebKit/537.36 (KHTML, like Gecko) Chrome/137.0.0.0 Safari/537.36","WebKit","Chrome","137.0.0.0","Windows","10.0","https://app.prolific.com/","en-GB,en-US;q=0.9,en;q=0.8","669bd8ce24b83b4652aebd40","683db6dfa200031b80f2a654","686507818680783ca8d084b1","669bd8ce24b83b4652aebd40","","","[0]","","","","quiz","","","","","","","","","","","","","","","","","","","","","","","","","","","","","","","","","","","","","true","",""
"3186","","<p align='center'><b>CORRECT!</b> Indeed, the green ball may sometimes shake and move in a random direction.</p>","0","html-button-response","28","1294973","0.0-8.0-5.1-1.1","167","1","2025-07-02 10:22:58","80fe4187154257d5fb01684ea91b68b9","41.121.62.88","Mozilla/5.0 (Windows NT 10.0; Win64; x64) AppleWebKit/537.36 (KHTML, like Gecko) Chrome/137.0.0.0 Safari/537.36","WebKit","Chrome","137.0.0.0","Windows","10.0","https://app.prolific.com/","en-GB,en-US;q=0.9,en;q=0.8","669bd8ce24b83b4652aebd40","683db6dfa200031b80f2a654","686507818680783ca8d084b1","669bd8ce24b83b4652aebd40","","","","","","","","","","","","","","","","","","","","","","","","","","","","","","","","","","","","","","","","","","","","","",""
"24712","","","{""yellow_ball"":[""Ball doesn‘t move and I get -1 penalty point""]}","survey-multi-select","29","1319698","0.0-8.0-6.0-0.0","167","1","2025-07-02 10:22:58","80fe4187154257d5fb01684ea91b68b9","41.121.62.88","Mozilla/5.0 (Windows NT 10.0; Win64; x64) AppleWebKit/537.36 (KHTML, like Gecko) Chrome/137.0.0.0 Safari/537.36","WebKit","Chrome","137.0.0.0","Windows","10.0","https://app.prolific.com/","en-GB,en-US;q=0.9,en;q=0.8","669bd8ce24b83b4652aebd40","683db6dfa200031b80f2a654","686507818680783ca8d084b1","669bd8ce24b83b4652aebd40","","","[0]","","","","quiz","","","","","","","","","","","","","","","","","","","","","","","","","","","","","","","","","","","","","true","",""
"3866","","<p align='center'><b>CORRECT!</b> Indeed, the yellow ball never moves and you receive a penalty.</p>","0","html-button-response","30","1323575","0.0-8.0-6.0-1.0","167","1","2025-07-02 10:22:58","80fe4187154257d5fb01684ea91b68b9","41.121.62.88","Mozilla/5.0 (Windows NT 10.0; Win64; x64) AppleWebKit/537.36 (KHTML, like Gecko) Chrome/137.0.0.0 Safari/537.36","WebKit","Chrome","137.0.0.0","Windows","10.0","https://app.prolific.com/","en-GB,en-US;q=0.9,en;q=0.8","669bd8ce24b83b4652aebd40","683db6dfa200031b80f2a654","686507818680783ca8d084b1","669bd8ce24b83b4652aebd40","","","","","","","","","","","","","","","","","","","","","","","","","","","","","","","","","","","","","","","","","","","","","",""
"10952","","","{""blue_ball"":[""Ball doesn‘t move and I get -1 penalty point""]}","survey-multi-select","31","1334539","0.0-8.0-7.0-0.0","167","1","2025-07-02 10:22:58","80fe4187154257d5fb01684ea91b68b9","41.121.62.88","Mozilla/5.0 (Windows NT 10.0; Win64; x64) AppleWebKit/537.36 (KHTML, like Gecko) Chrome/137.0.0.0 Safari/537.36","WebKit","Chrome","137.0.0.0","Windows","10.0","https://app.prolific.com/","en-GB,en-US;q=0.9,en;q=0.8","669bd8ce24b83b4652aebd40","683db6dfa200031b80f2a654","686507818680783ca8d084b1","669bd8ce24b83b4652aebd40","","","[0]","","","","quiz","","","","","","","","","","","","","","","","","","","","","","","","","","","","","","","","","","","","","false","",""
"3465","","<p align='center'><b>INCORRECT.</b> The blue ball always shakes and moves randomly.</p>","0","html-button-response","32","1338014","0.0-8.0-7.0-1.0","167","1","2025-07-02 10:22:58","80fe4187154257d5fb01684ea91b68b9","41.121.62.88","Mozilla/5.0 (Windows NT 10.0; Win64; x64) AppleWebKit/537.36 (KHTML, like Gecko) Chrome/137.0.0.0 Safari/537.36","WebKit","Chrome","137.0.0.0","Windows","10.0","https://app.prolific.com/","en-GB,en-US;q=0.9,en;q=0.8","669bd8ce24b83b4652aebd40","683db6dfa200031b80f2a654","686507818680783ca8d084b1","669bd8ce24b83b4652aebd40","","","","","","","","","","","","","","","","","","","","","","","","","","","","","","","","","","","","","","","","","","","","","",""
"10024","","","{""blue_ball"":[""Ball sometimes shakes and moves in a random direction""]}","survey-multi-select","33","1348051","0.0-8.0-7.1-0.1","167","1","2025-07-02 10:22:58","80fe4187154257d5fb01684ea91b68b9","41.121.62.88","Mozilla/5.0 (Windows NT 10.0; Win64; x64) AppleWebKit/537.36 (KHTML, like Gecko) Chrome/137.0.0.0 Safari/537.36","WebKit","Chrome","137.0.0.0","Windows","10.0","https://app.prolific.com/","en-GB,en-US;q=0.9,en;q=0.8","669bd8ce24b83b4652aebd40","683db6dfa200031b80f2a654","686507818680783ca8d084b1","669bd8ce24b83b4652aebd40","","","[0]","","","","quiz","","","","","","","","","","","","","","","","","","","","","","","","","","","","","","","","","","","","","false","",""
"1697","","<p align='center'><b>INCORRECT.</b> The blue ball always shakes and moves randomly.</p>","0","html-button-response","34","1349755","0.0-8.0-7.1-1.1","167","1","2025-07-02 10:22:58","80fe4187154257d5fb01684ea91b68b9","41.121.62.88","Mozilla/5.0 (Windows NT 10.0; Win64; x64) AppleWebKit/537.36 (KHTML, like Gecko) Chrome/137.0.0.0 Safari/537.36","WebKit","Chrome","137.0.0.0","Windows","10.0","https://app.prolific.com/","en-GB,en-US;q=0.9,en;q=0.8","669bd8ce24b83b4652aebd40","683db6dfa200031b80f2a654","686507818680783ca8d084b1","669bd8ce24b83b4652aebd40","","","","","","","","","","","","","","","","","","","","","","","","","","","","","","","","","","","","","","","","","","","","","",""
"3165","","","{""blue_ball"":[""Ball always shakes and moves in a random direction""]}","survey-multi-select","35","1352930","0.0-8.0-7.2-0.2","167","1","2025-07-02 10:22:58","80fe4187154257d5fb01684ea91b68b9","41.121.62.88","Mozilla/5.0 (Windows NT 10.0; Win64; x64) AppleWebKit/537.36 (KHTML, like Gecko) Chrome/137.0.0.0 Safari/537.36","WebKit","Chrome","137.0.0.0","Windows","10.0","https://app.prolific.com/","en-GB,en-US;q=0.9,en;q=0.8","669bd8ce24b83b4652aebd40","683db6dfa200031b80f2a654","686507818680783ca8d084b1","669bd8ce24b83b4652aebd40","","","[0]","","","","quiz","","","","","","","","","","","","","","","","","","","","","","","","","","","","","","","","","","","","","true","",""
"109755","","<p align='center'><b>CORRECT!</b> Indeed, the blue ball always shakes and moves in a random direction. Also there is a penalty of -1 point.</p>","0","html-button-response","36","1462694","0.0-8.0-7.2-1.2","167","1","2025-07-02 10:22:58","80fe4187154257d5fb01684ea91b68b9","41.121.62.88","Mozilla/5.0 (Windows NT 10.0; Win64; x64) AppleWebKit/537.36 (KHTML, like Gecko) Chrome/137.0.0.0 Safari/537.36","WebKit","Chrome","137.0.0.0","Windows","10.0","https://app.prolific.com/","en-GB,en-US;q=0.9,en;q=0.8","669bd8ce24b83b4652aebd40","683db6dfa200031b80f2a654","686507818680783ca8d084b1","669bd8ce24b83b4652aebd40","","","","","","","","","","","","","","","","","","","","","","","","","","","","","","","","","","","","","","","","","","","","","",""
"16106","","","{""bonus"":[""When I reach 50% of points""]}","survey-multi-select","37","1478808","0.0-8.0-8.0-0.0","167","1","2025-07-02 10:22:58","80fe4187154257d5fb01684ea91b68b9","41.121.62.88","Mozilla/5.0 (Windows NT 10.0; Win64; x64) AppleWebKit/537.36 (KHTML, like Gecko) Chrome/137.0.0.0 Safari/537.36","WebKit","Chrome","137.0.0.0","Windows","10.0","https://app.prolific.com/","en-GB,en-US;q=0.9,en;q=0.8","669bd8ce24b83b4652aebd40","683db6dfa200031b80f2a654","686507818680783ca8d084b1","669bd8ce24b83b4652aebd40","","","[0]","","","","quiz","","","","","","","","","","","","","","","","","","","","","","","","","","","","","","","","","","","","","true","",""
"2046","","<p align='center'><b>CORRECT!</b> Indeed, you receive 2 pounds extra when you reach 50% of points.</p>","0","html-button-response","38","1480865","0.0-8.0-8.0-1.0","167","1","2025-07-02 10:22:58","80fe4187154257d5fb01684ea91b68b9","41.121.62.88","Mozilla/5.0 (Windows NT 10.0; Win64; x64) AppleWebKit/537.36 (KHTML, like Gecko) Chrome/137.0.0.0 Safari/537.36","WebKit","Chrome","137.0.0.0","Windows","10.0","https://app.prolific.com/","en-GB,en-US;q=0.9,en;q=0.8","669bd8ce24b83b4652aebd40","683db6dfa200031b80f2a654","686507818680783ca8d084b1","669bd8ce24b83b4652aebd40","","","","","","","","","","","","","","","","","","","","","","","","","","","","","","","","","","","","","","","","","","","","","",""
"24257","","","","instructions","39","1505128","0.0-8.0-9.0","167","1","2025-07-02 10:22:58","80fe4187154257d5fb01684ea91b68b9","41.121.62.88","Mozilla/5.0 (Windows NT 10.0; Win64; x64) AppleWebKit/537.36 (KHTML, like Gecko) Chrome/137.0.0.0 Safari/537.36","WebKit","Chrome","137.0.0.0","Windows","10.0","https://app.prolific.com/","en-GB,en-US;q=0.9,en;q=0.8","669bd8ce24b83b4652aebd40","683db6dfa200031b80f2a654","686507818680783ca8d084b1","669bd8ce24b83b4652aebd40","","[{""page_index"":0,""viewing_time"":24254}]","","","","","","","","","","","","","","","","","","","","","","","","","","","","","","","","","","","","","","","","","","","",""
"16927","","<p>Before you start with this game please answer the following three questions yourself. </p>
  <p>Through this game, we measure several aspects of your cognitive performance, such as reaction times, multi-tasking capabilities </p>
  <p>and the ability to assess the situation you are in.</p>
  <p></p>
  <p><b>How good do you usually are in such tasks?</b></p>","76","html-slider-response","40","1522066","0.0-9.0-0.0","167","1","2025-07-02 10:22:58","80fe4187154257d5fb01684ea91b68b9","41.121.62.88","Mozilla/5.0 (Windows NT 10.0; Win64; x64) AppleWebKit/537.36 (KHTML, like Gecko) Chrome/137.0.0.0 Safari/537.36","WebKit","Chrome","137.0.0.0","Windows","10.0","https://app.prolific.com/","en-GB,en-US;q=0.9,en;q=0.8","669bd8ce24b83b4652aebd40","683db6dfa200031b80f2a654","686507818680783ca8d084b1","669bd8ce24b83b4652aebd40","2025-07-02T10:48:25.358Z","","","","","","PreSkillQ","","","","","","","","","","","","","","","","","","","","","","","","","","","","","","","","","","","","","","50",""
"6451","","<div style=""width:500px;"">
  <p>How well do you think you will perform in this task compared to other participants?</p>
  </div>","62","html-slider-response","41","1528527","0.0-9.0-1.0","167","1","2025-07-02 10:22:58","80fe4187154257d5fb01684ea91b68b9","41.121.62.88","Mozilla/5.0 (Windows NT 10.0; Win64; x64) AppleWebKit/537.36 (KHTML, like Gecko) Chrome/137.0.0.0 Safari/537.36","WebKit","Chrome","137.0.0.0","Windows","10.0","https://app.prolific.com/","en-GB,en-US;q=0.9,en;q=0.8","669bd8ce24b83b4652aebd40","683db6dfa200031b80f2a654","686507818680783ca8d084b1","669bd8ce24b83b4652aebd40","2025-07-02T10:48:31.818Z","","","","","","PrePerfQ","","","","","","","","","","","","","","","","","","","","","","","","","","","","","","","","","","","","","","50",""
"6238","","<div style=""width:500px;"">
  <p>What best describes how you currently feel?</p>
  </div>","70","html-slider-response","42","1534776","0.0-9.0-2.0","167","1","2025-07-02 10:22:58","80fe4187154257d5fb01684ea91b68b9","41.121.62.88","Mozilla/5.0 (Windows NT 10.0; Win64; x64) AppleWebKit/537.36 (KHTML, like Gecko) Chrome/137.0.0.0 Safari/537.36","WebKit","Chrome","137.0.0.0","Windows","10.0","https://app.prolific.com/","en-GB,en-US;q=0.9,en;q=0.8","669bd8ce24b83b4652aebd40","683db6dfa200031b80f2a654","686507818680783ca8d084b1","669bd8ce24b83b4652aebd40","2025-07-02T10:48:38.068Z","","","","","","PreMotivationQ","","","","","","","","","","","","","","","","","","","","","","","","","","","","","","","","","","","","","","50",""
"","","","","ctl-task-cpt","43","1567925","0.0-10.0-0.0","167","1","2025-07-02 10:22:58","80fe4187154257d5fb01684ea91b68b9","41.121.62.88","Mozilla/5.0 (Windows NT 10.0; Win64; x64) AppleWebKit/537.36 (KHTML, like Gecko) Chrome/137.0.0.0 Safari/537.36","WebKit","Chrome","137.0.0.0","Windows","10.0","https://app.prolific.com/","en-GB,en-US;q=0.9,en;q=0.8","669bd8ce24b83b4652aebd40","683db6dfa200031b80f2a654","686507818680783ca8d084b1","669bd8ce24b83b4652aebd40","2025-07-02T10:49:11.216Z","","","","","","","","","","","","","","","","win-only","2","g1:SE,g2:NW","1","1","0","1540163.6","3195.4","8205.5","30122.8","1","4","8","6","2","-8","-10","0","0","0","2370.1","3000","-2385","[""left"",""up""]","{""num_key_presses"":9,""num_perfect"":5,""num_errors"":2,""num_randdir"":0,""num_randdir_good_moves"":0,""num_whilered"":2,""num_whileblue"":0,""num_blue"":0,""num_good_moves"":5}","[298.22232142857143,295.12857142857143,1.6,298.22232142857143,295.12857142857143,100.6,298.22232142857143,295.12857142857143,202.7,298.22232142857143,295.12857142857143,302.9,298.22232142857143,295.12857142857143,406.4,298.22232142857143,295.12857142857143,510.4,298.22232142857143,295.12857142857143,615.9,298.22232142857143,295.12857142857143,720,140.22232142857143,207.12857142857143,826.2,95.22232142857143,147.12857142857143,929.7,95.22232142857143,147.12857142857143,1032.1,95.22232142857143,147.12857142857143,1136.3,86.22232142857143,138.12857142857143,1242.7,81.22232142857143,131.12857142857143,1350.6,81.22232142857143,130.12857142857143,1451,80.22232142857143,130.12857142857143,1569.6,72.22232142857143,122.12857142857143,1671.4,60.222321428571426,96.12857142857143,1788.2,52.222321428571426,71.12857142857143,1893.8,48.222321428571426,58.128571428571426,1995.9,45.222321428571426,50.128571428571426,2097.8,45.222321428571426,50.128571428571426,2204.5,45.222321428571426,50.128571428571426,2307.4,45.222321428571426,50.128571428571426,2411.5,45.222321428571426,50.128571428571426,2514.1,45.222321428571426,50.128571428571426,2616.7,45.222321428571426,50.128571428571426,2721,45.222321428571426,50.128571428571426,2821.7,48.222321428571426,52.128571428571426,2927.3,332.22232142857143,197.12857142857143,3029.2,332.22232142857143,197.12857142857143,3141.2,332.22232142857143,197.12857142857143,3243.1,332.22232142857143,197.12857142857143,3352.5,332.22232142857143,197.12857142857143,3468.3,332.22232142857143,197.12857142857143,3570.6,332.22232142857143,197.12857142857143,3677.4,332.22232142857143,197.12857142857143,3784.2,332.22232142857143,197.12857142857143,3884.2,332.22232142857143,197.12857142857143,3986.1,332.22232142857143,197.12857142857143,4091.6,332.22232142857143,197.12857142857143,4202.1,332.22232142857143,197.12857142857143,4307.3,332.22232142857143,197.12857142857143,4417.7,332.22232142857143,197.12857142857143,4521,332.22232142857143,197.12857142857143,4622.1,332.22232142857143,197.12857142857143,4725.9,332.22232142857143,197.12857142857143,4829.5,332.22232142857143,197.12857142857143,4939.9]","[385.2,385.2,1000,0,-614.8,""error"",""-"",""-"",""no_move"",682.8,297.2,1000,0,-314.3,""while_red"",""-"",""-"",""no_move"",4614.1,4225.7,2308.4,1391.8,914.1,""smooth"",""left"",""left"",""good_move"",5061.5,440.3,2389.4,4621.2,-1949.1,""error"",""-"",""-"",""no_move"",5341.9,271.7,2389.4,4621.2,-1668.7,""while_red"",""-"",""-"",""no_move"",9603,4532.8,2829.3,6070.7,703.1,""smooth"",""left"",""left"",""good_move"",12920.5,3312.6,2663.4,9608,649.1,""smooth"",""left"",""left"",""good_move"",15687.7,2760.3,1892.2,12927.4,868.1,""smooth"",""up"",""up"",""good_move"",19054.6,3357.6,2829.4,15697,528.2,""smooth"",""up"",""up"",""good_move""]","","",""
"9916","","<div style=""width:500px;"">
  <p>What determined the result of this run?</p>
  </div>","63","html-slider-response","44","1577848","0.0-10.0-1.0","167","1","2025-07-02 10:22:58","80fe4187154257d5fb01684ea91b68b9","41.121.62.88","Mozilla/5.0 (Windows NT 10.0; Win64; x64) AppleWebKit/537.36 (KHTML, like Gecko) Chrome/137.0.0.0 Safari/537.36","WebKit","Chrome","137.0.0.0","Windows","10.0","https://app.prolific.com/","en-GB,en-US;q=0.9,en;q=0.8","669bd8ce24b83b4652aebd40","683db6dfa200031b80f2a654","686507818680783ca8d084b1","669bd8ce24b83b4652aebd40","2025-07-02T10:49:21.139Z","","","","","","AttribQ","","","","","","","","","","","","","","","","","","","","","","","","","","","","","","","","","","","","","","50",""
"5740","","<div style=""width:500px;"">
  <p>How much control did you have over the ball?</p>
  </div>","34","html-slider-response","45","1583610","0.0-10.0-2.0","167","1","2025-07-02 10:22:58","80fe4187154257d5fb01684ea91b68b9","41.121.62.88","Mozilla/5.0 (Windows NT 10.0; Win64; x64) AppleWebKit/537.36 (KHTML, like Gecko) Chrome/137.0.0.0 Safari/537.36","WebKit","Chrome","137.0.0.0","Windows","10.0","https://app.prolific.com/","en-GB,en-US;q=0.9,en;q=0.8","669bd8ce24b83b4652aebd40","683db6dfa200031b80f2a654","686507818680783ca8d084b1","669bd8ce24b83b4652aebd40","2025-07-02T10:49:26.902Z","","","","","","ControlQ","","","","","","","","","","","","","","","","","","","","","","","","","","","","","","","","","","","","","","50",""
"4597","","<div style=""width:500px;"">
  <p>How would you describe your current emotional state?</p>
  </div>","77","html-slider-response","46","1588219","0.0-10.0-3.0","167","1","2025-07-02 10:22:58","80fe4187154257d5fb01684ea91b68b9","41.121.62.88","Mozilla/5.0 (Windows NT 10.0; Win64; x64) AppleWebKit/537.36 (KHTML, like Gecko) Chrome/137.0.0.0 Safari/537.36","WebKit","Chrome","137.0.0.0","Windows","10.0","https://app.prolific.com/","en-GB,en-US;q=0.9,en;q=0.8","669bd8ce24b83b4652aebd40","683db6dfa200031b80f2a654","686507818680783ca8d084b1","669bd8ce24b83b4652aebd40","2025-07-02T10:49:31.511Z","","","","","","StressQ","","","","","","","","","","","","","","","","","","","","","","","","","","","","","","","","","","","","","","50",""
"5080","","<div style=""width:500px;"">
  <p>What best describes how you currently feel?</p>
  </div>","67","html-slider-response","47","1593316","0.0-10.0-4.0","167","1","2025-07-02 10:22:58","80fe4187154257d5fb01684ea91b68b9","41.121.62.88","Mozilla/5.0 (Windows NT 10.0; Win64; x64) AppleWebKit/537.36 (KHTML, like Gecko) Chrome/137.0.0.0 Safari/537.36","WebKit","Chrome","137.0.0.0","Windows","10.0","https://app.prolific.com/","en-GB,en-US;q=0.9,en;q=0.8","669bd8ce24b83b4652aebd40","683db6dfa200031b80f2a654","686507818680783ca8d084b1","669bd8ce24b83b4652aebd40","2025-07-02T10:49:36.607Z","","","","","","MotivationQ","","","","","","","","","","","","","","","","","","","","","","","","","","","","","","","","","","","","","","50",""
"","","","","ctl-task-cpt","48","1633726","0.0-10.0-0.1","167","1","2025-07-02 10:22:58","80fe4187154257d5fb01684ea91b68b9","41.121.62.88","Mozilla/5.0 (Windows NT 10.0; Win64; x64) AppleWebKit/537.36 (KHTML, like Gecko) Chrome/137.0.0.0 Safari/537.36","WebKit","Chrome","137.0.0.0","Windows","10.0","https://app.prolific.com/","en-GB,en-US;q=0.9,en;q=0.8","669bd8ce24b83b4652aebd40","683db6dfa200031b80f2a654","686507818680783ca8d084b1","669bd8ce24b83b4652aebd40","2025-07-02T10:50:17.017Z","","","","","","","","","","","","","","","","win-only","0","g1:NW,g2:SE","0.9","2","0","1598713.4","2210.1","7230.9","37372.7","1","4","4","6","2","-4","-5","0","0","0","2191.4","3000","-2245","[""down"",""right""]","{""num_key_presses"":8,""num_perfect"":6,""num_errors"":1,""num_randdir"":1,""num_randdir_good_moves"":0,""num_whilered"":0,""num_whileblue"":1,""num_blue"":2,""num_good_moves"":6}","[297.22232142857143,295.12857142857143,0.8,297.22232142857143,295.12857142857143,112.1,297.22232142857143,295.12857142857143,213.1,297.22232142857143,295.12857142857143,316.9,297.22232142857143,295.12857142857143,418.8,297.22232142857143,295.12857142857143,523.2,297.22232142857143,295.12857142857143,626.7,297.22232142857143,295.12857142857143,727.6,297.22232142857143,295.12857142857143,828.2,297.22232142857143,295.12857142857143,929.7,297.22232142857143,295.12857142857143,1033.7,297.22232142857143,295.12857142857143,1133.9,297.22232142857143,295.12857142857143,1234.1,297.22232142857143,295.12857142857143,1344.6,331.22232142857143,338.12857142857143,1454.6,502.22232142857143,513.1285714285714,1559,516.2223214285714,526.1285714285714,1666.1,520.2223214285714,529.1285714285714,1769.1,535.2223214285714,542.1285714285714,1872.5,545.2223214285714,552.1285714285714,1973,545.2223214285714,552.1285714285714,2073,545.2223214285714,552.1285714285714,2176.5,545.2223214285714,552.1285714285714,2279.2,545.2223214285714,552.1285714285714,2381.5,545.2223214285714,552.1285714285714,2482.3,545.2223214285714,552.1285714285714,2583,545.2223214285714,552.1285714285714,2705.1,545.2223214285714,552.1285714285714,2807.4,545.2223214285714,552.1285714285714,2914.5,545.2223214285714,552.1285714285714,3017.5,545.2223214285714,552.1285714285714,3123,545.2223214285714,552.1285714285714,3228.8,545.2223214285714,552.1285714285714,3329.1,545.2223214285714,552.1285714285714,3432.9,545.2223214285714,552.1285714285714,3533.7,545.2223214285714,552.1285714285714,3638.6,545.2223214285714,552.1285714285714,3745.1,545.2223214285714,552.1285714285714,3854.1,545.2223214285714,552.1285714285714,3959.3,545.2223214285714,552.1285714285714,4066.3,545.2223214285714,552.1285714285714,4180.9,545.2223214285714,552.1285714285714,4283.7,545.2223214285714,552.1285714285714,4385.6,545.2223214285714,552.1285714285714,4485.6,545.2223214285714,552.1285714285714,4590.2,545.2223214285714,552.1285714285714,4700.8,545.2223214285714,552.1285714285714,4801.9,545.2223214285714,552.1285714285714,4910.9]","[4935.3,4935.3,2319.7,2008.7,606.9,""smooth"",""down"",""down"",""good_move"",8829.3,3886.3,3122.1,4943.1,764.2,""smooth"",""down"",""down"",""good_move"",11648.8,2818.3,2320.4,8830.5,497.9,""smooth"",""right"",""right"",""good_move"",14477.4,2823,2276.9,11654.4,546.1,""smooth"",""right"",""right"",""good_move"",17921.6,3441.7,3031.7,14480,409.9,""oops"",""down"",""up"",""bad_move"",21218.4,3289.3,2615.2,17929.1,674.1,""smooth"",""down"",""down"",""good_move"",24633.8,3409.2,2940.1,21224.6,469.1,""smooth"",""down"",""down"",""good_move"",27265.8,2625,2182.2,24640.8,442.8,""while_blue"",""right"",""left"",""bad_move""]","","",""
"3769","","<div style=""width:500px;"">
  <p>What determined the result of this run?</p>
  </div>","62","html-slider-response","49","1637503","0.0-10.0-1.1","167","1","2025-07-02 10:22:58","80fe4187154257d5fb01684ea91b68b9","41.121.62.88","Mozilla/5.0 (Windows NT 10.0; Win64; x64) AppleWebKit/537.36 (KHTML, like Gecko) Chrome/137.0.0.0 Safari/537.36","WebKit","Chrome","137.0.0.0","Windows","10.0","https://app.prolific.com/","en-GB,en-US;q=0.9,en;q=0.8","669bd8ce24b83b4652aebd40","683db6dfa200031b80f2a654","686507818680783ca8d084b1","669bd8ce24b83b4652aebd40","2025-07-02T10:50:20.794Z","","","","","","AttribQ","","","","","","","","","","","","","","","","","","","","","","","","","","","","","","","","","","","","","","50",""
"3909","","<div style=""width:500px;"">
  <p>How much control did you have over the ball?</p>
  </div>","66","html-slider-response","50","1641430","0.0-10.0-2.1","167","1","2025-07-02 10:22:58","80fe4187154257d5fb01684ea91b68b9","41.121.62.88","Mozilla/5.0 (Windows NT 10.0; Win64; x64) AppleWebKit/537.36 (KHTML, like Gecko) Chrome/137.0.0.0 Safari/537.36","WebKit","Chrome","137.0.0.0","Windows","10.0","https://app.prolific.com/","en-GB,en-US;q=0.9,en;q=0.8","669bd8ce24b83b4652aebd40","683db6dfa200031b80f2a654","686507818680783ca8d084b1","669bd8ce24b83b4652aebd40","2025-07-02T10:50:24.722Z","","","","","","ControlQ","","","","","","","","","","","","","","","","","","","","","","","","","","","","","","","","","","","","","","50",""
"2543","","<div style=""width:500px;"">
  <p>How would you describe your current emotional state?</p>
  </div>","67","html-slider-response","51","1643988","0.0-10.0-3.1","167","1","2025-07-02 10:22:58","80fe4187154257d5fb01684ea91b68b9","41.121.62.88","Mozilla/5.0 (Windows NT 10.0; Win64; x64) AppleWebKit/537.36 (KHTML, like Gecko) Chrome/137.0.0.0 Safari/537.36","WebKit","Chrome","137.0.0.0","Windows","10.0","https://app.prolific.com/","en-GB,en-US;q=0.9,en;q=0.8","669bd8ce24b83b4652aebd40","683db6dfa200031b80f2a654","686507818680783ca8d084b1","669bd8ce24b83b4652aebd40","2025-07-02T10:50:27.279Z","","","","","","StressQ","","","","","","","","","","","","","","","","","","","","","","","","","","","","","","","","","","","","","","50",""
"4088","","<div style=""width:500px;"">
  <p>What best describes how you currently feel?</p>
  </div>","67","html-slider-response","52","1648092","0.0-10.0-4.1","167","1","2025-07-02 10:22:58","80fe4187154257d5fb01684ea91b68b9","41.121.62.88","Mozilla/5.0 (Windows NT 10.0; Win64; x64) AppleWebKit/537.36 (KHTML, like Gecko) Chrome/137.0.0.0 Safari/537.36","WebKit","Chrome","137.0.0.0","Windows","10.0","https://app.prolific.com/","en-GB,en-US;q=0.9,en;q=0.8","669bd8ce24b83b4652aebd40","683db6dfa200031b80f2a654","686507818680783ca8d084b1","669bd8ce24b83b4652aebd40","2025-07-02T10:50:31.384Z","","","","","","MotivationQ","","","","","","","","","","","","","","","","","","","","","","","","","","","","","","","","","","","","","","50",""
"","","","","ctl-task-cpt","53","1694324","0.0-10.0-0.2","167","1","2025-07-02 10:22:58","80fe4187154257d5fb01684ea91b68b9","41.121.62.88","Mozilla/5.0 (Windows NT 10.0; Win64; x64) AppleWebKit/537.36 (KHTML, like Gecko) Chrome/137.0.0.0 Safari/537.36","WebKit","Chrome","137.0.0.0","Windows","10.0","https://app.prolific.com/","en-GB,en-US;q=0.9,en;q=0.8","669bd8ce24b83b4652aebd40","683db6dfa200031b80f2a654","686507818680783ca8d084b1","669bd8ce24b83b4652aebd40","2025-07-02T10:51:17.615Z","","","","","","","","","","","","","","","","win-only","2","g1:SE,g2:NW","0.8","3","0","1653487.1","1410.2","6417.6","43204.9","1","4","4","6","2","-4","-4","0","0","0","2093.9","3000","-2085","[""left"",""up""]","{""num_key_presses"":7,""num_perfect"":5,""num_errors"":0,""num_randdir"":2,""num_randdir_good_moves"":0,""num_whilered"":0,""num_whileblue"":0,""num_blue"":4,""num_good_moves"":5}","[296.22232142857143,296.12857142857143,1.5,296.22232142857143,296.12857142857143,104,296.22232142857143,296.12857142857143,206.9,296.22232142857143,296.12857142857143,308.4,296.22232142857143,296.12857142857143,408.5,296.22232142857143,296.12857142857143,511.1,296.22232142857143,296.12857142857143,613.2,296.22232142857143,296.12857142857143,724.4,296.22232142857143,296.12857142857143,850.5,294.22232142857143,296.12857142857143,950.7,208.22232142857143,240.12857142857143,1056.3,192.22232142857143,224.12857142857143,1163.4,192.22232142857143,224.12857142857143,1268.2,183.22232142857143,216.12857142857143,1369.9,110.22232142857143,155.12857142857143,1486.3,92.22232142857143,136.12857142857143,1603,69.22232142857143,108.12857142857143,1713.5,51.222321428571426,78.12857142857143,1814.6,51.222321428571426,78.12857142857143,1918.4,51.222321428571426,78.12857142857143,2019.3,51.222321428571426,78.12857142857143,2129.3,51.222321428571426,78.12857142857143,2255.9,51.222321428571426,78.12857142857143,2356.1,51.222321428571426,78.12857142857143,2464.7,51.222321428571426,78.12857142857143,2568.4,51.222321428571426,78.12857142857143,2670.6,51.222321428571426,78.12857142857143,2772.6,51.222321428571426,78.12857142857143,2876.8,51.222321428571426,78.12857142857143,2980.4,57.222321428571426,87.12857142857143,3082.3,116.22232142857143,170.12857142857143,3185.9,204.22232142857143,296.12857142857143,3292.9,218.22232142857143,315.12857142857143,3394.7,218.22232142857143,315.12857142857143,3496.3,218.22232142857143,315.12857142857143,3599.8,218.22232142857143,315.12857142857143,3702.7,218.22232142857143,315.12857142857143,3803.7,218.22232142857143,315.12857142857143,3912.1,218.22232142857143,315.12857142857143,4013,218.22232142857143,315.12857142857143,4116.4,218.22232142857143,315.12857142857143,4219.5,218.22232142857143,315.12857142857143,4320,218.22232142857143,315.12857142857143,4420.4,218.22232142857143,315.12857142857143,4522.3,218.22232142857143,315.12857142857143,4628.4,218.22232142857143,315.12857142857143,4729.2,218.22232142857143,315.12857142857143,4829.8,218.22232142857143,315.12857142857143,4931.6]","[1595.6,1595.6,1000,0,595.6,""smooth"",""left"",""left"",""good_move"",4838.3,3234.4,2497.3,1604.1,736.9,""smooth"",""left"",""left"",""good_move"",7974.6,3118.7,2433.6,4855.9,685.1,""smooth"",""left"",""left"",""good_move"",11481.4,3497.5,2948.9,7984,548.5,""smooth"",""up"",""up"",""good_move"",17094.8,5610.2,2278,14119.3,697.6,""oops"",""up"",""right"",""bad_move"",26973.6,9876.8,2530.2,23793.7,649.8,""oops"",""up"",""right"",""bad_move"",30923.8,3944.1,2724.7,26979.7,1219.4,""smooth"",""up"",""up"",""good_move""]","","",""
"5674","","<div style=""width:500px;"">
  <p>What determined the result of this run?</p>
  </div>","66","html-slider-response","54","1700003","0.0-10.0-1.2","167","1","2025-07-02 10:22:58","80fe4187154257d5fb01684ea91b68b9","41.121.62.88","Mozilla/5.0 (Windows NT 10.0; Win64; x64) AppleWebKit/537.36 (KHTML, like Gecko) Chrome/137.0.0.0 Safari/537.36","WebKit","Chrome","137.0.0.0","Windows","10.0","https://app.prolific.com/","en-GB,en-US;q=0.9,en;q=0.8","669bd8ce24b83b4652aebd40","683db6dfa200031b80f2a654","686507818680783ca8d084b1","669bd8ce24b83b4652aebd40","2025-07-02T10:51:23.295Z","","","","","","AttribQ","","","","","","","","","","","","","","","","","","","","","","","","","","","","","","","","","","","","","","50",""
"2644","","<div style=""width:500px;"">
  <p>How much control did you have over the ball?</p>
  </div>","63","html-slider-response","55","1702656","0.0-10.0-2.2","167","1","2025-07-02 10:22:58","80fe4187154257d5fb01684ea91b68b9","41.121.62.88","Mozilla/5.0 (Windows NT 10.0; Win64; x64) AppleWebKit/537.36 (KHTML, like Gecko) Chrome/137.0.0.0 Safari/537.36","WebKit","Chrome","137.0.0.0","Windows","10.0","https://app.prolific.com/","en-GB,en-US;q=0.9,en;q=0.8","669bd8ce24b83b4652aebd40","683db6dfa200031b80f2a654","686507818680783ca8d084b1","669bd8ce24b83b4652aebd40","2025-07-02T10:51:25.947Z","","","","","","ControlQ","","","","","","","","","","","","","","","","","","","","","","","","","","","","","","","","","","","","","","50",""
"3911","","<div style=""width:500px;"">
  <p>How would you describe your current emotional state?</p>
  </div>","66","html-slider-response","56","1706575","0.0-10.0-3.2","167","1","2025-07-02 10:22:58","80fe4187154257d5fb01684ea91b68b9","41.121.62.88","Mozilla/5.0 (Windows NT 10.0; Win64; x64) AppleWebKit/537.36 (KHTML, like Gecko) Chrome/137.0.0.0 Safari/537.36","WebKit","Chrome","137.0.0.0","Windows","10.0","https://app.prolific.com/","en-GB,en-US;q=0.9,en;q=0.8","669bd8ce24b83b4652aebd40","683db6dfa200031b80f2a654","686507818680783ca8d084b1","669bd8ce24b83b4652aebd40","2025-07-02T10:51:29.867Z","","","","","","StressQ","","","","","","","","","","","","","","","","","","","","","","","","","","","","","","","","","","","","","","50",""
"2540","","<div style=""width:500px;"">
  <p>What best describes how you currently feel?</p>
  </div>","62","html-slider-response","57","1709125","0.0-10.0-4.2","167","1","2025-07-02 10:22:58","80fe4187154257d5fb01684ea91b68b9","41.121.62.88","Mozilla/5.0 (Windows NT 10.0; Win64; x64) AppleWebKit/537.36 (KHTML, like Gecko) Chrome/137.0.0.0 Safari/537.36","WebKit","Chrome","137.0.0.0","Windows","10.0","https://app.prolific.com/","en-GB,en-US;q=0.9,en;q=0.8","669bd8ce24b83b4652aebd40","683db6dfa200031b80f2a654","686507818680783ca8d084b1","669bd8ce24b83b4652aebd40","2025-07-02T10:51:32.417Z","","","","","","MotivationQ","","","","","","","","","","","","","","","","","","","","","","","","","","","","","","","","","","","","","","50",""
"","","","","ctl-task-cpt","58","1780073","0.0-10.0-0.3","167","1","2025-07-02 10:22:58","80fe4187154257d5fb01684ea91b68b9","41.121.62.88","Mozilla/5.0 (Windows NT 10.0; Win64; x64) AppleWebKit/537.36 (KHTML, like Gecko) Chrome/137.0.0.0 Safari/537.36","WebKit","Chrome","137.0.0.0","Windows","10.0","https://app.prolific.com/","en-GB,en-US;q=0.9,en;q=0.8","669bd8ce24b83b4652aebd40","683db6dfa200031b80f2a654","686507818680783ca8d084b1","669bd8ce24b83b4652aebd40","2025-07-02T10:52:43.365Z","","","","","","","","","","","","","","","","win-only","2","g1:SE,g2:NW","0.7","4","0","1714522.7","24008.3","29021.1","67910","1","4","8","6","1","1","1","1","0","0.007575757575757576","1610.8","3000","955","[""down"",""right""]","{""num_key_presses"":10,""num_perfect"":7,""num_errors"":0,""num_randdir"":3,""num_randdir_good_moves"":0,""num_whilered"":0,""num_whileblue"":0,""num_blue"":1,""num_good_moves"":7}","[297.22232142857143,294.12857142857143,12.1,297.22232142857143,294.12857142857143,102.7,297.22232142857143,294.12857142857143,209.1,297.22232142857143,294.12857142857143,316.6,297.22232142857143,294.12857142857143,416.8,297.22232142857143,294.12857142857143,517,297.22232142857143,294.12857142857143,619.9,297.22232142857143,294.12857142857143,724.7,347.22232142857143,357.12857142857143,845.3,438.22232142857143,495.12857142857143,955,445.22232142857143,501.12857142857143,1057.9,546.2223214285714,546.1285714285714,1171.7,591.2223214285714,570.1285714285714,1284.3,591.2223214285714,570.1285714285714,1392.2,591.2223214285714,570.1285714285714,1493.9,591.2223214285714,570.1285714285714,1599.6,591.2223214285714,570.1285714285714,1713.1,591.2223214285714,570.1285714285714,1887.2,591.2223214285714,570.1285714285714,1991.6,591.2223214285714,570.1285714285714,2102.2,591.2223214285714,570.1285714285714,2203.3,591.2223214285714,570.1285714285714,2304,591.2223214285714,570.1285714285714,2406,591.2223214285714,570.1285714285714,2520.4,591.2223214285714,570.1285714285714,2627.4,578.2223214285714,566.1285714285714,2732.9,565.2223214285714,553.1285714285714,2842.5,564.2223214285714,552.1285714285714,2946,564.2223214285714,552.1285714285714,3049,564.2223214285714,552.1285714285714,3155.7,564.2223214285714,552.1285714285714,3256.6,564.2223214285714,552.1285714285714,3363.4,564.2223214285714,552.1285714285714,3470.8,564.2223214285714,552.1285714285714,3584.1,564.2223214285714,552.1285714285714,3694.3,564.2223214285714,552.1285714285714,3801.9,564.2223214285714,552.1285714285714,3903.7,564.2223214285714,552.1285714285714,4004.8,564.2223214285714,552.1285714285714,4105.4,564.2223214285714,552.1285714285714,4213.8,564.2223214285714,552.1285714285714,4327.3,564.2223214285714,552.1285714285714,4431.7,564.2223214285714,552.1285714285714,4537.2,564.2223214285714,552.1285714285714,4638.9,564.2223214285714,552.1285714285714,4747.5,564.2223214285714,552.1285714285714,4851.5,564.2223214285714,552.1285714285714,4956.7]","[1766.6,1766.7,1000,0,766.7,""smooth"",""right"",""right"",""good_move"",5687.2,3914.9,3064.9,1772.3,850,""smooth"",""right"",""right"",""good_move"",9109.5,3417.9,2734,5691.8,683.7,""smooth"",""down"",""down"",""good_move"",15895.9,6775.2,2144.1,13190.3,561.5,""oops"",""down"",""up"",""bad_move"",19557.8,3653.4,2481.8,15904.4,1171.6,""oops"",""down"",""up"",""bad_move"",22938.8,3372.7,1304.6,19566.2,2068,""oops"",""left"",""left"",""bad_move"",29394.3,6446.2,1745.6,22948.2,4700.5,""smooth"",""down"",""down"",""good_move"",32499,3099.2,2472.9,29399.9,626.2,""smooth"",""down"",""down"",""good_move"",35600.5,3096.1,2543.8,32504.4,552.3,""smooth"",""down"",""down"",""good_move"",38489.5,2880.6,2012.4,35608.9,868.2,""smooth"",""right"",""right"",""good_move""]","","",""
"6343","","<div style=""width:500px;"">
  <p>What determined the result of this run?</p>
  </div>","68","html-slider-response","59","1786426","0.0-10.0-1.3","167","1","2025-07-02 10:22:58","80fe4187154257d5fb01684ea91b68b9","41.121.62.88","Mozilla/5.0 (Windows NT 10.0; Win64; x64) AppleWebKit/537.36 (KHTML, like Gecko) Chrome/137.0.0.0 Safari/537.36","WebKit","Chrome","137.0.0.0","Windows","10.0","https://app.prolific.com/","en-GB,en-US;q=0.9,en;q=0.8","669bd8ce24b83b4652aebd40","683db6dfa200031b80f2a654","686507818680783ca8d084b1","669bd8ce24b83b4652aebd40","2025-07-02T10:52:49.717Z","","","","","","AttribQ","","","","","","","","","","","","","","","","","","","","","","","","","","","","","","","","","","","","","","50",""
"3413","","<div style=""width:500px;"">
  <p>How much control did you have over the ball?</p>
  </div>","68","html-slider-response","60","1789854","0.0-10.0-2.3","167","1","2025-07-02 10:22:58","80fe4187154257d5fb01684ea91b68b9","41.121.62.88","Mozilla/5.0 (Windows NT 10.0; Win64; x64) AppleWebKit/537.36 (KHTML, like Gecko) Chrome/137.0.0.0 Safari/537.36","WebKit","Chrome","137.0.0.0","Windows","10.0","https://app.prolific.com/","en-GB,en-US;q=0.9,en;q=0.8","669bd8ce24b83b4652aebd40","683db6dfa200031b80f2a654","686507818680783ca8d084b1","669bd8ce24b83b4652aebd40","2025-07-02T10:52:53.145Z","","","","","","ControlQ","","","","","","","","","","","","","","","","","","","","","","","","","","","","","","","","","","","","","","50",""
"3406","","<div style=""width:500px;"">
  <p>How would you describe your current emotional state?</p>
  </div>","69","html-slider-response","61","1793270","0.0-10.0-3.3","167","1","2025-07-02 10:22:58","80fe4187154257d5fb01684ea91b68b9","41.121.62.88","Mozilla/5.0 (Windows NT 10.0; Win64; x64) AppleWebKit/537.36 (KHTML, like Gecko) Chrome/137.0.0.0 Safari/537.36","WebKit","Chrome","137.0.0.0","Windows","10.0","https://app.prolific.com/","en-GB,en-US;q=0.9,en;q=0.8","669bd8ce24b83b4652aebd40","683db6dfa200031b80f2a654","686507818680783ca8d084b1","669bd8ce24b83b4652aebd40","2025-07-02T10:52:56.562Z","","","","","","StressQ","","","","","","","","","","","","","","","","","","","","","","","","","","","","","","","","","","","","","","50",""
"3586","","<div style=""width:500px;"">
  <p>What best describes how you currently feel?</p>
  </div>","70","html-slider-response","62","1796870","0.0-10.0-4.3","167","1","2025-07-02 10:22:58","80fe4187154257d5fb01684ea91b68b9","41.121.62.88","Mozilla/5.0 (Windows NT 10.0; Win64; x64) AppleWebKit/537.36 (KHTML, like Gecko) Chrome/137.0.0.0 Safari/537.36","WebKit","Chrome","137.0.0.0","Windows","10.0","https://app.prolific.com/","en-GB,en-US;q=0.9,en;q=0.8","669bd8ce24b83b4652aebd40","683db6dfa200031b80f2a654","686507818680783ca8d084b1","669bd8ce24b83b4652aebd40","2025-07-02T10:53:00.162Z","","","","","","MotivationQ","","","","","","","","","","","","","","","","","","","","","","","","","","","","","","","","","","","","","","50",""
"","","","","ctl-task-cpt","63","1932920","0.0-10.0-0.4","167","1","2025-07-02 10:22:58","80fe4187154257d5fb01684ea91b68b9","41.121.62.88","Mozilla/5.0 (Windows NT 10.0; Win64; x64) AppleWebKit/537.36 (KHTML, like Gecko) Chrome/137.0.0.0 Safari/537.36","WebKit","Chrome","137.0.0.0","Windows","10.0","https://app.prolific.com/","en-GB,en-US;q=0.9,en;q=0.8","669bd8ce24b83b4652aebd40","683db6dfa200031b80f2a654","686507818680783ca8d084b1","669bd8ce24b83b4652aebd40","2025-07-02T10:55:16.211Z","","","","","","","","","","","","","","","","win-only","3","g1:SW,g2:NE","0.6","5","0","1802266.9","61331.4","66343.1","133003.4","1","4","8","6","2","8","7","8","1","0.06060606060606061","1799.8","3000","50","[""up"",""right""]","{""num_key_presses"":20,""num_perfect"":12,""num_errors"":1,""num_randdir"":7,""num_randdir_good_moves"":1,""num_whilered"":0,""num_whileblue"":1,""num_blue"":1,""num_good_moves"":13}","[301.22232142857143,298.12857142857143,5.9,301.22232142857143,298.12857142857143,110.3,301.22232142857143,298.12857142857143,215.4,301.22232142857143,298.12857142857143,331.6,301.22232142857143,298.12857142857143,438.7,301.22232142857143,298.12857142857143,540.9,301.22232142857143,298.12857142857143,644.6,301.22232142857143,298.12857142857143,760.5,301.22232142857143,298.12857142857143,870.7,305.22232142857143,289.12857142857143,988.6,423.22232142857143,182.12857142857143,1097.7,512.2223214285714,110.12857142857143,1214.9,567.2223214285714,59.128571428571426,1326.4,574.2223214285714,52.128571428571426,1434.2,574.2223214285714,52.128571428571426,1543.1,574.2223214285714,52.128571428571426,1645,574.2223214285714,52.128571428571426,1745.8,574.2223214285714,52.128571428571426,1858.8,574.2223214285714,52.128571428571426,1976.8,574.2223214285714,52.128571428571426,2106.1,574.2223214285714,52.128571428571426,2210.4,574.2223214285714,52.128571428571426,2312.1,574.2223214285714,52.128571428571426,2420.6,574.2223214285714,52.128571428571426,2525.3,574.2223214285714,52.128571428571426,2625.8,574.2223214285714,52.128571428571426,2726.2,574.2223214285714,52.128571428571426,2826.5,563.2223214285714,63.128571428571426,2939.2,387.22232142857143,284.12857142857143,3057,353.22232142857143,331.12857142857143,3165.9,353.22232142857143,331.12857142857143,3297.3,353.22232142857143,331.12857142857143,3403.6,353.22232142857143,331.12857142857143,3509.3,353.22232142857143,331.12857142857143,3611,353.22232142857143,331.12857142857143,3718.3,353.22232142857143,331.12857142857143,3820.2,353.22232142857143,331.12857142857143,3921.5,353.22232142857143,331.12857142857143,4032.7,353.22232142857143,331.12857142857143,4142.9,353.22232142857143,331.12857142857143,4252.9,353.22232142857143,331.12857142857143,4363,348.22232142857143,331.12857142857143,4467.7,304.22232142857143,345.12857142857143,4575.3,285.22232142857143,347.12857142857143,4687.6,285.22232142857143,347.12857142857143,4799.8,285.22232142857143,347.12857142857143,4900.4]","[1576.6,1577,1000,0,577,""smooth"",""right"",""right"",""good_move"",4428.8,2848.3,2161.4,1580.6,686.9,""oops"",""right"",""left"",""bad_move"",7669.3,3237.2,2776.6,4432.1,460.6,""oops"",""right"",""down"",""bad_move"",11481.4,3801.4,3123.3,7680,678.2,""smooth"",""up"",""up"",""good_move"",15290,3797,2934.8,11493.1,862.1,""smooth"",""up"",""up"",""good_move"",18781.1,3480.3,2815.5,15301.1,665,""smooth"",""up"",""up"",""good_move"",22187.3,3401.8,2894.9,18785.5,506.9,""oops"",""up"",""down"",""bad_move"",25285.7,3067.5,2450.3,22218.3,617.1,""oops"",""right"",""down"",""bad_move"",28187.1,2897.2,2313.3,25290.3,583.8,""smooth"",""right"",""right"",""good_move"",31479.8,3288.8,2799.3,28191.1,489.4,""smooth"",""right"",""right"",""good_move"",34700.7,3217.7,2842.3,31483,375.4,""smooth"",""right"",""right"",""good_move"",37342.1,2627.5,2162.9,34714.6,464.6,""oops"",""up"",""left"",""bad_move"",40499,3149,2709.7,37350.1,439.3,""smooth"",""up"",""up"",""good_move"",44063.6,3557.2,3226.1,40506.4,331.1,""while_blue"",""up"",""down"",""bad_move"",46756.1,2686.6,1773.8,44069.5,912.8,""smooth"",""up"",""up"",""good_move"",50647.8,3879.2,2185.9,46768.6,1693.3,""oops"",""up"",""up"",""good_move"",54831.3,4176.3,1719.8,50655,2456.6,""smooth"",""up"",""up"",""good_move"",59291.9,4451.2,2284.7,54840.9,2166.3,""oops"",""right"",""down"",""bad_move"",62752.5,3451.1,3024.2,59301.6,426.7,""smooth"",""right"",""right"",""good_move"",66167.2,3405.3,2978.9,62762,426.4,""smooth"",""up"",""up"",""good_move""]","","",""
"4604","","<div style=""width:500px;"">
  <p>What determined the result of this run?</p>
  </div>","72","html-slider-response","64","1937533","0.0-10.0-1.4","167","1","2025-07-02 10:22:58","80fe4187154257d5fb01684ea91b68b9","41.121.62.88","Mozilla/5.0 (Windows NT 10.0; Win64; x64) AppleWebKit/537.36 (KHTML, like Gecko) Chrome/137.0.0.0 Safari/537.36","WebKit","Chrome","137.0.0.0","Windows","10.0","https://app.prolific.com/","en-GB,en-US;q=0.9,en;q=0.8","669bd8ce24b83b4652aebd40","683db6dfa200031b80f2a654","686507818680783ca8d084b1","669bd8ce24b83b4652aebd40","2025-07-02T10:55:20.824Z","","","","","","AttribQ","","","","","","","","","","","","","","","","","","","","","","","","","","","","","","","","","","","","","","50",""
"3015","","<div style=""width:500px;"">
  <p>How much control did you have over the ball?</p>
  </div>","76","html-slider-response","65","1940562","0.0-10.0-2.4","167","1","2025-07-02 10:22:58","80fe4187154257d5fb01684ea91b68b9","41.121.62.88","Mozilla/5.0 (Windows NT 10.0; Win64; x64) AppleWebKit/537.36 (KHTML, like Gecko) Chrome/137.0.0.0 Safari/537.36","WebKit","Chrome","137.0.0.0","Windows","10.0","https://app.prolific.com/","en-GB,en-US;q=0.9,en;q=0.8","669bd8ce24b83b4652aebd40","683db6dfa200031b80f2a654","686507818680783ca8d084b1","669bd8ce24b83b4652aebd40","2025-07-02T10:55:23.854Z","","","","","","ControlQ","","","","","","","","","","","","","","","","","","","","","","","","","","","","","","","","","","","","","","50",""
"5648","","<div style=""width:500px;"">
  <p>How would you describe your current emotional state?</p>
  </div>","19","html-slider-response","66","1946226","0.0-10.0-3.4","167","1","2025-07-02 10:22:58","80fe4187154257d5fb01684ea91b68b9","41.121.62.88","Mozilla/5.0 (Windows NT 10.0; Win64; x64) AppleWebKit/537.36 (KHTML, like Gecko) Chrome/137.0.0.0 Safari/537.36","WebKit","Chrome","137.0.0.0","Windows","10.0","https://app.prolific.com/","en-GB,en-US;q=0.9,en;q=0.8","669bd8ce24b83b4652aebd40","683db6dfa200031b80f2a654","686507818680783ca8d084b1","669bd8ce24b83b4652aebd40","2025-07-02T10:55:29.517Z","","","","","","StressQ","","","","","","","","","","","","","","","","","","","","","","","","","","","","","","","","","","","","","","50",""
"4475","","<div style=""width:500px;"">
  <p>What best describes how you currently feel?</p>
  </div>","73","html-slider-response","67","1950708","0.0-10.0-4.4","167","1","2025-07-02 10:22:58","80fe4187154257d5fb01684ea91b68b9","41.121.62.88","Mozilla/5.0 (Windows NT 10.0; Win64; x64) AppleWebKit/537.36 (KHTML, like Gecko) Chrome/137.0.0.0 Safari/537.36","WebKit","Chrome","137.0.0.0","Windows","10.0","https://app.prolific.com/","en-GB,en-US;q=0.9,en;q=0.8","669bd8ce24b83b4652aebd40","683db6dfa200031b80f2a654","686507818680783ca8d084b1","669bd8ce24b83b4652aebd40","2025-07-02T10:55:33.999Z","","","","","","MotivationQ","","","","","","","","","","","","","","","","","","","","","","","","","","","","","","","","","","","","","","50",""
"","","","","ctl-task-cpt","68","2007094","0.0-10.0-0.5","167","1","2025-07-02 10:22:58","80fe4187154257d5fb01684ea91b68b9","41.121.62.88","Mozilla/5.0 (Windows NT 10.0; Win64; x64) AppleWebKit/537.36 (KHTML, like Gecko) Chrome/137.0.0.0 Safari/537.36","WebKit","Chrome","137.0.0.0","Windows","10.0","https://app.prolific.com/","en-GB,en-US;q=0.9,en;q=0.8","669bd8ce24b83b4652aebd40","683db6dfa200031b80f2a654","686507818680783ca8d084b1","669bd8ce24b83b4652aebd40","2025-07-02T10:56:30.385Z","","","","","","","","","","","","","","","","win-only","0","g1:NW,g2:SE","0.5","6","0","1956101","2644.4","7655.9","53352.3","1","4","4","6","1","1","0","8","8","0.06060606060606061","1783.3","3000","470","[""left"",""up""]","{""num_key_presses"":12,""num_perfect"":5,""num_errors"":1,""num_randdir"":6,""num_randdir_good_moves"":2,""num_whilered"":0,""num_whileblue"":1,""num_blue"":3,""num_good_moves"":8}","[296.22232142857143,294.12857142857143,1.4,296.22232142857143,294.12857142857143,101.5,296.22232142857143,294.12857142857143,206.1,296.22232142857143,294.12857142857143,311.6,296.22232142857143,294.12857142857143,418.2,296.22232142857143,294.12857142857143,529,296.22232142857143,294.12857142857143,633.4,296.22232142857143,294.12857142857143,816.2,119.22232142857143,118.12857142857143,926.5,119.22232142857143,118.12857142857143,1035.9,119.22232142857143,118.12857142857143,1145.7,75.22232142857143,73.12857142857143,1255.8,57.222321428571426,53.128571428571426,1358.3,55.222321428571426,50.128571428571426,1468,55.222321428571426,50.128571428571426,1571.7,55.222321428571426,50.128571428571426,1680.2,55.222321428571426,50.128571428571426,1794.8,55.222321428571426,50.128571428571426,1966.4,55.222321428571426,50.128571428571426,2068.2,55.222321428571426,50.128571428571426,2180.5,55.222321428571426,50.128571428571426,2280.7,55.222321428571426,50.128571428571426,2384.8,108.22232142857143,133.12857142857143,2497.4,195.22232142857143,249.12857142857143,2598.9,195.22232142857143,249.12857142857143,2713,195.22232142857143,249.12857142857143,2821.5,195.22232142857143,249.12857142857143,2933.8,195.22232142857143,249.12857142857143,3045.1,195.22232142857143,249.12857142857143,3154.9,195.22232142857143,249.12857142857143,3255.9,195.22232142857143,249.12857142857143,3369,195.22232142857143,249.12857142857143,3469.9,195.22232142857143,249.12857142857143,3573.3,195.22232142857143,249.12857142857143,3678.1,195.22232142857143,249.12857142857143,3782.1,195.22232142857143,249.12857142857143,3887,195.22232142857143,249.12857142857143,3998.9,195.22232142857143,249.12857142857143,4101.2,195.22232142857143,249.12857142857143,4203.3,195.22232142857143,249.12857142857143,4313.4,195.22232142857143,249.12857142857143,4416.2,195.22232142857143,249.12857142857143,4516.5,195.22232142857143,249.12857142857143,4624.5,195.22232142857143,249.12857142857143,4742,195.22232142857143,249.12857142857143,4845.6,195.22232142857143,249.12857142857143,4952]","[1586.9,1586.9,1000,0,586.9,""oops"",""left"",""down"",""bad_move"",4735.7,3142.4,2311.2,1593.4,831.2,""oops"",""left"",""right"",""bad_move"",7749.8,3006.5,2303.9,4743.4,702.5,""smooth"",""up"",""up"",""good_move"",11385.1,3625.8,1693,7759.4,1932.8,""smooth"",""up"",""up"",""good_move"",15194.3,3804.8,2117.8,11389.6,1686.9,""smooth"",""left"",""left"",""good_move"",17922.4,2720.7,1881.1,15201.8,839.6,""oops"",""up"",""right"",""bad_move"",23944.4,6002.2,2130.5,21417.6,396.3,""while_blue"",""left"",""up"",""good_move"",28054.8,4098.6,3370.1,23956.2,728.6,""smooth"",""left"",""left"",""good_move"",31659.6,3601.3,2622.3,28058.3,979,""smooth"",""left"",""left"",""good_move"",34855.5,3186.4,2437,31669.2,749.3,""oops"",""left"",""right"",""bad_move"",41643.9,6779.3,2449,38536.5,658.4,""oops"",""left"",""left"",""good_move"",45380.4,3729,3132.6,41651.4,596.4,""oops"",""left"",""left"",""good_move""]","","",""
"7277","","<div style=""width:500px;"">
  <p>What determined the result of this run?</p>
  </div>","78","html-slider-response","69","2014378","0.0-10.0-1.5","167","1","2025-07-02 10:22:58","80fe4187154257d5fb01684ea91b68b9","41.121.62.88","Mozilla/5.0 (Windows NT 10.0; Win64; x64) AppleWebKit/537.36 (KHTML, like Gecko) Chrome/137.0.0.0 Safari/537.36","WebKit","Chrome","137.0.0.0","Windows","10.0","https://app.prolific.com/","en-GB,en-US;q=0.9,en;q=0.8","669bd8ce24b83b4652aebd40","683db6dfa200031b80f2a654","686507818680783ca8d084b1","669bd8ce24b83b4652aebd40","2025-07-02T10:56:37.670Z","","","","","","AttribQ","","","","","","","","","","","","","","","","","","","","","","","","","","","","","","","","","","","","","","50",""
"3268","","<div style=""width:500px;"">
  <p>How much control did you have over the ball?</p>
  </div>","75","html-slider-response","70","2017660","0.0-10.0-2.5","167","1","2025-07-02 10:22:58","80fe4187154257d5fb01684ea91b68b9","41.121.62.88","Mozilla/5.0 (Windows NT 10.0; Win64; x64) AppleWebKit/537.36 (KHTML, like Gecko) Chrome/137.0.0.0 Safari/537.36","WebKit","Chrome","137.0.0.0","Windows","10.0","https://app.prolific.com/","en-GB,en-US;q=0.9,en;q=0.8","669bd8ce24b83b4652aebd40","683db6dfa200031b80f2a654","686507818680783ca8d084b1","669bd8ce24b83b4652aebd40","2025-07-02T10:56:40.952Z","","","","","","ControlQ","","","","","","","","","","","","","","","","","","","","","","","","","","","","","","","","","","","","","","50",""
"3862","","<div style=""width:500px;"">
  <p>How would you describe your current emotional state?</p>
  </div>","31","html-slider-response","71","2021538","0.0-10.0-3.5","167","1","2025-07-02 10:22:58","80fe4187154257d5fb01684ea91b68b9","41.121.62.88","Mozilla/5.0 (Windows NT 10.0; Win64; x64) AppleWebKit/537.36 (KHTML, like Gecko) Chrome/137.0.0.0 Safari/537.36","WebKit","Chrome","137.0.0.0","Windows","10.0","https://app.prolific.com/","en-GB,en-US;q=0.9,en;q=0.8","669bd8ce24b83b4652aebd40","683db6dfa200031b80f2a654","686507818680783ca8d084b1","669bd8ce24b83b4652aebd40","2025-07-02T10:56:44.829Z","","","","","","StressQ","","","","","","","","","","","","","","","","","","","","","","","","","","","","","","","","","","","","","","50",""
"7213","","<div style=""width:500px;"">
  <p>What best describes how you currently feel?</p>
  </div>","77","html-slider-response","72","2028763","0.0-10.0-4.5","167","1","2025-07-02 10:22:58","80fe4187154257d5fb01684ea91b68b9","41.121.62.88","Mozilla/5.0 (Windows NT 10.0; Win64; x64) AppleWebKit/537.36 (KHTML, like Gecko) Chrome/137.0.0.0 Safari/537.36","WebKit","Chrome","137.0.0.0","Windows","10.0","https://app.prolific.com/","en-GB,en-US;q=0.9,en;q=0.8","669bd8ce24b83b4652aebd40","683db6dfa200031b80f2a654","686507818680783ca8d084b1","669bd8ce24b83b4652aebd40","2025-07-02T10:56:52.055Z","","","","","","MotivationQ","","","","","","","","","","","","","","","","","","","","","","","","","","","","","","","","","","","","","","50",""
"","","","","ctl-task-cpt","73","2075234","0.0-10.0-0.6","167","1","2025-07-02 10:22:58","80fe4187154257d5fb01684ea91b68b9","41.121.62.88","Mozilla/5.0 (Windows NT 10.0; Win64; x64) AppleWebKit/537.36 (KHTML, like Gecko) Chrome/137.0.0.0 Safari/537.36","WebKit","Chrome","137.0.0.0","Windows","10.0","https://app.prolific.com/","en-GB,en-US;q=0.9,en;q=0.8","669bd8ce24b83b4652aebd40","683db6dfa200031b80f2a654","686507818680783ca8d084b1","669bd8ce24b83b4652aebd40","2025-07-02T10:57:38.525Z","","","","","","","","","","","","","","","","win-only","2","g1:SE,g2:NW","0.4","7","0","2034161.4","1713.1","6724.8","43422.7","1","4","4","6","1","1","1","9","8","0.06818181818181818","1540.2","3000","1595","[""down"",""right""]","{""num_key_presses"":8,""num_perfect"":2,""num_errors"":0,""num_randdir"":6,""num_randdir_good_moves"":4,""num_whilered"":0,""num_whileblue"":0,""num_blue"":3,""num_good_moves"":6}","[300.22232142857143,296.12857142857143,0.9,300.22232142857143,296.12857142857143,103.8,300.22232142857143,296.12857142857143,226,300.22232142857143,296.12857142857143,342.1,300.22232142857143,296.12857142857143,458.7,300.22232142857143,296.12857142857143,559,300.22232142857143,296.12857142857143,659.8,312.22232142857143,300.12857142857143,760.3,437.22232142857143,431.12857142857143,864.7,479.22232142857143,487.12857142857143,967,498.22232142857143,518.1285714285714,1078.9,536.2223214285714,559.1285714285714,1182.9,550.2223214285714,567.1285714285714,1293.5,550.2223214285714,567.1285714285714,1405.7,550.2223214285714,567.1285714285714,1510,550.2223214285714,567.1285714285714,1620.9,550.2223214285714,567.1285714285714,1753.8,550.2223214285714,567.1285714285714,1865.6,550.2223214285714,567.1285714285714,1971,550.2223214285714,567.1285714285714,2074,550.2223214285714,567.1285714285714,2184.5,554.2223214285714,453.12857142857143,2299.7,568.2223214285714,410.12857142857143,2413.4,568.2223214285714,410.12857142857143,2518,568.2223214285714,410.12857142857143,2640.3,568.2223214285714,410.12857142857143,2742,568.2223214285714,410.12857142857143,2843.3,568.2223214285714,410.12857142857143,2949,568.2223214285714,410.12857142857143,3051,568.2223214285714,410.12857142857143,3153.6,568.2223214285714,410.12857142857143,3257.5,568.2223214285714,410.12857142857143,3357.5,568.2223214285714,410.12857142857143,3463.6,568.2223214285714,410.12857142857143,3571.2,568.2223214285714,410.12857142857143,3677.8,568.2223214285714,410.12857142857143,3779.9,568.2223214285714,410.12857142857143,3879.9,568.2223214285714,410.12857142857143,3988.7,568.2223214285714,410.12857142857143,4093.7,568.2223214285714,410.12857142857143,4206.9,568.2223214285714,410.12857142857143,4309.8,568.2223214285714,410.12857142857143,4420.3,568.2223214285714,410.12857142857143,4532.9,568.2223214285714,410.12857142857143,4636.8,568.2223214285714,410.12857142857143,4755.9,568.2223214285714,410.12857142857143,4863.9,568.2223214285714,410.12857142857143,4968.5]","[5081,5081,2339.8,2012.9,728.3,""oops"",""right"",""down"",""good_move"",12621.7,7538.1,2928.2,9172.3,521.2,""oops"",""right"",""right"",""good_move"",15716.8,3088.4,2295.9,12628.5,792.5,""oops"",""right"",""down"",""good_move"",18789.1,3056.7,2177.5,15732.4,879.2,""oops"",""right"",""up"",""bad_move"",23486.3,4688.3,2383.5,18798,2304.8,""oops"",""right"",""down"",""good_move"",29772.9,6280.2,2491.7,26563.5,717.7,""oops"",""right"",""left"",""bad_move"",33078,3298.6,2559.9,29779.5,738.7,""smooth"",""right"",""right"",""good_move"",36296.1,3206.5,2369.3,33089.6,837.2,""smooth"",""right"",""right"",""good_move""]","","",""
"9637","","<div style=""width:500px;"">
  <p>What determined the result of this run?</p>
  </div>","73","html-slider-response","74","2084875","0.0-10.0-1.6","167","1","2025-07-02 10:22:58","80fe4187154257d5fb01684ea91b68b9","41.121.62.88","Mozilla/5.0 (Windows NT 10.0; Win64; x64) AppleWebKit/537.36 (KHTML, like Gecko) Chrome/137.0.0.0 Safari/537.36","WebKit","Chrome","137.0.0.0","Windows","10.0","https://app.prolific.com/","en-GB,en-US;q=0.9,en;q=0.8","669bd8ce24b83b4652aebd40","683db6dfa200031b80f2a654","686507818680783ca8d084b1","669bd8ce24b83b4652aebd40","2025-07-02T10:57:48.167Z","","","","","","AttribQ","","","","","","","","","","","","","","","","","","","","","","","","","","","","","","","","","","","","","","50",""
"3818","","<div style=""width:500px;"">
  <p>How much control did you have over the ball?</p>
  </div>","76","html-slider-response","75","2088706","0.0-10.0-2.6","167","1","2025-07-02 10:22:58","80fe4187154257d5fb01684ea91b68b9","41.121.62.88","Mozilla/5.0 (Windows NT 10.0; Win64; x64) AppleWebKit/537.36 (KHTML, like Gecko) Chrome/137.0.0.0 Safari/537.36","WebKit","Chrome","137.0.0.0","Windows","10.0","https://app.prolific.com/","en-GB,en-US;q=0.9,en;q=0.8","669bd8ce24b83b4652aebd40","683db6dfa200031b80f2a654","686507818680783ca8d084b1","669bd8ce24b83b4652aebd40","2025-07-02T10:57:51.999Z","","","","","","ControlQ","","","","","","","","","","","","","","","","","","","","","","","","","","","","","","","","","","","","","","50",""
"4196","","<div style=""width:500px;"">
  <p>How would you describe your current emotional state?</p>
  </div>","28","html-slider-response","76","2092918","0.0-10.0-3.6","167","1","2025-07-02 10:22:58","80fe4187154257d5fb01684ea91b68b9","41.121.62.88","Mozilla/5.0 (Windows NT 10.0; Win64; x64) AppleWebKit/537.36 (KHTML, like Gecko) Chrome/137.0.0.0 Safari/537.36","WebKit","Chrome","137.0.0.0","Windows","10.0","https://app.prolific.com/","en-GB,en-US;q=0.9,en;q=0.8","669bd8ce24b83b4652aebd40","683db6dfa200031b80f2a654","686507818680783ca8d084b1","669bd8ce24b83b4652aebd40","2025-07-02T10:57:56.210Z","","","","","","StressQ","","","","","","","","","","","","","","","","","","","","","","","","","","","","","","","","","","","","","","50",""
"10322","","<div style=""width:500px;"">
  <p>What best describes how you currently feel?</p>
  </div>","78","html-slider-response","77","2103251","0.0-10.0-4.6","167","1","2025-07-02 10:22:58","80fe4187154257d5fb01684ea91b68b9","41.121.62.88","Mozilla/5.0 (Windows NT 10.0; Win64; x64) AppleWebKit/537.36 (KHTML, like Gecko) Chrome/137.0.0.0 Safari/537.36","WebKit","Chrome","137.0.0.0","Windows","10.0","https://app.prolific.com/","en-GB,en-US;q=0.9,en;q=0.8","669bd8ce24b83b4652aebd40","683db6dfa200031b80f2a654","686507818680783ca8d084b1","669bd8ce24b83b4652aebd40","2025-07-02T10:58:06.542Z","","","","","","MotivationQ","","","","","","","","","","","","","","","","","","","","","","","","","","","","","","","","","","","","","","50",""
"","","","","ctl-task-cpt","78","2212079","0.0-10.0-0.7","167","1","2025-07-02 10:22:58","80fe4187154257d5fb01684ea91b68b9","41.121.62.88","Mozilla/5.0 (Windows NT 10.0; Win64; x64) AppleWebKit/537.36 (KHTML, like Gecko) Chrome/137.0.0.0 Safari/537.36","WebKit","Chrome","137.0.0.0","Windows","10.0","https://app.prolific.com/","en-GB,en-US;q=0.9,en;q=0.8","669bd8ce24b83b4652aebd40","683db6dfa200031b80f2a654","686507818680783ca8d084b1","669bd8ce24b83b4652aebd40","2025-07-02T10:59:55.370Z","","","","","","","","","","","","","","","","win-only","0","g1:NW,g2:SE","0.3","8","0","2108651.4","16282.3","21288.7","105757.1","1","4","8","6","2","8","8","17","9","0.12878787878787878","1938.1","3000","1020","[""down"",""right""]","{""num_key_presses"":14,""num_perfect"":5,""num_errors"":0,""num_randdir"":9,""num_randdir_good_moves"":5,""num_whilered"":0,""num_whileblue"":0,""num_blue"":9,""num_good_moves"":10}","[296.22232142857143,299.12857142857143,4.2,296.22232142857143,299.12857142857143,109.3,296.22232142857143,299.12857142857143,216.9,296.22232142857143,299.12857142857143,318.5,296.22232142857143,299.12857142857143,423.4,296.22232142857143,299.12857142857143,535.7,296.22232142857143,299.12857142857143,649.3,296.22232142857143,299.12857142857143,752.7,296.22232142857143,299.12857142857143,868.4,296.22232142857143,299.12857142857143,987.2,334.22232142857143,328.12857142857143,1091.9,467.22232142857143,475.12857142857143,1202.9,494.22232142857143,502.12857142857143,1315.7,501.22232142857143,509.12857142857143,1431.6,529.2223214285714,535.1285714285714,1541.9,529.2223214285714,535.1285714285714,1662.9,529.2223214285714,535.1285714285714,1767,529.2223214285714,535.1285714285714,1868.7,529.2223214285714,535.1285714285714,1983,529.2223214285714,535.1285714285714,2095,529.2223214285714,535.1285714285714,2198.2,529.2223214285714,535.1285714285714,2301.7,529.2223214285714,535.1285714285714,2414.3,529.2223214285714,535.1285714285714,2515.4,529.2223214285714,535.1285714285714,2632.5,529.2223214285714,535.1285714285714,2738.3,529.2223214285714,535.1285714285714,2854.2,529.2223214285714,535.1285714285714,2976.3,529.2223214285714,535.1285714285714,3093.8,529.2223214285714,535.1285714285714,3215.5,529.2223214285714,535.1285714285714,3335.8,515.2223214285714,526.1285714285714,3445.5,440.22232142857143,424.12857142857143,3566.5,412.22232142857143,341.12857142857143,3698.9,380.22232142857143,235.12857142857143,3799.5,380.22232142857143,235.12857142857143,3908.8,380.22232142857143,235.12857142857143,4015.7,380.22232142857143,235.12857142857143,4124.2,380.22232142857143,235.12857142857143,4237.7,380.22232142857143,235.12857142857143,4358.6,380.22232142857143,235.12857142857143,4459.3,380.22232142857143,235.12857142857143,4560.8,380.22232142857143,235.12857142857143,4670.4,380.22232142857143,235.12857142857143,4776,380.22232142857143,235.12857142857143,4877.5,380.22232142857143,235.12857142857143,4988.7]","[4662.4,4662.4,2061.5,2022,578.9,""oops"",""right"",""down"",""good_move"",7422.8,2741.9,1649.1,4680.9,1092.8,""smooth"",""right"",""right"",""good_move"",14494.6,7060.8,2212.8,11253.8,1028,""oops"",""right"",""right"",""good_move"",21396.5,6894.8,2586.7,18103.3,706.6,""smooth"",""right"",""right"",""good_move"",24903.6,3501.3,2840.9,21402.4,660.3,""oops"",""down"",""up"",""bad_move"",28874,3963.5,2636,24910.5,1327.5,""oops"",""down"",""left"",""bad_move"",39817.4,10938,2935.7,36243.9,637.9,""oops"",""down"",""right"",""good_move"",49588,9767,2243.9,46835.5,508.6,""oops"",""down"",""up"",""bad_move"",55497,5900.6,1978.1,49596.4,3922.5,""oops"",""down"",""down"",""good_move"",58405.7,2905.3,1894.6,55500.4,1010.7,""smooth"",""down"",""down"",""good_move"",68632.3,10219.9,1943.7,66113.2,575.5,""smooth"",""down"",""down"",""good_move"",72400.7,3758.7,2805.3,68642.1,953.4,""oops"",""down"",""left"",""bad_move"",80004.8,7597.2,2187.9,72407.6,5409.3,""smooth"",""down"",""down"",""good_move"",83740.4,3732.6,2915.6,80007.9,816.9,""oops"",""right"",""right"",""good_move""]","","",""
"12352","","<div style=""width:500px;"">
  <p>What determined the result of this run?</p>
  </div>","75","html-slider-response","79","2224440","0.0-10.0-1.7","167","1","2025-07-02 10:22:58","80fe4187154257d5fb01684ea91b68b9","41.121.62.88","Mozilla/5.0 (Windows NT 10.0; Win64; x64) AppleWebKit/537.36 (KHTML, like Gecko) Chrome/137.0.0.0 Safari/537.36","WebKit","Chrome","137.0.0.0","Windows","10.0","https://app.prolific.com/","en-GB,en-US;q=0.9,en;q=0.8","669bd8ce24b83b4652aebd40","683db6dfa200031b80f2a654","686507818680783ca8d084b1","669bd8ce24b83b4652aebd40","2025-07-02T11:00:07.731Z","","","","","","AttribQ","","","","","","","","","","","","","","","","","","","","","","","","","","","","","","","","","","","","","","50",""
"25554","","<div style=""width:500px;"">
  <p>How much control did you have over the ball?</p>
  </div>","73","html-slider-response","80","2250012","0.0-10.0-2.7","167","1","2025-07-02 10:22:58","80fe4187154257d5fb01684ea91b68b9","41.121.62.88","Mozilla/5.0 (Windows NT 10.0; Win64; x64) AppleWebKit/537.36 (KHTML, like Gecko) Chrome/137.0.0.0 Safari/537.36","WebKit","Chrome","137.0.0.0","Windows","10.0","https://app.prolific.com/","en-GB,en-US;q=0.9,en;q=0.8","669bd8ce24b83b4652aebd40","683db6dfa200031b80f2a654","686507818680783ca8d084b1","669bd8ce24b83b4652aebd40","2025-07-02T11:00:33.304Z","","","","","","ControlQ","","","","","","","","","","","","","","","","","","","","","","","","","","","","","","","","","","","","","","50",""
"4124","","<div style=""width:500px;"">
  <p>How would you describe your current emotional state?</p>
  </div>","26","html-slider-response","81","2254153","0.0-10.0-3.7","167","1","2025-07-02 10:22:58","80fe4187154257d5fb01684ea91b68b9","41.121.62.88","Mozilla/5.0 (Windows NT 10.0; Win64; x64) AppleWebKit/537.36 (KHTML, like Gecko) Chrome/137.0.0.0 Safari/537.36","WebKit","Chrome","137.0.0.0","Windows","10.0","https://app.prolific.com/","en-GB,en-US;q=0.9,en;q=0.8","669bd8ce24b83b4652aebd40","683db6dfa200031b80f2a654","686507818680783ca8d084b1","669bd8ce24b83b4652aebd40","2025-07-02T11:00:37.445Z","","","","","","StressQ","","","","","","","","","","","","","","","","","","","","","","","","","","","","","","","","","","","","","","50",""
"4145","","<div style=""width:500px;"">
  <p>What best describes how you currently feel?</p>
  </div>","73","html-slider-response","82","2258320","0.0-10.0-4.7","167","1","2025-07-02 10:22:58","80fe4187154257d5fb01684ea91b68b9","41.121.62.88","Mozilla/5.0 (Windows NT 10.0; Win64; x64) AppleWebKit/537.36 (KHTML, like Gecko) Chrome/137.0.0.0 Safari/537.36","WebKit","Chrome","137.0.0.0","Windows","10.0","https://app.prolific.com/","en-GB,en-US;q=0.9,en;q=0.8","669bd8ce24b83b4652aebd40","683db6dfa200031b80f2a654","686507818680783ca8d084b1","669bd8ce24b83b4652aebd40","2025-07-02T11:00:41.612Z","","","","","","MotivationQ","","","","","","","","","","","","","","","","","","","","","","","","","","","","","","","","","","","","","","50",""
"","","","","ctl-task-cpt","83","2526869","0.0-10.0-0.8","167","1","2025-07-02 10:22:58","80fe4187154257d5fb01684ea91b68b9","41.121.62.88","Mozilla/5.0 (Windows NT 10.0; Win64; x64) AppleWebKit/537.36 (KHTML, like Gecko) Chrome/137.0.0.0 Safari/537.36","WebKit","Chrome","137.0.0.0","Windows","10.0","https://app.prolific.com/","en-GB,en-US;q=0.9,en;q=0.8","669bd8ce24b83b4652aebd40","683db6dfa200031b80f2a654","686507818680783ca8d084b1","669bd8ce24b83b4652aebd40","2025-07-02T11:05:10.160Z","","","","","","","","","","","","","","","","win-only","2","g1:SE,g2:NW","0.4","9","0","2263735.9","1552.7","6567.3","265416.1","1","4","4","6","2","4","3","20","17","0.15151515151515152","1838.2","3000","1690","[""left"",""up""]","{""num_key_presses"":23,""num_perfect"":8,""num_errors"":1,""num_randdir"":14,""num_randdir_good_moves"":5,""num_whilered"":0,""num_whileblue"":1,""num_blue"":6,""num_good_moves"":14}","[293.22232142857143,299.12857142857143,0.1,293.22232142857143,299.12857142857143,200.6,293.22232142857143,299.12857142857143,362.9,293.22232142857143,299.12857142857143,464.1,293.22232142857143,299.12857142857143,629.9,118.22232142857143,187.12857142857143,796.5,36.222321428571426,125.12857142857143,967.2,26.222321428571426,105.12857142857143,1208.1,26.222321428571426,89.12857142857143,1316,29.222321428571426,80.12857142857143,1427.4,32.222321428571426,70.12857142857143,1581.2,38.222321428571426,64.12857142857143,1697.2,38.222321428571426,64.12857142857143,1845.6,38.222321428571426,64.12857142857143,1953.5,38.222321428571426,64.12857142857143,2090.1,38.222321428571426,64.12857142857143,2192,38.222321428571426,64.12857142857143,2292.4,38.222321428571426,64.12857142857143,2395.6,38.222321428571426,64.12857142857143,2537.7,38.222321428571426,64.12857142857143,2640.4,38.222321428571426,64.12857142857143,2784.8,38.222321428571426,64.12857142857143,2928.2,42.222321428571426,64.12857142857143,3052.1,188.22232142857143,181.12857142857143,3193,234.22232142857143,233.12857142857143,3298.7,234.22232142857143,233.12857142857143,3403.4,234.22232142857143,233.12857142857143,3512.8,234.22232142857143,233.12857142857143,3623.4,234.22232142857143,233.12857142857143,3727.2,234.22232142857143,233.12857142857143,3836.5,234.22232142857143,233.12857142857143,3951.2,234.22232142857143,233.12857142857143,4096.4,234.22232142857143,233.12857142857143,4208.1,234.22232142857143,233.12857142857143,4355.7,234.22232142857143,233.12857142857143,4475.2,234.22232142857143,233.12857142857143,4621.6,234.22232142857143,233.12857142857143,4723.6,234.22232142857143,233.12857142857143,4869.6]","[1665.4,1665.4,1000,0,665.4,""oops"",""left"",""down"",""bad_move"",5419.5,3743,2055.9,1676.5,1687.1,""oops"",""left"",""right"",""bad_move"",9263.5,3831.1,2946.7,5432.5,884.3,""smooth"",""left"",""left"",""good_move"",22918,13650.7,3091.2,9267.3,10559.5,""smooth"",""up"",""up"",""good_move"",37602.2,14673,2799.6,22929.2,11873.4,""oops"",""up"",""right"",""bad_move"",41644.2,4034,2189.2,37610.4,1844.6,""oops"",""up"",""left"",""good_move"",56344.9,14692.7,2134.7,41652.8,12558,""oops"",""up"",""right"",""bad_move"",60851.7,4501.5,2565,56350.3,1941.1,""smooth"",""up"",""up"",""good_move"",76386.6,15516.2,1778.7,60870.4,13737.5,""smooth"",""up"",""up"",""good_move"",94367.8,17972,2550.1,91194.2,623.5,""oops"",""up"",""down"",""bad_move"",99138.3,4762.3,2565.6,94376,2196.7,""oops"",""left"",""left"",""good_move"",115049.4,15895.4,3043.7,99154,12851.7,""smooth"",""up"",""up"",""good_move"",131670.3,16615.6,2865.3,115054.8,13750.2,""smooth"",""up"",""up"",""good_move"",147060.8,15384.1,14847.9,131676.8,536.2,""while_blue"",""left"",""left"",""good_move"",163452.8,16389.3,2732.9,147063.5,13656.4,""oops"",""left"",""right"",""bad_move"",167301,3845.4,2898.8,163455.6,946.6,""oops"",""left"",""left"",""good_move"",186230.3,18913.8,1761.3,183806.9,662.1,""oops"",""left"",""down"",""bad_move"",189854.4,3620.7,2763.3,186233.7,857.4,""smooth"",""left"",""left"",""good_move"",211377.7,21511.6,1825.4,208618,934.3,""oops"",""left"",""right"",""bad_move"",215347.7,3971.2,2883.2,211380.6,1088,""oops"",""left"",""right"",""bad_move"",219362.9,4009.8,2649,215353.1,1360.8,""smooth"",""left"",""left"",""good_move"",237756.6,18384.4,2257,219372.4,16127.2,""oops"",""up"",""left"",""good_move"",258415.9,20650.4,2573.3,255137.1,705.5,""oops"",""up"",""up"",""good_move""]","","",""
"6797","","<div style=""width:500px;"">
  <p>What determined the result of this run?</p>
  </div>","72","html-slider-response","84","2533680","0.0-10.0-1.8","167","1","2025-07-02 10:22:58","80fe4187154257d5fb01684ea91b68b9","41.121.62.88","Mozilla/5.0 (Windows NT 10.0; Win64; x64) AppleWebKit/537.36 (KHTML, like Gecko) Chrome/137.0.0.0 Safari/537.36","WebKit","Chrome","137.0.0.0","Windows","10.0","https://app.prolific.com/","en-GB,en-US;q=0.9,en;q=0.8","669bd8ce24b83b4652aebd40","683db6dfa200031b80f2a654","686507818680783ca8d084b1","669bd8ce24b83b4652aebd40","2025-07-02T11:05:16.973Z","","","","","","AttribQ","","","","","","","","","","","","","","","","","","","","","","","","","","","","","","","","","","","","","","50",""
"3393","","<div style=""width:500px;"">
  <p>How much control did you have over the ball?</p>
  </div>","77","html-slider-response","85","2537098","0.0-10.0-2.8","167","1","2025-07-02 10:22:58","80fe4187154257d5fb01684ea91b68b9","41.121.62.88","Mozilla/5.0 (Windows NT 10.0; Win64; x64) AppleWebKit/537.36 (KHTML, like Gecko) Chrome/137.0.0.0 Safari/537.36","WebKit","Chrome","137.0.0.0","Windows","10.0","https://app.prolific.com/","en-GB,en-US;q=0.9,en;q=0.8","669bd8ce24b83b4652aebd40","683db6dfa200031b80f2a654","686507818680783ca8d084b1","669bd8ce24b83b4652aebd40","2025-07-02T11:05:20.393Z","","","","","","ControlQ","","","","","","","","","","","","","","","","","","","","","","","","","","","","","","","","","","","","","","50",""
"11741","","<div style=""width:500px;"">
  <p>How would you describe your current emotional state?</p>
