"rt","response_timestamp","stimulus","response","trial_type","trial_index","time_elapsed","internal_node_id","run_id","condition","recorded_at","source_code_version","ip","user_agent","device","browser","browser_version","platform","platform_version","referer","accept_language","PROLIFIC_PID","STUDY_ID","SESSION_ID","prolific_id","realtime","view_history","question_order","consent","success","question_id","eventType","responses","item_order","radio_event_ids","radio_event_times","key_event_times","mouse_event_times","straightlining","zigzagging","honeypot","which_type","canvas_config","goals_layout","control_level","trial_number","tutorial_trial_number","trial_start_time","phase1_start_time","phase2_start_time","phase3_start_time","goal_1_value","goal_1_distance","goal_2_value","goal_2_distance","goal_selected","outcome","outcome_total","participant_final_score","participant_initial_score","participant_final_score_prop","goal_choice_rt","allocated_time","allocated_time_remaining","goal_direction","counts","mouse_movements","key_presses","correct","slider_start"
"117651","1751451655986","<p style='font-size:40px;line-height:1.25'><strong>Welcome to the experiment!</strong></p><p style='font-size:1.1em;line-height:1.25'>Thank you for your interest in our experiment! Before you begin, it is important that we obtain your informed consent to participate in the study.</p><p style='font-size:1.1em;line-height:1.25'>On the next screen will be an <strong>information sheet</strong> for you to read. To participate in the study we need you to read this information sheet and the following consent form carefully. If you agree with all the statements, please click the <strong>I agree</strong> button.</p><p style='font-size:1.1em;line-height:1.25'>Press <strong>Next</strong> to read the information sheet.</p>","0","custom-html-button-response","0","117655","0.0-0.0","55","1","2025-07-02 10:18:53","80fe4187154257d5fb01684ea91b68b9","216.120.189.119","Mozilla/5.0 (Windows NT 10.0; Win64; x64) AppleWebKit/537.36 (KHTML, like Gecko) Chrome/137.0.0.0 Safari/537.36","WebKit","Chrome","137.0.0.0","Windows","10.0","https://app.prolific.com/","en-US,en;q=0.9","669c1e1fdb95a995eb1d3077","683db6dfa200031b80f2a654","6865076e98b52b6e7bdefcbc","669c1e1fdb95a995eb1d3077","2025-07-02T10:20:55.988Z","","","","","","","","","","","","","","","","","","","","","","","","","","","","","","","","","","","","","","","","","","","",""
"175453","","","","instructions","1","293110","0.0-1.0","55","1","2025-07-02 10:18:53","80fe4187154257d5fb01684ea91b68b9","216.120.189.119","Mozilla/5.0 (Windows NT 10.0; Win64; x64) AppleWebKit/537.36 (KHTML, like Gecko) Chrome/137.0.0.0 Safari/537.36","WebKit","Chrome","137.0.0.0","Windows","10.0","https://app.prolific.com/","en-US,en;q=0.9","669c1e1fdb95a995eb1d3077","683db6dfa200031b80f2a654","6865076e98b52b6e7bdefcbc","669c1e1fdb95a995eb1d3077","","[{""page_index"":0,""viewing_time"":87931},{""page_index"":1,""viewing_time"":87521}]","","","","","","","","","","","","","","","","","","","","","","","","","","","","","","","","","","","","","","","","","","",""
"14732","","","{""Q0"":"""",""Q1"":"""",""Q2"":"""",""Q3"":"""",""Q4"":"""",""Q5"":"""",""Q6"":""I agree""}","survey-multi-choice","2","307846","0.0-2.0","55","1","2025-07-02 10:18:53","80fe4187154257d5fb01684ea91b68b9","216.120.189.119","Mozilla/5.0 (Windows NT 10.0; Win64; x64) AppleWebKit/537.36 (KHTML, like Gecko) Chrome/137.0.0.0 Safari/537.36","WebKit","Chrome","137.0.0.0","Windows","10.0","https://app.prolific.com/","en-US,en;q=0.9","669c1e1fdb95a995eb1d3077","683db6dfa200031b80f2a654","6865076e98b52b6e7bdefcbc","669c1e1fdb95a995eb1d3077","","","[0,1,2,3,4,5,6]","true","","","","","","","","","","","","","","","","","","","","","","","","","","","","","","","","","","","","","","","","",""
"11695","","","","fullscreen","3","320557","0.0-4.0","55","1","2025-07-02 10:18:53","80fe4187154257d5fb01684ea91b68b9","216.120.189.119","Mozilla/5.0 (Windows NT 10.0; Win64; x64) AppleWebKit/537.36 (KHTML, like Gecko) Chrome/137.0.0.0 Safari/537.36","WebKit","Chrome","137.0.0.0","Windows","10.0","https://app.prolific.com/","en-US,en;q=0.9","669c1e1fdb95a995eb1d3077","683db6dfa200031b80f2a654","6865076e98b52b6e7bdefcbc","669c1e1fdb95a995eb1d3077","","","","","true","","","","","","","","","","","","","","","","","","","","","","","","","","","","","","","","","","","","","","","",""
"25945","1751451884836"," <p style='font-size:1.1em;line-height:1.25'>Thank you for completing the consent form and closing all other tabs.</p><p style='font-size:1.1em;line-height:1.25'>We will now invite you to fill in some demographic information and questionnaires, before starting the game.<br>This will take about 5 minutes.<br></p><p style='font-size:1.1em;line-height:1.25'>Press the <strong>Next</strong> button to continue.</p>","0","custom-html-button-response","4","346504","0.0-5.0","55","1","2025-07-02 10:18:53","80fe4187154257d5fb01684ea91b68b9","216.120.189.119","Mozilla/5.0 (Windows NT 10.0; Win64; x64) AppleWebKit/537.36 (KHTML, like Gecko) Chrome/137.0.0.0 Safari/537.36","WebKit","Chrome","137.0.0.0","Windows","10.0","https://app.prolific.com/","en-US,en;q=0.9","669c1e1fdb95a995eb1d3077","683db6dfa200031b80f2a654","6865076e98b52b6e7bdefcbc","669c1e1fdb95a995eb1d3077","2025-07-02T10:24:44.837Z","","","","","","","","","","","","","","","","","","","","","","","","","","","","","","","","","","","","","","","","","","","",""
"4702","","","{""age"":""31""}","survey-text","5","351212","0.0-6.0-0.0","55","1","2025-07-02 10:18:53","80fe4187154257d5fb01684ea91b68b9","216.120.189.119","Mozilla/5.0 (Windows NT 10.0; Win64; x64) AppleWebKit/537.36 (KHTML, like Gecko) Chrome/137.0.0.0 Safari/537.36","WebKit","Chrome","137.0.0.0","Windows","10.0","https://app.prolific.com/","en-US,en;q=0.9","669c1e1fdb95a995eb1d3077","683db6dfa200031b80f2a654","6865076e98b52b6e7bdefcbc","669c1e1fdb95a995eb1d3077","","","","","","0","demographics","","","","","","","","","","","","","","","","","","","","","","","","","","","","","","","","","","","","","",""
"3983","","","{""gender_identity"":""female/woman""}","survey-multi-choice","6","355196","0.0-6.0-1.0","55","1","2025-07-02 10:18:53","80fe4187154257d5fb01684ea91b68b9","216.120.189.119","Mozilla/5.0 (Windows NT 10.0; Win64; x64) AppleWebKit/537.36 (KHTML, like Gecko) Chrome/137.0.0.0 Safari/537.36","WebKit","Chrome","137.0.0.0","Windows","10.0","https://app.prolific.com/","en-US,en;q=0.9","669c1e1fdb95a995eb1d3077","683db6dfa200031b80f2a654","6865076e98b52b6e7bdefcbc","669c1e1fdb95a995eb1d3077","","","[0]","","","1","demographics","","","","","","","","","","","","","","","","","","","","","","","","","","","","","","","","","","","","","",""
"9517","","","{""assigned_sex"":""female""}","survey-multi-choice","7","364714","0.0-6.0-2.0","55","1","2025-07-02 10:18:53","80fe4187154257d5fb01684ea91b68b9","216.120.189.119","Mozilla/5.0 (Windows NT 10.0; Win64; x64) AppleWebKit/537.36 (KHTML, like Gecko) Chrome/137.0.0.0 Safari/537.36","WebKit","Chrome","137.0.0.0","Windows","10.0","https://app.prolific.com/","en-US,en;q=0.9","669c1e1fdb95a995eb1d3077","683db6dfa200031b80f2a654","6865076e98b52b6e7bdefcbc","669c1e1fdb95a995eb1d3077","","","[0]","","","2","demographics","","","","","","","","","","","","","","","","","","","","","","","","","","","","","","","","","","","","","",""
"9314","","","{""menstrual_cycle"":""Yes""}","survey-multi-choice","8","374029","0.0-6.0-3.0","55","1","2025-07-02 10:18:53","80fe4187154257d5fb01684ea91b68b9","216.120.189.119","Mozilla/5.0 (Windows NT 10.0; Win64; x64) AppleWebKit/537.36 (KHTML, like Gecko) Chrome/137.0.0.0 Safari/537.36","WebKit","Chrome","137.0.0.0","Windows","10.0","https://app.prolific.com/","en-US,en;q=0.9","669c1e1fdb95a995eb1d3077","683db6dfa200031b80f2a654","6865076e98b52b6e7bdefcbc","669c1e1fdb95a995eb1d3077","","","[0]","","","4","demographics","","","","","","","","","","","","","","","","","","","","","","","","","","","","","","","","","","","","","",""
"9232","","","{""education"":""Doctoral Degree (e.g., PhD)""}","survey-multi-choice","9","383263","0.0-6.0-4.0","55","1","2025-07-02 10:18:53","80fe4187154257d5fb01684ea91b68b9","216.120.189.119","Mozilla/5.0 (Windows NT 10.0; Win64; x64) AppleWebKit/537.36 (KHTML, like Gecko) Chrome/137.0.0.0 Safari/537.36","WebKit","Chrome","137.0.0.0","Windows","10.0","https://app.prolific.com/","en-US,en;q=0.9","669c1e1fdb95a995eb1d3077","683db6dfa200031b80f2a654","6865076e98b52b6e7bdefcbc","669c1e1fdb95a995eb1d3077","","","[0]","","","5","demographics","","","","","","","","","","","","","","","","","","","","","","","","","","","","","","","","","","","","","",""
"10816","","","{""education"":""Bachelor's Degree (e.g., BA)""}","survey-multi-choice","10","394080","0.0-6.0-5.0","55","1","2025-07-02 10:18:53","80fe4187154257d5fb01684ea91b68b9","216.120.189.119","Mozilla/5.0 (Windows NT 10.0; Win64; x64) AppleWebKit/537.36 (KHTML, like Gecko) Chrome/137.0.0.0 Safari/537.36","WebKit","Chrome","137.0.0.0","Windows","10.0","https://app.prolific.com/","en-US,en;q=0.9","669c1e1fdb95a995eb1d3077","683db6dfa200031b80f2a654","6865076e98b52b6e7bdefcbc","669c1e1fdb95a995eb1d3077","2025-07-02T10:25:32.414Z","","[0]","","","6","demographics","","","","","","","","","","","","","","","","","","","","","","","","","","","","","","","","","","","","","",""
"56257","","","{""mental_health_condition"":""No"",""mental_health_treatment"":""No"",""psychiatric_medication"":""No""}","survey-text","11","450341","0.0-7.0-0.0","55","1","2025-07-02 10:18:53","80fe4187154257d5fb01684ea91b68b9","216.120.189.119","Mozilla/5.0 (Windows NT 10.0; Win64; x64) AppleWebKit/537.36 (KHTML, like Gecko) Chrome/137.0.0.0 Safari/537.36","WebKit","Chrome","137.0.0.0","Windows","10.0","https://app.prolific.com/","en-US,en;q=0.9","669c1e1fdb95a995eb1d3077","683db6dfa200031b80f2a654","6865076e98b52b6e7bdefcbc","669c1e1fdb95a995eb1d3077","2025-07-02T10:26:28.674Z","","","","","1","mental_health","","","","","","","","","","","","","","","","","","","","","","","","","","","","","","","","","","","","","",""
"17897","","","{""depression_history"":[""No""]}","survey-multi-select","12","468241","0.0-7.0-1.0","55","1","2025-07-02 10:18:53","80fe4187154257d5fb01684ea91b68b9","216.120.189.119","Mozilla/5.0 (Windows NT 10.0; Win64; x64) AppleWebKit/537.36 (KHTML, like Gecko) Chrome/137.0.0.0 Safari/537.36","WebKit","Chrome","137.0.0.0","Windows","10.0","https://app.prolific.com/","en-US,en;q=0.9","669c1e1fdb95a995eb1d3077","683db6dfa200031b80f2a654","6865076e98b52b6e7bdefcbc","669c1e1fdb95a995eb1d3077","","","[0]","","","","mental_health","","","","","","","","","","","","","","","","","","","","","","","","","","","","","","","","","","","","","",""
"122345.89999997616","","","","survey-template","13","590592","0.0-7.0-3.0","55","1","2025-07-02 10:18:53","80fe4187154257d5fb01684ea91b68b9","216.120.189.119","Mozilla/5.0 (Windows NT 10.0; Win64; x64) AppleWebKit/537.36 (KHTML, like Gecko) Chrome/137.0.0.0 Safari/537.36","WebKit","Chrome","137.0.0.0","Windows","10.0","https://app.prolific.com/","en-US,en;q=0.9","669c1e1fdb95a995eb1d3077","683db6dfa200031b80f2a654","6865076e98b52b6e7bdefcbc","669c1e1fdb95a995eb1d3077","2025-07-02T10:28:48.925Z","","","","","","ius","{""Q01"":""2"",""Q02"":""3"",""Q03"":""0"",""Q04"":""4"",""Q05"":""1"",""Q06"":""0"",""Q07"":""2"",""Q08"":""0"",""Q09"":""4"",""Q10"":""1"",""Q11"":""1"",""Q12"":""4"",""Q13"":""4""}","[0,1,2,3,4,5,6,7,8,9,10,11,12]","[""Q01"",""Q02"",""Q03"",""Q04"",""Q05"",""Q06"",""Q07"",""Q08"",""Q09"",""Q10"",""Q11"",""Q12"",""Q13""]","[14206.199999988079,22242.79999998212,27513.19999998808,32400.69999998808,41812.79999998212,49301.79999998212,55940.89999997616,61563.69999998808,79096.79999998212,92133.79999998212,105869.79999998212,112673.69999998808,118296.79999998212]","[]","[14206.199999988079,22242.79999998212,27513.19999998808,32400.69999998808,40925.89999997616,41812.79999998212,49301.79999998212,55940.89999997616,61563.69999998808,79096.79999998212,90584.79999998212,92133.79999998212,105869.79999998212,112673.69999998808,118296.79999998212,122342.59999999404]","0.3076923076923077","0.3333333333333333","0","","","","","","","","","","","","","","","","","","","","","","","","","","","","",""
"8422","1751452137348","<p style='font-size:1.1em;line-height:1.25'>In the following, we will ask you a few questions relating to your experiences over the past month.<br></p><p style='font-size:1.1em;line-height:1.25'>Press the <strong>Next</strong> button to continue.</p>","0","custom-html-button-response","14","599016","0.0-7.0-4.0","55","1","2025-07-02 10:18:53","80fe4187154257d5fb01684ea91b68b9","216.120.189.119","Mozilla/5.0 (Windows NT 10.0; Win64; x64) AppleWebKit/537.36 (KHTML, like Gecko) Chrome/137.0.0.0 Safari/537.36","WebKit","Chrome","137.0.0.0","Windows","10.0","https://app.prolific.com/","en-US,en;q=0.9","669c1e1fdb95a995eb1d3077","683db6dfa200031b80f2a654","6865076e98b52b6e7bdefcbc","669c1e1fdb95a995eb1d3077","2025-07-02T10:28:57.349Z","","","","","","","","","","","","","","","","","","","","","","","","","","","","","","","","","","","","","","","","","","","",""
"150001.59999999404","","","","survey-template","15","749025","0.0-7.0-5.0","55","1","2025-07-02 10:18:53","80fe4187154257d5fb01684ea91b68b9","216.120.189.119","Mozilla/5.0 (Windows NT 10.0; Win64; x64) AppleWebKit/537.36 (KHTML, like Gecko) Chrome/137.0.0.0 Safari/537.36","WebKit","Chrome","137.0.0.0","Windows","10.0","https://app.prolific.com/","en-US,en;q=0.9","669c1e1fdb95a995eb1d3077","683db6dfa200031b80f2a654","6865076e98b52b6e7bdefcbc","669c1e1fdb95a995eb1d3077","2025-07-02T10:31:27.358Z","","","","","","pss","{""Q01"":""2"",""Q02"":""1"",""Q03"":""2"",""Q04"":""0"",""Q05"":""1"",""Q06"":""2"",""Q07"":""2"",""Q08"":""1"",""Q09"":""2"",""Q10"":""1""}","[0,1,2,3,4,5,6,7,8,9]","[""Q01"",""Q02"",""Q03"",""Q04"",""Q05"",""Q06"",""Q07"",""Q08"",""Q09"",""Q10""]","[14999.59999999404,22367.69999998808,32013.59999999404,40133.59999999404,45734.69999998808,57868.69999998808,73627.59999999404,80717.5,92107.5,149036.59999999404]","[]","[0.09999999403953552,14999.59999999404,22367.69999998808,29757.59999999404,32013.59999999404,40133.59999999404,45734.69999998808,56951.69999998808,57868.69999998808,71875.69999998808,73627.59999999404,80717.5,90656.69999998808,92107.5,149036.59999999404,149998.79999998212]","0.5","0.7777777777777778","0","","","","","","","","","","","","","","","","","","","","","","","","","","","","",""
"6115","1751452293474","<p style='font-size:1.1em;line-height:1.25'>Thank you for your answers! Now we will ask you a few more questions relating to your feelings in the last 24 hours.<br></p><p style='font-size:1.1em;line-height:1.25'>Press the <strong>Next</strong> button to continue.</p>","0","custom-html-button-response","16","755141","0.0-7.0-6.0","55","1","2025-07-02 10:18:53","80fe4187154257d5fb01684ea91b68b9","216.120.189.119","Mozilla/5.0 (Windows NT 10.0; Win64; x64) AppleWebKit/537.36 (KHTML, like Gecko) Chrome/137.0.0.0 Safari/537.36","WebKit","Chrome","137.0.0.0","Windows","10.0","https://app.prolific.com/","en-US,en;q=0.9","669c1e1fdb95a995eb1d3077","683db6dfa200031b80f2a654","6865076e98b52b6e7bdefcbc","669c1e1fdb95a995eb1d3077","2025-07-02T10:31:33.475Z","","","","","","","","","","","","","","","","","","","","","","","","","","","","","","","","","","","","","","","","","","","",""
"94135.80000001192","","","","survey-template","17","849284","0.0-7.0-7.0","55","1","2025-07-02 10:18:53","80fe4187154257d5fb01684ea91b68b9","216.120.189.119","Mozilla/5.0 (Windows NT 10.0; Win64; x64) AppleWebKit/537.36 (KHTML, like Gecko) Chrome/137.0.0.0 Safari/537.36","WebKit","Chrome","137.0.0.0","Windows","10.0","https://app.prolific.com/","en-US,en;q=0.9","669c1e1fdb95a995eb1d3077","683db6dfa200031b80f2a654","6865076e98b52b6e7bdefcbc","669c1e1fdb95a995eb1d3077","2025-07-02T10:33:07.617Z","","","","","","drsp","{""Q01"":""1"",""Q02"":""0"",""Q03"":""0"",""Q04"":""1"",""Q05"":""1"",""Q06"":""0"",""Q07"":""1"",""Q08"":""1"",""Q09"":""0"",""Q10"":""0"",""Q11"":""1"",""Q12"":""0"",""Q13"":""0"",""Q14"":""1"",""Q15"":""0"",""Q16"":""2"",""Q17"":""0"",""Q18"":""0"",""Q19"":""0"",""Q20"":""0"",""Q21"":""0""}","[0,1,2,3,4,5,6,7,8,9,10,11,12,13,14,15,16,17,18,19,20]","[""Q01"",""Q01"",""Q02"",""Q03"",""Q04"",""Q05"",""Q06"",""Q07"",""Q07"",""Q08"",""Q09"",""Q10"",""Q11"",""Q12"",""Q13"",""Q14"",""Q15"",""Q16"",""Q17"",""Q18"",""Q19"",""Q20"",""Q21""]","[4512.5,6046.5,8038.100000023842,11745.200000017881,14001.100000023842,17203.100000023842,20286.100000023842,24466.20000001788,25489.30000001192,31127.40000000596,37232.20000001788,39639.40000000596,42405.40000000596,46788.30000001192,47991.40000000596,52487.30000001192,60938.5,64155.10000002384,66674.20000001788,71027.30000001192,79741.20000001788,85808.60000002384,92334.20000001788]","[]","[0.10000002384185791,4512.5,6046.5,8038.100000023842,11745.200000017881,14001.100000023842,17203.100000023842,20286.100000023842,24466.20000001788,25489.30000001192,31127.40000000596,37232.20000001788,39639.40000000596,42405.40000000596,45202.40000000596,46788.30000001192,47991.40000000596,51261.5,52487.30000001192,60938.5,64155.10000002384,66674.20000001788,71027.30000001192,79741.20000001788,85808.60000002384,92334.20000001788,94131.10000002384]","0.6190476190476191","0.45","0","","","","","","","","","","","","","","","","","","","","","","","","","","","","",""
"32298.19999998808","","","","survey-template","18","881585","0.0-7.0-8.0","55","1","2025-07-02 10:18:53","80fe4187154257d5fb01684ea91b68b9","216.120.189.119","Mozilla/5.0 (Windows NT 10.0; Win64; x64) AppleWebKit/537.36 (KHTML, like Gecko) Chrome/137.0.0.0 Safari/537.36","WebKit","Chrome","137.0.0.0","Windows","10.0","https://app.prolific.com/","en-US,en;q=0.9","669c1e1fdb95a995eb1d3077","683db6dfa200031b80f2a654","6865076e98b52b6e7bdefcbc","669c1e1fdb95a995eb1d3077","2025-07-02T10:33:39.918Z","","","","","","stress","{""Q01"":""0"",""Q02"":""2"",""Q03"":""1""}","[0,1,2]","[""Q01"",""Q02"",""Q02"",""Q03""]","[3118.9000000059605,7982.9000000059605,9960.199999988079,30515.80000001192]","[]","[3118.9000000059605,7982.9000000059605,8975.09999999404,9960.199999988079,29817,30515.80000001192,32297.19999998808]","0.3333333333333333","0","0","","","","","","","","","","","","","","","","","","","","","","","","","","","","",""
"195639","","","","instructions","19","1077226","0.0-8.0-0.0","55","1","2025-07-02 10:18:53","80fe4187154257d5fb01684ea91b68b9","216.120.189.119","Mozilla/5.0 (Windows NT 10.0; Win64; x64) AppleWebKit/537.36 (KHTML, like Gecko) Chrome/137.0.0.0 Safari/537.36","WebKit","Chrome","137.0.0.0","Windows","10.0","https://app.prolific.com/","en-US,en;q=0.9","669c1e1fdb95a995eb1d3077","683db6dfa200031b80f2a654","6865076e98b52b6e7bdefcbc","669c1e1fdb95a995eb1d3077","","[{""page_index"":0,""viewing_time"":72847},{""page_index"":1,""viewing_time"":58142},{""page_index"":2,""viewing_time"":27760},{""page_index"":3,""viewing_time"":36889}]","","","","","","","","","","","","","","","","","","","","","","","","","","","","","","","","","","","","","","","","","","",""
"","","","","ctl-task-cpt","20","1120659","0.0-8.0-1.0","55","1","2025-07-02 10:18:53","80fe4187154257d5fb01684ea91b68b9","216.120.189.119","Mozilla/5.0 (Windows NT 10.0; Win64; x64) AppleWebKit/537.36 (KHTML, like Gecko) Chrome/137.0.0.0 Safari/537.36","WebKit","Chrome","137.0.0.0","Windows","10.0","https://app.prolific.com/","en-US,en;q=0.9","669c1e1fdb95a995eb1d3077","683db6dfa200031b80f2a654","6865076e98b52b6e7bdefcbc","669c1e1fdb95a995eb1d3077","","","","","","","","","","","","","","","","","win-only","0","g1:NW,g2:SE","1","0","1","1082802","12351.2","16356.2","40425.9","2","4","4","6","2","4","1","1","0","0.007575757575757576","4005","4000","1240","[""down"",""right""]","{""num_key_presses"":10,""num_perfect"":6,""num_errors"":3,""num_randdir"":0,""num_randdir_good_moves"":0,""num_whilered"":1,""num_whileblue"":0,""num_blue"":0,""num_good_moves"":6}","[301.22232142857143,289.12857142857143,0.5,301.22232142857143,289.12857142857143,105.1,301.22232142857143,289.12857142857143,205.1,301.22232142857143,289.12857142857143,306,302.22232142857143,289.12857142857143,406.1,302.22232142857143,289.12857142857143,511.5,302.22232142857143,289.12857142857143,615.2,302.22232142857143,289.12857142857143,715.2,302.22232142857143,289.12857142857143,820.2,302.22232142857143,289.12857142857143,927.7,302.22232142857143,289.12857142857143,1029.2,307.22232142857143,327.12857142857143,1130,308.22232142857143,329.12857142857143,1234.4,308.22232142857143,329.12857142857143,1335.7,308.22232142857143,329.12857142857143,1444.5,308.22232142857143,329.12857142857143,1549.6,308.22232142857143,329.12857142857143,1649.6,308.22232142857143,329.12857142857143,1755,308.22232142857143,329.12857142857143,1855,308.22232142857143,329.12857142857143,1955,308.22232142857143,329.12857142857143,2055,308.22232142857143,329.12857142857143,2160.8,308.22232142857143,329.12857142857143,2260.9,308.22232142857143,329.12857142857143,2364.8,308.22232142857143,329.12857142857143,2464.8,308.22232142857143,329.12857142857143,2565.2,308.22232142857143,329.12857142857143,2669.5,308.22232142857143,329.12857142857143,2769.6,308.22232142857143,329.12857142857143,2869.6,308.22232142857143,329.12857142857143,2977.6,308.22232142857143,329.12857142857143,3077.6,308.22232142857143,329.12857142857143,3177.6,308.22232142857143,329.12857142857143,3277.7,308.22232142857143,329.12857142857143,3379.8,308.22232142857143,329.12857142857143,3479.8,308.22232142857143,329.12857142857143,3585.1,308.22232142857143,329.12857142857143,3685.1,308.22232142857143,329.12857142857143,3785.1,308.22232142857143,329.12857142857143,3894.3,308.22232142857143,329.12857142857143,3998]","[1194.4,1194.3,1000,0.1,194.3,""smooth"",""right"",""right"",""good_move"",1960.5,765.3,2524.1,1195.2,-1758.7,""error"",""-"",""-"",""no_move"",2182,220.9,2524.1,1195.2,-1537.3,""while_red"",""-"",""-"",""no_move"",6260.3,4299.3,3389.1,2964.3,-93,""error"",""-"",""-"",""no_move"",10563.3,4300.4,2306.7,7264.5,992.2,""smooth"",""right"",""right"",""good_move"",11164.5,600.3,2466.1,10564.3,-1865.9,""error"",""-"",""-"",""no_move"",14764.7,3599.8,2140.9,12165.1,458.7,""smooth"",""right"",""right"",""good_move"",17690.2,2924.7,2456.9,14765.6,467.7,""smooth"",""down"",""down"",""good_move"",21248.8,3558,3100.9,17690.9,457,""smooth"",""down"",""down"",""good_move"",23972,2722.8,2245.3,21249.3,477.5,""smooth"",""down"",""down"",""good_move""]","",""
"56959","","","","instructions","21","1177619","0.0-8.0-2.0","55","1","2025-07-02 10:18:53","80fe4187154257d5fb01684ea91b68b9","216.120.189.119","Mozilla/5.0 (Windows NT 10.0; Win64; x64) AppleWebKit/537.36 (KHTML, like Gecko) Chrome/137.0.0.0 Safari/537.36","WebKit","Chrome","137.0.0.0","Windows","10.0","https://app.prolific.com/","en-US,en;q=0.9","669c1e1fdb95a995eb1d3077","683db6dfa200031b80f2a654","6865076e98b52b6e7bdefcbc","669c1e1fdb95a995eb1d3077","","[{""page_index"":0,""viewing_time"":56959}]","","","","","","","","","","","","","","","","","","","","","","","","","","","","","","","","","","","","","","","","","","",""
"","","","","ctl-task-cpt","22","1210023","0.0-8.0-3.0","55","1","2025-07-02 10:18:53","80fe4187154257d5fb01684ea91b68b9","216.120.189.119","Mozilla/5.0 (Windows NT 10.0; Win64; x64) AppleWebKit/537.36 (KHTML, like Gecko) Chrome/137.0.0.0 Safari/537.36","WebKit","Chrome","137.0.0.0","Windows","10.0","https://app.prolific.com/","en-US,en;q=0.9","669c1e1fdb95a995eb1d3077","683db6dfa200031b80f2a654","6865076e98b52b6e7bdefcbc","669c1e1fdb95a995eb1d3077","","","","","","","","","","","","","","","","","win-only","0","g1:NW,g2:SE","0.35","0","3","1183194.5","2799.8","6802.7","29391.3","2","4","8","6","1","-2","-2","0","0","0","4002.8","4000","-2610","[""left"",""up""]","{""num_key_presses"":7,""num_perfect"":3,""num_errors"":0,""num_randdir"":4,""num_randdir_good_moves"":2,""num_whilered"":0,""num_whileblue"":0,""num_blue"":0,""num_good_moves"":2}","[293.22232142857143,295.12857142857143,0.4,293.22232142857143,295.12857142857143,103.1,293.22232142857143,295.12857142857143,205.9,294.22232142857143,295.12857142857143,307.4,294.22232142857143,295.12857142857143,410.8,294.22232142857143,295.12857142857143,510.9,294.22232142857143,295.12857142857143,617.3,294.22232142857143,295.12857142857143,718.4,294.22232142857143,295.12857142857143,821.6,294.22232142857143,295.12857142857143,926,294.22232142857143,295.12857142857143,1026.3,294.22232142857143,295.12857142857143,1134.5,294.22232142857143,295.12857142857143,1236.1,294.22232142857143,295.12857142857143,1336.3,294.22232142857143,295.12857142857143,1436.7,294.22232142857143,295.12857142857143,1537.5,294.22232142857143,295.12857142857143,1641.3,294.22232142857143,295.12857142857143,1741.5,294.22232142857143,295.12857142857143,1850.3,294.22232142857143,295.12857142857143,1950.9,294.22232142857143,295.12857142857143,2051.3,294.22232142857143,295.12857142857143,2156.5,294.22232142857143,295.12857142857143,2256.5,294.22232142857143,295.12857142857143,2360.6,294.22232142857143,295.12857142857143,2466.6,294.22232142857143,295.12857142857143,2567.7,294.22232142857143,295.12857142857143,2669.3,294.22232142857143,295.12857142857143,2771.2,294.22232142857143,295.12857142857143,2875.5,294.22232142857143,295.12857142857143,2976,294.22232142857143,295.12857142857143,3076.5,294.22232142857143,295.12857142857143,3184.1,294.22232142857143,295.12857142857143,3286.2,294.22232142857143,295.12857142857143,3387.3,294.22232142857143,295.12857142857143,3492,294.22232142857143,295.12857142857143,3600.3,294.22232142857143,295.12857142857143,3700.8,294.22232142857143,295.12857142857143,3800.9,294.22232142857143,295.12857142857143,3902.7]","[1532.3,1532.3,1000,0,532.4,""smooth"",""right"",""right"",""bad_move"",4181.6,2648.5,2259.3,1533.2,389.1,""smooth"",""down"",""down"",""bad_move"",6431.5,2249.1,1653.7,4182.4,595.4,""oops"",""down"",""right"",""bad_move"",9313,2880.9,2381.8,6432.2,499.1,""smooth"",""down"",""down"",""bad_move"",12468,3154.5,2652.3,9313.6,502.1,""oops"",""down"",""right"",""bad_move"",15687,3218.5,2600.3,12468.5,618.2,""oops"",""down"",""up"",""good_move"",19164.1,3476.6,2824.8,15687.5,651.8,""oops"",""down"",""up"",""good_move""]","",""
"99482","","","","instructions","23","1309506","0.0-8.0-4.0","55","1","2025-07-02 10:18:53","80fe4187154257d5fb01684ea91b68b9","216.120.189.119","Mozilla/5.0 (Windows NT 10.0; Win64; x64) AppleWebKit/537.36 (KHTML, like Gecko) Chrome/137.0.0.0 Safari/537.36","WebKit","Chrome","137.0.0.0","Windows","10.0","https://app.prolific.com/","en-US,en;q=0.9","669c1e1fdb95a995eb1d3077","683db6dfa200031b80f2a654","6865076e98b52b6e7bdefcbc","669c1e1fdb95a995eb1d3077","","[{""page_index"":0,""viewing_time"":31553},{""page_index"":1,""viewing_time"":67929}]","","","","","","","","","","","","","","","","","","","","","","","","","","","","","","","","","","","","","","","","","","",""
"13214","","","{""green_ball"":[""Ball always moves in the direction I press""]}","survey-multi-select","24","1322724","0.0-8.0-5.0-0.0","55","1","2025-07-02 10:18:53","80fe4187154257d5fb01684ea91b68b9","216.120.189.119","Mozilla/5.0 (Windows NT 10.0; Win64; x64) AppleWebKit/537.36 (KHTML, like Gecko) Chrome/137.0.0.0 Safari/537.36","WebKit","Chrome","137.0.0.0","Windows","10.0","https://app.prolific.com/","en-US,en;q=0.9","669c1e1fdb95a995eb1d3077","683db6dfa200031b80f2a654","6865076e98b52b6e7bdefcbc","669c1e1fdb95a995eb1d3077","","","[0]","","","","quiz","","","","","","","","","","","","","","","","","","","","","","","","","","","","","","","","","","","","","false",""
"6357","","<p align='center'><b>INCORRECT.</b> Usually the green ball moves in the indicated direction, but sometimes it shakes and moves randomly. </p>","0","html-button-response","25","1329085","0.0-8.0-5.0-1.0","55","1","2025-07-02 10:18:53","80fe4187154257d5fb01684ea91b68b9","216.120.189.119","Mozilla/5.0 (Windows NT 10.0; Win64; x64) AppleWebKit/537.36 (KHTML, like Gecko) Chrome/137.0.0.0 Safari/537.36","WebKit","Chrome","137.0.0.0","Windows","10.0","https://app.prolific.com/","en-US,en;q=0.9","669c1e1fdb95a995eb1d3077","683db6dfa200031b80f2a654","6865076e98b52b6e7bdefcbc","669c1e1fdb95a995eb1d3077","","","","","","","","","","","","","","","","","","","","","","","","","","","","","","","","","","","","","","","","","","","","",""
"15041","","","{""green_ball"":[""Ball sometimes shakes and moves in a random direction""]}","survey-multi-select","26","1344129","0.0-8.0-5.1-0.1","55","1","2025-07-02 10:18:53","80fe4187154257d5fb01684ea91b68b9","216.120.189.119","Mozilla/5.0 (Windows NT 10.0; Win64; x64) AppleWebKit/537.36 (KHTML, like Gecko) Chrome/137.0.0.0 Safari/537.36","WebKit","Chrome","137.0.0.0","Windows","10.0","https://app.prolific.com/","en-US,en;q=0.9","669c1e1fdb95a995eb1d3077","683db6dfa200031b80f2a654","6865076e98b52b6e7bdefcbc","669c1e1fdb95a995eb1d3077","","","[0]","","","","quiz","","","","","","","","","","","","","","","","","","","","","","","","","","","","","","","","","","","","","true",""
"17101","","<p align='center'><b>CORRECT!</b> Indeed, the green ball may sometimes shake and move in a random direction.</p>","0","html-button-response","27","1361233","0.0-8.0-5.1-1.1","55","1","2025-07-02 10:18:53","80fe4187154257d5fb01684ea91b68b9","216.120.189.119","Mozilla/5.0 (Windows NT 10.0; Win64; x64) AppleWebKit/537.36 (KHTML, like Gecko) Chrome/137.0.0.0 Safari/537.36","WebKit","Chrome","137.0.0.0","Windows","10.0","https://app.prolific.com/","en-US,en;q=0.9","669c1e1fdb95a995eb1d3077","683db6dfa200031b80f2a654","6865076e98b52b6e7bdefcbc","669c1e1fdb95a995eb1d3077","","","","","","","","","","","","","","","","","","","","","","","","","","","","","","","","","","","","","","","","","","","","",""
"17303","","","{""yellow_ball"":[""Ball doesn‘t move and I get -1 penalty point""]}","survey-multi-select","28","1378540","0.0-8.0-6.0-0.0","55","1","2025-07-02 10:18:53","80fe4187154257d5fb01684ea91b68b9","216.120.189.119","Mozilla/5.0 (Windows NT 10.0; Win64; x64) AppleWebKit/537.36 (KHTML, like Gecko) Chrome/137.0.0.0 Safari/537.36","WebKit","Chrome","137.0.0.0","Windows","10.0","https://app.prolific.com/","en-US,en;q=0.9","669c1e1fdb95a995eb1d3077","683db6dfa200031b80f2a654","6865076e98b52b6e7bdefcbc","669c1e1fdb95a995eb1d3077","","","[0]","","","","quiz","","","","","","","","","","","","","","","","","","","","","","","","","","","","","","","","","","","","","true",""
"1663","","<p align='center'><b>CORRECT!</b> Indeed, the yellow ball never moves and you receive a penalty.</p>","0","html-button-response","29","1380207","0.0-8.0-6.0-1.0","55","1","2025-07-02 10:18:53","80fe4187154257d5fb01684ea91b68b9","216.120.189.119","Mozilla/5.0 (Windows NT 10.0; Win64; x64) AppleWebKit/537.36 (KHTML, like Gecko) Chrome/137.0.0.0 Safari/537.36","WebKit","Chrome","137.0.0.0","Windows","10.0","https://app.prolific.com/","en-US,en;q=0.9","669c1e1fdb95a995eb1d3077","683db6dfa200031b80f2a654","6865076e98b52b6e7bdefcbc","669c1e1fdb95a995eb1d3077","","","","","","","","","","","","","","","","","","","","","","","","","","","","","","","","","","","","","","","","","","","","",""
"44267","","","{""blue_ball"":[""Ball always shakes and moves in a random direction""]}","survey-multi-select","30","1424477","0.0-8.0-7.0-0.0","55","1","2025-07-02 10:18:53","80fe4187154257d5fb01684ea91b68b9","216.120.189.119","Mozilla/5.0 (Windows NT 10.0; Win64; x64) AppleWebKit/537.36 (KHTML, like Gecko) Chrome/137.0.0.0 Safari/537.36","WebKit","Chrome","137.0.0.0","Windows","10.0","https://app.prolific.com/","en-US,en;q=0.9","669c1e1fdb95a995eb1d3077","683db6dfa200031b80f2a654","6865076e98b52b6e7bdefcbc","669c1e1fdb95a995eb1d3077","","","[0]","","","","quiz","","","","","","","","","","","","","","","","","","","","","","","","","","","","","","","","","","","","","true",""
"1274","","<p align='center'><b>CORRECT!</b> Indeed, the blue ball always shakes and moves in a random direction. Also there is a penalty of -1 point.</p>","0","html-button-response","31","1425754","0.0-8.0-7.0-1.0","55","1","2025-07-02 10:18:53","80fe4187154257d5fb01684ea91b68b9","216.120.189.119","Mozilla/5.0 (Windows NT 10.0; Win64; x64) AppleWebKit/537.36 (KHTML, like Gecko) Chrome/137.0.0.0 Safari/537.36","WebKit","Chrome","137.0.0.0","Windows","10.0","https://app.prolific.com/","en-US,en;q=0.9","669c1e1fdb95a995eb1d3077","683db6dfa200031b80f2a654","6865076e98b52b6e7bdefcbc","669c1e1fdb95a995eb1d3077","","","","","","","","","","","","","","","","","","","","","","","","","","","","","","","","","","","","","","","","","","","","",""
"5143","","","{""bonus"":[""When I reach 50% of points""]}","survey-multi-select","32","1430899","0.0-8.0-8.0-0.0","55","1","2025-07-02 10:18:53","80fe4187154257d5fb01684ea91b68b9","216.120.189.119","Mozilla/5.0 (Windows NT 10.0; Win64; x64) AppleWebKit/537.36 (KHTML, like Gecko) Chrome/137.0.0.0 Safari/537.36","WebKit","Chrome","137.0.0.0","Windows","10.0","https://app.prolific.com/","en-US,en;q=0.9","669c1e1fdb95a995eb1d3077","683db6dfa200031b80f2a654","6865076e98b52b6e7bdefcbc","669c1e1fdb95a995eb1d3077","","","[0]","","","","quiz","","","","","","","","","","","","","","","","","","","","","","","","","","","","","","","","","","","","","true",""
"1253","","<p align='center'><b>CORRECT!</b> Indeed, you receive 2 pounds extra when you reach 50% of points.</p>","0","html-button-response","33","1432153","0.0-8.0-8.0-1.0","55","1","2025-07-02 10:18:53","80fe4187154257d5fb01684ea91b68b9","216.120.189.119","Mozilla/5.0 (Windows NT 10.0; Win64; x64) AppleWebKit/537.36 (KHTML, like Gecko) Chrome/137.0.0.0 Safari/537.36","WebKit","Chrome","137.0.0.0","Windows","10.0","https://app.prolific.com/","en-US,en;q=0.9","669c1e1fdb95a995eb1d3077","683db6dfa200031b80f2a654","6865076e98b52b6e7bdefcbc","669c1e1fdb95a995eb1d3077","","","","","","","","","","","","","","","","","","","","","","","","","","","","","","","","","","","","","","","","","","","","",""
"7689","","","","instructions","34","1439844","0.0-8.0-9.0","55","1","2025-07-02 10:18:53","80fe4187154257d5fb01684ea91b68b9","216.120.189.119","Mozilla/5.0 (Windows NT 10.0; Win64; x64) AppleWebKit/537.36 (KHTML, like Gecko) Chrome/137.0.0.0 Safari/537.36","WebKit","Chrome","137.0.0.0","Windows","10.0","https://app.prolific.com/","en-US,en;q=0.9","669c1e1fdb95a995eb1d3077","683db6dfa200031b80f2a654","6865076e98b52b6e7bdefcbc","669c1e1fdb95a995eb1d3077","","[{""page_index"":0,""viewing_time"":7689}]","","","","","","","","","","","","","","","","","","","","","","","","","","","","","","","","","","","","","","","","","","",""
"28762","","<p>Before you start with this game please answer the following three questions yourself. </p>
  <p>Through this game, we measure several aspects of your cognitive performance, such as reaction times, multi-tasking capabilities </p>
  <p>and the ability to assess the situation you are in.</p>
  <p></p>
  <p><b>How good do you usually are in such tasks?</b></p>","97","html-slider-response","35","1468608","0.0-9.0-0.0","55","1","2025-07-02 10:18:53","80fe4187154257d5fb01684ea91b68b9","216.120.189.119","Mozilla/5.0 (Windows NT 10.0; Win64; x64) AppleWebKit/537.36 (KHTML, like Gecko) Chrome/137.0.0.0 Safari/537.36","WebKit","Chrome","137.0.0.0","Windows","10.0","https://app.prolific.com/","en-US,en;q=0.9","669c1e1fdb95a995eb1d3077","683db6dfa200031b80f2a654","6865076e98b52b6e7bdefcbc","669c1e1fdb95a995eb1d3077","2025-07-02T10:43:26.941Z","","","","","","PreSkillQ","","","","","","","","","","","","","","","","","","","","","","","","","","","","","","","","","","","","","","50"
"7674","","<div style=""width:500px;"">
  <p>How well do you think you will perform in this task compared to other participants?</p>
  </div>","100","html-slider-response","36","1476284","0.0-9.0-1.0","55","1","2025-07-02 10:18:53","80fe4187154257d5fb01684ea91b68b9","216.120.189.119","Mozilla/5.0 (Windows NT 10.0; Win64; x64) AppleWebKit/537.36 (KHTML, like Gecko) Chrome/137.0.0.0 Safari/537.36","WebKit","Chrome","137.0.0.0","Windows","10.0","https://app.prolific.com/","en-US,en;q=0.9","669c1e1fdb95a995eb1d3077","683db6dfa200031b80f2a654","6865076e98b52b6e7bdefcbc","669c1e1fdb95a995eb1d3077","2025-07-02T10:43:34.617Z","","","","","","PrePerfQ","","","","","","","","","","","","","","","","","","","","","","","","","","","","","","","","","","","","","","50"
"5600","","<div style=""width:500px;"">
  <p>What best describes how you currently feel?</p>
  </div>","100","html-slider-response","37","1481885","0.0-9.0-2.0","55","1","2025-07-02 10:18:53","80fe4187154257d5fb01684ea91b68b9","216.120.189.119","Mozilla/5.0 (Windows NT 10.0; Win64; x64) AppleWebKit/537.36 (KHTML, like Gecko) Chrome/137.0.0.0 Safari/537.36","WebKit","Chrome","137.0.0.0","Windows","10.0","https://app.prolific.com/","en-US,en;q=0.9","669c1e1fdb95a995eb1d3077","683db6dfa200031b80f2a654","6865076e98b52b6e7bdefcbc","669c1e1fdb95a995eb1d3077","2025-07-02T10:43:40.218Z","","","","","","PreMotivationQ","","","","","","","","","","","","","","","","","","","","","","","","","","","","","","","","","","","","","","50"
"","","","","ctl-task-cpt","38","1529761","0.0-10.0-0.0","55","1","2025-07-02 10:18:53","80fe4187154257d5fb01684ea91b68b9","216.120.189.119","Mozilla/5.0 (Windows NT 10.0; Win64; x64) AppleWebKit/537.36 (KHTML, like Gecko) Chrome/137.0.0.0 Safari/537.36","WebKit","Chrome","137.0.0.0","Windows","10.0","https://app.prolific.com/","en-US,en;q=0.9","669c1e1fdb95a995eb1d3077","683db6dfa200031b80f2a654","6865076e98b52b6e7bdefcbc","669c1e1fdb95a995eb1d3077","2025-07-02T10:44:28.094Z","","","","","","","","","","","","","","","","win-only","3","g1:SW,g2:NE","1","1","0","1487461.5","2922.8","7926.4","44855.5","1","4","4","6","1","-1","-1","0","0","0","5003.6","3000","-2485","[""down"",""left""]","{""num_key_presses"":7,""num_perfect"":7,""num_errors"":0,""num_randdir"":0,""num_randdir_good_moves"":0,""num_whilered"":0,""num_whileblue"":0,""num_blue"":4,""num_good_moves"":1}","[295.22232142857143,294.12857142857143,0.4,295.22232142857143,294.12857142857143,103.2,295.22232142857143,294.12857142857143,203.2,295.22232142857143,294.12857142857143,303.4,295.22232142857143,299.12857142857143,404.6,282.22232142857143,329.12857142857143,508.3,274.22232142857143,340.12857142857143,609.3,263.22232142857143,352.12857142857143,712.7,254.22232142857143,359.12857142857143,813,254.22232142857143,359.12857142857143,913.3,254.22232142857143,359.12857142857143,1013.5,254.22232142857143,359.12857142857143,1113.8,252.22232142857143,359.12857142857143,1214.7,252.22232142857143,359.12857142857143,1316.3,252.22232142857143,359.12857142857143,1418.3,252.22232142857143,359.12857142857143,1529.5,252.22232142857143,359.12857142857143,1633.2,252.22232142857143,359.12857142857143,1734.3,252.22232142857143,359.12857142857143,1839.2,252.22232142857143,359.12857142857143,1950.5,252.22232142857143,359.12857142857143,2050.7,252.22232142857143,359.12857142857143,2152.7,252.22232142857143,359.12857142857143,2253.3,252.22232142857143,359.12857142857143,2358.4,252.22232142857143,359.12857142857143,2463.8,252.22232142857143,359.12857142857143,2565.7,252.22232142857143,359.12857142857143,2670,252.22232142857143,359.12857142857143,2773.1,252.22232142857143,359.12857142857143,2883.4,252.22232142857143,359.12857142857143,2987.9,252.22232142857143,359.12857142857143,3088.3,252.22232142857143,359.12857142857143,3188.3,252.22232142857143,359.12857142857143,3301.8,252.22232142857143,359.12857142857143,3403.5,252.22232142857143,359.12857142857143,3512.9,252.22232142857143,359.12857142857143,3617.7,252.22232142857143,359.12857142857143,3720.1,252.22232142857143,359.12857142857143,3823.3,252.22232142857143,359.12857142857143,3923.3,252.22232142857143,359.12857142857143,4033.6,252.22232142857143,359.12857142857143,4138.4,252.22232142857143,359.12857142857143,4238.9,252.22232142857143,359.12857142857143,4339.4,252.22232142857143,359.12857142857143,4443,252.22232142857143,359.12857142857143,4547.3,252.22232142857143,359.12857142857143,4647.9,252.22232142857143,359.12857142857143,4752.7,252.22232142857143,359.12857142857143,4853,252.22232142857143,359.12857142857143,4953.7]","[1446,1446.1,1000,0,446.1,""smooth"",""up"",""up"",""bad_move"",7908.9,6462.1,2925.9,4519.5,463.5,""smooth"",""right"",""right"",""bad_move"",11516.7,3607.2,2980.3,7909.5,626.9,""smooth"",""right"",""right"",""bad_move"",26045.1,14528,2389.2,23199.4,456.5,""smooth"",""right"",""right"",""bad_move"",28533.7,2487.9,2014.4,26045.8,473.5,""smooth"",""up"",""up"",""bad_move"",31508.1,2974,2506.3,28534.1,467.7,""smooth"",""up"",""up"",""bad_move"",34125.5,2617,2153.7,31508.6,463.3,""smooth"",""left"",""left"",""good_move""]","",""
"6634","","<div style=""width:500px;"">
  <p>What determined the result of this run?</p>
  </div>","57","html-slider-response","39","1536397","0.0-10.0-1.0","55","1","2025-07-02 10:18:53","80fe4187154257d5fb01684ea91b68b9","216.120.189.119","Mozilla/5.0 (Windows NT 10.0; Win64; x64) AppleWebKit/537.36 (KHTML, like Gecko) Chrome/137.0.0.0 Safari/537.36","WebKit","Chrome","137.0.0.0","Windows","10.0","https://app.prolific.com/","en-US,en;q=0.9","669c1e1fdb95a995eb1d3077","683db6dfa200031b80f2a654","6865076e98b52b6e7bdefcbc","669c1e1fdb95a995eb1d3077","2025-07-02T10:44:34.730Z","","","","","","AttribQ","","","","","","","","","","","","","","","","","","","","","","","","","","","","","","","","","","","","","","50"
"3547","","<div style=""width:500px;"">
  <p>How much control did you have over the ball?</p>
  </div>","81","html-slider-response","40","1539946","0.0-10.0-2.0","55","1","2025-07-02 10:18:53","80fe4187154257d5fb01684ea91b68b9","216.120.189.119","Mozilla/5.0 (Windows NT 10.0; Win64; x64) AppleWebKit/537.36 (KHTML, like Gecko) Chrome/137.0.0.0 Safari/537.36","WebKit","Chrome","137.0.0.0","Windows","10.0","https://app.prolific.com/","en-US,en;q=0.9","669c1e1fdb95a995eb1d3077","683db6dfa200031b80f2a654","6865076e98b52b6e7bdefcbc","669c1e1fdb95a995eb1d3077","2025-07-02T10:44:38.279Z","","","","","","ControlQ","","","","","","","","","","","","","","","","","","","","","","","","","","","","","","","","","","","","","","50"
"6332","","<div style=""width:500px;"">
  <p>How would you describe your current emotional state?</p>
  </div>","0","html-slider-response","41","1546280","0.0-10.0-3.0","55","1","2025-07-02 10:18:53","80fe4187154257d5fb01684ea91b68b9","216.120.189.119","Mozilla/5.0 (Windows NT 10.0; Win64; x64) AppleWebKit/537.36 (KHTML, like Gecko) Chrome/137.0.0.0 Safari/537.36","WebKit","Chrome","137.0.0.0","Windows","10.0","https://app.prolific.com/","en-US,en;q=0.9","669c1e1fdb95a995eb1d3077","683db6dfa200031b80f2a654","6865076e98b52b6e7bdefcbc","669c1e1fdb95a995eb1d3077","2025-07-02T10:44:44.613Z","","","","","","StressQ","","","","","","","","","","","","","","","","","","","","","","","","","","","","","","","","","","","","","","50"
"4239","","<div style=""width:500px;"">
  <p>What best describes how you currently feel?</p>
  </div>","100","html-slider-response","42","1550521","0.0-10.0-4.0","55","1","2025-07-02 10:18:53","80fe4187154257d5fb01684ea91b68b9","216.120.189.119","Mozilla/5.0 (Windows NT 10.0; Win64; x64) AppleWebKit/537.36 (KHTML, like Gecko) Chrome/137.0.0.0 Safari/537.36","WebKit","Chrome","137.0.0.0","Windows","10.0","https://app.prolific.com/","en-US,en;q=0.9","669c1e1fdb95a995eb1d3077","683db6dfa200031b80f2a654","6865076e98b52b6e7bdefcbc","669c1e1fdb95a995eb1d3077","2025-07-02T10:44:48.854Z","","","","","","MotivationQ","","","","","","","","","","","","","","","","","","","","","","","","","","","","","","","","","","","","","","50"
"","","","","ctl-task-cpt","43","1580379","0.0-10.0-0.1","55","1","2025-07-02 10:18:53","80fe4187154257d5fb01684ea91b68b9","216.120.189.119","Mozilla/5.0 (Windows NT 10.0; Win64; x64) AppleWebKit/537.36 (KHTML, like Gecko) Chrome/137.0.0.0 Safari/537.36","WebKit","Chrome","137.0.0.0","Windows","10.0","https://app.prolific.com/","en-US,en;q=0.9","669c1e1fdb95a995eb1d3077","683db6dfa200031b80f2a654","6865076e98b52b6e7bdefcbc","669c1e1fdb95a995eb1d3077","2025-07-02T10:45:18.712Z","","","","","","","","","","","","","","","","win-only","1","g1:NE,g2:SW","0.9","2","0","1556097.9","4455","9456.1","26835.8","1","4","8","6","1","1","1","1","0","0.007575757575757576","5001.1","3000","1295","[""up"",""right""]","{""num_key_presses"":4,""num_perfect"":4,""num_errors"":0,""num_randdir"":0,""num_randdir_good_moves"":0,""num_whilered"":0,""num_whileblue"":0,""num_blue"":2,""num_good_moves"":4}","[298.22232142857143,297.12857142857143,0.6,298.22232142857143,297.12857142857143,100.3,298.22232142857143,297.12857142857143,200.8,298.22232142857143,297.12857142857143,302.2,298.22232142857143,297.12857142857143,412.4,299.22232142857143,297.12857142857143,515.4,299.22232142857143,297.12857142857143,615.7,299.22232142857143,297.12857142857143,715.7,299.22232142857143,297.12857142857143,820.9,299.22232142857143,297.12857142857143,930.3,294.22232142857143,305.12857142857143,1031.3,277.22232142857143,324.12857142857143,1136.3,276.22232142857143,324.12857142857143,1236.3,276.22232142857143,336.12857142857143,1347.4,273.22232142857143,351.12857142857143,1450.7,273.22232142857143,360.12857142857143,1552,273.22232142857143,360.12857142857143,1662.7,271.22232142857143,362.12857142857143,1765.8,271.22232142857143,362.12857142857143,1865.9,271.22232142857143,362.12857142857143,1966.2,271.22232142857143,362.12857142857143,2072.1,271.22232142857143,362.12857142857143,2184.4,271.22232142857143,362.12857142857143,2295.7,271.22232142857143,362.12857142857143,2396,271.22232142857143,362.12857142857143,2500.2,271.22232142857143,362.12857142857143,2602,271.22232142857143,362.12857142857143,2705.8,271.22232142857143,362.12857142857143,2816.6,271.22232142857143,362.12857142857143,2931.9,271.22232142857143,362.12857142857143,3035.8,271.22232142857143,362.12857142857143,3146.9,271.22232142857143,362.12857142857143,3248.3,271.22232142857143,362.12857142857143,3350.5,271.22232142857143,362.12857142857143,3451.2,271.22232142857143,362.12857142857143,3551.3,271.22232142857143,362.12857142857143,3655.9,271.22232142857143,362.12857142857143,3766,271.22232142857143,362.12857142857143,3866.4,271.22232142857143,362.12857142857143,3976.6,271.22232142857143,362.12857142857143,4081,271.22232142857143,362.12857142857143,4181.1,271.22232142857143,362.12857142857143,4292.7,271.22232142857143,362.12857142857143,4399.2,271.22232142857143,362.12857142857143,4500.3,271.22232142857143,362.12857142857143,4601,271.22232142857143,362.12857142857143,4705.7,271.22232142857143,362.12857142857143,4806,271.22232142857143,362.12857142857143,4909.3]","[1947.9,1947.9,1000,0,947.9,""smooth"",""right"",""right"",""good_move"",7496.8,5547.6,1263.5,5730,503.3,""smooth"",""up"",""up"",""good_move"",10763.4,3266.1,2801.8,7497.3,464.3,""smooth"",""right"",""right"",""good_move"",17260.5,6496.5,2770.2,14012.6,477.7,""smooth"",""up"",""up"",""good_move""]","",""
"6244","","<div style=""width:500px;"">
  <p>What determined the result of this run?</p>
  </div>","100","html-slider-response","44","1586625","0.0-10.0-1.1","55","1","2025-07-02 10:18:53","80fe4187154257d5fb01684ea91b68b9","216.120.189.119","Mozilla/5.0 (Windows NT 10.0; Win64; x64) AppleWebKit/537.36 (KHTML, like Gecko) Chrome/137.0.0.0 Safari/537.36","WebKit","Chrome","137.0.0.0","Windows","10.0","https://app.prolific.com/","en-US,en;q=0.9","669c1e1fdb95a995eb1d3077","683db6dfa200031b80f2a654","6865076e98b52b6e7bdefcbc","669c1e1fdb95a995eb1d3077","2025-07-02T10:45:24.958Z","","","","","","AttribQ","","","","","","","","","","","","","","","","","","","","","","","","","","","","","","","","","","","","","","50"
"4637","","<div style=""width:500px;"">
  <p>How much control did you have over the ball?</p>
  </div>","100","html-slider-response","45","1591263","0.0-10.0-2.1","55","1","2025-07-02 10:18:53","80fe4187154257d5fb01684ea91b68b9","216.120.189.119","Mozilla/5.0 (Windows NT 10.0; Win64; x64) AppleWebKit/537.36 (KHTML, like Gecko) Chrome/137.0.0.0 Safari/537.36","WebKit","Chrome","137.0.0.0","Windows","10.0","https://app.prolific.com/","en-US,en;q=0.9","669c1e1fdb95a995eb1d3077","683db6dfa200031b80f2a654","6865076e98b52b6e7bdefcbc","669c1e1fdb95a995eb1d3077","2025-07-02T10:45:29.596Z","","","","","","ControlQ","","","","","","","","","","","","","","","","","","","","","","","","","","","","","","","","","","","","","","50"
"3284","","<div style=""width:500px;"">
  <p>How would you describe your current emotional state?</p>
  </div>","0","html-slider-response","46","1594550","0.0-10.0-3.1","55","1","2025-07-02 10:18:53","80fe4187154257d5fb01684ea91b68b9","216.120.189.119","Mozilla/5.0 (Windows NT 10.0; Win64; x64) AppleWebKit/537.36 (KHTML, like Gecko) Chrome/137.0.0.0 Safari/537.36","WebKit","Chrome","137.0.0.0","Windows","10.0","https://app.prolific.com/","en-US,en;q=0.9","669c1e1fdb95a995eb1d3077","683db6dfa200031b80f2a654","6865076e98b52b6e7bdefcbc","669c1e1fdb95a995eb1d3077","2025-07-02T10:45:32.883Z","","","","","","StressQ","","","","","","","","","","","","","","","","","","","","","","","","","","","","","","","","","","","","","","50"
"3433","","<div style=""width:500px;"">
  <p>What best describes how you currently feel?</p>
  </div>","100","html-slider-response","47","1597985","0.0-10.0-4.1","55","1","2025-07-02 10:18:53","80fe4187154257d5fb01684ea91b68b9","216.120.189.119","Mozilla/5.0 (Windows NT 10.0; Win64; x64) AppleWebKit/537.36 (KHTML, like Gecko) Chrome/137.0.0.0 Safari/537.36","WebKit","Chrome","137.0.0.0","Windows","10.0","https://app.prolific.com/","en-US,en;q=0.9","669c1e1fdb95a995eb1d3077","683db6dfa200031b80f2a654","6865076e98b52b6e7bdefcbc","669c1e1fdb95a995eb1d3077","2025-07-02T10:45:36.318Z","","","","","","MotivationQ","","","","","","","","","","","","","","","","","","","","","","","","","","","","","","","","","","","","","","50"
"","","","","ctl-task-cpt","48","1620377","0.0-10.0-0.2","55","1","2025-07-02 10:18:53","80fe4187154257d5fb01684ea91b68b9","216.120.189.119","Mozilla/5.0 (Windows NT 10.0; Win64; x64) AppleWebKit/537.36 (KHTML, like Gecko) Chrome/137.0.0.0 Safari/537.36","WebKit","Chrome","137.0.0.0","Windows","10.0","https://app.prolific.com/","en-US,en;q=0.9","669c1e1fdb95a995eb1d3077","683db6dfa200031b80f2a654","6865076e98b52b6e7bdefcbc","669c1e1fdb95a995eb1d3077","2025-07-02T10:45:58.710Z","","","","","","","","","","","","","","","","win-only","2","g1:SE,g2:NW","0.8","3","0","1603561.2","1480.9","6487.3","19356.4","1","4","4","6","1","1","1","2","1","0.015151515151515152","5006.4","3000","1545","[""down"",""right""]","{""num_key_presses"":4,""num_perfect"":4,""num_errors"":0,""num_randdir"":0,""num_randdir_good_moves"":0,""num_whilered"":0,""num_whileblue"":0,""num_blue"":1,""num_good_moves"":4}","[298.22232142857143,299.12857142857143,0.8,298.22232142857143,299.12857142857143,124.5,298.22232142857143,299.12857142857143,225.1,298.22232142857143,299.12857142857143,331.5,300.22232142857143,299.12857142857143,432.2,309.22232142857143,314.12857142857143,536.5,321.22232142857143,335.12857142857143,636.8,323.22232142857143,337.12857142857143,740.3,323.22232142857143,337.12857142857143,840.4,323.22232142857143,337.12857142857143,948.2,323.22232142857143,337.12857142857143,1052,323.22232142857143,337.12857142857143,1154.9,323.22232142857143,337.12857142857143,1258.2,323.22232142857143,337.12857142857143,1360.3,323.22232142857143,337.12857142857143,1475.4,323.22232142857143,337.12857142857143,1579.5,323.22232142857143,337.12857142857143,1687,323.22232142857143,337.12857142857143,1790.2,323.22232142857143,337.12857142857143,1890.3,323.22232142857143,337.12857142857143,1994.6,323.22232142857143,337.12857142857143,2101.7,323.22232142857143,337.12857142857143,2205.6,323.22232142857143,337.12857142857143,2310,323.22232142857143,337.12857142857143,2410.9,323.22232142857143,337.12857142857143,2515.2,323.22232142857143,337.12857142857143,2624.8,323.22232142857143,337.12857142857143,2725.5,323.22232142857143,337.12857142857143,2838.5,323.22232142857143,337.12857142857143,2943,323.22232142857143,337.12857142857143,3043.6,323.22232142857143,337.12857142857143,3151.8,323.22232142857143,337.12857142857143,3255.2,323.22232142857143,337.12857142857143,3374.7,323.22232142857143,337.12857142857143,3475.4,323.22232142857143,337.12857142857143,3592.2,323.22232142857143,337.12857142857143,3693.6,323.22232142857143,337.12857142857143,3795.6,323.22232142857143,337.12857142857143,3908.1,323.22232142857143,337.12857142857143,4009.4,323.22232142857143,337.12857142857143,4110.3,323.22232142857143,337.12857142857143,4210.3,323.22232142857143,337.12857142857143,4310.4,323.22232142857143,337.12857142857143,4418.7,323.22232142857143,337.12857142857143,4521.2,323.22232142857143,337.12857142857143,4630.4,323.22232142857143,337.12857142857143,4734.9,323.22232142857143,337.12857142857143,4841.2,323.22232142857143,337.12857142857143,4941.5]","[4230.9,4230.9,1780.2,2016.3,434.4,""smooth"",""down"",""down"",""good_move"",6796.5,2564.5,2012.5,4232,552,""smooth"",""down"",""down"",""good_move"",10247.5,3450.2,3004.3,6797.3,445.9,""smooth"",""right"",""right"",""good_move"",12761.9,2513.3,1901.7,10248.6,611.6,""smooth"",""right"",""right"",""good_move""]","",""
"4701","","<div style=""width:500px;"">
  <p>What determined the result of this run?</p>
  </div>","96","html-slider-response","49","1625080","0.0-10.0-1.2","55","1","2025-07-02 10:18:53","80fe4187154257d5fb01684ea91b68b9","216.120.189.119","Mozilla/5.0 (Windows NT 10.0; Win64; x64) AppleWebKit/537.36 (KHTML, like Gecko) Chrome/137.0.0.0 Safari/537.36","WebKit","Chrome","137.0.0.0","Windows","10.0","https://app.prolific.com/","en-US,en;q=0.9","669c1e1fdb95a995eb1d3077","683db6dfa200031b80f2a654","6865076e98b52b6e7bdefcbc","669c1e1fdb95a995eb1d3077","2025-07-02T10:46:03.413Z","","","","","","AttribQ","","","","","","","","","","","","","","","","","","","","","","","","","","","","","","","","","","","","","","50"
"1975","","<div style=""width:500px;"">
  <p>How much control did you have over the ball?</p>
  </div>","100","html-slider-response","50","1627058","0.0-10.0-2.2","55","1","2025-07-02 10:18:53","80fe4187154257d5fb01684ea91b68b9","216.120.189.119","Mozilla/5.0 (Windows NT 10.0; Win64; x64) AppleWebKit/537.36 (KHTML, like Gecko) Chrome/137.0.0.0 Safari/537.36","WebKit","Chrome","137.0.0.0","Windows","10.0","https://app.prolific.com/","en-US,en;q=0.9","669c1e1fdb95a995eb1d3077","683db6dfa200031b80f2a654","6865076e98b52b6e7bdefcbc","669c1e1fdb95a995eb1d3077","2025-07-02T10:46:05.391Z","","","","","","ControlQ","","","","","","","","","","","","","","","","","","","","","","","","","","","","","","","","","","","","","","50"
"3450","","<div style=""width:500px;"">
  <p>How would you describe your current emotional state?</p>
  </div>","0","html-slider-response","51","1630510","0.0-10.0-3.2","55","1","2025-07-02 10:18:53","80fe4187154257d5fb01684ea91b68b9","216.120.189.119","Mozilla/5.0 (Windows NT 10.0; Win64; x64) AppleWebKit/537.36 (KHTML, like Gecko) Chrome/137.0.0.0 Safari/537.36","WebKit","Chrome","137.0.0.0","Windows","10.0","https://app.prolific.com/","en-US,en;q=0.9","669c1e1fdb95a995eb1d3077","683db6dfa200031b80f2a654","6865076e98b52b6e7bdefcbc","669c1e1fdb95a995eb1d3077","2025-07-02T10:46:08.843Z","","","","","","StressQ","","","","","","","","","","","","","","","","","","","","","","","","","","","","","","","","","","","","","","50"
"3237","","<div style=""width:500px;"">
  <p>What best describes how you currently feel?</p>
  </div>","100","html-slider-response","52","1633748","0.0-10.0-4.2","55","1","2025-07-02 10:18:53","80fe4187154257d5fb01684ea91b68b9","216.120.189.119","Mozilla/5.0 (Windows NT 10.0; Win64; x64) AppleWebKit/537.36 (KHTML, like Gecko) Chrome/137.0.0.0 Safari/537.36","WebKit","Chrome","137.0.0.0","Windows","10.0","https://app.prolific.com/","en-US,en;q=0.9","669c1e1fdb95a995eb1d3077","683db6dfa200031b80f2a654","6865076e98b52b6e7bdefcbc","669c1e1fdb95a995eb1d3077","2025-07-02T10:46:12.082Z","","","","","","MotivationQ","","","","","","","","","","","","","","","","","","","","","","","","","","","","","","","","","","","","","","50"
"","","","","ctl-task-cpt","53","1670337","0.0-10.0-0.3","55","1","2025-07-02 10:18:53","80fe4187154257d5fb01684ea91b68b9","216.120.189.119","Mozilla/5.0 (Windows NT 10.0; Win64; x64) AppleWebKit/537.36 (KHTML, like Gecko) Chrome/137.0.0.0 Safari/537.36","WebKit","Chrome","137.0.0.0","Windows","10.0","https://app.prolific.com/","en-US,en;q=0.9","669c1e1fdb95a995eb1d3077","683db6dfa200031b80f2a654","6865076e98b52b6e7bdefcbc","669c1e1fdb95a995eb1d3077","2025-07-02T10:46:48.670Z","","","","","","","","","","","","","","","","win-only","0","g1:NW,g2:SE","0.7","4","0","1639324.5","1230.9","6246.6","33568.2","1","4","8","6","2","8","7","9","2","0.06818181818181818","5015.7","3000","555","[""down"",""right""]","{""num_key_presses"":8,""num_perfect"":5,""num_errors"":1,""num_randdir"":2,""num_randdir_good_moves"":2,""num_whilered"":0,""num_whileblue"":1,""num_blue"":3,""num_good_moves"":7}","[299.22232142857143,293.12857142857143,0.7,299.22232142857143,293.12857142857143,106.3,299.22232142857143,293.12857142857143,213.2,321.22232142857143,307.12857142857143,323.3,352.22232142857143,330.12857142857143,425.3,359.22232142857143,337.12857142857143,526.1,359.22232142857143,337.12857142857143,638.3,359.22232142857143,337.12857142857143,741,359.22232142857143,337.12857142857143,841.4,359.22232142857143,337.12857142857143,945,359.22232142857143,337.12857142857143,1045.4,359.22232142857143,337.12857142857143,1155.6,359.22232142857143,337.12857142857143,1256.2,359.22232142857143,337.12857142857143,1362.4,359.22232142857143,337.12857142857143,1467.1,359.22232142857143,337.12857142857143,1570.9,359.22232142857143,337.12857142857143,1671.1,359.22232142857143,337.12857142857143,1773.1,359.22232142857143,337.12857142857143,1875.2,359.22232142857143,337.12857142857143,1976,359.22232142857143,337.12857142857143,2095.8,359.22232142857143,337.12857142857143,2196.1,359.22232142857143,337.12857142857143,2301.7,359.22232142857143,337.12857142857143,2402.6,359.22232142857143,337.12857142857143,2505.9,359.22232142857143,337.12857142857143,2608.3,359.22232142857143,337.12857142857143,2712.1,359.22232142857143,337.12857142857143,2820.2,359.22232142857143,337.12857142857143,2921.6,359.22232142857143,337.12857142857143,3022,359.22232142857143,337.12857142857143,3125.7,359.22232142857143,337.12857142857143,3229.8,359.22232142857143,337.12857142857143,3332.2,359.22232142857143,337.12857142857143,3436.1,359.22232142857143,337.12857142857143,3540.7,359.22232142857143,337.12857142857143,3645.4,359.22232142857143,337.12857142857143,3745.9,359.22232142857143,337.12857142857143,3851.2,359.22232142857143,337.12857142857143,3961.5,359.22232142857143,337.12857142857143,4062.2,359.22232142857143,337.12857142857143,4169.7,359.22232142857143,337.12857142857143,4271.8,359.22232142857143,337.12857142857143,4375.3,359.22232142857143,337.12857142857143,4476.3,364.22232142857143,660.1285714285714,4576.3,418.22232142857143,683.1285714285714,4681.8,447.22232142857143,683.1285714285714,4785.7,507.22232142857143,617.1285714285714,4886.6,568.2223214285714,519.1285714285714,4990.9]","[4805,4804.9,2437.7,2017,350.3,""smooth"",""down"",""down"",""good_move"",10696.9,5890.8,2067.6,8146.2,483.1,""smooth"",""down"",""down"",""good_move"",13289.6,2592.4,2034,10697.2,558.4,""smooth"",""down"",""down"",""good_move"",16427.4,3137.2,2770.2,13290.3,366.9,""while_blue"",""right"",""left"",""bad_move"",19118.3,2690.3,2219.7,16428,470.6,""smooth"",""right"",""right"",""good_move"",21478,2358.5,1821.1,19119.5,537.4,""smooth"",""right"",""right"",""good_move"",24127,2648.2,2137.9,21478.8,510.3,""oops"",""right"",""right"",""good_move"",27146.4,3018.6,2465.4,24127.8,553.2,""oops"",""right"",""right"",""good_move""]","",""
"3281","","<div style=""width:500px;"">
  <p>What determined the result of this run?</p>
  </div>","100","html-slider-response","54","1673620","0.0-10.0-1.3","55","1","2025-07-02 10:18:53","80fe4187154257d5fb01684ea91b68b9","216.120.189.119","Mozilla/5.0 (Windows NT 10.0; Win64; x64) AppleWebKit/537.36 (KHTML, like Gecko) Chrome/137.0.0.0 Safari/537.36","WebKit","Chrome","137.0.0.0","Windows","10.0","https://app.prolific.com/","en-US,en;q=0.9","669c1e1fdb95a995eb1d3077","683db6dfa200031b80f2a654","6865076e98b52b6e7bdefcbc","669c1e1fdb95a995eb1d3077","2025-07-02T10:46:51.953Z","","","","","","AttribQ","","","","","","","","","","","","","","","","","","","","","","","","","","","","","","","","","","","","","","50"
"2960","","<div style=""width:500px;"">
  <p>How much control did you have over the ball?</p>
  </div>","100","html-slider-response","55","1676581","0.0-10.0-2.3","55","1","2025-07-02 10:18:53","80fe4187154257d5fb01684ea91b68b9","216.120.189.119","Mozilla/5.0 (Windows NT 10.0; Win64; x64) AppleWebKit/537.36 (KHTML, like Gecko) Chrome/137.0.0.0 Safari/537.36","WebKit","Chrome","137.0.0.0","Windows","10.0","https://app.prolific.com/","en-US,en;q=0.9","669c1e1fdb95a995eb1d3077","683db6dfa200031b80f2a654","6865076e98b52b6e7bdefcbc","669c1e1fdb95a995eb1d3077","2025-07-02T10:46:54.914Z","","","","","","ControlQ","","","","","","","","","","","","","","","","","","","","","","","","","","","","","","","","","","","","","","50"
"2042","","<div style=""width:500px;"">
  <p>How would you describe your current emotional state?</p>
  </div>","3","html-slider-response","56","1678625","0.0-10.0-3.3","55","1","2025-07-02 10:18:53","80fe4187154257d5fb01684ea91b68b9","216.120.189.119","Mozilla/5.0 (Windows NT 10.0; Win64; x64) AppleWebKit/537.36 (KHTML, like Gecko) Chrome/137.0.0.0 Safari/537.36","WebKit","Chrome","137.0.0.0","Windows","10.0","https://app.prolific.com/","en-US,en;q=0.9","669c1e1fdb95a995eb1d3077","683db6dfa200031b80f2a654","6865076e98b52b6e7bdefcbc","669c1e1fdb95a995eb1d3077","2025-07-02T10:46:56.959Z","","","","","","StressQ","","","","","","","","","","","","","","","","","","","","","","","","","","","","","","","","","","","","","","50"
"2111","","<div style=""width:500px;"">
  <p>What best describes how you currently feel?</p>
  </div>","100","html-slider-response","57","1680738","0.0-10.0-4.3","55","1","2025-07-02 10:18:53","80fe4187154257d5fb01684ea91b68b9","216.120.189.119","Mozilla/5.0 (Windows NT 10.0; Win64; x64) AppleWebKit/537.36 (KHTML, like Gecko) Chrome/137.0.0.0 Safari/537.36","WebKit","Chrome","137.0.0.0","Windows","10.0","https://app.prolific.com/","en-US,en;q=0.9","669c1e1fdb95a995eb1d3077","683db6dfa200031b80f2a654","6865076e98b52b6e7bdefcbc","669c1e1fdb95a995eb1d3077","2025-07-02T10:46:59.072Z","","","","","","MotivationQ","","","","","","","","","","","","","","","","","","","","","","","","","","","","","","","","","","","","","","50"
"","","","","ctl-task-cpt","58","1721252","0.0-10.0-0.4","55","1","2025-07-02 10:18:53","80fe4187154257d5fb01684ea91b68b9","216.120.189.119","Mozilla/5.0 (Windows NT 10.0; Win64; x64) AppleWebKit/537.36 (KHTML, like Gecko) Chrome/137.0.0.0 Safari/537.36","WebKit","Chrome","137.0.0.0","Windows","10.0","https://app.prolific.com/","en-US,en;q=0.9","669c1e1fdb95a995eb1d3077","683db6dfa200031b80f2a654","6865076e98b52b6e7bdefcbc","669c1e1fdb95a995eb1d3077","2025-07-02T10:47:39.585Z","","","","","","","","","","","","","","","","win-only","0","g1:NW,g2:SE","0.6","5","0","1686314.7","2967.4","7979.4","37502.1","1","4","4","6","2","4","4","13","9","0.09848484848484848","897.8","3000","70","[""down"",""right""]","{""num_key_presses"":10,""num_perfect"":6,""num_errors"":0,""num_randdir"":4,""num_randdir_good_moves"":2,""num_whilered"":0,""num_whileblue"":0,""num_blue"":0,""num_good_moves"":8}","[291.22232142857143,298.12857142857143,0.5,291.22232142857143,299.12857142857143,120.5,291.22232142857143,300.12857142857143,222.9,303.22232142857143,314.12857142857143,325.3,374.22232142857143,393.12857142857143,443,489.22232142857143,473.12857142857143,545,511.22232142857143,502.12857142857143,646.9,520.2223214285714,520.1285714285714,751.5,529.2223214285714,537.1285714285714,855.9,531.2223214285714,537.1285714285714,965.6,531.2223214285714,537.1285714285714,1066.8,530.2223214285714,535.1285714285714,1168.1,527.2223214285714,530.1285714285714,1270.6,514.2223214285714,530.1285714285714,1382.5,495.22232142857143,526.1285714285714,1493.4,485.22232142857143,519.1285714285714,1603.4,480.22232142857143,515.1285714285714,1722.7,475.22232142857143,512.1285714285714,1827,466.22232142857143,489.12857142857143,1931,466.22232142857143,489.12857142857143,2032.8,466.22232142857143,489.12857142857143,2140.5,466.22232142857143,489.12857142857143,2246.5,466.22232142857143,489.12857142857143,2349.6,466.22232142857143,489.12857142857143,2457.1,466.22232142857143,489.12857142857143,2559.8,466.22232142857143,489.12857142857143,2660.3,466.22232142857143,489.12857142857143,2765.6,466.22232142857143,489.12857142857143,2883.6,466.22232142857143,489.12857142857143,2984.3,466.22232142857143,489.12857142857143,3097.5,466.22232142857143,489.12857142857143,3198.8,466.22232142857143,489.12857142857143,3300.3,466.22232142857143,489.12857142857143,3404.8,466.22232142857143,489.12857142857143,3504.9,466.22232142857143,489.12857142857143,3604.9,466.22232142857143,489.12857142857143,3705.3,466.22232142857143,489.12857142857143,3810.2,466.22232142857143,489.12857142857143,3913,466.22232142857143,489.12857142857143,4013.7,466.22232142857143,489.12857142857143,4115.4,466.22232142857143,489.12857142857143,4216.8,466.22232142857143,489.12857142857143,4321.9,466.22232142857143,489.12857142857143,4425.7,466.22232142857143,489.12857142857143,4530,466.22232142857143,489.12857142857143,4632.4,466.22232142857143,489.12857142857143,4744.1,466.22232142857143,489.12857142857143,4849.7,466.22232142857143,489.12857142857143,4956.2]","[1386.6,1386.6,1000,0,386.6,""smooth"",""down"",""down"",""good_move"",4708.1,3320,2769.4,1388.1,550.6,""oops"",""down"",""right"",""good_move"",7489.4,2780.1,2295.8,4709.3,484.3,""oops"",""down"",""up"",""bad_move"",10340.9,2850.2,2340.8,7490.7,509.4,""smooth"",""down"",""down"",""good_move"",13597.2,3255.7,2807.2,10341.5,448.5,""smooth"",""down"",""down"",""good_move"",17328.9,3730.5,3330.6,13598.5,399.8,""oops"",""right"",""left"",""bad_move"",19877.5,2547.3,2027.4,17330.4,519.8,""oops"",""right"",""right"",""good_move"",23029.5,3151,2706.3,19878.5,444.7,""smooth"",""right"",""right"",""good_move"",26280.9,3250.7,2810.7,23030.3,440,""smooth"",""down"",""down"",""good_move"",29354.9,3073.1,2737.8,26281.8,335.3,""smooth"",""right"",""right"",""good_move""]","",""
"2574","","<div style=""width:500px;"">
  <p>What determined the result of this run?</p>
  </div>","100","html-slider-response","59","1723829","0.0-10.0-1.4","55","1","2025-07-02 10:18:53","80fe4187154257d5fb01684ea91b68b9","216.120.189.119","Mozilla/5.0 (Windows NT 10.0; Win64; x64) AppleWebKit/537.36 (KHTML, like Gecko) Chrome/137.0.0.0 Safari/537.36","WebKit","Chrome","137.0.0.0","Windows","10.0","https://app.prolific.com/","en-US,en;q=0.9","669c1e1fdb95a995eb1d3077","683db6dfa200031b80f2a654","6865076e98b52b6e7bdefcbc","669c1e1fdb95a995eb1d3077","2025-07-02T10:47:42.162Z","","","","","","AttribQ","","","","","","","","","","","","","","","","","","","","","","","","","","","","","","","","","","","","","","50"
"1949","","<div style=""width:500px;"">
  <p>How much control did you have over the ball?</p>
  </div>","100","html-slider-response","60","1725781","0.0-10.0-2.4","55","1","2025-07-02 10:18:53","80fe4187154257d5fb01684ea91b68b9","216.120.189.119","Mozilla/5.0 (Windows NT 10.0; Win64; x64) AppleWebKit/537.36 (KHTML, like Gecko) Chrome/137.0.0.0 Safari/537.36","WebKit","Chrome","137.0.0.0","Windows","10.0","https://app.prolific.com/","en-US,en;q=0.9","669c1e1fdb95a995eb1d3077","683db6dfa200031b80f2a654","6865076e98b52b6e7bdefcbc","669c1e1fdb95a995eb1d3077","2025-07-02T10:47:44.114Z","","","","","","ControlQ","","","","","","","","","","","","","","","","","","","","","","","","","","","","","","","","","","","","","","50"
"4772","","<div style=""width:500px;"">
  <p>How would you describe your current emotional state?</p>
  </div>","0","html-slider-response","61","1730554","0.0-10.0-3.4","55","1","2025-07-02 10:18:53","80fe4187154257d5fb01684ea91b68b9","216.120.189.119","Mozilla/5.0 (Windows NT 10.0; Win64; x64) AppleWebKit/537.36 (KHTML, like Gecko) Chrome/137.0.0.0 Safari/537.36","WebKit","Chrome","137.0.0.0","Windows","10.0","https://app.prolific.com/","en-US,en;q=0.9","669c1e1fdb95a995eb1d3077","683db6dfa200031b80f2a654","6865076e98b52b6e7bdefcbc","669c1e1fdb95a995eb1d3077","2025-07-02T10:47:48.888Z","","","","","","StressQ","","","","","","","","","","","","","","","","","","","","","","","","","","","","","","","","","","","","","","50"
"2676","","<div style=""width:500px;"">
  <p>What best describes how you currently feel?</p>
  </div>","100","html-slider-response","62","1733232","0.0-10.0-4.4","55","1","2025-07-02 10:18:53","80fe4187154257d5fb01684ea91b68b9","216.120.189.119","Mozilla/5.0 (Windows NT 10.0; Win64; x64) AppleWebKit/537.36 (KHTML, like Gecko) Chrome/137.0.0.0 Safari/537.36","WebKit","Chrome","137.0.0.0","Windows","10.0","https://app.prolific.com/","en-US,en;q=0.9","669c1e1fdb95a995eb1d3077","683db6dfa200031b80f2a654","6865076e98b52b6e7bdefcbc","669c1e1fdb95a995eb1d3077","2025-07-02T10:47:51.565Z","","","","","","MotivationQ","","","","","","","","","","","","","","","","","","","","","","","","","","","","","","","","","","","","","","50"
"","","","","ctl-task-cpt","63","1787374","0.0-10.0-0.5","55","1","2025-07-02 10:18:53","80fe4187154257d5fb01684ea91b68b9","216.120.189.119","Mozilla/5.0 (Windows NT 10.0; Win64; x64) AppleWebKit/537.36 (KHTML, like Gecko) Chrome/137.0.0.0 Safari/537.36","WebKit","Chrome","137.0.0.0","Windows","10.0","https://app.prolific.com/","en-US,en;q=0.9","669c1e1fdb95a995eb1d3077","683db6dfa200031b80f2a654","6865076e98b52b6e7bdefcbc","669c1e1fdb95a995eb1d3077","2025-07-02T10:48:45.707Z","","","","","","","","","","","","","","","","win-only","1","g1:NE,g2:SW","0.5","6","0","1738808.5","3885","8886.1","51112.6","1","4","8","6","2","-8","-8","5","13","0.03787878787878788","1126.3","3000","-1935","[""down"",""left""]","{""num_key_presses"":10,""num_perfect"":5,""num_errors"":0,""num_randdir"":5,""num_randdir_good_moves"":1,""num_whilered"":0,""num_whileblue"":0,""num_blue"":4,""num_good_moves"":5}","[298.22232142857143,298.12857142857143,0.4,297.22232142857143,298.12857142857143,109.8,297.22232142857143,298.12857142857143,211.7,297.22232142857143,298.12857142857143,324.9,307.22232142857143,312.12857142857143,449.8,313.22232142857143,341.12857142857143,551.2,141.22232142857143,564.1285714285714,656.3,74.22232142857143,608.1285714285714,759.8,65.22232142857143,607.1285714285714,860.7,45.222321428571426,575.1285714285714,976.7,47.222321428571426,545.1285714285714,1080,47.222321428571426,545.1285714285714,1189.6,49.222321428571426,541.1285714285714,1296.4,101.22232142857143,525.1285714285714,1399.2,234.22232142857143,492.12857142857143,1501.1,349.22232142857143,447.12857142857143,1602.1,360.22232142857143,408.12857142857143,1706.5,357.22232142857143,395.12857142857143,1830.7,356.22232142857143,391.12857142857143,1930.7,355.22232142857143,391.12857142857143,2039.8,355.22232142857143,391.12857142857143,2159.9,355.22232142857143,391.12857142857143,2275,355.22232142857143,391.12857142857143,2375.2,355.22232142857143,391.12857142857143,2476.3,355.22232142857143,391.12857142857143,2579.3,355.22232142857143,391.12857142857143,2688.4,355.22232142857143,391.12857142857143,2802.4,355.22232142857143,391.12857142857143,2910.9,355.22232142857143,391.12857142857143,3012.4,355.22232142857143,391.12857142857143,3116.7,355.22232142857143,391.12857142857143,3227.9,355.22232142857143,391.12857142857143,3332,355.22232142857143,391.12857142857143,3437,355.22232142857143,391.12857142857143,3552.4,355.22232142857143,391.12857142857143,3658,355.22232142857143,391.12857142857143,3760.2,355.22232142857143,391.12857142857143,3862.4,355.22232142857143,391.12857142857143,3966.6,355.22232142857143,391.12857142857143,4074.1,355.22232142857143,391.12857142857143,4176.9,355.22232142857143,391.12857142857143,4287.2,355.22232142857143,391.12857142857143,4389.1,355.22232142857143,391.12857142857143,4508.4,355.22232142857143,391.12857142857143,4627.2,355.22232142857143,391.12857142857143,4732.3,355.22232142857143,391.12857142857143,4833.9,355.22232142857143,391.12857142857143,4934.2]","[1450.3,1450.4,1000,0,450.4,""oops"",""down"",""up"",""bad_move"",7501.6,6050.1,2500.6,4511.9,489.1,""smooth"",""left"",""left"",""good_move"",10605.4,3102.8,2521.8,7502.6,581,""oops"",""left"",""left"",""good_move"",16925,6318.9,2523.3,13941.2,460.5,""smooth"",""down"",""down"",""good_move"",19942.6,3017,2543.2,16925.6,473.8,""smooth"",""down"",""down"",""good_move"",22570.4,2626.8,2101.5,19943.6,525.3,""smooth"",""left"",""left"",""good_move"",25482.6,2911.2,2468.7,22571.4,442.6,""oops"",""down"",""up"",""bad_move"",31946.8,6462.9,2239.2,29351.6,356,""oops"",""down"",""up"",""bad_move"",34306,2358.9,1867.3,31947.1,491.6,""oops"",""down"",""up"",""bad_move"",36903.4,2597.1,2144.6,34306.3,452.5,""smooth"",""right"",""right"",""bad_move""]","",""
"3957","","<div style=""width:500px;"">
  <p>What determined the result of this run?</p>
  </div>","99","html-slider-response","64","1791334","0.0-10.0-1.5","55","1","2025-07-02 10:18:53","80fe4187154257d5fb01684ea91b68b9","216.120.189.119","Mozilla/5.0 (Windows NT 10.0; Win64; x64) AppleWebKit/537.36 (KHTML, like Gecko) Chrome/137.0.0.0 Safari/537.36","WebKit","Chrome","137.0.0.0","Windows","10.0","https://app.prolific.com/","en-US,en;q=0.9","669c1e1fdb95a995eb1d3077","683db6dfa200031b80f2a654","6865076e98b52b6e7bdefcbc","669c1e1fdb95a995eb1d3077","2025-07-02T10:48:49.667Z","","","","","","AttribQ","","","","","","","","","","","","","","","","","","","","","","","","","","","","","","","","","","","","","","50"
"2891","","<div style=""width:500px;"">
  <p>How much control did you have over the ball?</p>
  </div>","57","html-slider-response","65","1794228","0.0-10.0-2.5","55","1","2025-07-02 10:18:53","80fe4187154257d5fb01684ea91b68b9","216.120.189.119","Mozilla/5.0 (Windows NT 10.0; Win64; x64) AppleWebKit/537.36 (KHTML, like Gecko) Chrome/137.0.0.0 Safari/537.36","WebKit","Chrome","137.0.0.0","Windows","10.0","https://app.prolific.com/","en-US,en;q=0.9","669c1e1fdb95a995eb1d3077","683db6dfa200031b80f2a654","6865076e98b52b6e7bdefcbc","669c1e1fdb95a995eb1d3077","2025-07-02T10:48:52.561Z","","","","","","ControlQ","","","","","","","","","","","","","","","","","","","","","","","","","","","","","","","","","","","","","","50"
"2652","","<div style=""width:500px;"">
  <p>How would you describe your current emotional state?</p>
  </div>","5","html-slider-response","66","1796882","0.0-10.0-3.5","55","1","2025-07-02 10:18:53","80fe4187154257d5fb01684ea91b68b9","216.120.189.119","Mozilla/5.0 (Windows NT 10.0; Win64; x64) AppleWebKit/537.36 (KHTML, like Gecko) Chrome/137.0.0.0 Safari/537.36","WebKit","Chrome","137.0.0.0","Windows","10.0","https://app.prolific.com/","en-US,en;q=0.9","669c1e1fdb95a995eb1d3077","683db6dfa200031b80f2a654","6865076e98b52b6e7bdefcbc","669c1e1fdb95a995eb1d3077","2025-07-02T10:48:55.215Z","","","","","","StressQ","","","","","","","","","","","","","","","","","","","","","","","","","","","","","","","","","","","","","","50"
"1910","","<div style=""width:500px;"">
  <p>What best describes how you currently feel?</p>
  </div>","100","html-slider-response","67","1798793","0.0-10.0-4.5","55","1","2025-07-02 10:18:53","80fe4187154257d5fb01684ea91b68b9","216.120.189.119","Mozilla/5.0 (Windows NT 10.0; Win64; x64) AppleWebKit/537.36 (KHTML, like Gecko) Chrome/137.0.0.0 Safari/537.36","WebKit","Chrome","137.0.0.0","Windows","10.0","https://app.prolific.com/","en-US,en;q=0.9","669c1e1fdb95a995eb1d3077","683db6dfa200031b80f2a654","6865076e98b52b6e7bdefcbc","669c1e1fdb95a995eb1d3077","2025-07-02T10:48:57.126Z","","","","","","MotivationQ","","","","","","","","","","","","","","","","","","","","","","","","","","","","","","","","","","","","","","50"
"","","","","ctl-task-cpt","68","1862711","0.0-10.0-0.6","55","1","2025-07-02 10:18:53","80fe4187154257d5fb01684ea91b68b9","216.120.189.119","Mozilla/5.0 (Windows NT 10.0; Win64; x64) AppleWebKit/537.36 (KHTML, like Gecko) Chrome/137.0.0.0 Safari/537.36","WebKit","Chrome","137.0.0.0","Windows","10.0","https://app.prolific.com/","en-US,en;q=0.9","669c1e1fdb95a995eb1d3077","683db6dfa200031b80f2a654","6865076e98b52b6e7bdefcbc","669c1e1fdb95a995eb1d3077","2025-07-02T10:50:01.045Z","","","","","","","","","","","","","","","","win-only","3","g1:SW,g2:NE","0.4","7","0","1804369.5","6204.2","11210.6","60892.8","1","4","8","6","2","-8","-12","0","5","0","1243.7","3000","-1010","[""up"",""right""]","{""num_key_presses"":16,""num_perfect"":5,""num_errors"":4,""num_randdir"":7,""num_randdir_good_moves"":2,""num_whilered"":0,""num_whileblue"":4,""num_blue"":4,""num_good_moves"":9}","[301.22232142857143,302.12857142857143,0.8,300.22232142857143,302.12857142857143,105.9,298.22232142857143,299.12857142857143,209.5,296.22232142857143,299.12857142857143,317,258.22232142857143,330.12857142857143,426.7,238.22232142857143,361.12857142857143,528.3,397.22232142857143,246.12857142857143,646.7,652.2223214285714,81.12857142857143,748.1,590.2223214285714,-8.871428571428574,863.1,569.2223214285714,-5.871428571428574,974.2,541.2223214285714,38.128571428571426,1077.8,537.2223214285714,52.128571428571426,1178.3,537.2223214285714,53.128571428571426,1281.6,539.2223214285714,53.128571428571426,1391.6,540.2223214285714,75.12857142857143,1493.4,477.22232142857143,145.12857142857143,1595.1,416.22232142857143,195.12857142857143,1709.3,392.22232142857143,206.12857142857143,1813.1,388.22232142857143,209.12857142857143,1919,388.22232142857143,209.12857142857143,2021.8,388.22232142857143,209.12857142857143,2122.4,388.22232142857143,209.12857142857143,2236.3,388.22232142857143,209.12857142857143,2337.3,388.22232142857143,209.12857142857143,2439.5,388.22232142857143,209.12857142857143,2547,388.22232142857143,209.12857142857143,2650.5,388.22232142857143,209.12857142857143,2756.1,388.22232142857143,209.12857142857143,2865.6,388.22232142857143,209.12857142857143,2975.3,388.22232142857143,209.12857142857143,3078.4,388.22232142857143,209.12857142857143,3184.9,388.22232142857143,209.12857142857143,3286.7,388.22232142857143,209.12857142857143,3399.3,388.22232142857143,209.12857142857143,3508.3,388.22232142857143,209.12857142857143,3624.1,388.22232142857143,209.12857142857143,3724.5,388.22232142857143,209.12857142857143,3843.1,388.22232142857143,209.12857142857143,3949.1,388.22232142857143,209.12857142857143,4062.9,388.22232142857143,209.12857142857143,4169.8,388.22232142857143,209.12857142857143,4273.7,388.22232142857143,209.12857142857143,4377.5,388.22232142857143,209.12857142857143,4479.8,388.22232142857143,209.12857142857143,4582.7,388.22232142857143,209.12857142857143,4684.6,388.22232142857143,209.12857142857143,4789,388.22232142857143,209.12857142857143,4908.8]","[1470,1470,1000,0,470,""oops"",""up"",""left"",""bad_move"",3917.5,2446.6,2012.5,1471,434,""smooth"",""right"",""right"",""good_move"",7423.5,3504.9,3024.4,3918.8,480.4,""oops"",""right"",""left"",""bad_move"",10976.3,3552,3080.2,7424.3,471.8,""oops"",""right"",""left"",""bad_move"",13798.9,2821.8,2394.6,10977.1,427.2,""oops"",""up"",""down"",""bad_move"",16846.7,3046.7,2664.5,13800.1,382.1,""while_blue"",""right"",""down"",""bad_move"",20504,3654.5,2626,16849.9,1028.1,""smooth"",""up"",""up"",""good_move"",23198.6,2693.5,2280.9,20505.1,412.6,""smooth"",""up"",""up"",""good_move"",25796,2596.6,1776.2,23199.5,820.4,""smooth"",""up"",""up"",""good_move"",29019.5,3220.9,2614.2,25798.7,606.6,""oops"",""up"",""right"",""good_move"",32084,3063.7,2429.6,29020.3,634.1,""oops"",""up"",""right"",""good_move"",34967.3,2882.8,2327.2,32084.5,555.6,""oops"",""up"",""down"",""bad_move"",37822.8,2854.7,2248.8,34968.1,605.9,""smooth"",""up"",""up"",""good_move"",40649.2,2825.7,2259.7,37823.5,566,""while_blue"",""up"",""right"",""good_move"",43507.2,2857.4,2344.5,40649.8,512.9,""while_blue"",""up"",""down"",""bad_move"",46425,2917.2,2293.3,43507.9,623.9,""while_blue"",""up"",""right"",""good_move""]","",""
"18677","","<div style=""width:500px;"">
  <p>What determined the result of this run?</p>
  </div>","100","html-slider-response","69","1881395","0.0-10.0-1.6","55","1","2025-07-02 10:18:53","80fe4187154257d5fb01684ea91b68b9","216.120.189.119","Mozilla/5.0 (Windows NT 10.0; Win64; x64) AppleWebKit/537.36 (KHTML, like Gecko) Chrome/137.0.0.0 Safari/537.36","WebKit","Chrome","137.0.0.0","Windows","10.0","https://app.prolific.com/","en-US,en;q=0.9","669c1e1fdb95a995eb1d3077","683db6dfa200031b80f2a654","6865076e98b52b6e7bdefcbc","669c1e1fdb95a995eb1d3077","2025-07-02T10:50:19.728Z","","","","","","AttribQ","","","","","","","","","","","","","","","","","","","","","","","","","","","","","","","","","","","","","","50"
"3217","","<div style=""width:500px;"">
  <p>How much control did you have over the ball?</p>
  </div>","100","html-slider-response","70","1884615","0.0-10.0-2.6","55","1","2025-07-02 10:18:53","80fe4187154257d5fb01684ea91b68b9","216.120.189.119","Mozilla/5.0 (Windows NT 10.0; Win64; x64) AppleWebKit/537.36 (KHTML, like Gecko) Chrome/137.0.0.0 Safari/537.36","WebKit","Chrome","137.0.0.0","Windows","10.0","https://app.prolific.com/","en-US,en;q=0.9","669c1e1fdb95a995eb1d3077","683db6dfa200031b80f2a654","6865076e98b52b6e7bdefcbc","669c1e1fdb95a995eb1d3077","2025-07-02T10:50:22.948Z","","","","","","ControlQ","","","","","","","","","","","","","","","","","","","","","","","","","","","","","","","","","","","","","","50"
"3884","","<div style=""width:500px;"">
  <p>How would you describe your current emotional state?</p>
  </div>","0","html-slider-response","71","1888501","0.0-10.0-3.6","55","1","2025-07-02 10:18:53","80fe4187154257d5fb01684ea91b68b9","216.120.189.119","Mozilla/5.0 (Windows NT 10.0; Win64; x64) AppleWebKit/537.36 (KHTML, like Gecko) Chrome/137.0.0.0 Safari/537.36","WebKit","Chrome","137.0.0.0","Windows","10.0","https://app.prolific.com/","en-US,en;q=0.9","669c1e1fdb95a995eb1d3077","683db6dfa200031b80f2a654","6865076e98b52b6e7bdefcbc","669c1e1fdb95a995eb1d3077","2025-07-02T10:50:26.835Z","","","","","","StressQ","","","","","","","","","","","","","","","","","","","","","","","","","","","","","","","","","","","","","","50"
"2680","","<div style=""width:500px;"">
  <p>What best describes how you currently feel?</p>
  </div>","100","html-slider-response","72","1891185","0.0-10.0-4.6","55","1","2025-07-02 10:18:53","80fe4187154257d5fb01684ea91b68b9","216.120.189.119","Mozilla/5.0 (Windows NT 10.0; Win64; x64) AppleWebKit/537.36 (KHTML, like Gecko) Chrome/137.0.0.0 Safari/537.36","WebKit","Chrome","137.0.0.0","Windows","10.0","https://app.prolific.com/","en-US,en;q=0.9","669c1e1fdb95a995eb1d3077","683db6dfa200031b80f2a654","6865076e98b52b6e7bdefcbc","669c1e1fdb95a995eb1d3077","2025-07-02T10:50:29.518Z","","","","","","MotivationQ","","","","","","","","","","","","","","","","","","","","","","","","","","","","","","","","","","","","","","50"
"","","","","ctl-task-cpt","73","1984751","0.0-10.0-0.7","55","1","2025-07-02 10:18:53","80fe4187154257d5fb01684ea91b68b9","216.120.189.119","Mozilla/5.0 (Windows NT 10.0; Win64; x64) AppleWebKit/537.36 (KHTML, like Gecko) Chrome/137.0.0.0 Safari/537.36","WebKit","Chrome","137.0.0.0","Windows","10.0","https://app.prolific.com/","en-US,en;q=0.9","669c1e1fdb95a995eb1d3077","683db6dfa200031b80f2a654","6865076e98b52b6e7bdefcbc","669c1e1fdb95a995eb1d3077","2025-07-02T10:52:03.084Z","","","","","","","","","","","","","","","","win-only","2","g1:SE,g2:NW","0.3","8","0","1896762.8","1312.8","6316.7","90529.3","1","4","4","6","2","-4","-4","0","0","0","1216.5","3000","-1685","[""left"",""up""]","{""num_key_presses"":15,""num_perfect"":5,""num_errors"":0,""num_randdir"":10,""num_randdir_good_moves"":2,""num_whilered"":0,""num_whileblue"":0,""num_blue"":7,""num_good_moves"":7}","[291.22232142857143,295.12857142857143,0.3,291.22232142857143,295.12857142857143,117.1,291.22232142857143,295.12857142857143,232.7,292.22232142857143,294.12857142857143,352.6,294.22232142857143,293.12857142857143,476.6,193.22232142857143,247.12857142857143,611.4,-43.777678571428574,54.128571428571426,721.9,-41.777678571428574,45.128571428571426,825.7,-21.777678571428574,40.128571428571426,929.3,18.222321428571426,44.128571428571426,1050.4,42.222321428571426,51.128571428571426,1156.3,42.222321428571426,51.128571428571426,1259.3,46.222321428571426,52.128571428571426,1365.8,75.22232142857143,71.12857142857143,1469,336.22232142857143,215.12857142857143,1573.8,476.22232142857143,263.12857142857143,1679.2,476.22232142857143,263.12857142857143,1801.5,476.22232142857143,263.12857142857143,1923.3,476.22232142857143,263.12857142857143,2043.9,476.22232142857143,263.12857142857143,2167.4,476.22232142857143,263.12857142857143,2289.2,476.22232142857143,263.12857142857143,2407,476.22232142857143,263.12857142857143,2528.9,476.22232142857143,263.12857142857143,2653.1,476.22232142857143,263.12857142857143,2775.2,476.22232142857143,263.12857142857143,2896.1,476.22232142857143,263.12857142857143,3014.6,476.22232142857143,263.12857142857143,3117.6,476.22232142857143,263.12857142857143,3240.7,476.22232142857143,263.12857142857143,3352.8,476.22232142857143,263.12857142857143,3472.9,476.22232142857143,263.12857142857143,3585.6,476.22232142857143,263.12857142857143,3707.5,476.22232142857143,263.12857142857143,3827.5,476.22232142857143,263.12857142857143,3928.8,476.22232142857143,263.12857142857143,4039.7,476.22232142857143,263.12857142857143,4150.8,476.22232142857143,263.12857142857143,4274.9,476.22232142857143,263.12857142857143,4377.7,476.22232142857143,263.12857142857143,4504.7,476.22232142857143,263.12857142857143,4613.8,476.22232142857143,263.12857142857143,4727.1,476.22232142857143,263.12857142857143,4845.2,476.22232142857143,263.12857142857143,4956.2]","[1475.7,1475.7,1000,0,475.7,""oops"",""up"",""up"",""good_move"",6397.3,4921.1,2901.4,1476.2,2019.7,""oops"",""up"",""down"",""bad_move"",9757.4,3359.5,2753.1,6397.9,606.4,""oops"",""left"",""down"",""bad_move"",16655.6,6897.8,2585.6,13502,568,""oops"",""up"",""down"",""bad_move"",26570.1,9913.9,3041.1,23015.6,513.4,""smooth"",""left"",""left"",""good_move"",32306,5735.2,2377.9,26570.8,3357.3,""oops"",""left"",""right"",""bad_move"",35489.4,3182.8,2030.4,32306.6,1152.4,""smooth"",""up"",""up"",""good_move"",41080.4,5590.2,3797,35490.2,1793.2,""smooth"",""up"",""up"",""good_move"",53344.5,12263.6,2395.5,50351.3,597.7,""oops"",""left"",""down"",""bad_move"",56749.3,3404.4,2345.5,53344.9,1058.9,""oops"",""up"",""left"",""good_move"",62340.3,5590.6,2547.6,56749.7,3043,""smooth"",""up"",""up"",""good_move"",65873.4,3532.3,3013.6,62341.1,518.7,""smooth"",""up"",""up"",""good_move"",69303,3428.8,2860.2,65874.2,568.6,""oops"",""left"",""down"",""bad_move"",78009.8,8705.7,1916,75631.5,462.3,""oops"",""up"",""right"",""bad_move"",81304.2,3293.5,2053.6,78010.7,1239.9,""oops"",""up"",""down"",""bad_move""]","",""
"3168","","<div style=""width:500px;"">
  <p>What determined the result of this run?</p>
  </div>","100","html-slider-response","74","1987922","0.0-10.0-1.7","55","1","2025-07-02 10:18:53","80fe4187154257d5fb01684ea91b68b9","216.120.189.119","Mozilla/5.0 (Windows NT 10.0; Win64; x64) AppleWebKit/537.36 (KHTML, like Gecko) Chrome/137.0.0.0 Safari/537.36","WebKit","Chrome","137.0.0.0","Windows","10.0","https://app.prolific.com/","en-US,en;q=0.9","669c1e1fdb95a995eb1d3077","683db6dfa200031b80f2a654","6865076e98b52b6e7bdefcbc","669c1e1fdb95a995eb1d3077","2025-07-02T10:52:06.256Z","","","","","","AttribQ","","","","","","","","","","","","","","","","","","","","","","","","","","","","","","","","","","","","","","50"
"2607","","<div style=""width:500px;"">
  <p>How much control did you have over the ball?</p>
  </div>","100","html-slider-response","75","1990532","0.0-10.0-2.7","55","1","2025-07-02 10:18:53","80fe4187154257d5fb01684ea91b68b9","216.120.189.119","Mozilla/5.0 (Windows NT 10.0; Win64; x64) AppleWebKit/537.36 (KHTML, like Gecko) Chrome/137.0.0.0 Safari/537.36","WebKit","Chrome","137.0.0.0","Windows","10.0","https://app.prolific.com/","en-US,en;q=0.9","669c1e1fdb95a995eb1d3077","683db6dfa200031b80f2a654","6865076e98b52b6e7bdefcbc","669c1e1fdb95a995eb1d3077","2025-07-02T10:52:08.865Z","","","","","","ControlQ","","","","","","","","","","","","","","","","","","","","","","","","","","","","","","","","","","","","","","50"
"1848","","<div style=""width:500px;"">
  <p>How would you describe your current emotional state?</p>
  </div>","2","html-slider-response","76","1992383","0.0-10.0-3.7","55","1","2025-07-02 10:18:53","80fe4187154257d5fb01684ea91b68b9","216.120.189.119","Mozilla/5.0 (Windows NT 10.0; Win64; x64) AppleWebKit/537.36 (KHTML, like Gecko) Chrome/137.0.0.0 Safari/537.36","WebKit","Chrome","137.0.0.0","Windows","10.0","https://app.prolific.com/","en-US,en;q=0.9","669c1e1fdb95a995eb1d3077","683db6dfa200031b80f2a654","6865076e98b52b6e7bdefcbc","669c1e1fdb95a995eb1d3077","2025-07-02T10:52:10.716Z","","","","","","StressQ","","","","","","","","","","","","","","","","","","","","","","","","","","","","","","","","","","","","","","50"
"3123","","<div style=""width:500px;"">
  <p>What best describes how you currently feel?</p>
  </div>","100","html-slider-response","77","1995510","0.0-10.0-4.7","55","1","2025-07-02 10:18:53","80fe4187154257d5fb01684ea91b68b9","216.120.189.119","Mozilla/5.0 (Windows NT 10.0; Win64; x64) AppleWebKit/537.36 (KHTML, like Gecko) Chrome/137.0.0.0 Safari/537.36","WebKit","Chrome","137.0.0.0","Windows","10.0","https://app.prolific.com/","en-US,en;q=0.9","669c1e1fdb95a995eb1d3077","683db6dfa200031b80f2a654","6865076e98b52b6e7bdefcbc","669c1e1fdb95a995eb1d3077","2025-07-02T10:52:13.843Z","","","","","","MotivationQ","","","","","","","","","","","","","","","","","","","","","","","","","","","","","","","","","","","","","","50"
"","","","","ctl-task-cpt","78","2083619","0.0-10.0-0.8","55","1","2025-07-02 10:18:53","80fe4187154257d5fb01684ea91b68b9","216.120.189.119","Mozilla/5.0 (Windows NT 10.0; Win64; x64) AppleWebKit/537.36 (KHTML, like Gecko) Chrome/137.0.0.0 Safari/537.36","WebKit","Chrome","137.0.0.0","Windows","10.0","https://app.prolific.com/","en-US,en;q=0.9","669c1e1fdb95a995eb1d3077","683db6dfa200031b80f2a654","6865076e98b52b6e7bdefcbc","669c1e1fdb95a995eb1d3077","2025-07-02T10:53:41.952Z","","","","","","","","","","","","","","","","win-only","1","g1:NE,g2:SW","0.4","9","0","2001088","2603.2","7614","85090.4","1","4","8","6","2","-8","-8","0","0","0","1391.5","3000","-1185","[""down"",""left""]","{""num_key_presses"":18,""num_perfect"":8,""num_errors"":0,""num_randdir"":10,""num_randdir_good_moves"":3,""num_whilered"":0,""num_whileblue"":0,""num_blue"":3,""num_good_moves"":11}","[295.22232142857143,293.12857142857143,0.9,295.22232142857143,293.12857142857143,110,294.22232142857143,293.12857142857143,217.4,294.22232142857143,293.12857142857143,332.3,295.22232142857143,290.12857142857143,467.5,299.22232142857143,289.12857142857143,577.2,381.22232142857143,296.12857142857143,687,378.22232142857143,283.12857142857143,802.6,114.22232142857143,502.12857142857143,909.7,50.222321428571426,553.1285714285714,1023.3,43.222321428571426,556.1285714285714,1135.8,41.222321428571426,549.1285714285714,1249.7,42.222321428571426,545.1285714285714,1364.4,42.222321428571426,544.1285714285714,1482.9,47.222321428571426,537.1285714285714,1592.6,264.22232142857143,375.12857142857143,1710.4,329.22232142857143,317.12857142857143,1819.9,329.22232142857143,317.12857142857143,1930.6,329.22232142857143,317.12857142857143,2038.4,329.22232142857143,317.12857142857143,2149.7,329.22232142857143,317.12857142857143,2254.8,329.22232142857143,317.12857142857143,2369.2,329.22232142857143,317.12857142857143,2480.1,329.22232142857143,317.12857142857143,2585.3,329.22232142857143,317.12857142857143,2693.4,329.22232142857143,317.12857142857143,2800,329.22232142857143,317.12857142857143,2905,329.22232142857143,317.12857142857143,3014.2,329.22232142857143,317.12857142857143,3131.3,329.22232142857143,317.12857142857143,3236.7,329.22232142857143,317.12857142857143,3352.2,329.22232142857143,317.12857142857143,3460.2,329.22232142857143,317.12857142857143,3564.6,329.22232142857143,317.12857142857143,3670,329.22232142857143,317.12857142857143,3781.7,329.22232142857143,317.12857142857143,3886.9,329.22232142857143,317.12857142857143,3996.7,329.22232142857143,317.12857142857143,4109.3,329.22232142857143,317.12857142857143,4214.9,329.22232142857143,317.12857142857143,4330,329.22232142857143,317.12857142857143,4435.4,329.22232142857143,317.12857142857143,4541,329.22232142857143,317.12857142857143,4649.3,329.22232142857143,317.12857142857143,4755.1,329.22232142857143,317.12857142857143,4863.5,329.22232142857143,317.12857142857143,4970.7]","[4788.1,4788.1,2243.2,2024.8,520.1,""oops"",""down"",""up"",""bad_move"",9932.2,5143,2177.1,4789.2,2965.9,""smooth"",""left"",""left"",""good_move"",15059.7,5125.3,2039.1,9934.4,3086.2,""smooth"",""down"",""down"",""good_move"",18428.9,3368.5,2857.9,15060.4,510.6,""smooth"",""left"",""left"",""good_move"",23694.2,5264.8,3079.3,18429.4,2185.5,""oops"",""down"",""left"",""good_move"",28946.4,5251.4,2341.5,23695,2909.9,""oops"",""down"",""up"",""bad_move"",34439.2,5492.4,2365.8,28946.8,3126.6,""smooth"",""down"",""down"",""good_move"",37046.2,2606.7,1922.2,34439.5,684.5,""oops"",""down"",""up"",""bad_move"",39850,2802.9,2247.2,37047.1,555.8,""oops"",""down"",""down"",""good_move"",42745.7,2894.8,2447.7,39850.9,447.1,""oops"",""right"",""right"",""bad_move"",46319.5,3572.6,3024.8,42746.9,547.8,""smooth"",""down"",""down"",""good_move"",48882.1,2561.7,1944.8,46320.5,616.8,""smooth"",""left"",""left"",""good_move"",52401.5,3518.6,2240.2,48882.9,1278.4,""smooth"",""down"",""down"",""good_move"",55795.9,3393.7,2886.4,52402.2,507.3,""oops"",""right"",""up"",""bad_move"",58663.3,2866.5,2296.7,55796.9,569.7,""smooth"",""down"",""down"",""good_move"",61583.6,2919.6,2355.4,58664,564.2,""oops"",""down"",""up"",""bad_move"",67500.3,5915.8,1856,65078.4,565.9,""oops"",""down"",""right"",""bad_move"",70426.4,2925.2,2407.1,67501.3,518,""oops"",""down"",""down"",""good_move""]","",""
"5303","","<div style=""width:500px;"">
  <p>What determined the result of this run?</p>
  </div>","100","html-slider-response","79","2088926","0.0-10.0-1.8","55","1","2025-07-02 10:18:53","80fe4187154257d5fb01684ea91b68b9","216.120.189.119","Mozilla/5.0 (Windows NT 10.0; Win64; x64) AppleWebKit/537.36 (KHTML, like Gecko) Chrome/137.0.0.0 Safari/537.36","WebKit","Chrome","137.0.0.0","Windows","10.0","https://app.prolific.com/","en-US,en;q=0.9","669c1e1fdb95a995eb1d3077","683db6dfa200031b80f2a654","6865076e98b52b6e7bdefcbc","669c1e1fdb95a995eb1d3077","2025-07-02T10:53:47.259Z","","","","","","AttribQ","","","","","","","","","","","","","","","","","","","","","","","","","","","","","","","","","","","","","","50"
"2169","","<div style=""width:500px;"">
  <p>How much control did you have over the ball?</p>
  </div>","100","html-slider-response","80","2091098","0.0-10.0-2.8","55","1","2025-07-02 10:18:53","80fe4187154257d5fb01684ea91b68b9","216.120.189.119","Mozilla/5.0 (Windows NT 10.0; Win64; x64) AppleWebKit/537.36 (KHTML, like Gecko) Chrome/137.0.0.0 Safari/537.36","WebKit","Chrome","137.0.0.0","Windows","10.0","https://app.prolific.com/","en-US,en;q=0.9","669c1e1fdb95a995eb1d3077","683db6dfa200031b80f2a654","6865076e98b52b6e7bdefcbc","669c1e1fdb95a995eb1d3077","2025-07-02T10:53:49.431Z","","","","","","ControlQ","","","","","","","","","","","","","","","","","","","","","","","","","","","","","","","","","","","","","","50"
"3297","","<div style=""width:500px;"">
  <p>How would you describe your current emotional state?</p>
  </div>","29","html-slider-response","81","2094397","0.0-10.0-3.8","55","1","2025-07-02 10:18:53","80fe4187154257d5fb01684ea91b68b9","216.120.189.119","Mozilla/5.0 (Windows NT 10.0; Win64; x64) AppleWebKit/537.36 (KHTML, like Gecko) Chrome/137.0.0.0 Safari/537.36","WebKit","Chrome","137.0.0.0","Windows","10.0","https://app.prolific.com/","en-US,en;q=0.9","669c1e1fdb95a995eb1d3077","683db6dfa200031b80f2a654","6865076e98b52b6e7bdefcbc","669c1e1fdb95a995eb1d3077","2025-07-02T10:53:52.730Z","","","","","","StressQ","","","","","","","","","","","","","","","","","","","","","","","","","","","","","","","","","","","","","","50"
"5441","","<div style=""width:500px;"">
  <p>What best describes how you currently feel?</p>
  </div>","73","html-slider-response","82","2099841","0.0-10.0-4.8","55","1","2025-07-02 10:18:53","80fe4187154257d5fb01684ea91b68b9","216.120.189.119","Mozilla/5.0 (Windows NT 10.0; Win64; x64) AppleWebKit/537.36 (KHTML, like Gecko) Chrome/137.0.0.0 Safari/537.36","WebKit","Chrome","137.0.0.0","Windows","10.0","https://app.prolific.com/","en-US,en;q=0.9","669c1e1fdb95a995eb1d3077","683db6dfa200031b80f2a654","6865076e98b52b6e7bdefcbc","669c1e1fdb95a995eb1d3077","2025-07-02T10:53:58.174Z","","","","","","MotivationQ","","","","","","","","","","","","","","","","","","","","","","","","","","","","","","","","","","","","","","50"
