"rt","response_timestamp","stimulus","response","trial_type","trial_index","time_elapsed","internal_node_id","run_id","condition","recorded_at","source_code_version","ip","user_agent","device","browser","browser_version","platform","platform_version","referer","accept_language","PROLIFIC_PID","STUDY_ID","SESSION_ID","prolific_id","realtime","view_history","question_order","consent","success","question_id","eventType","responses","item_order","radio_event_ids","radio_event_times","key_event_times","mouse_event_times","straightlining","zigzagging","honeypot","which_type","canvas_config","goals_layout","control_level","trial_number","tutorial_trial_number","trial_start_time","phase1_start_time","phase2_start_time","phase3_start_time","goal_1_value","goal_1_distance","goal_2_value","goal_2_distance","goal_selected","outcome","outcome_total","participant_final_score","participant_initial_score","participant_final_score_prop","goal_choice_rt","allocated_time","allocated_time_remaining","goal_direction","counts","mouse_movements","key_presses","correct","slider_start"
"22354","1751451602781","<p style='font-size:40px;line-height:1.25'><strong>Welcome to the experiment!</strong></p><p style='font-size:1.1em;line-height:1.25'>Thank you for your interest in our experiment! Before you begin, it is important that we obtain your informed consent to participate in the study.</p><p style='font-size:1.1em;line-height:1.25'>On the next screen will be an <strong>information sheet</strong> for you to read. To participate in the study we need you to read this information sheet and the following consent form carefully. If you agree with all the statements, please click the <strong>I agree</strong> button.</p><p style='font-size:1.1em;line-height:1.25'>Press <strong>Next</strong> to read the information sheet.</p>","0","custom-html-button-response","0","22361","0.0-0.0","110","1","2025-07-02 10:19:36","80fe4187154257d5fb01684ea91b68b9","105.19.62.19","Mozilla/5.0 (Windows NT 10.0; Win64; x64) AppleWebKit/537.36 (KHTML, like Gecko) Chrome/138.0.0.0 Safari/537.36","WebKit","Chrome","138.0.0.0","Windows","10.0","https://app.prolific.com/","en-US,en;q=0.9,zu;q=0.8","66a79fce251c3b3fedb04d16","683db6dfa200031b80f2a654","68650770fb684adb34842efd","66a79fce251c3b3fedb04d16","2025-07-02T10:20:02.784Z","","","","","","","","","","","","","","","","","","","","","","","","","","","","","","","","","","","","","","","","","","","",""
"361759","","","","instructions","1","384133","0.0-1.0","110","1","2025-07-02 10:19:36","80fe4187154257d5fb01684ea91b68b9","105.19.62.19","Mozilla/5.0 (Windows NT 10.0; Win64; x64) AppleWebKit/537.36 (KHTML, like Gecko) Chrome/138.0.0.0 Safari/537.36","WebKit","Chrome","138.0.0.0","Windows","10.0","https://app.prolific.com/","en-US,en;q=0.9,zu;q=0.8","66a79fce251c3b3fedb04d16","683db6dfa200031b80f2a654","68650770fb684adb34842efd","66a79fce251c3b3fedb04d16","","[{""page_index"":0,""viewing_time"":248961},{""page_index"":1,""viewing_time"":112796}]","","","","","","","","","","","","","","","","","","","","","","","","","","","","","","","","","","","","","","","","","","",""
"22221","","","{""Q0"":"""",""Q1"":"""",""Q2"":"""",""Q3"":"""",""Q4"":"""",""Q5"":"""",""Q6"":""I agree""}","survey-multi-choice","2","406365","0.0-2.0","110","1","2025-07-02 10:19:36","80fe4187154257d5fb01684ea91b68b9","105.19.62.19","Mozilla/5.0 (Windows NT 10.0; Win64; x64) AppleWebKit/537.36 (KHTML, like Gecko) Chrome/138.0.0.0 Safari/537.36","WebKit","Chrome","138.0.0.0","Windows","10.0","https://app.prolific.com/","en-US,en;q=0.9,zu;q=0.8","66a79fce251c3b3fedb04d16","683db6dfa200031b80f2a654","68650770fb684adb34842efd","66a79fce251c3b3fedb04d16","","","[0,1,2,3,4,5,6]","true","","","","","","","","","","","","","","","","","","","","","","","","","","","","","","","","","","","","","","","","",""
"29369","","","","fullscreen","3","436751","0.0-4.0","110","1","2025-07-02 10:19:36","80fe4187154257d5fb01684ea91b68b9","105.19.62.19","Mozilla/5.0 (Windows NT 10.0; Win64; x64) AppleWebKit/537.36 (KHTML, like Gecko) Chrome/138.0.0.0 Safari/537.36","WebKit","Chrome","138.0.0.0","Windows","10.0","https://app.prolific.com/","en-US,en;q=0.9,zu;q=0.8","66a79fce251c3b3fedb04d16","683db6dfa200031b80f2a654","68650770fb684adb34842efd","66a79fce251c3b3fedb04d16","","","","","true","","","","","","","","","","","","","","","","","","","","","","","","","","","","","","","","","","","","","","","",""
"10192","1751452027367"," <p style='font-size:1.1em;line-height:1.25'>Thank you for completing the consent form and closing all other tabs.</p><p style='font-size:1.1em;line-height:1.25'>We will now invite you to fill in some demographic information and questionnaires, before starting the game.<br>This will take about 5 minutes.<br></p><p style='font-size:1.1em;line-height:1.25'>Press the <strong>Next</strong> button to continue.</p>","0","custom-html-button-response","4","446946","0.0-5.0","110","1","2025-07-02 10:19:36","80fe4187154257d5fb01684ea91b68b9","105.19.62.19","Mozilla/5.0 (Windows NT 10.0; Win64; x64) AppleWebKit/537.36 (KHTML, like Gecko) Chrome/138.0.0.0 Safari/537.36","WebKit","Chrome","138.0.0.0","Windows","10.0","https://app.prolific.com/","en-US,en;q=0.9,zu;q=0.8","66a79fce251c3b3fedb04d16","683db6dfa200031b80f2a654","68650770fb684adb34842efd","66a79fce251c3b3fedb04d16","2025-07-02T10:27:07.369Z","","","","","","","","","","","","","","","","","","","","","","","","","","","","","","","","","","","","","","","","","","","",""
"4564","","","{""age"":""22""}","survey-text","5","451525","0.0-6.0-0.0","110","1","2025-07-02 10:19:36","80fe4187154257d5fb01684ea91b68b9","105.19.62.19","Mozilla/5.0 (Windows NT 10.0; Win64; x64) AppleWebKit/537.36 (KHTML, like Gecko) Chrome/138.0.0.0 Safari/537.36","WebKit","Chrome","138.0.0.0","Windows","10.0","https://app.prolific.com/","en-US,en;q=0.9,zu;q=0.8","66a79fce251c3b3fedb04d16","683db6dfa200031b80f2a654","68650770fb684adb34842efd","66a79fce251c3b3fedb04d16","","","","","","0","demographics","","","","","","","","","","","","","","","","","","","","","","","","","","","","","","","","","","","","","",""
"7312","","","{""gender_identity"":""male/man""}","survey-multi-choice","6","458840","0.0-6.0-1.0","110","1","2025-07-02 10:19:36","80fe4187154257d5fb01684ea91b68b9","105.19.62.19","Mozilla/5.0 (Windows NT 10.0; Win64; x64) AppleWebKit/537.36 (KHTML, like Gecko) Chrome/138.0.0.0 Safari/537.36","WebKit","Chrome","138.0.0.0","Windows","10.0","https://app.prolific.com/","en-US,en;q=0.9,zu;q=0.8","66a79fce251c3b3fedb04d16","683db6dfa200031b80f2a654","68650770fb684adb34842efd","66a79fce251c3b3fedb04d16","","","[0]","","","1","demographics","","","","","","","","","","","","","","","","","","","","","","","","","","","","","","","","","","","","","",""
"5989","","","{""assigned_sex"":""male""}","survey-multi-choice","7","464834","0.0-6.0-2.0","110","1","2025-07-02 10:19:36","80fe4187154257d5fb01684ea91b68b9","105.19.62.19","Mozilla/5.0 (Windows NT 10.0; Win64; x64) AppleWebKit/537.36 (KHTML, like Gecko) Chrome/138.0.0.0 Safari/537.36","WebKit","Chrome","138.0.0.0","Windows","10.0","https://app.prolific.com/","en-US,en;q=0.9,zu;q=0.8","66a79fce251c3b3fedb04d16","683db6dfa200031b80f2a654","68650770fb684adb34842efd","66a79fce251c3b3fedb04d16","","","[0]","","","2","demographics","","","","","","","","","","","","","","","","","","","","","","","","","","","","","","","","","","","","","",""
"65779","","","{""menstrual_cycle"":""No""}","survey-multi-choice","8","530617","0.0-6.0-3.0","110","1","2025-07-02 10:19:36","80fe4187154257d5fb01684ea91b68b9","105.19.62.19","Mozilla/5.0 (Windows NT 10.0; Win64; x64) AppleWebKit/537.36 (KHTML, like Gecko) Chrome/138.0.0.0 Safari/537.36","WebKit","Chrome","138.0.0.0","Windows","10.0","https://app.prolific.com/","en-US,en;q=0.9,zu;q=0.8","66a79fce251c3b3fedb04d16","683db6dfa200031b80f2a654","68650770fb684adb34842efd","66a79fce251c3b3fedb04d16","","","[0]","","","4","demographics","","","","","","","","","","","","","","","","","","","","","","","","","","","","","","","","","","","","","",""
"25324","","","{""education"":""Bachelor's Degree (e.g., BA)""}","survey-multi-choice","9","555946","0.0-6.0-4.0","110","1","2025-07-02 10:19:36","80fe4187154257d5fb01684ea91b68b9","105.19.62.19","Mozilla/5.0 (Windows NT 10.0; Win64; x64) AppleWebKit/537.36 (KHTML, like Gecko) Chrome/138.0.0.0 Safari/537.36","WebKit","Chrome","138.0.0.0","Windows","10.0","https://app.prolific.com/","en-US,en;q=0.9,zu;q=0.8","66a79fce251c3b3fedb04d16","683db6dfa200031b80f2a654","68650770fb684adb34842efd","66a79fce251c3b3fedb04d16","","","[0]","","","5","demographics","","","","","","","","","","","","","","","","","","","","","","","","","","","","","","","","","","","","","",""
"18722","","","{""education"":""Higher National Diploma""}","survey-multi-choice","10","574672","0.0-6.0-5.0","110","1","2025-07-02 10:19:36","80fe4187154257d5fb01684ea91b68b9","105.19.62.19","Mozilla/5.0 (Windows NT 10.0; Win64; x64) AppleWebKit/537.36 (KHTML, like Gecko) Chrome/138.0.0.0 Safari/537.36","WebKit","Chrome","138.0.0.0","Windows","10.0","https://app.prolific.com/","en-US,en;q=0.9,zu;q=0.8","66a79fce251c3b3fedb04d16","683db6dfa200031b80f2a654","68650770fb684adb34842efd","66a79fce251c3b3fedb04d16","2025-07-02T10:29:15.095Z","","[0]","","","6","demographics","","","","","","","","","","","","","","","","","","","","","","","","","","","","","","","","","","","","","",""
"84079","","","{""mental_health_condition"":""N/A"",""mental_health_treatment"":""N/A"",""psychiatric_medication"":""N/A""}","survey-text","11","658763","0.0-7.0-0.0","110","1","2025-07-02 10:19:36","80fe4187154257d5fb01684ea91b68b9","105.19.62.19","Mozilla/5.0 (Windows NT 10.0; Win64; x64) AppleWebKit/537.36 (KHTML, like Gecko) Chrome/138.0.0.0 Safari/537.36","WebKit","Chrome","138.0.0.0","Windows","10.0","https://app.prolific.com/","en-US,en;q=0.9,zu;q=0.8","66a79fce251c3b3fedb04d16","683db6dfa200031b80f2a654","68650770fb684adb34842efd","66a79fce251c3b3fedb04d16","2025-07-02T10:30:39.186Z","","","","","1","mental_health","","","","","","","","","","","","","","","","","","","","","","","","","","","","","","","","","","","","","",""
"22091","","","{""depression_history"":[""No""]}","survey-multi-select","12","680865","0.0-7.0-1.0","110","1","2025-07-02 10:19:36","80fe4187154257d5fb01684ea91b68b9","105.19.62.19","Mozilla/5.0 (Windows NT 10.0; Win64; x64) AppleWebKit/537.36 (KHTML, like Gecko) Chrome/138.0.0.0 Safari/537.36","WebKit","Chrome","138.0.0.0","Windows","10.0","https://app.prolific.com/","en-US,en;q=0.9,zu;q=0.8","66a79fce251c3b3fedb04d16","683db6dfa200031b80f2a654","68650770fb684adb34842efd","66a79fce251c3b3fedb04d16","","","[0]","","","","mental_health","","","","","","","","","","","","","","","","","","","","","","","","","","","","","","","","","","","","","",""
"290842.7000000002","","","","survey-template","13","971722","0.0-7.0-3.0","110","1","2025-07-02 10:19:36","80fe4187154257d5fb01684ea91b68b9","105.19.62.19","Mozilla/5.0 (Windows NT 10.0; Win64; x64) AppleWebKit/537.36 (KHTML, like Gecko) Chrome/138.0.0.0 Safari/537.36","WebKit","Chrome","138.0.0.0","Windows","10.0","https://app.prolific.com/","en-US,en;q=0.9,zu;q=0.8","66a79fce251c3b3fedb04d16","683db6dfa200031b80f2a654","68650770fb684adb34842efd","66a79fce251c3b3fedb04d16","2025-07-02T10:35:52.146Z","","","","","","ius","{""Q01"":""0"",""Q02"":""3"",""Q03"":""3"",""Q04"":""2"",""Q05"":""2"",""Q06"":""3"",""Q07"":""1"",""Q08"":""0"",""Q09"":""4"",""Q10"":""3"",""Q11"":""2"",""Q12"":""3"",""Q13"":""2""}","[0,1,2,3,4,5,6,7,8,9,10,11,12]","[""Q01"",""Q02"",""Q03"",""Q04"",""Q05"",""Q06"",""Q07"",""Q08"",""Q09"",""Q10"",""Q11"",""Q12"",""Q13""]","[39814.799999999814,49935,57357.5,72437.59999999963,82339.79999999981,94677.5,105330.09999999963,114836.89999999944,125817.89999999944,203060.7000000002,219833.2000000002,226115.39999999944,231303.39999999944]","[]","[39814.799999999814,49935,57357.5,72437.59999999963,82339.79999999981,93295.39999999944,94677.5,105330.09999999963,114836.89999999944,125817.89999999944,203060.7000000002,219833.2000000002,226115.39999999944,231303.39999999944,290835.5999999996]","0.38461538461538464","0.6666666666666666","0","","","","","","","","","","","","","","","","","","","","","","","","","","","","",""
"37444","1751452589591","<p style='font-size:1.1em;line-height:1.25'>In the following, we will ask you a few questions relating to your experiences over the past month.<br></p><p style='font-size:1.1em;line-height:1.25'>Press the <strong>Next</strong> button to continue.</p>","0","custom-html-button-response","14","1009170","0.0-7.0-4.0","110","1","2025-07-02 10:19:36","80fe4187154257d5fb01684ea91b68b9","105.19.62.19","Mozilla/5.0 (Windows NT 10.0; Win64; x64) AppleWebKit/537.36 (KHTML, like Gecko) Chrome/138.0.0.0 Safari/537.36","WebKit","Chrome","138.0.0.0","Windows","10.0","https://app.prolific.com/","en-US,en;q=0.9,zu;q=0.8","66a79fce251c3b3fedb04d16","683db6dfa200031b80f2a654","68650770fb684adb34842efd","66a79fce251c3b3fedb04d16","2025-07-02T10:36:29.593Z","","","","","","","","","","","","","","","","","","","","","","","","","","","","","","","","","","","","","","","","","","","",""
"203831.59999999963","","","","survey-template","15","1213009","0.0-7.0-5.0","110","1","2025-07-02 10:19:36","80fe4187154257d5fb01684ea91b68b9","105.19.62.19","Mozilla/5.0 (Windows NT 10.0; Win64; x64) AppleWebKit/537.36 (KHTML, like Gecko) Chrome/138.0.0.0 Safari/537.36","WebKit","Chrome","138.0.0.0","Windows","10.0","https://app.prolific.com/","en-US,en;q=0.9,zu;q=0.8","66a79fce251c3b3fedb04d16","683db6dfa200031b80f2a654","68650770fb684adb34842efd","66a79fce251c3b3fedb04d16","2025-07-02T10:39:53.432Z","","","","","","pss","{""Q01"":""2"",""Q02"":""1"",""Q03"":""1"",""Q04"":""1"",""Q05"":""1"",""Q06"":""1"",""Q07"":""2"",""Q08"":""2"",""Q09"":""3"",""Q10"":""1""}","[0,1,2,3,4,5,6,7,8,9]","[""Q01"",""Q02"",""Q03"",""Q04"",""Q05"",""Q06"",""Q07"",""Q08"",""Q09"",""Q10"",""Q03""]","[14674.5,34460.59999999963,54057.200000000186,60352.700000000186,142442.90000000037,150490.90000000037,157427.7999999998,162479.7000000002,171498.2000000002,178595.09999999963,190208.09999999963]","[]","[17.799999999813735,14674.5,34460.59999999963,54057.200000000186,60352.700000000186,142442.90000000037,149310.90000000037,149885,150490.90000000037,157427.7999999998,162479.7000000002,171498.2000000002,177514.7000000002,178595.09999999963,190208.09999999963,203822.59999999963]","0.4","0.3333333333333333","0","","","","","","","","","","","","","","","","","","","","","","","","","","","","",""
"10103","1751452803537","<p style='font-size:1.1em;line-height:1.25'>Thank you for your answers! Now we will ask you a few more questions relating to your feelings in the last 24 hours.<br></p><p style='font-size:1.1em;line-height:1.25'>Press the <strong>Next</strong> button to continue.</p>","0","custom-html-button-response","16","1223116","0.0-7.0-6.0","110","1","2025-07-02 10:19:36","80fe4187154257d5fb01684ea91b68b9","105.19.62.19","Mozilla/5.0 (Windows NT 10.0; Win64; x64) AppleWebKit/537.36 (KHTML, like Gecko) Chrome/138.0.0.0 Safari/537.36","WebKit","Chrome","138.0.0.0","Windows","10.0","https://app.prolific.com/","en-US,en;q=0.9,zu;q=0.8","66a79fce251c3b3fedb04d16","683db6dfa200031b80f2a654","68650770fb684adb34842efd","66a79fce251c3b3fedb04d16","2025-07-02T10:40:03.539Z","","","","","","","","","","","","","","","","","","","","","","","","","","","","","","","","","","","","","","","","","","","",""
"85215","","","","survey-template","17","1308342","0.0-7.0-7.0","110","1","2025-07-02 10:19:36","80fe4187154257d5fb01684ea91b68b9","105.19.62.19","Mozilla/5.0 (Windows NT 10.0; Win64; x64) AppleWebKit/537.36 (KHTML, like Gecko) Chrome/138.0.0.0 Safari/537.36","WebKit","Chrome","138.0.0.0","Windows","10.0","https://app.prolific.com/","en-US,en;q=0.9,zu;q=0.8","66a79fce251c3b3fedb04d16","683db6dfa200031b80f2a654","68650770fb684adb34842efd","66a79fce251c3b3fedb04d16","2025-07-02T10:41:28.765Z","","","","","","drsp","{""Q01"":""0"",""Q02"":""0"",""Q03"":""0"",""Q04"":""0"",""Q05"":""0"",""Q06"":""0"",""Q07"":""0"",""Q08"":""0"",""Q09"":""1"",""Q10"":""0"",""Q11"":""0"",""Q12"":""2"",""Q13"":""3"",""Q14"":""1"",""Q15"":""1"",""Q16"":""0"",""Q17"":""0"",""Q18"":""0"",""Q19"":""0"",""Q20"":""0"",""Q21"":""1""}","[0,1,2,3,4,5,6,7,8,9,10,11,12,13,14,15,16,17,18,19,20]","[""Q01"",""Q02"",""Q03"",""Q04"",""Q05"",""Q06"",""Q07"",""Q08"",""Q09"",""Q10"",""Q11"",""Q12"",""Q13"",""Q14"",""Q15"",""Q16"",""Q17"",""Q18"",""Q19"",""Q20"",""Q21""]","[2755.5,4609,6381.399999999441,7864.899999999441,10811.899999999441,15480.5,18422.799999999814,20424.299999999814,24871.099999999627,27514.799999999814,29282.39999999944,35484.5,37476,40878.700000000186,45765,50770.700000000186,52968.299999999814,57446.700000000186,62270.89999999944,65845,68840]","[]","[20.700000000186265,2755.5,4609,6381.399999999441,7864.899999999441,10811.899999999441,14334.799999999814,15480.5,18422.799999999814,20424.299999999814,24871.099999999627,27514.799999999814,29282.39999999944,35484.5,37476,40878.700000000186,45765,49607.5,50770.700000000186,52968.299999999814,56764.09999999963,57446.700000000186,62270.89999999944,65845,68840,85204.59999999963]","0.7142857142857143","0.25","0","","","","","","","","","","","","","","","","","","","","","","","","","","","","",""
"16014.5","","","","survey-template","18","1324360","0.0-7.0-8.0","110","1","2025-07-02 10:19:36","80fe4187154257d5fb01684ea91b68b9","105.19.62.19","Mozilla/5.0 (Windows NT 10.0; Win64; x64) AppleWebKit/537.36 (KHTML, like Gecko) Chrome/138.0.0.0 Safari/537.36","WebKit","Chrome","138.0.0.0","Windows","10.0","https://app.prolific.com/","en-US,en;q=0.9,zu;q=0.8","66a79fce251c3b3fedb04d16","683db6dfa200031b80f2a654","68650770fb684adb34842efd","66a79fce251c3b3fedb04d16","2025-07-02T10:41:44.783Z","","","","","","stress","{""Q01"":""0"",""Q02"":""2"",""Q03"":""0""}","[0,1,2]","[""Q01"",""Q02"",""Q03""]","[3361,7774.4000000003725,12780.200000000186]","[]","[3361,6693.299999999814,7774.4000000003725,12780.200000000186,16012.700000000186]","0.6666666666666666","0","0","","","","","","","","","","","","","","","","","","","","","","","","","","","","",""
"277702","","","","instructions","19","1602064","0.0-8.0-0.0","110","1","2025-07-02 10:19:36","80fe4187154257d5fb01684ea91b68b9","105.19.62.19","Mozilla/5.0 (Windows NT 10.0; Win64; x64) AppleWebKit/537.36 (KHTML, like Gecko) Chrome/138.0.0.0 Safari/537.36","WebKit","Chrome","138.0.0.0","Windows","10.0","https://app.prolific.com/","en-US,en;q=0.9,zu;q=0.8","66a79fce251c3b3fedb04d16","683db6dfa200031b80f2a654","68650770fb684adb34842efd","66a79fce251c3b3fedb04d16","","[{""page_index"":0,""viewing_time"":131805},{""page_index"":1,""viewing_time"":82345},{""page_index"":2,""viewing_time"":27129},{""page_index"":3,""viewing_time"":36420}]","","","","","","","","","","","","","","","","","","","","","","","","","","","","","","","","","","","","","","","","","","",""
"","","","","ctl-task-cpt","20","1639034","0.0-8.0-1.0","110","1","2025-07-02 10:19:36","80fe4187154257d5fb01684ea91b68b9","105.19.62.19","Mozilla/5.0 (Windows NT 10.0; Win64; x64) AppleWebKit/537.36 (KHTML, like Gecko) Chrome/138.0.0.0 Safari/537.36","WebKit","Chrome","138.0.0.0","Windows","10.0","https://app.prolific.com/","en-US,en;q=0.9,zu;q=0.8","66a79fce251c3b3fedb04d16","683db6dfa200031b80f2a654","68650770fb684adb34842efd","66a79fce251c3b3fedb04d16","","","","","","","","","","","","","","","","","win-only","0","g1:NW,g2:SE","1","0","1","1606217.9","6126.6","10131.6","33927.7","2","4","4","6","2","4","2","2","0","0.015151515151515152","4004.9","4000","1945","[""down"",""right""]","{""num_key_presses"":8,""num_perfect"":6,""num_errors"":2,""num_randdir"":0,""num_randdir_good_moves"":0,""num_whilered"":0,""num_whileblue"":0,""num_blue"":1,""num_good_moves"":6}","[296.22232142857143,292.12857142857143,2.7,296.22232142857143,292.12857142857143,103.5,296.22232142857143,292.12857142857143,205.5,296.22232142857143,292.12857142857143,311.6,296.22232142857143,292.12857142857143,411.6,296.22232142857143,292.12857142857143,511.6,296.22232142857143,292.12857142857143,626.4,296.22232142857143,292.12857142857143,730.6,296.22232142857143,292.12857142857143,835.7,296.22232142857143,292.12857142857143,937.7,296.22232142857143,292.12857142857143,1038,296.22232142857143,292.12857142857143,1142.8,296.22232142857143,292.12857142857143,1246.7,296.22232142857143,292.12857142857143,1348.8,296.22232142857143,292.12857142857143,1460.6,296.22232142857143,292.12857142857143,1564.5,296.22232142857143,292.12857142857143,1678.4,296.22232142857143,292.12857142857143,1781.8,296.22232142857143,292.12857142857143,1886.1,296.22232142857143,292.12857142857143,1986.7,296.22232142857143,292.12857142857143,2097.5,296.22232142857143,292.12857142857143,2200.4,296.22232142857143,292.12857142857143,2301.4,296.22232142857143,292.12857142857143,2404.3,296.22232142857143,292.12857142857143,2509.5,296.22232142857143,292.12857142857143,2615.4,296.22232142857143,292.12857142857143,2715.6,296.22232142857143,292.12857142857143,2823.2,296.22232142857143,292.12857142857143,2927.4,296.22232142857143,292.12857142857143,3032.1,296.22232142857143,292.12857142857143,3133.6,296.22232142857143,292.12857142857143,3235.2,296.22232142857143,292.12857142857143,3335.4,296.22232142857143,292.12857142857143,3439.6,296.22232142857143,292.12857142857143,3540.1,296.22232142857143,292.12857142857143,3648.5,296.22232142857143,292.12857142857143,3749.3,296.22232142857143,292.12857142857143,3850.5,296.22232142857143,292.12857142857143,3959.4]","[103.6,103.6,1000,0,-896.4,""error"",""-"",""-"",""no_move"",4011.3,3906.7,2086.1,1105.4,819.8,""smooth"",""right"",""right"",""good_move"",4535.1,515.6,2114.4,4019.5,-1598.8,""error"",""-"",""-"",""no_move"",8359.6,3818.9,2472.1,5545.4,342.3,""smooth"",""right"",""right"",""good_move"",11199.5,2826.7,2299.1,8372.9,527.5,""smooth"",""right"",""right"",""good_move"",18028.8,6817.1,2707.7,14807.6,513.6,""smooth"",""down"",""down"",""good_move"",20891.5,2854.7,2449.2,18036.8,405.5,""smooth"",""down"",""down"",""good_move"",23649.8,2756.8,2374.6,20893,382.2,""smooth"",""down"",""down"",""good_move""]","",""
"83400","","","","instructions","21","1722435","0.0-8.0-2.0","110","1","2025-07-02 10:19:36","80fe4187154257d5fb01684ea91b68b9","105.19.62.19","Mozilla/5.0 (Windows NT 10.0; Win64; x64) AppleWebKit/537.36 (KHTML, like Gecko) Chrome/138.0.0.0 Safari/537.36","WebKit","Chrome","138.0.0.0","Windows","10.0","https://app.prolific.com/","en-US,en;q=0.9,zu;q=0.8","66a79fce251c3b3fedb04d16","683db6dfa200031b80f2a654","68650770fb684adb34842efd","66a79fce251c3b3fedb04d16","","[{""page_index"":0,""viewing_time"":83392}]","","","","","","","","","","","","","","","","","","","","","","","","","","","","","","","","","","","","","","","","","","",""
"","","","","ctl-task-cpt","22","1752744","0.0-8.0-3.0","110","1","2025-07-02 10:19:36","80fe4187154257d5fb01684ea91b68b9","105.19.62.19","Mozilla/5.0 (Windows NT 10.0; Win64; x64) AppleWebKit/537.36 (KHTML, like Gecko) Chrome/138.0.0.0 Safari/537.36","WebKit","Chrome","138.0.0.0","Windows","10.0","https://app.prolific.com/","en-US,en;q=0.9,zu;q=0.8","66a79fce251c3b3fedb04d16","683db6dfa200031b80f2a654","68650770fb684adb34842efd","66a79fce251c3b3fedb04d16","","","","","","","","","","","","","","","","","win-only","0","g1:NW,g2:SE","0.35","0","3","1726587.1","3612.9","7618.8","27277.2","2","4","8","6","1","2","2","2","0","0.015151515151515152","4005.6","4000","1430","[""left"",""up""]","{""num_key_presses"":6,""num_perfect"":4,""num_errors"":0,""num_randdir"":2,""num_randdir_good_moves"":1,""num_whilered"":0,""num_whileblue"":0,""num_blue"":1,""num_good_moves"":5}","[295.22232142857143,294.12857142857143,4,295.22232142857143,294.12857142857143,100.3,295.22232142857143,294.12857142857143,210.1,295.22232142857143,294.12857142857143,314.4,295.22232142857143,294.12857142857143,420.3,295.22232142857143,294.12857142857143,523.9,295.22232142857143,294.12857142857143,626.7,295.22232142857143,294.12857142857143,728.4,295.22232142857143,294.12857142857143,846,295.22232142857143,294.12857142857143,953.5,295.22232142857143,294.12857142857143,1059,295.22232142857143,294.12857142857143,1159,295.22232142857143,294.12857142857143,1262.5,295.22232142857143,294.12857142857143,1363.1,295.22232142857143,294.12857142857143,1471.8,295.22232142857143,294.12857142857143,1574.3,295.22232142857143,294.12857142857143,1677.9,295.22232142857143,294.12857142857143,1777.9,295.22232142857143,294.12857142857143,1882.6,295.22232142857143,294.12857142857143,1989.3,295.22232142857143,294.12857142857143,2090.9,295.22232142857143,294.12857142857143,2192,295.22232142857143,294.12857142857143,2294.5,295.22232142857143,294.12857142857143,2398.6,295.22232142857143,294.12857142857143,2498.9,295.22232142857143,294.12857142857143,2599.1,295.22232142857143,294.12857142857143,2714.5,295.22232142857143,294.12857142857143,2814.8,295.22232142857143,294.12857142857143,2920.9,295.22232142857143,294.12857142857143,3026.7,295.22232142857143,294.12857142857143,3130.1,295.22232142857143,294.12857142857143,3238.6,295.22232142857143,294.12857142857143,3342.9,295.22232142857143,294.12857142857143,3449.3,295.22232142857143,294.12857142857143,3551,295.22232142857143,294.12857142857143,3651.1,295.22232142857143,294.12857142857143,3754.4,295.22232142857143,294.12857142857143,3857.4,295.22232142857143,294.12857142857143,3960.6]","[1503.5,1503.5,1000,0,503.5,""smooth"",""left"",""left"",""good_move"",3754.4,2249.9,1727,1504.6,522.8,""smooth"",""left"",""left"",""good_move"",11159.8,7398.6,2770,7656.1,733.7,""oops"",""up"",""down"",""bad_move"",13909.6,2747.6,2091.2,11162,656.4,""oops"",""up"",""up"",""good_move"",16422.7,2511.4,2029.7,13911.3,481.7,""smooth"",""up"",""up"",""good_move"",19542.6,3118.2,2464.9,16424.4,653.3,""smooth"",""up"",""up"",""good_move""]","",""
"164984","","","","instructions","23","1917729","0.0-8.0-4.0","110","1","2025-07-02 10:19:36","80fe4187154257d5fb01684ea91b68b9","105.19.62.19","Mozilla/5.0 (Windows NT 10.0; Win64; x64) AppleWebKit/537.36 (KHTML, like Gecko) Chrome/138.0.0.0 Safari/537.36","WebKit","Chrome","138.0.0.0","Windows","10.0","https://app.prolific.com/","en-US,en;q=0.9,zu;q=0.8","66a79fce251c3b3fedb04d16","683db6dfa200031b80f2a654","68650770fb684adb34842efd","66a79fce251c3b3fedb04d16","","[{""page_index"":0,""viewing_time"":19529},{""page_index"":1,""viewing_time"":18860},{""page_index"":0,""viewing_time"":9107},{""page_index"":1,""viewing_time"":117487}]","","","","","","","","","","","","","","","","","","","","","","","","","","","","","","","","","","","","","","","","","","",""
"135948","","","{""green_ball"":[""Ball always moves in the direction I press""]}","survey-multi-select","24","2053692","0.0-8.0-5.0-0.0","110","1","2025-07-02 10:19:36","80fe4187154257d5fb01684ea91b68b9","105.19.62.19","Mozilla/5.0 (Windows NT 10.0; Win64; x64) AppleWebKit/537.36 (KHTML, like Gecko) Chrome/138.0.0.0 Safari/537.36","WebKit","Chrome","138.0.0.0","Windows","10.0","https://app.prolific.com/","en-US,en;q=0.9,zu;q=0.8","66a79fce251c3b3fedb04d16","683db6dfa200031b80f2a654","68650770fb684adb34842efd","66a79fce251c3b3fedb04d16","","","[0]","","","","quiz","","","","","","","","","","","","","","","","","","","","","","","","","","","","","","","","","","","","","false",""
"20005","","<p align='center'><b>INCORRECT.</b> Usually the green ball moves in the indicated direction, but sometimes it shakes and moves randomly. </p>","0","html-button-response","25","2073709","0.0-8.0-5.0-1.0","110","1","2025-07-02 10:19:36","80fe4187154257d5fb01684ea91b68b9","105.19.62.19","Mozilla/5.0 (Windows NT 10.0; Win64; x64) AppleWebKit/537.36 (KHTML, like Gecko) Chrome/138.0.0.0 Safari/537.36","WebKit","Chrome","138.0.0.0","Windows","10.0","https://app.prolific.com/","en-US,en;q=0.9,zu;q=0.8","66a79fce251c3b3fedb04d16","683db6dfa200031b80f2a654","68650770fb684adb34842efd","66a79fce251c3b3fedb04d16","","","","","","","","","","","","","","","","","","","","","","","","","","","","","","","","","","","","","","","","","","","","",""
"40526","","","{""green_ball"":[""Ball sometimes shakes and moves in a random direction""]}","survey-multi-select","26","2114251","0.0-8.0-5.1-0.1","110","1","2025-07-02 10:19:36","80fe4187154257d5fb01684ea91b68b9","105.19.62.19","Mozilla/5.0 (Windows NT 10.0; Win64; x64) AppleWebKit/537.36 (KHTML, like Gecko) Chrome/138.0.0.0 Safari/537.36","WebKit","Chrome","138.0.0.0","Windows","10.0","https://app.prolific.com/","en-US,en;q=0.9,zu;q=0.8","66a79fce251c3b3fedb04d16","683db6dfa200031b80f2a654","68650770fb684adb34842efd","66a79fce251c3b3fedb04d16","","","[0]","","","","quiz","","","","","","","","","","","","","","","","","","","","","","","","","","","","","","","","","","","","","true",""
"11948","","<p align='center'><b>CORRECT!</b> Indeed, the green ball may sometimes shake and move in a random direction.</p>","0","html-button-response","27","2126210","0.0-8.0-5.1-1.1","110","1","2025-07-02 10:19:36","80fe4187154257d5fb01684ea91b68b9","105.19.62.19","Mozilla/5.0 (Windows NT 10.0; Win64; x64) AppleWebKit/537.36 (KHTML, like Gecko) Chrome/138.0.0.0 Safari/537.36","WebKit","Chrome","138.0.0.0","Windows","10.0","https://app.prolific.com/","en-US,en;q=0.9,zu;q=0.8","66a79fce251c3b3fedb04d16","683db6dfa200031b80f2a654","68650770fb684adb34842efd","66a79fce251c3b3fedb04d16","","","","","","","","","","","","","","","","","","","","","","","","","","","","","","","","","","","","","","","","","","","","",""
"91202","","","{""yellow_ball"":[""Ball doesn‘t move and I get -1 penalty point""]}","survey-multi-select","28","2217421","0.0-8.0-6.0-0.0","110","1","2025-07-02 10:19:36","80fe4187154257d5fb01684ea91b68b9","105.19.62.19","Mozilla/5.0 (Windows NT 10.0; Win64; x64) AppleWebKit/537.36 (KHTML, like Gecko) Chrome/138.0.0.0 Safari/537.36","WebKit","Chrome","138.0.0.0","Windows","10.0","https://app.prolific.com/","en-US,en;q=0.9,zu;q=0.8","66a79fce251c3b3fedb04d16","683db6dfa200031b80f2a654","68650770fb684adb34842efd","66a79fce251c3b3fedb04d16","","","[0]","","","","quiz","","","","","","","","","","","","","","","","","","","","","","","","","","","","","","","","","","","","","true",""
"3749","","<p align='center'><b>CORRECT!</b> Indeed, the yellow ball never moves and you receive a penalty.</p>","0","html-button-response","29","2221174","0.0-8.0-6.0-1.0","110","1","2025-07-02 10:19:36","80fe4187154257d5fb01684ea91b68b9","105.19.62.19","Mozilla/5.0 (Windows NT 10.0; Win64; x64) AppleWebKit/537.36 (KHTML, like Gecko) Chrome/138.0.0.0 Safari/537.36","WebKit","Chrome","138.0.0.0","Windows","10.0","https://app.prolific.com/","en-US,en;q=0.9,zu;q=0.8","66a79fce251c3b3fedb04d16","683db6dfa200031b80f2a654","68650770fb684adb34842efd","66a79fce251c3b3fedb04d16","","","","","","","","","","","","","","","","","","","","","","","","","","","","","","","","","","","","","","","","","","","","",""
"37287","","","{""blue_ball"":[""Ball always shakes and moves in a random direction""]}","survey-multi-select","30","2258467","0.0-8.0-7.0-0.0","110","1","2025-07-02 10:19:36","80fe4187154257d5fb01684ea91b68b9","105.19.62.19","Mozilla/5.0 (Windows NT 10.0; Win64; x64) AppleWebKit/537.36 (KHTML, like Gecko) Chrome/138.0.0.0 Safari/537.36","WebKit","Chrome","138.0.0.0","Windows","10.0","https://app.prolific.com/","en-US,en;q=0.9,zu;q=0.8","66a79fce251c3b3fedb04d16","683db6dfa200031b80f2a654","68650770fb684adb34842efd","66a79fce251c3b3fedb04d16","","","[0]","","","","quiz","","","","","","","","","","","","","","","","","","","","","","","","","","","","","","","","","","","","","true",""
"5902","","<p align='center'><b>CORRECT!</b> Indeed, the blue ball always shakes and moves in a random direction. Also there is a penalty of -1 point.</p>","0","html-button-response","31","2264373","0.0-8.0-7.0-1.0","110","1","2025-07-02 10:19:36","80fe4187154257d5fb01684ea91b68b9","105.19.62.19","Mozilla/5.0 (Windows NT 10.0; Win64; x64) AppleWebKit/537.36 (KHTML, like Gecko) Chrome/138.0.0.0 Safari/537.36","WebKit","Chrome","138.0.0.0","Windows","10.0","https://app.prolific.com/","en-US,en;q=0.9,zu;q=0.8","66a79fce251c3b3fedb04d16","683db6dfa200031b80f2a654","68650770fb684adb34842efd","66a79fce251c3b3fedb04d16","","","","","","","","","","","","","","","","","","","","","","","","","","","","","","","","","","","","","","","","","","","","",""
"7108","","","{""bonus"":[""When I reach 50% of points""]}","survey-multi-select","32","2271489","0.0-8.0-8.0-0.0","110","1","2025-07-02 10:19:36","80fe4187154257d5fb01684ea91b68b9","105.19.62.19","Mozilla/5.0 (Windows NT 10.0; Win64; x64) AppleWebKit/537.36 (KHTML, like Gecko) Chrome/138.0.0.0 Safari/537.36","WebKit","Chrome","138.0.0.0","Windows","10.0","https://app.prolific.com/","en-US,en;q=0.9,zu;q=0.8","66a79fce251c3b3fedb04d16","683db6dfa200031b80f2a654","68650770fb684adb34842efd","66a79fce251c3b3fedb04d16","","","[0]","","","","quiz","","","","","","","","","","","","","","","","","","","","","","","","","","","","","","","","","","","","","true",""
"2679","","<p align='center'><b>CORRECT!</b> Indeed, you receive 2 pounds extra when you reach 50% of points.</p>","0","html-button-response","33","2274172","0.0-8.0-8.0-1.0","110","1","2025-07-02 10:19:36","80fe4187154257d5fb01684ea91b68b9","105.19.62.19","Mozilla/5.0 (Windows NT 10.0; Win64; x64) AppleWebKit/537.36 (KHTML, like Gecko) Chrome/138.0.0.0 Safari/537.36","WebKit","Chrome","138.0.0.0","Windows","10.0","https://app.prolific.com/","en-US,en;q=0.9,zu;q=0.8","66a79fce251c3b3fedb04d16","683db6dfa200031b80f2a654","68650770fb684adb34842efd","66a79fce251c3b3fedb04d16","","","","","","","","","","","","","","","","","","","","","","","","","","","","","","","","","","","","","","","","","","","","",""
"5863","","","","instructions","34","2280037","0.0-8.0-9.0","110","1","2025-07-02 10:19:36","80fe4187154257d5fb01684ea91b68b9","105.19.62.19","Mozilla/5.0 (Windows NT 10.0; Win64; x64) AppleWebKit/537.36 (KHTML, like Gecko) Chrome/138.0.0.0 Safari/537.36","WebKit","Chrome","138.0.0.0","Windows","10.0","https://app.prolific.com/","en-US,en;q=0.9,zu;q=0.8","66a79fce251c3b3fedb04d16","683db6dfa200031b80f2a654","68650770fb684adb34842efd","66a79fce251c3b3fedb04d16","","[{""page_index"":0,""viewing_time"":5862}]","","","","","","","","","","","","","","","","","","","","","","","","","","","","","","","","","","","","","","","","","","",""
"43708","","<p>Before you start with this game please answer the following three questions yourself. </p>
  <p>Through this game, we measure several aspects of your cognitive performance, such as reaction times, multi-tasking capabilities </p>
  <p>and the ability to assess the situation you are in.</p>
  <p></p>
  <p><b>How good do you usually are in such tasks?</b></p>","92","html-slider-response","35","2323766","0.0-9.0-0.0","110","1","2025-07-02 10:19:36","80fe4187154257d5fb01684ea91b68b9","105.19.62.19","Mozilla/5.0 (Windows NT 10.0; Win64; x64) AppleWebKit/537.36 (KHTML, like Gecko) Chrome/138.0.0.0 Safari/537.36","WebKit","Chrome","138.0.0.0","Windows","10.0","https://app.prolific.com/","en-US,en;q=0.9,zu;q=0.8","66a79fce251c3b3fedb04d16","683db6dfa200031b80f2a654","68650770fb684adb34842efd","66a79fce251c3b3fedb04d16","2025-07-02T10:58:24.190Z","","","","","","PreSkillQ","","","","","","","","","","","","","","","","","","","","","","","","","","","","","","","","","","","","","","50"
"11550","","<div style=""width:500px;"">
  <p>How well do you think you will perform in this task compared to other participants?</p>
  </div>","73","html-slider-response","36","2335326","0.0-9.0-1.0","110","1","2025-07-02 10:19:36","80fe4187154257d5fb01684ea91b68b9","105.19.62.19","Mozilla/5.0 (Windows NT 10.0; Win64; x64) AppleWebKit/537.36 (KHTML, like Gecko) Chrome/138.0.0.0 Safari/537.36","WebKit","Chrome","138.0.0.0","Windows","10.0","https://app.prolific.com/","en-US,en;q=0.9,zu;q=0.8","66a79fce251c3b3fedb04d16","683db6dfa200031b80f2a654","68650770fb684adb34842efd","66a79fce251c3b3fedb04d16","2025-07-02T10:58:35.749Z","","","","","","PrePerfQ","","","","","","","","","","","","","","","","","","","","","","","","","","","","","","","","","","","","","","50"
"8294","","<div style=""width:500px;"">
  <p>What best describes how you currently feel?</p>
  </div>","99","html-slider-response","37","2343624","0.0-9.0-2.0","110","1","2025-07-02 10:19:36","80fe4187154257d5fb01684ea91b68b9","105.19.62.19","Mozilla/5.0 (Windows NT 10.0; Win64; x64) AppleWebKit/537.36 (KHTML, like Gecko) Chrome/138.0.0.0 Safari/537.36","WebKit","Chrome","138.0.0.0","Windows","10.0","https://app.prolific.com/","en-US,en;q=0.9,zu;q=0.8","66a79fce251c3b3fedb04d16","683db6dfa200031b80f2a654","68650770fb684adb34842efd","66a79fce251c3b3fedb04d16","2025-07-02T10:58:44.048Z","","","","","","PreMotivationQ","","","","","","","","","","","","","","","","","","","","","","","","","","","","","","","","","","","","","","50"
"","","","","ctl-task-cpt","38","2385674","0.0-10.0-0.0","110","1","2025-07-02 10:19:36","80fe4187154257d5fb01684ea91b68b9","105.19.62.19","Mozilla/5.0 (Windows NT 10.0; Win64; x64) AppleWebKit/537.36 (KHTML, like Gecko) Chrome/138.0.0.0 Safari/537.36","WebKit","Chrome","138.0.0.0","Windows","10.0","https://app.prolific.com/","en-US,en;q=0.9,zu;q=0.8","66a79fce251c3b3fedb04d16","683db6dfa200031b80f2a654","68650770fb684adb34842efd","66a79fce251c3b3fedb04d16","2025-07-02T10:59:26.097Z","","","","","","","","","","","","","","","","win-only","3","g1:SW,g2:NE","1","1","0","2347765.2","8618.5","13621.9","39031","1","4","4","6","2","4","4","4","0","0.030303030303030304","5003.4","3000","420","[""up"",""right""]","{""num_key_presses"":6,""num_perfect"":6,""num_errors"":0,""num_randdir"":0,""num_randdir_good_moves"":0,""num_whilered"":0,""num_whileblue"":0,""num_blue"":3,""num_good_moves"":6}","[293.22232142857143,296.12857142857143,0.6,293.22232142857143,296.12857142857143,105.2,293.22232142857143,296.12857142857143,210.8,293.22232142857143,296.12857142857143,313.3,293.22232142857143,296.12857142857143,417.4,293.22232142857143,296.12857142857143,517.5,293.22232142857143,296.12857142857143,617.6,293.22232142857143,296.12857142857143,718.2,293.22232142857143,296.12857142857143,830.2,293.22232142857143,296.12857142857143,932.6,293.22232142857143,296.12857142857143,1032.8,293.22232142857143,296.12857142857143,1140.3,293.22232142857143,296.12857142857143,1251.2,293.22232142857143,296.12857142857143,1352,293.22232142857143,296.12857142857143,1452,293.22232142857143,296.12857142857143,1552.6,293.22232142857143,296.12857142857143,1662.3,293.22232142857143,296.12857142857143,1768.2,293.22232142857143,296.12857142857143,1876.5,293.22232142857143,296.12857142857143,1977.5,293.22232142857143,296.12857142857143,2078.4,293.22232142857143,296.12857142857143,2182.1,293.22232142857143,296.12857142857143,2282.3,293.22232142857143,296.12857142857143,2382.6,293.22232142857143,296.12857142857143,2482.6,293.22232142857143,296.12857142857143,2588.4,293.22232142857143,296.12857142857143,2693.2,293.22232142857143,296.12857142857143,2798,293.22232142857143,296.12857142857143,2901.9,293.22232142857143,296.12857142857143,3002.3,293.22232142857143,296.12857142857143,3103.7,293.22232142857143,296.12857142857143,3208.5,293.22232142857143,296.12857142857143,3309.7,293.22232142857143,296.12857142857143,3410.1,293.22232142857143,296.12857142857143,3511,293.22232142857143,296.12857142857143,3611.6,293.22232142857143,296.12857142857143,3713.4,293.22232142857143,296.12857142857143,3818.5,293.22232142857143,296.12857142857143,3924.3,293.22232142857143,296.12857142857143,4027.3,293.22232142857143,296.12857142857143,4132.1,293.22232142857143,296.12857142857143,4232.1,293.22232142857143,296.12857142857143,4332.9,293.22232142857143,296.12857142857143,4433,293.22232142857143,296.12857142857143,4537.5,293.22232142857143,296.12857142857143,4637.6,293.22232142857143,296.12857142857143,4737.8,293.22232142857143,296.12857142857143,4845.2,293.22232142857143,296.12857142857143,4946.9]","[3546.4,3546.4,1125.1,2008.1,413.2,""smooth"",""right"",""right"",""good_move"",6865.3,3317.5,2755.1,3547.8,562.4,""smooth"",""right"",""right"",""good_move"",13246.5,6378.7,2220.9,10518.6,507,""smooth"",""right"",""right"",""good_move"",15313.7,2066,1656.8,13247.7,409.2,""smooth"",""up"",""up"",""good_move"",22053,6736.7,2056.6,19554.3,442.1,""smooth"",""up"",""up"",""good_move"",25306.8,3253.1,2690.2,22053.7,562.9,""smooth"",""up"",""up"",""good_move""]","",""
"9229","","<div style=""width:500px;"">
  <p>What determined the result of this run?</p>
  </div>","100","html-slider-response","39","2394905","0.0-10.0-1.0","110","1","2025-07-02 10:19:36","80fe4187154257d5fb01684ea91b68b9","105.19.62.19","Mozilla/5.0 (Windows NT 10.0; Win64; x64) AppleWebKit/537.36 (KHTML, like Gecko) Chrome/138.0.0.0 Safari/537.36","WebKit","Chrome","138.0.0.0","Windows","10.0","https://app.prolific.com/","en-US,en;q=0.9,zu;q=0.8","66a79fce251c3b3fedb04d16","683db6dfa200031b80f2a654","68650770fb684adb34842efd","66a79fce251c3b3fedb04d16","2025-07-02T10:59:35.328Z","","","","","","AttribQ","","","","","","","","","","","","","","","","","","","","","","","","","","","","","","","","","","","","","","50"
"7552","","<div style=""width:500px;"">
  <p>How much control did you have over the ball?</p>
  </div>","93","html-slider-response","40","2402460","0.0-10.0-2.0","110","1","2025-07-02 10:19:36","80fe4187154257d5fb01684ea91b68b9","105.19.62.19","Mozilla/5.0 (Windows NT 10.0; Win64; x64) AppleWebKit/537.36 (KHTML, like Gecko) Chrome/138.0.0.0 Safari/537.36","WebKit","Chrome","138.0.0.0","Windows","10.0","https://app.prolific.com/","en-US,en;q=0.9,zu;q=0.8","66a79fce251c3b3fedb04d16","683db6dfa200031b80f2a654","68650770fb684adb34842efd","66a79fce251c3b3fedb04d16","2025-07-02T10:59:42.883Z","","","","","","ControlQ","","","","","","","","","","","","","","","","","","","","","","","","","","","","","","","","","","","","","","50"
"7283","","<div style=""width:500px;"">
  <p>How would you describe your current emotional state?</p>
  </div>","0","html-slider-response","41","2409752","0.0-10.0-3.0","110","1","2025-07-02 10:19:36","80fe4187154257d5fb01684ea91b68b9","105.19.62.19","Mozilla/5.0 (Windows NT 10.0; Win64; x64) AppleWebKit/537.36 (KHTML, like Gecko) Chrome/138.0.0.0 Safari/537.36","WebKit","Chrome","138.0.0.0","Windows","10.0","https://app.prolific.com/","en-US,en;q=0.9,zu;q=0.8","66a79fce251c3b3fedb04d16","683db6dfa200031b80f2a654","68650770fb684adb34842efd","66a79fce251c3b3fedb04d16","2025-07-02T10:59:50.175Z","","","","","","StressQ","","","","","","","","","","","","","","","","","","","","","","","","","","","","","","","","","","","","","","50"
"8003","","<div style=""width:500px;"">
  <p>What best describes how you currently feel?</p>
  </div>","100","html-slider-response","42","2417759","0.0-10.0-4.0","110","1","2025-07-02 10:19:36","80fe4187154257d5fb01684ea91b68b9","105.19.62.19","Mozilla/5.0 (Windows NT 10.0; Win64; x64) AppleWebKit/537.36 (KHTML, like Gecko) Chrome/138.0.0.0 Safari/537.36","WebKit","Chrome","138.0.0.0","Windows","10.0","https://app.prolific.com/","en-US,en;q=0.9,zu;q=0.8","66a79fce251c3b3fedb04d16","683db6dfa200031b80f2a654","68650770fb684adb34842efd","66a79fce251c3b3fedb04d16","2025-07-02T10:59:58.182Z","","","","","","MotivationQ","","","","","","","","","","","","","","","","","","","","","","","","","","","","","","","","","","","","","","50"
"","","","","ctl-task-cpt","43","2455925","0.0-10.0-0.1","110","1","2025-07-02 10:19:36","80fe4187154257d5fb01684ea91b68b9","105.19.62.19","Mozilla/5.0 (Windows NT 10.0; Win64; x64) AppleWebKit/537.36 (KHTML, like Gecko) Chrome/138.0.0.0 Safari/537.36","WebKit","Chrome","138.0.0.0","Windows","10.0","https://app.prolific.com/","en-US,en;q=0.9,zu;q=0.8","66a79fce251c3b3fedb04d16","683db6dfa200031b80f2a654","68650770fb684adb34842efd","66a79fce251c3b3fedb04d16","2025-07-02T11:00:36.348Z","","","","","","","","","","","","","","","","win-only","3","g1:SW,g2:NE","0.9","2","0","2421893.2","4211.4","9217.5","35139.8","1","4","8","6","2","-8","-8","0","4","0","5006.1","3000","-2455","[""up"",""right""]","{""num_key_presses"":7,""num_perfect"":6,""num_errors"":0,""num_randdir"":1,""num_randdir_good_moves"":0,""num_whilered"":0,""num_whileblue"":0,""num_blue"":1,""num_good_moves"":6}","[297.22232142857143,295.12857142857143,0.8,297.22232142857143,295.12857142857143,105.1,297.22232142857143,295.12857142857143,215.8,297.22232142857143,295.12857142857143,323.8,297.22232142857143,295.12857142857143,424.8,297.22232142857143,295.12857142857143,535,297.22232142857143,295.12857142857143,637.2,297.22232142857143,295.12857142857143,739.5,297.22232142857143,295.12857142857143,844.8,297.22232142857143,295.12857142857143,949.6,297.22232142857143,295.12857142857143,1050.8,297.22232142857143,295.12857142857143,1154.3,297.22232142857143,295.12857142857143,1254.7,297.22232142857143,295.12857142857143,1354.9,297.22232142857143,295.12857142857143,1455.2,297.22232142857143,295.12857142857143,1559.4,297.22232142857143,295.12857142857143,1659.4,297.22232142857143,295.12857142857143,1765.2,297.22232142857143,295.12857142857143,1874,297.22232142857143,295.12857142857143,1974.1,297.22232142857143,295.12857142857143,2075.1,297.22232142857143,295.12857142857143,2175.4,297.22232142857143,295.12857142857143,2280.9,297.22232142857143,295.12857142857143,2385,297.22232142857143,295.12857142857143,2488.9,297.22232142857143,295.12857142857143,2591.7,297.22232142857143,295.12857142857143,2696.1,297.22232142857143,295.12857142857143,2805.2,297.22232142857143,295.12857142857143,2909.4,297.22232142857143,295.12857142857143,3014,297.22232142857143,295.12857142857143,3114.9,297.22232142857143,295.12857142857143,3223.8,297.22232142857143,295.12857142857143,3324.2,297.22232142857143,295.12857142857143,3424.8,297.22232142857143,295.12857142857143,3525.2,297.22232142857143,295.12857142857143,3637.2,297.22232142857143,295.12857142857143,3740.4,297.22232142857143,295.12857142857143,3840.4,297.22232142857143,295.12857142857143,3940.7,297.22232142857143,295.12857142857143,4056,297.22232142857143,295.12857142857143,4159.5,297.22232142857143,295.12857142857143,4266.1,297.22232142857143,295.12857142857143,4371.7,297.22232142857143,295.12857142857143,4474.6,297.22232142857143,295.12857142857143,4579.2,297.22232142857143,295.12857142857143,4689.4,297.22232142857143,295.12857142857143,4789.9,297.22232142857143,295.12857142857143,4895.1]","[1019.3,1019.3,1000,0,19.3,""oops"",""up"",""down"",""bad_move"",4281.9,3261.2,2537.6,1020.7,723.6,""smooth"",""up"",""up"",""good_move"",7332.2,3047.6,2356.2,4284.7,691.3,""smooth"",""up"",""up"",""good_move"",13784.7,6450,2340.8,10927.8,516.1,""smooth"",""up"",""up"",""good_move"",16381.2,2594.7,2142.8,13786.6,451.8,""smooth"",""up"",""up"",""good_move"",19320,2936.8,2220.7,16383.3,716.1,""smooth"",""right"",""right"",""good_move"",22658.8,3337.1,2884.6,19321.7,452.5,""smooth"",""right"",""right"",""good_move""]","",""
"5751","","<div style=""width:500px;"">
  <p>What determined the result of this run?</p>
  </div>","2","html-slider-response","44","2461678","0.0-10.0-1.1","110","1","2025-07-02 10:19:36","80fe4187154257d5fb01684ea91b68b9","105.19.62.19","Mozilla/5.0 (Windows NT 10.0; Win64; x64) AppleWebKit/537.36 (KHTML, like Gecko) Chrome/138.0.0.0 Safari/537.36","WebKit","Chrome","138.0.0.0","Windows","10.0","https://app.prolific.com/","en-US,en;q=0.9,zu;q=0.8","66a79fce251c3b3fedb04d16","683db6dfa200031b80f2a654","68650770fb684adb34842efd","66a79fce251c3b3fedb04d16","2025-07-02T11:00:42.101Z","","","","","","AttribQ","","","","","","","","","","","","","","","","","","","","","","","","","","","","","","","","","","","","","","50"
"5669","","<div style=""width:500px;"">
  <p>How much control did you have over the ball?</p>
  </div>","0","html-slider-response","45","2467350","0.0-10.0-2.1","110","1","2025-07-02 10:19:36","80fe4187154257d5fb01684ea91b68b9","105.19.62.19","Mozilla/5.0 (Windows NT 10.0; Win64; x64) AppleWebKit/537.36 (KHTML, like Gecko) Chrome/138.0.0.0 Safari/537.36","WebKit","Chrome","138.0.0.0","Windows","10.0","https://app.prolific.com/","en-US,en;q=0.9,zu;q=0.8","66a79fce251c3b3fedb04d16","683db6dfa200031b80f2a654","68650770fb684adb34842efd","66a79fce251c3b3fedb04d16","2025-07-02T11:00:47.773Z","","","","","","ControlQ","","","","","","","","","","","","","","","","","","","","","","","","","","","","","","","","","","","","","","50"
"5717","","<div style=""width:500px;"">
  <p>How would you describe your current emotional state?</p>
  </div>","21","html-slider-response","46","2473070","0.0-10.0-3.1","110","1","2025-07-02 10:19:36","80fe4187154257d5fb01684ea91b68b9","105.19.62.19","Mozilla/5.0 (Windows NT 10.0; Win64; x64) AppleWebKit/537.36 (KHTML, like Gecko) Chrome/138.0.0.0 Safari/537.36","WebKit","Chrome","138.0.0.0","Windows","10.0","https://app.prolific.com/","en-US,en;q=0.9,zu;q=0.8","66a79fce251c3b3fedb04d16","683db6dfa200031b80f2a654","68650770fb684adb34842efd","66a79fce251c3b3fedb04d16","2025-07-02T11:00:53.494Z","","","","","","StressQ","","","","","","","","","","","","","","","","","","","","","","","","","","","","","","","","","","","","","","50"
"6119","","<div style=""width:500px;"">
  <p>What best describes how you currently feel?</p>
  </div>","75","html-slider-response","47","2479194","0.0-10.0-4.1","110","1","2025-07-02 10:19:36","80fe4187154257d5fb01684ea91b68b9","105.19.62.19","Mozilla/5.0 (Windows NT 10.0; Win64; x64) AppleWebKit/537.36 (KHTML, like Gecko) Chrome/138.0.0.0 Safari/537.36","WebKit","Chrome","138.0.0.0","Windows","10.0","https://app.prolific.com/","en-US,en;q=0.9,zu;q=0.8","66a79fce251c3b3fedb04d16","683db6dfa200031b80f2a654","68650770fb684adb34842efd","66a79fce251c3b3fedb04d16","2025-07-02T11:00:59.617Z","","","","","","MotivationQ","","","","","","","","","","","","","","","","","","","","","","","","","","","","","","","","","","","","","","50"
"","","","","ctl-task-cpt","48","2500509","0.0-10.0-0.2","110","1","2025-07-02 10:19:36","80fe4187154257d5fb01684ea91b68b9","105.19.62.19","Mozilla/5.0 (Windows NT 10.0; Win64; x64) AppleWebKit/537.36 (KHTML, like Gecko) Chrome/138.0.0.0 Safari/537.36","WebKit","Chrome","138.0.0.0","Windows","10.0","https://app.prolific.com/","en-US,en;q=0.9,zu;q=0.8","66a79fce251c3b3fedb04d16","683db6dfa200031b80f2a654","68650770fb684adb34842efd","66a79fce251c3b3fedb04d16","2025-07-02T11:01:20.932Z","","","","","","","","","","","","","","","","win-only","3","g1:SW,g2:NE","0.8","3","0","2483328.5","3204.4","8207.4","18293.7","1","4","8","6","1","1","1","1","0","0.007575757575757576","5003","3000","740","[""down"",""left""]","{""num_key_presses"":4,""num_perfect"":2,""num_errors"":0,""num_randdir"":2,""num_randdir_good_moves"":2,""num_whilered"":0,""num_whileblue"":0,""num_blue"":0,""num_good_moves"":4}","[299.22232142857143,295.12857142857143,0.8,299.22232142857143,295.12857142857143,101.3,299.22232142857143,295.12857142857143,201.8,299.22232142857143,295.12857142857143,303.2,299.22232142857143,295.12857142857143,417.5,299.22232142857143,295.12857142857143,524.7,299.22232142857143,295.12857142857143,637.6,299.22232142857143,295.12857142857143,743.7,299.22232142857143,295.12857142857143,847,299.22232142857143,295.12857142857143,949.5,299.22232142857143,295.12857142857143,1053.8,299.22232142857143,295.12857142857143,1165.2,299.22232142857143,295.12857142857143,1267.3,299.22232142857143,295.12857142857143,1367.4,299.22232142857143,295.12857142857143,1468.2,299.22232142857143,295.12857142857143,1572.6,299.22232142857143,295.12857142857143,1679.8,299.22232142857143,295.12857142857143,1781.8,299.22232142857143,295.12857142857143,1884,299.22232142857143,295.12857142857143,1986.7,299.22232142857143,295.12857142857143,2090.6,299.22232142857143,295.12857142857143,2194.2,299.22232142857143,295.12857142857143,2300.9,299.22232142857143,295.12857142857143,2405.8,299.22232142857143,295.12857142857143,2516.5,299.22232142857143,295.12857142857143,2617,299.22232142857143,295.12857142857143,2721.9,299.22232142857143,295.12857142857143,2821.9,299.22232142857143,295.12857142857143,2936.1,299.22232142857143,295.12857142857143,3038.2,299.22232142857143,295.12857142857143,3144.2,299.22232142857143,295.12857142857143,3249.1,299.22232142857143,295.12857142857143,3349.4,299.22232142857143,295.12857142857143,3451,298.22232142857143,295.12857142857143,3553.5,298.22232142857143,295.12857142857143,3653.6,298.22232142857143,295.12857142857143,3763.4,298.22232142857143,295.12857142857143,3866.9,298.22232142857143,295.12857142857143,3967.4,298.22232142857143,295.12857142857143,4070.9,298.22232142857143,295.12857142857143,4171.5,298.22232142857143,295.12857142857143,4272.5,298.22232142857143,295.12857142857143,4380.2,298.22232142857143,295.12857142857143,4484.3,298.22232142857143,295.12857142857143,4590,298.22232142857143,295.12857142857143,4693.1,298.22232142857143,295.12857142857143,4800,298.22232142857143,295.12857142857143,4900.4]","[2368.1,2368.1,1000,0,1368.1,""oops"",""down"",""left"",""good_move"",5250.7,2880.1,2203.6,2370.7,676.4,""smooth"",""left"",""left"",""good_move"",7164.3,1911.5,1500.1,5252.8,411.4,""oops"",""down"",""down"",""good_move"",9952.9,2787,2295,7165.9,492.1,""smooth"",""down"",""down"",""good_move""]","",""
"4011","","<div style=""width:500px;"">
  <p>What determined the result of this run?</p>
  </div>","13","html-slider-response","49","2504523","0.0-10.0-1.2","110","1","2025-07-02 10:19:36","80fe4187154257d5fb01684ea91b68b9","105.19.62.19","Mozilla/5.0 (Windows NT 10.0; Win64; x64) AppleWebKit/537.36 (KHTML, like Gecko) Chrome/138.0.0.0 Safari/537.36","WebKit","Chrome","138.0.0.0","Windows","10.0","https://app.prolific.com/","en-US,en;q=0.9,zu;q=0.8","66a79fce251c3b3fedb04d16","683db6dfa200031b80f2a654","68650770fb684adb34842efd","66a79fce251c3b3fedb04d16","2025-07-02T11:01:24.946Z","","","","","","AttribQ","","","","","","","","","","","","","","","","","","","","","","","","","","","","","","","","","","","","","","50"
"3655","","<div style=""width:500px;"">
  <p>How much control did you have over the ball?</p>
  </div>","70","html-slider-response","50","2508183","0.0-10.0-2.2","110","1","2025-07-02 10:19:36","80fe4187154257d5fb01684ea91b68b9","105.19.62.19","Mozilla/5.0 (Windows NT 10.0; Win64; x64) AppleWebKit/537.36 (KHTML, like Gecko) Chrome/138.0.0.0 Safari/537.36","WebKit","Chrome","138.0.0.0","Windows","10.0","https://app.prolific.com/","en-US,en;q=0.9,zu;q=0.8","66a79fce251c3b3fedb04d16","683db6dfa200031b80f2a654","68650770fb684adb34842efd","66a79fce251c3b3fedb04d16","2025-07-02T11:01:28.607Z","","","","","","ControlQ","","","","","","","","","","","","","","","","","","","","","","","","","","","","","","","","","","","","","","50"
"2973","","<div style=""width:500px;"">
  <p>How would you describe your current emotional state?</p>
  </div>","31","html-slider-response","51","2511161","0.0-10.0-3.2","110","1","2025-07-02 10:19:36","80fe4187154257d5fb01684ea91b68b9","105.19.62.19","Mozilla/5.0 (Windows NT 10.0; Win64; x64) AppleWebKit/537.36 (KHTML, like Gecko) Chrome/138.0.0.0 Safari/537.36","WebKit","Chrome","138.0.0.0","Windows","10.0","https://app.prolific.com/","en-US,en;q=0.9,zu;q=0.8","66a79fce251c3b3fedb04d16","683db6dfa200031b80f2a654","68650770fb684adb34842efd","66a79fce251c3b3fedb04d16","2025-07-02T11:01:31.584Z","","","","","","StressQ","","","","","","","","","","","","","","","","","","","","","","","","","","","","","","","","","","","","","","50"
"3445","","<div style=""width:500px;"">
  <p>What best describes how you currently feel?</p>
  </div>","84","html-slider-response","52","2514610","0.0-10.0-4.2","110","1","2025-07-02 10:19:36","80fe4187154257d5fb01684ea91b68b9","105.19.62.19","Mozilla/5.0 (Windows NT 10.0; Win64; x64) AppleWebKit/537.36 (KHTML, like Gecko) Chrome/138.0.0.0 Safari/537.36","WebKit","Chrome","138.0.0.0","Windows","10.0","https://app.prolific.com/","en-US,en;q=0.9,zu;q=0.8","66a79fce251c3b3fedb04d16","683db6dfa200031b80f2a654","68650770fb684adb34842efd","66a79fce251c3b3fedb04d16","2025-07-02T11:01:35.033Z","","","","","","MotivationQ","","","","","","","","","","","","","","","","","","","","","","","","","","","","","","","","","","","","","","50"
"","","","","ctl-task-cpt","53","2540248","0.0-10.0-0.3","110","1","2025-07-02 10:19:36","80fe4187154257d5fb01684ea91b68b9","105.19.62.19","Mozilla/5.0 (Windows NT 10.0; Win64; x64) AppleWebKit/537.36 (KHTML, like Gecko) Chrome/138.0.0.0 Safari/537.36","WebKit","Chrome","138.0.0.0","Windows","10.0","https://app.prolific.com/","en-US,en;q=0.9,zu;q=0.8","66a79fce251c3b3fedb04d16","683db6dfa200031b80f2a654","68650770fb684adb34842efd","66a79fce251c3b3fedb04d16","2025-07-02T11:02:00.671Z","","","","","","","","","","","","","","","","win-only","3","g1:SW,g2:NE","0.7","4","0","2518744.3","5455.3","10457.3","22613.3","1","4","4","6","1","1","-1","0","1","0","5002","3000","1860","[""down"",""left""]","{""num_key_presses"":4,""num_perfect"":2,""num_errors"":2,""num_randdir"":0,""num_randdir_good_moves"":0,""num_whilered"":0,""num_whileblue"":2,""num_blue"":2,""num_good_moves"":4}","[297.22232142857143,297.12857142857143,0.8,297.22232142857143,297.12857142857143,103.6,297.22232142857143,297.12857142857143,209.6,297.22232142857143,297.12857142857143,312.2,297.22232142857143,297.12857142857143,414.3,297.22232142857143,297.12857142857143,515.5,298.22232142857143,297.12857142857143,619.7,299.22232142857143,297.12857142857143,723.9,299.22232142857143,299.12857142857143,824.4,299.22232142857143,300.12857142857143,933.3,299.22232142857143,300.12857142857143,1034.3,299.22232142857143,300.12857142857143,1134.8,299.22232142857143,300.12857142857143,1235,299.22232142857143,300.12857142857143,1335.7,299.22232142857143,300.12857142857143,1436.9,299.22232142857143,300.12857142857143,1548.6,299.22232142857143,300.12857142857143,1651.5,299.22232142857143,300.12857142857143,1762.6,299.22232142857143,300.12857142857143,1864.4,299.22232142857143,300.12857142857143,1965.2,299.22232142857143,300.12857142857143,2073.6,299.22232142857143,300.12857142857143,2182.9,299.22232142857143,300.12857142857143,2292.5,299.22232142857143,300.12857142857143,2396.7,299.22232142857143,300.12857142857143,2501,299.22232142857143,300.12857142857143,2609.8,299.22232142857143,300.12857142857143,2711.6,299.22232142857143,300.12857142857143,2815.6,299.22232142857143,300.12857142857143,2915.9,299.22232142857143,300.12857142857143,3019,299.22232142857143,300.12857142857143,3128.9,299.22232142857143,300.12857142857143,3229.1,299.22232142857143,300.12857142857143,3333,299.22232142857143,300.12857142857143,3443.9,299.22232142857143,300.12857142857143,3545.7,299.22232142857143,300.12857142857143,3647.4,299.22232142857143,300.12857142857143,3750.9,299.22232142857143,300.12857142857143,3851.1,299.22232142857143,300.12857142857143,3951.5,299.22232142857143,300.12857142857143,4065.9,299.22232142857143,300.12857142857143,4167.4,299.22232142857143,300.12857142857143,4272.3,299.22232142857143,300.12857142857143,4381.1,299.22232142857143,300.12857142857143,4481.1,299.22232142857143,300.12857142857143,4583.5,299.22232142857143,300.12857142857143,4685,299.22232142857143,300.12857142857143,4786.5,299.22232142857143,300.12857142857143,4886.5]","[1333.3,1333.3,1014.4,0,318.9,""while_blue"",""up"",""down"",""good_move"",5133.4,3799.2,2756.4,1334.3,1042.8,""smooth"",""down"",""down"",""good_move"",8685.5,3550,3023,5135.5,527.1,""smooth"",""left"",""left"",""good_move"",12011.5,3324.1,2997.4,8687.4,326.8,""while_blue"",""left"",""left"",""good_move""]","",""
"4771","","<div style=""width:500px;"">
  <p>What determined the result of this run?</p>
  </div>","100","html-slider-response","54","2545024","0.0-10.0-1.3","110","1","2025-07-02 10:19:36","80fe4187154257d5fb01684ea91b68b9","105.19.62.19","Mozilla/5.0 (Windows NT 10.0; Win64; x64) AppleWebKit/537.36 (KHTML, like Gecko) Chrome/138.0.0.0 Safari/537.36","WebKit","Chrome","138.0.0.0","Windows","10.0","https://app.prolific.com/","en-US,en;q=0.9,zu;q=0.8","66a79fce251c3b3fedb04d16","683db6dfa200031b80f2a654","68650770fb684adb34842efd","66a79fce251c3b3fedb04d16","2025-07-02T11:02:05.447Z","","","","","","AttribQ","","","","","","","","","","","","","","","","","","","","","","","","","","","","","","","","","","","","","","50"
"3197","","<div style=""width:500px;"">
  <p>How much control did you have over the ball?</p>
  </div>","30","html-slider-response","55","2548224","0.0-10.0-2.3","110","1","2025-07-02 10:19:36","80fe4187154257d5fb01684ea91b68b9","105.19.62.19","Mozilla/5.0 (Windows NT 10.0; Win64; x64) AppleWebKit/537.36 (KHTML, like Gecko) Chrome/138.0.0.0 Safari/537.36","WebKit","Chrome","138.0.0.0","Windows","10.0","https://app.prolific.com/","en-US,en;q=0.9,zu;q=0.8","66a79fce251c3b3fedb04d16","683db6dfa200031b80f2a654","68650770fb684adb34842efd","66a79fce251c3b3fedb04d16","2025-07-02T11:02:08.647Z","","","","","","ControlQ","","","","","","","","","","","","","","","","","","","","","","","","","","","","","","","","","","","","","","50"
"3305","","<div style=""width:500px;"">
  <p>How would you describe your current emotional state?</p>
  </div>","29","html-slider-response","56","2551534","0.0-10.0-3.3","110","1","2025-07-02 10:19:36","80fe4187154257d5fb01684ea91b68b9","105.19.62.19","Mozilla/5.0 (Windows NT 10.0; Win64; x64) AppleWebKit/537.36 (KHTML, like Gecko) Chrome/138.0.0.0 Safari/537.36","WebKit","Chrome","138.0.0.0","Windows","10.0","https://app.prolific.com/","en-US,en;q=0.9,zu;q=0.8","66a79fce251c3b3fedb04d16","683db6dfa200031b80f2a654","68650770fb684adb34842efd","66a79fce251c3b3fedb04d16","2025-07-02T11:02:11.958Z","","","","","","StressQ","","","","","","","","","","","","","","","","","","","","","","","","","","","","","","","","","","","","","","50"
"4109","","<div style=""width:500px;"">
  <p>What best describes how you currently feel?</p>
  </div>","61","html-slider-response","57","2555648","0.0-10.0-4.3","110","1","2025-07-02 10:19:36","80fe4187154257d5fb01684ea91b68b9","105.19.62.19","Mozilla/5.0 (Windows NT 10.0; Win64; x64) AppleWebKit/537.36 (KHTML, like Gecko) Chrome/138.0.0.0 Safari/537.36","WebKit","Chrome","138.0.0.0","Windows","10.0","https://app.prolific.com/","en-US,en;q=0.9,zu;q=0.8","66a79fce251c3b3fedb04d16","683db6dfa200031b80f2a654","68650770fb684adb34842efd","66a79fce251c3b3fedb04d16","2025-07-02T11:02:16.071Z","","","","","","MotivationQ","","","","","","","","","","","","","","","","","","","","","","","","","","","","","","","","","","","","","","50"
"","","","","ctl-task-cpt","58","2609189","0.0-10.0-0.4","110","1","2025-07-02 10:19:36","80fe4187154257d5fb01684ea91b68b9","105.19.62.19","Mozilla/5.0 (Windows NT 10.0; Win64; x64) AppleWebKit/537.36 (KHTML, like Gecko) Chrome/138.0.0.0 Safari/537.36","WebKit","Chrome","138.0.0.0","Windows","10.0","https://app.prolific.com/","en-US,en;q=0.9,zu;q=0.8","66a79fce251c3b3fedb04d16","683db6dfa200031b80f2a654","68650770fb684adb34842efd","66a79fce251c3b3fedb04d16","2025-07-02T11:03:09.612Z","","","","","","","","","","","","","","","","win-only","1","g1:NE,g2:SW","0.6","5","0","2559784","1692.9","6724.5","50506.8","1","4","4","6","2","4","4","4","0","0.030303030303030304","5031.6","3000","960","[""down"",""left""]","{""num_key_presses"":12,""num_perfect"":7,""num_errors"":0,""num_randdir"":5,""num_randdir_good_moves"":2,""num_whilered"":0,""num_whileblue"":0,""num_blue"":2,""num_good_moves"":9}","[297.22232142857143,296.12857142857143,0.9,297.22232142857143,296.12857142857143,111.7,297.22232142857143,296.12857142857143,218.1,297.22232142857143,296.12857142857143,318.8,297.22232142857143,296.12857142857143,421,297.22232142857143,296.12857142857143,529.5,297.22232142857143,296.12857142857143,637.8,297.22232142857143,296.12857142857143,738.2,297.22232142857143,296.12857142857143,851,297.22232142857143,296.12857142857143,951.6,297.22232142857143,296.12857142857143,1052.8,297.22232142857143,296.12857142857143,1163.1,297.22232142857143,296.12857142857143,1269.4,297.22232142857143,296.12857142857143,1370.9,297.22232142857143,296.12857142857143,1473.9,297.22232142857143,296.12857142857143,1574.1,297.22232142857143,296.12857142857143,1677.1,297.22232142857143,296.12857142857143,1787.3,297.22232142857143,296.12857142857143,1888.8,297.22232142857143,296.12857142857143,1988.9,297.22232142857143,296.12857142857143,2091.8,297.22232142857143,296.12857142857143,2195.9,297.22232142857143,296.12857142857143,2301.2,297.22232142857143,296.12857142857143,2405,297.22232142857143,296.12857142857143,2513.4,297.22232142857143,296.12857142857143,2618.6,297.22232142857143,296.12857142857143,2729.7,297.22232142857143,296.12857142857143,2840.6,297.22232142857143,296.12857142857143,2946,297.22232142857143,296.12857142857143,3050.4,297.22232142857143,296.12857142857143,3153.1,297.22232142857143,296.12857142857143,3253.7,297.22232142857143,296.12857142857143,3358.5,297.22232142857143,296.12857142857143,3461.8,297.22232142857143,296.12857142857143,3565.7,297.22232142857143,296.12857142857143,3669.5,297.22232142857143,296.12857142857143,3772.8,297.22232142857143,296.12857142857143,3883.8,297.22232142857143,296.12857142857143,3984.6,297.22232142857143,296.12857142857143,4085.9,297.22232142857143,296.12857142857143,4192.9,297.22232142857143,296.12857142857143,4299.1,297.22232142857143,296.12857142857143,4399.7,297.22232142857143,296.12857142857143,4502.2,297.22232142857143,296.12857142857143,4607.2,297.22232142857143,296.12857142857143,4717.5,297.22232142857143,296.12857142857143,4822.5,297.22232142857143,296.12857142857143,4923.5]","[4885.2,4885.2,2407.9,2008.8,468.5,""oops"",""down"",""down"",""good_move"",7842.2,2954.8,2388.9,4887.4,565.9,""oops"",""down"",""up"",""bad_move"",14469.4,6622.6,2173.1,11708.2,588.1,""smooth"",""left"",""left"",""good_move"",17217.8,2746.3,1944.1,14471.6,802.1,""smooth"",""left"",""left"",""good_move"",20290.8,3069.6,2603.5,17221.2,466.1,""smooth"",""left"",""left"",""good_move"",23801.1,3507.8,3046.1,20293.3,461.7,""smooth"",""down"",""down"",""good_move"",26989.1,3183.6,2725.1,23805.5,458.5,""oops"",""down"",""up"",""bad_move"",30748.5,3757.9,2318.6,26990.7,1439.2,""oops"",""down"",""right"",""bad_move"",33700.2,2947.2,1620.6,30753,1326.6,""smooth"",""down"",""down"",""good_move"",37270.4,3566.4,2998.4,33704,568,""smooth"",""down"",""down"",""good_move"",39988.1,2711.2,2082.5,37276.9,628.7,""smooth"",""down"",""down"",""good_move"",43406.8,3414,2757,39992.8,657,""oops"",""left"",""left"",""good_move""]","",""
"5910","","<div style=""width:500px;"">
  <p>What determined the result of this run?</p>
  </div>","100","html-slider-response","59","2615104","0.0-10.0-1.4","110","1","2025-07-02 10:19:36","80fe4187154257d5fb01684ea91b68b9","105.19.62.19","Mozilla/5.0 (Windows NT 10.0; Win64; x64) AppleWebKit/537.36 (KHTML, like Gecko) Chrome/138.0.0.0 Safari/537.36","WebKit","Chrome","138.0.0.0","Windows","10.0","https://app.prolific.com/","en-US,en;q=0.9,zu;q=0.8","66a79fce251c3b3fedb04d16","683db6dfa200031b80f2a654","68650770fb684adb34842efd","66a79fce251c3b3fedb04d16","2025-07-02T11:03:15.527Z","","","","","","AttribQ","","","","","","","","","","","","","","","","","","","","","","","","","","","","","","","","","","","","","","50"
"3221","","<div style=""width:500px;"">
  <p>How much control did you have over the ball?</p>
  </div>","85","html-slider-response","60","2618333","0.0-10.0-2.4","110","1","2025-07-02 10:19:36","80fe4187154257d5fb01684ea91b68b9","105.19.62.19","Mozilla/5.0 (Windows NT 10.0; Win64; x64) AppleWebKit/537.36 (KHTML, like Gecko) Chrome/138.0.0.0 Safari/537.36","WebKit","Chrome","138.0.0.0","Windows","10.0","https://app.prolific.com/","en-US,en;q=0.9,zu;q=0.8","66a79fce251c3b3fedb04d16","683db6dfa200031b80f2a654","68650770fb684adb34842efd","66a79fce251c3b3fedb04d16","2025-07-02T11:03:18.756Z","","","","","","ControlQ","","","","","","","","","","","","","","","","","","","","","","","","","","","","","","","","","","","","","","50"
"3559","","<div style=""width:500px;"">
  <p>How would you describe your current emotional state?</p>
  </div>","10","html-slider-response","61","2621900","0.0-10.0-3.4","110","1","2025-07-02 10:19:36","80fe4187154257d5fb01684ea91b68b9","105.19.62.19","Mozilla/5.0 (Windows NT 10.0; Win64; x64) AppleWebKit/537.36 (KHTML, like Gecko) Chrome/138.0.0.0 Safari/537.36","WebKit","Chrome","138.0.0.0","Windows","10.0","https://app.prolific.com/","en-US,en;q=0.9,zu;q=0.8","66a79fce251c3b3fedb04d16","683db6dfa200031b80f2a654","68650770fb684adb34842efd","66a79fce251c3b3fedb04d16","2025-07-02T11:03:22.323Z","","","","","","StressQ","","","","","","","","","","","","","","","","","","","","","","","","","","","","","","","","","","","","","","50"
"3133","","<div style=""width:500px;"">
  <p>What best describes how you currently feel?</p>
  </div>","83","html-slider-response","62","2625041","0.0-10.0-4.4","110","1","2025-07-02 10:19:36","80fe4187154257d5fb01684ea91b68b9","105.19.62.19","Mozilla/5.0 (Windows NT 10.0; Win64; x64) AppleWebKit/537.36 (KHTML, like Gecko) Chrome/138.0.0.0 Safari/537.36","WebKit","Chrome","138.0.0.0","Windows","10.0","https://app.prolific.com/","en-US,en;q=0.9,zu;q=0.8","66a79fce251c3b3fedb04d16","683db6dfa200031b80f2a654","68650770fb684adb34842efd","66a79fce251c3b3fedb04d16","2025-07-02T11:03:25.464Z","","","","","","MotivationQ","","","","","","","","","","","","","","","","","","","","","","","","","","","","","","","","","","","","","","50"
"","","","","ctl-task-cpt","63","2703219","0.0-10.0-0.5","110","1","2025-07-02 10:19:36","80fe4187154257d5fb01684ea91b68b9","105.19.62.19","Mozilla/5.0 (Windows NT 10.0; Win64; x64) AppleWebKit/537.36 (KHTML, like Gecko) Chrome/138.0.0.0 Safari/537.36","WebKit","Chrome","138.0.0.0","Windows","10.0","https://app.prolific.com/","en-US,en;q=0.9,zu;q=0.8","66a79fce251c3b3fedb04d16","683db6dfa200031b80f2a654","68650770fb684adb34842efd","66a79fce251c3b3fedb04d16","2025-07-02T11:04:43.642Z","","","","","","","","","","","","","","","","win-only","0","g1:NW,g2:SE","0.5","6","0","2629178","3429.8","8431.7","75147.9","1","4","8","6","2","8","7","11","4","0.08333333333333333","5001.9","3000","960","[""down"",""right""]","{""num_key_presses"":15,""num_perfect"":7,""num_errors"":1,""num_randdir"":7,""num_randdir_good_moves"":3,""num_whilered"":0,""num_whileblue"":0,""num_blue"":3,""num_good_moves"":10}","[294.22232142857143,289.12857142857143,0.5,294.22232142857143,289.12857142857143,122,294.22232142857143,289.12857142857143,295,294.22232142857143,289.12857142857143,401.7,294.22232142857143,289.12857142857143,506.6,294.22232142857143,289.12857142857143,608.3,294.22232142857143,289.12857142857143,729.9,294.22232142857143,289.12857142857143,855.9,294.22232142857143,289.12857142857143,959.1,294.22232142857143,289.12857142857143,1078.4,294.22232142857143,289.12857142857143,1203.9,294.22232142857143,289.12857142857143,1328,294.22232142857143,289.12857142857143,1451.5,294.22232142857143,289.12857142857143,1575.3,294.22232142857143,289.12857142857143,1699.4,294.22232142857143,289.12857142857143,1822.2,294.22232142857143,289.12857142857143,1926.5,294.22232142857143,289.12857142857143,2027,294.22232142857143,289.12857142857143,2127.9,294.22232142857143,289.12857142857143,2252.9,294.22232142857143,289.12857142857143,2354.3,294.22232142857143,289.12857142857143,2460.1,294.22232142857143,289.12857142857143,2574.2,294.22232142857143,289.12857142857143,2686.9,294.22232142857143,289.12857142857143,2806.5,294.22232142857143,289.12857142857143,2917.7,294.22232142857143,289.12857142857143,3032.9,294.22232142857143,289.12857142857143,3150.3,294.22232142857143,289.12857142857143,3264,294.22232142857143,289.12857142857143,3377.8,294.22232142857143,289.12857142857143,3493.7,294.22232142857143,289.12857142857143,3599.4,294.22232142857143,289.12857142857143,3723.8,294.22232142857143,289.12857142857143,3843,294.22232142857143,289.12857142857143,3949.1,294.22232142857143,289.12857142857143,4072.1,294.22232142857143,289.12857142857143,4185.4,294.22232142857143,289.12857142857143,4302.9,294.22232142857143,289.12857142857143,4414.9,294.22232142857143,289.12857142857143,4526.2,294.22232142857143,289.12857142857143,4629.9,294.22232142857143,289.12857142857143,4733.8,294.22232142857143,289.12857142857143,4838.6,294.22232142857143,289.12857142857143,4949.1]","[5634.7,5634.7,2888.6,2042.3,703.8,""oops"",""down"",""left"",""bad_move"",10948.3,5311.5,1986.4,5636.8,3325.1,""smooth"",""down"",""down"",""good_move"",13835.9,2885.6,1943.6,10950.4,941.9,""smooth"",""right"",""right"",""good_move"",21414,7574.2,3303.5,17494.1,616.4,""oops"",""right"",""up"",""bad_move"",28004,6587.7,2489.7,21416.3,4098,""oops"",""right"",""right"",""good_move"",31175.5,3165.7,2618.4,28009.8,547.3,""smooth"",""right"",""right"",""good_move"",33885.7,2706.9,2187.9,31178.9,519,""oops"",""down"",""down"",""good_move"",36786,2897.7,2310.7,33888.3,587,""smooth"",""down"",""down"",""good_move"",40191.7,3402,2815.5,36789.7,586.5,""smooth"",""right"",""right"",""good_move"",42942.1,2747.1,2154.6,40195,592.5,""oops"",""down"",""up"",""bad_move"",49947.3,7001.5,2202.1,42945.9,4799.4,""smooth"",""down"",""down"",""good_move"",52784.2,2834.5,2178,49949.7,656.5,""oops"",""down"",""up"",""bad_move"",54263,1475,3010.4,52788,-1535.4,""error"",""-"",""-"",""no_move"",62893.1,8622.8,2692,59165.3,1035.8,""oops"",""left"",""down"",""good_move"",66508,3614.2,3141.6,62893.9,472.5,""smooth"",""down"",""down"",""good_move""]","",""
"4367","","<div style=""width:500px;"">
  <p>What determined the result of this run?</p>
  </div>","10","html-slider-response","64","2707592","0.0-10.0-1.5","110","1","2025-07-02 10:19:36","80fe4187154257d5fb01684ea91b68b9","105.19.62.19","Mozilla/5.0 (Windows NT 10.0; Win64; x64) AppleWebKit/537.36 (KHTML, like Gecko) Chrome/138.0.0.0 Safari/537.36","WebKit","Chrome","138.0.0.0","Windows","10.0","https://app.prolific.com/","en-US,en;q=0.9,zu;q=0.8","66a79fce251c3b3fedb04d16","683db6dfa200031b80f2a654","68650770fb684adb34842efd","66a79fce251c3b3fedb04d16","2025-07-02T11:04:48.015Z","","","","","","AttribQ","","","","","","","","","","","","","","","","","","","","","","","","","","","","","","","","","","","","","","50"
"4649","","<div style=""width:500px;"">
  <p>How much control did you have over the ball?</p>
  </div>","39","html-slider-response","65","2712247","0.0-10.0-2.5","110","1","2025-07-02 10:19:36","80fe4187154257d5fb01684ea91b68b9","105.19.62.19","Mozilla/5.0 (Windows NT 10.0; Win64; x64) AppleWebKit/537.36 (KHTML, like Gecko) Chrome/138.0.0.0 Safari/537.36","WebKit","Chrome","138.0.0.0","Windows","10.0","https://app.prolific.com/","en-US,en;q=0.9,zu;q=0.8","66a79fce251c3b3fedb04d16","683db6dfa200031b80f2a654","68650770fb684adb34842efd","66a79fce251c3b3fedb04d16","2025-07-02T11:04:52.670Z","","","","","","ControlQ","","","","","","","","","","","","","","","","","","","","","","","","","","","","","","","","","","","","","","50"
"3458","","<div style=""width:500px;"">
  <p>How would you describe your current emotional state?</p>
  </div>","16","html-slider-response","66","2715709","0.0-10.0-3.5","110","1","2025-07-02 10:19:36","80fe4187154257d5fb01684ea91b68b9","105.19.62.19","Mozilla/5.0 (Windows NT 10.0; Win64; x64) AppleWebKit/537.36 (KHTML, like Gecko) Chrome/138.0.0.0 Safari/537.36","WebKit","Chrome","138.0.0.0","Windows","10.0","https://app.prolific.com/","en-US,en;q=0.9,zu;q=0.8","66a79fce251c3b3fedb04d16","683db6dfa200031b80f2a654","68650770fb684adb34842efd","66a79fce251c3b3fedb04d16","2025-07-02T11:04:56.133Z","","","","","","StressQ","","","","","","","","","","","","","","","","","","","","","","","","","","","","","","","","","","","","","","50"
"3021","","<div style=""width:500px;"">
  <p>What best describes how you currently feel?</p>
  </div>","75","html-slider-response","67","2718734","0.0-10.0-4.5","110","1","2025-07-02 10:19:36","80fe4187154257d5fb01684ea91b68b9","105.19.62.19","Mozilla/5.0 (Windows NT 10.0; Win64; x64) AppleWebKit/537.36 (KHTML, like Gecko) Chrome/138.0.0.0 Safari/537.36","WebKit","Chrome","138.0.0.0","Windows","10.0","https://app.prolific.com/","en-US,en;q=0.9,zu;q=0.8","66a79fce251c3b3fedb04d16","683db6dfa200031b80f2a654","68650770fb684adb34842efd","66a79fce251c3b3fedb04d16","2025-07-02T11:04:59.157Z","","","","","","MotivationQ","","","","","","","","","","","","","","","","","","","","","","","","","","","","","","","","","","","","","","50"
"","","","","ctl-task-cpt","68","2815550","0.0-10.0-0.6","110","1","2025-07-02 10:19:36","80fe4187154257d5fb01684ea91b68b9","105.19.62.19","Mozilla/5.0 (Windows NT 10.0; Win64; x64) AppleWebKit/537.36 (KHTML, like Gecko) Chrome/138.0.0.0 Safari/537.36","WebKit","Chrome","138.0.0.0","Windows","10.0","https://app.prolific.com/","en-US,en;q=0.9,zu;q=0.8","66a79fce251c3b3fedb04d16","683db6dfa200031b80f2a654","68650770fb684adb34842efd","66a79fce251c3b3fedb04d16","2025-07-02T11:06:35.974Z","","","","","","","","","","","","","","","","win-only","1","g1:NE,g2:SW","0.4","7","0","2722869.2","3177.8","8181.4","93778.9","1","4","8","6","2","-8","-8","3","11","0.022727272727272728","5003.6","3000","-525","[""down"",""left""]","{""num_key_presses"":18,""num_perfect"":6,""num_errors"":0,""num_randdir"":12,""num_randdir_good_moves"":5,""num_whilered"":0,""num_whileblue"":0,""num_blue"":5,""num_good_moves"":11}","[295.22232142857143,293.12857142857143,2,295.22232142857143,293.12857142857143,104.3,295.22232142857143,293.12857142857143,215.4,295.22232142857143,293.12857142857143,320.4,295.22232142857143,293.12857142857143,423.2,295.22232142857143,293.12857142857143,528.2,295.22232142857143,293.12857142857143,629.6,295.22232142857143,293.12857142857143,742.9,295.22232142857143,293.12857142857143,845.6,295.22232142857143,293.12857142857143,959,295.22232142857143,293.12857142857143,1061.5,295.22232142857143,293.12857142857143,1170.9,295.22232142857143,293.12857142857143,1272.2,295.22232142857143,293.12857142857143,1380.4,295.22232142857143,293.12857142857143,1489.9,295.22232142857143,293.12857142857143,1594.1,295.22232142857143,293.12857142857143,1705.8,295.22232142857143,293.12857142857143,1818.6,295.22232142857143,293.12857142857143,1925.4,295.22232142857143,293.12857142857143,2026.5,295.22232142857143,293.12857142857143,2128.6,295.22232142857143,293.12857142857143,2230.1,295.22232142857143,293.12857142857143,2337.6,295.22232142857143,293.12857142857143,2448.4,295.22232142857143,293.12857142857143,2552.8,295.22232142857143,293.12857142857143,2663,295.22232142857143,293.12857142857143,2763.2,295.22232142857143,293.12857142857143,2864.5,295.22232142857143,293.12857142857143,2969.9,295.22232142857143,293.12857142857143,3074.4,295.22232142857143,293.12857142857143,3174.7,295.22232142857143,293.12857142857143,3275.5,295.22232142857143,293.12857142857143,3378.5,295.22232142857143,293.12857142857143,3479.5,295.22232142857143,293.12857142857143,3583.7,295.22232142857143,293.12857142857143,3689.1,295.22232142857143,293.12857142857143,3792.7,295.22232142857143,293.12857142857143,3893.3,295.22232142857143,293.12857142857143,3999.1,295.22232142857143,293.12857142857143,4101.9,295.22232142857143,293.12857142857143,4206.4,295.22232142857143,293.12857142857143,4310.9,295.22232142857143,293.12857142857143,4412.5,295.22232142857143,293.12857142857143,4513.9,295.22232142857143,293.12857142857143,4618.9,295.22232142857143,293.12857142857143,4723.6,295.22232142857143,293.12857142857143,4826.2,295.22232142857143,293.12857142857143,4929.5]","[1549.4,1549.4,1000,0,549.4,""oops"",""down"",""right"",""bad_move"",4486.2,2933.8,2533,1552.4,400.8,""oops"",""down"",""right"",""bad_move"",8057.8,3567.9,2574.5,4490,993.4,""smooth"",""down"",""down"",""good_move"",11298.2,3237.8,2875.7,8060.5,362.1,""smooth"",""left"",""left"",""good_move"",17746.8,6443.9,2153.8,15112.1,480.9,""oops"",""left"",""up"",""bad_move"",20758,3010.3,2361.3,17747.7,649,""smooth"",""left"",""left"",""good_move"",24605.4,3843.6,3402.7,20761.8,440.9,""oops"",""left"",""down"",""good_move"",34830.9,10219.4,2557.6,31834.3,439,""smooth"",""down"",""down"",""good_move"",37669.5,2836.7,2288.1,34832.9,548.5,""oops"",""left"",""right"",""bad_move"",41322.7,3650.5,3211.6,37672.2,438.9,""oops"",""left"",""down"",""good_move"",44549.6,3222.8,2652.5,41326.9,570.2,""oops"",""left"",""right"",""bad_move"",48390,3837.6,3123.5,44552.4,714.1,""oops"",""left"",""left"",""good_move"",52887,4492.9,3471.1,48394.3,1021.6,""smooth"",""left"",""left"",""good_move"",57550,4659.2,2175.4,52890.8,2483.8,""smooth"",""left"",""left"",""good_move"",62609.2,5055.2,2276.1,57555,2778.2,""oops"",""left"",""left"",""good_move"",70679.8,8068,2241.2,68068.5,370.1,""oops"",""left"",""right"",""bad_move"",77410.5,6728.8,2434.4,74556,420.1,""oops"",""left"",""right"",""bad_move"",80594.6,3181.8,2673,77412.8,508.8,""oops"",""left"",""left"",""good_move""]","",""
"5555","","<div style=""width:500px;"">
  <p>What determined the result of this run?</p>
  </div>","85","html-slider-response","69","2821111","0.0-10.0-1.6","110","1","2025-07-02 10:19:36","80fe4187154257d5fb01684ea91b68b9","105.19.62.19","Mozilla/5.0 (Windows NT 10.0; Win64; x64) AppleWebKit/537.36 (KHTML, like Gecko) Chrome/138.0.0.0 Safari/537.36","WebKit","Chrome","138.0.0.0","Windows","10.0","https://app.prolific.com/","en-US,en;q=0.9,zu;q=0.8","66a79fce251c3b3fedb04d16","683db6dfa200031b80f2a654","68650770fb684adb34842efd","66a79fce251c3b3fedb04d16","2025-07-02T11:06:41.534Z","","","","","","AttribQ","","","","","","","","","","","","","","","","","","","","","","","","","","","","","","","","","","","","","","50"
"3647","","<div style=""width:500px;"">
  <p>How much control did you have over the ball?</p>
  </div>","80","html-slider-response","70","2824764","0.0-10.0-2.6","110","1","2025-07-02 10:19:36","80fe4187154257d5fb01684ea91b68b9","105.19.62.19","Mozilla/5.0 (Windows NT 10.0; Win64; x64) AppleWebKit/537.36 (KHTML, like Gecko) Chrome/138.0.0.0 Safari/537.36","WebKit","Chrome","138.0.0.0","Windows","10.0","https://app.prolific.com/","en-US,en;q=0.9,zu;q=0.8","66a79fce251c3b3fedb04d16","683db6dfa200031b80f2a654","68650770fb684adb34842efd","66a79fce251c3b3fedb04d16","2025-07-02T11:06:45.188Z","","","","","","ControlQ","","","","","","","","","","","","","","","","","","","","","","","","","","","","","","","","","","","","","","50"
"3610","","<div style=""width:500px;"">
  <p>How would you describe your current emotional state?</p>
  </div>","17","html-slider-response","71","2828383","0.0-10.0-3.6","110","1","2025-07-02 10:19:36","80fe4187154257d5fb01684ea91b68b9","105.19.62.19","Mozilla/5.0 (Windows NT 10.0; Win64; x64) AppleWebKit/537.36 (KHTML, like Gecko) Chrome/138.0.0.0 Safari/537.36","WebKit","Chrome","138.0.0.0","Windows","10.0","https://app.prolific.com/","en-US,en;q=0.9,zu;q=0.8","66a79fce251c3b3fedb04d16","683db6dfa200031b80f2a654","68650770fb684adb34842efd","66a79fce251c3b3fedb04d16","2025-07-02T11:06:48.806Z","","","","","","StressQ","","","","","","","","","","","","","","","","","","","","","","","","","","","","","","","","","","","","","","50"
"3559","","<div style=""width:500px;"">
  <p>What best describes how you currently feel?</p>
  </div>","80","html-slider-response","72","2831947","0.0-10.0-4.6","110","1","2025-07-02 10:19:36","80fe4187154257d5fb01684ea91b68b9","105.19.62.19","Mozilla/5.0 (Windows NT 10.0; Win64; x64) AppleWebKit/537.36 (KHTML, like Gecko) Chrome/138.0.0.0 Safari/537.36","WebKit","Chrome","138.0.0.0","Windows","10.0","https://app.prolific.com/","en-US,en;q=0.9,zu;q=0.8","66a79fce251c3b3fedb04d16","683db6dfa200031b80f2a654","68650770fb684adb34842efd","66a79fce251c3b3fedb04d16","2025-07-02T11:06:52.370Z","","","","","","MotivationQ","","","","","","","","","","","","","","","","","","","","","","","","","","","","","","","","","","","","","","50"
"","","","","ctl-task-cpt","73","2910623","0.0-10.0-0.7","110","1","2025-07-02 10:19:36","80fe4187154257d5fb01684ea91b68b9","105.19.62.19","Mozilla/5.0 (Windows NT 10.0; Win64; x64) AppleWebKit/537.36 (KHTML, like Gecko) Chrome/138.0.0.0 Safari/537.36","WebKit","Chrome","138.0.0.0","Windows","10.0","https://app.prolific.com/","en-US,en;q=0.9,zu;q=0.8","66a79fce251c3b3fedb04d16","683db6dfa200031b80f2a654","68650770fb684adb34842efd","66a79fce251c3b3fedb04d16","2025-07-02T11:08:11.046Z","","","","","","","","","","","","","","","","win-only","2","g1:SE,g2:NW","0.3","8","0","2836084.3","1795.4","6833.4","75644.5","1","4","4","6","1","-1","-3","0","3","0","5038","3000","-825","[""down"",""right""]","{""num_key_presses"":17,""num_perfect"":3,""num_errors"":2,""num_randdir"":12,""num_randdir_good_moves"":5,""num_whilered"":0,""num_whileblue"":0,""num_blue"":0,""num_good_moves"":7}","[299.22232142857143,303.12857142857143,0.6,299.22232142857143,303.12857142857143,124,299.22232142857143,303.12857142857143,227.9,299.22232142857143,303.12857142857143,330.8,299.22232142857143,303.12857142857143,470.1,299.22232142857143,303.12857142857143,603.1,299.22232142857143,303.12857142857143,736.6,299.22232142857143,303.12857142857143,872,299.22232142857143,303.12857142857143,1006.4,299.22232142857143,303.12857142857143,1141.9,299.22232142857143,303.12857142857143,1272.4,299.22232142857143,303.12857142857143,1423.7,299.22232142857143,303.12857142857143,1556.9,299.22232142857143,303.12857142857143,1696.9,299.22232142857143,303.12857142857143,1827.5,299.22232142857143,303.12857142857143,1968.1,299.22232142857143,303.12857142857143,2113.1,299.22232142857143,303.12857142857143,2243.2,299.22232142857143,303.12857142857143,2376.8,299.22232142857143,303.12857142857143,2511.7,299.22232142857143,303.12857142857143,2645.3,299.22232142857143,303.12857142857143,2780.6,299.22232142857143,303.12857142857143,2914.2,299.22232142857143,303.12857142857143,3051.1,299.22232142857143,303.12857142857143,3186.1,299.22232142857143,303.12857142857143,3323.8,299.22232142857143,303.12857142857143,3457.7,299.22232142857143,303.12857142857143,3587.6,299.22232142857143,303.12857142857143,3721.3,299.22232142857143,303.12857142857143,3857.2,299.22232142857143,303.12857142857143,3991.6,299.22232142857143,303.12857142857143,4129.6,299.22232142857143,303.12857142857143,4265.4,299.22232142857143,303.12857142857143,4400.1,299.22232142857143,303.12857142857143,4538,299.22232142857143,303.12857142857143,4670.9,299.22232142857143,303.12857142857143,4811.5,299.22232142857143,303.12857142857143,4942.1]","[1983.3,1983.3,1000,0,983.3,""smooth"",""up"",""up"",""bad_move"",11386.1,9397.3,2223.1,1988.8,7174.2,""smooth"",""right"",""right"",""good_move"",14755.9,3367.4,2063.5,11388.5,1303.9,""oops"",""right"",""left"",""bad_move"",18144.4,3384.9,2585.2,14759.5,799.7,""error"",""-"",""-"",""no_move"",23387.2,5238.8,3345.6,19189.3,852.3,""oops"",""down"",""down"",""good_move"",26914.7,3525.2,2969.8,23389.6,555.4,""oops"",""down"",""left"",""bad_move"",29794.2,2875.1,1771.3,26919.1,1103.8,""oops"",""down"",""up"",""bad_move"",33298.7,3501.5,2255.1,29797.3,1246.4,""oops"",""down"",""right"",""good_move"",35694.8,2390.9,1192.1,33303.9,1198.8,""smooth"",""down"",""down"",""good_move"",39702.6,4004.7,3540.8,35697.9,463.9,""oops"",""down"",""right"",""good_move"",43303.5,3596.6,2932.5,39706.9,664.1,""oops"",""down"",""left"",""bad_move"",47379.1,4070.5,2881.5,43308.6,1189,""oops"",""right"",""left"",""bad_move"",51445.7,4064.1,2760.3,47381.6,1303.8,""oops"",""left"",""up"",""bad_move"",56358,4909.6,2324.2,51448.4,2585.4,""oops"",""up"",""down"",""good_move"",60287,3915.4,2833.5,56371.6,1081.9,""oops"",""up"",""left"",""bad_move"",62859.2,2567.9,2007.1,60291.3,560.9,""oops"",""up"",""down"",""good_move"",64947,2082.4,2230.3,62864.7,-147.9,""error"",""-"",""-"",""no_move""]","",""
"4546","","<div style=""width:500px;"">
  <p>What determined the result of this run?</p>
  </div>","89","html-slider-response","74","2915176","0.0-10.0-1.7","110","1","2025-07-02 10:19:36","80fe4187154257d5fb01684ea91b68b9","105.19.62.19","Mozilla/5.0 (Windows NT 10.0; Win64; x64) AppleWebKit/537.36 (KHTML, like Gecko) Chrome/138.0.0.0 Safari/537.36","WebKit","Chrome","138.0.0.0","Windows","10.0","https://app.prolific.com/","en-US,en;q=0.9,zu;q=0.8","66a79fce251c3b3fedb04d16","683db6dfa200031b80f2a654","68650770fb684adb34842efd","66a79fce251c3b3fedb04d16","2025-07-02T11:08:15.599Z","","","","","","AttribQ","","","","","","","","","","","","","","","","","","","","","","","","","","","","","","","","","","","","","","50"
"4155","","<div style=""width:500px;"">
  <p>How much control did you have over the ball?</p>
  </div>","0","html-slider-response","75","2919337","0.0-10.0-2.7","110","1","2025-07-02 10:19:36","80fe4187154257d5fb01684ea91b68b9","105.19.62.19","Mozilla/5.0 (Windows NT 10.0; Win64; x64) AppleWebKit/537.36 (KHTML, like Gecko) Chrome/138.0.0.0 Safari/537.36","WebKit","Chrome","138.0.0.0","Windows","10.0","https://app.prolific.com/","en-US,en;q=0.9,zu;q=0.8","66a79fce251c3b3fedb04d16","683db6dfa200031b80f2a654","68650770fb684adb34842efd","66a79fce251c3b3fedb04d16","2025-07-02T11:08:19.760Z","","","","","","ControlQ","","","","","","","","","","","","","","","","","","","","","","","","","","","","","","","","","","","","","","50"
"2840","","<div style=""width:500px;"">
  <p>How would you describe your current emotional state?</p>
  </div>","16","html-slider-response","76","2922184","0.0-10.0-3.7","110","1","2025-07-02 10:19:36","80fe4187154257d5fb01684ea91b68b9","105.19.62.19","Mozilla/5.0 (Windows NT 10.0; Win64; x64) AppleWebKit/537.36 (KHTML, like Gecko) Chrome/138.0.0.0 Safari/537.36","WebKit","Chrome","138.0.0.0","Windows","10.0","https://app.prolific.com/","en-US,en;q=0.9,zu;q=0.8","66a79fce251c3b3fedb04d16","683db6dfa200031b80f2a654","68650770fb684adb34842efd","66a79fce251c3b3fedb04d16","2025-07-02T11:08:22.607Z","","","","","","StressQ","","","","","","","","","","","","","","","","","","","","","","","","","","","","","","","","","","","","","","50"
"2896","","<div style=""width:500px;"">
  <p>What best describes how you currently feel?</p>
  </div>","74","html-slider-response","77","2925086","0.0-10.0-4.7","110","1","2025-07-02 10:19:36","80fe4187154257d5fb01684ea91b68b9","105.19.62.19","Mozilla/5.0 (Windows NT 10.0; Win64; x64) AppleWebKit/537.36 (KHTML, like Gecko) Chrome/138.0.0.0 Safari/537.36","WebKit","Chrome","138.0.0.0","Windows","10.0","https://app.prolific.com/","en-US,en;q=0.9,zu;q=0.8","66a79fce251c3b3fedb04d16","683db6dfa200031b80f2a654","68650770fb684adb34842efd","66a79fce251c3b3fedb04d16","2025-07-02T11:08:25.510Z","","","","","","MotivationQ","","","","","","","","","","","","","","","","","","","","","","","","","","","","","","","","","","","","","","50"
"","","","","ctl-task-cpt","78","3024735","0.0-10.0-0.8","110","1","2025-07-02 10:19:36","80fe4187154257d5fb01684ea91b68b9","105.19.62.19","Mozilla/5.0 (Windows NT 10.0; Win64; x64) AppleWebKit/537.36 (KHTML, like Gecko) Chrome/138.0.0.0 Safari/537.36","WebKit","Chrome","138.0.0.0","Windows","10.0","https://app.prolific.com/","en-US,en;q=0.9,zu;q=0.8","66a79fce251c3b3fedb04d16","683db6dfa200031b80f2a654","68650770fb684adb34842efd","66a79fce251c3b3fedb04d16","2025-07-02T11:10:05.158Z","","","","","","","","","","","","","","","","win-only","2","g1:SE,g2:NW","0.4","9","0","2929224.2","2062.4","7080.2","96597.9","1","4","8","6","2","-8","-9","0","0","0","5017.8","3000","-420","[""left"",""up""]","{""num_key_presses"":21,""num_perfect"":8,""num_errors"":1,""num_randdir"":12,""num_randdir_good_moves"":5,""num_whilered"":0,""num_whileblue"":1,""num_blue"":2,""num_good_moves"":12}","[297.22232142857143,292.12857142857143,0.6,297.22232142857143,292.12857142857143,125.5,297.22232142857143,292.12857142857143,227.8,297.22232142857143,292.12857142857143,329.6,297.22232142857143,292.12857142857143,463.8,297.22232142857143,292.12857142857143,566.2,297.22232142857143,292.12857142857143,689.7,297.22232142857143,292.12857142857143,818.8,297.22232142857143,292.12857142857143,928.3,297.22232142857143,292.12857142857143,1036.3,297.22232142857143,292.12857142857143,1139.1,297.22232142857143,292.12857142857143,1266.9,297.22232142857143,292.12857142857143,1395.8,297.22232142857143,292.12857142857143,1516.9,297.22232142857143,292.12857142857143,1640.2,297.22232142857143,292.12857142857143,1764.7,297.22232142857143,292.12857142857143,1890.8,297.22232142857143,292.12857142857143,2008.5,297.22232142857143,292.12857142857143,2132.9,297.22232142857143,292.12857142857143,2251.9,297.22232142857143,292.12857142857143,2376.2,297.22232142857143,292.12857142857143,2495.6,297.22232142857143,292.12857142857143,2619.1,297.22232142857143,292.12857142857143,2739.6,297.22232142857143,292.12857142857143,2858.4,297.22232142857143,292.12857142857143,2979.2,297.22232142857143,292.12857142857143,3100.7,297.22232142857143,292.12857142857143,3207.7,297.22232142857143,292.12857142857143,3327.2,297.22232142857143,292.12857142857143,3458.3,297.22232142857143,292.12857142857143,3558.6,297.22232142857143,292.12857142857143,3683.8,297.22232142857143,292.12857142857143,3809.7,297.22232142857143,292.12857142857143,3931.3,297.22232142857143,292.12857142857143,4056.5,297.22232142857143,292.12857142857143,4166.2,297.22232142857143,292.12857142857143,4283.2,297.22232142857143,292.12857142857143,4412.9,297.22232142857143,292.12857142857143,4533.3,297.22232142857143,292.12857142857143,4653.1,297.22232142857143,292.12857142857143,4774.4,297.22232142857143,292.12857142857143,4893.9]","[1537.4,1537.4,1000,0,537.4,""oops"",""left"",""right"",""bad_move"",5418.5,3877.3,2957.1,1541.2,920.2,""oops"",""up"",""right"",""bad_move"",8461.4,3040.2,2375.2,5421.3,665,""oops"",""up"",""down"",""bad_move"",11099.4,2635.4,1880.7,8464,754.7,""oops"",""up"",""up"",""good_move"",17180.7,6077.1,2868.4,11103.6,3208.7,""smooth"",""up"",""up"",""good_move"",23368.2,6185.4,4064.7,17182.8,2120.7,""smooth"",""up"",""up"",""good_move"",29720,6349.9,2197,23370.1,4152.9,""oops"",""left"",""down"",""bad_move"",35745.9,6023.6,2148.8,33128.4,468.7,""smooth"",""left"",""left"",""good_move"",38849.9,3103.1,2577.8,35746.8,525.3,""smooth"",""left"",""left"",""good_move"",41366.4,2512.4,1740.7,38854,771.7,""oops"",""up"",""up"",""good_move"",44695.9,3326.8,2682.2,41369.1,644.6,""smooth"",""left"",""left"",""good_move"",47821.5,3123.7,2559.5,44698.7,564.2,""oops"",""left"",""down"",""bad_move"",50995.5,3166.6,2778.6,47828.9,388,""while_blue"",""up"",""right"",""bad_move"",54214.8,3214.1,2493.6,51000.7,720.5,""oops"",""up"",""up"",""good_move"",58165.2,3948.4,2765.5,54216.8,1182.9,""oops"",""up"",""down"",""bad_move"",62017.6,3848.3,2138.4,58169.4,1709.8,""smooth"",""down"",""down"",""bad_move"",65329.8,3306.4,2814.8,62023.4,491.6,""smooth"",""up"",""up"",""good_move"",69491.3,4158.1,2478.4,65333.2,1679.7,""smooth"",""up"",""up"",""good_move"",74998,5500.8,3055.2,69497.2,2445.6,""oops"",""left"",""left"",""good_move"",80862.5,5862.2,3000.8,75000.3,2861.4,""oops"",""left"",""left"",""good_move"",86717.7,5852.7,2355.3,80865,3497.4,""oops"",""up"",""right"",""bad_move""]","",""
"3276","","<div style=""width:500px;"">
  <p>What determined the result of this run?</p>
  </div>","66","html-slider-response","79","3028017","0.0-10.0-1.8","110","1","2025-07-02 10:19:36","80fe4187154257d5fb01684ea91b68b9","105.19.62.19","Mozilla/5.0 (Windows NT 10.0; Win64; x64) AppleWebKit/537.36 (KHTML, like Gecko) Chrome/138.0.0.0 Safari/537.36","WebKit","Chrome","138.0.0.0","Windows","10.0","https://app.prolific.com/","en-US,en;q=0.9,zu;q=0.8","66a79fce251c3b3fedb04d16","683db6dfa200031b80f2a654","68650770fb684adb34842efd","66a79fce251c3b3fedb04d16","2025-07-02T11:10:08.441Z","","","","","","AttribQ","","","","","","","","","","","","","","","","","","","","","","","","","","","","","","","","","","","","","","50"
"3849","","<div style=""width:500px;"">
  <p>How much control did you have over the ball?</p>
  </div>","13","html-slider-response","80","3031874","0.0-10.0-2.8","110","1","2025-07-02 10:19:36","80fe4187154257d5fb01684ea91b68b9","105.19.62.19","Mozilla/5.0 (Windows NT 10.0; Win64; x64) AppleWebKit/537.36 (KHTML, like Gecko) Chrome/138.0.0.0 Safari/537.36","WebKit","Chrome","138.0.0.0","Windows","10.0","https://app.prolific.com/","en-US,en;q=0.9,zu;q=0.8","66a79fce251c3b3fedb04d16","683db6dfa200031b80f2a654","68650770fb684adb34842efd","66a79fce251c3b3fedb04d16","2025-07-02T11:10:12.297Z","","","","","","ControlQ","","","","","","","","","","","","","","","","","","","","","","","","","","","","","","","","","","","","","","50"
"2601","","<div style=""width:500px;"">
  <p>How would you describe your current emotional state?</p>
  </div>","16","html-slider-response","81","3034482","0.0-10.0-3.8","110","1","2025-07-02 10:19:36","80fe4187154257d5fb01684ea91b68b9","105.19.62.19","Mozilla/5.0 (Windows NT 10.0; Win64; x64) AppleWebKit/537.36 (KHTML, like Gecko) Chrome/138.0.0.0 Safari/537.36","WebKit","Chrome","138.0.0.0","Windows","10.0","https://app.prolific.com/","en-US,en;q=0.9,zu;q=0.8","66a79fce251c3b3fedb04d16","683db6dfa200031b80f2a654","68650770fb684adb34842efd","66a79fce251c3b3fedb04d16","2025-07-02T11:10:14.905Z","","","","","","StressQ","","","","","","","","","","","","","","","","","","","","","","","","","","","","","","","","","","","","","","50"
"4642","","<div style=""width:500px;"">
  <p>What best describes how you currently feel?</p>
  </div>","69","html-slider-response","82","3039132","0.0-10.0-4.8","110","1","2025-07-02 10:19:36","80fe4187154257d5fb01684ea91b68b9","105.19.62.19","Mozilla/5.0 (Windows NT 10.0; Win64; x64) AppleWebKit/537.36 (KHTML, like Gecko) Chrome/138.0.0.0 Safari/537.36","WebKit","Chrome","138.0.0.0","Windows","10.0","https://app.prolific.com/","en-US,en;q=0.9,zu;q=0.8","66a79fce251c3b3fedb04d16","683db6dfa200031b80f2a654","68650770fb684adb34842efd","66a79fce251c3b3fedb04d16","2025-07-02T11:10:19.555Z","","","","","","MotivationQ","","","","","","","","","","","","","","","","","","","","","","","","","","","","","","","","","","","","","","50"
