"rt","response_timestamp","stimulus","response","trial_type","trial_index","time_elapsed","internal_node_id","run_id","condition","recorded_at","source_code_version","ip","user_agent","device","browser","browser_version","platform","platform_version","referer","accept_language","PROLIFIC_PID","STUDY_ID","SESSION_ID","prolific_id","realtime","view_history","question_order","consent","success","question_id","eventType","responses","item_order","radio_event_ids","radio_event_times","key_event_times","mouse_event_times","straightlining","zigzagging","honeypot","which_type","canvas_config","goals_layout","control_level","trial_number","tutorial_trial_number","trial_start_time","phase1_start_time","phase2_start_time","phase3_start_time","goal_1_value","goal_1_distance","goal_2_value","goal_2_distance","goal_selected","outcome","outcome_total","participant_final_score","participant_initial_score","participant_final_score_prop","goal_choice_rt","allocated_time","allocated_time_remaining","goal_direction","counts","mouse_movements","key_presses","correct","slider_start"
"55623","1751451568636","<p style='font-size:40px;line-height:1.25'><strong>Welcome to the experiment!</strong></p><p style='font-size:1.1em;line-height:1.25'>Thank you for your interest in our experiment! Before you begin, it is important that we obtain your informed consent to participate in the study.</p><p style='font-size:1.1em;line-height:1.25'>On the next screen will be an <strong>information sheet</strong> for you to read. To participate in the study we need you to read this information sheet and the following consent form carefully. If you agree with all the statements, please click the <strong>I agree</strong> button.</p><p style='font-size:1.1em;line-height:1.25'>Press <strong>Next</strong> to read the information sheet.</p>","0","custom-html-button-response","0","55627","0.0-0.0","20","1","2025-07-02 10:18:29","80fe4187154257d5fb01684ea91b68b9","165.165.127.92","Mozilla/5.0 (Windows NT 10.0; Win64; x64) AppleWebKit/537.36 (KHTML, like Gecko) Chrome/137.0.0.0 Safari/537.36","WebKit","Chrome","137.0.0.0","Windows","10.0","https://app.prolific.com/","en-AU,en-ZA;q=0.9,en-GB;q=0.8,en-US;q=0.7,en;q=0.6,fr;q=0.5","66b61da8697a1059a78e7008","683db6dfa200031b80f2a654","6865076fc1495b205f4e37bc","66b61da8697a1059a78e7008","2025-07-02T10:19:28.638Z","","","","","","","","","","","","","","","","","","","","","","","","","","","","","","","","","","","","","","","","","","","",""
"39780","","","","instructions","1","95410","0.0-1.0","20","1","2025-07-02 10:18:29","80fe4187154257d5fb01684ea91b68b9","165.165.127.92","Mozilla/5.0 (Windows NT 10.0; Win64; x64) AppleWebKit/537.36 (KHTML, like Gecko) Chrome/137.0.0.0 Safari/537.36","WebKit","Chrome","137.0.0.0","Windows","10.0","https://app.prolific.com/","en-AU,en-ZA;q=0.9,en-GB;q=0.8,en-US;q=0.7,en;q=0.6,fr;q=0.5","66b61da8697a1059a78e7008","683db6dfa200031b80f2a654","6865076fc1495b205f4e37bc","66b61da8697a1059a78e7008","","[{""page_index"":0,""viewing_time"":16752},{""page_index"":1,""viewing_time"":23028}]","","","","","","","","","","","","","","","","","","","","","","","","","","","","","","","","","","","","","","","","","","",""
"12974","","","{""Q0"":"""",""Q1"":"""",""Q2"":"""",""Q3"":"""",""Q4"":"""",""Q5"":"""",""Q6"":""I agree""}","survey-multi-choice","2","108388","0.0-2.0","20","1","2025-07-02 10:18:29","80fe4187154257d5fb01684ea91b68b9","165.165.127.92","Mozilla/5.0 (Windows NT 10.0; Win64; x64) AppleWebKit/537.36 (KHTML, like Gecko) Chrome/137.0.0.0 Safari/537.36","WebKit","Chrome","137.0.0.0","Windows","10.0","https://app.prolific.com/","en-AU,en-ZA;q=0.9,en-GB;q=0.8,en-US;q=0.7,en;q=0.6,fr;q=0.5","66b61da8697a1059a78e7008","683db6dfa200031b80f2a654","6865076fc1495b205f4e37bc","66b61da8697a1059a78e7008","","","[0,1,2,3,4,5,6]","true","","","","","","","","","","","","","","","","","","","","","","","","","","","","","","","","","","","","","","","","",""
"13073","","","","fullscreen","3","122469","0.0-4.0","20","1","2025-07-02 10:18:29","80fe4187154257d5fb01684ea91b68b9","165.165.127.92","Mozilla/5.0 (Windows NT 10.0; Win64; x64) AppleWebKit/537.36 (KHTML, like Gecko) Chrome/137.0.0.0 Safari/537.36","WebKit","Chrome","137.0.0.0","Windows","10.0","https://app.prolific.com/","en-AU,en-ZA;q=0.9,en-GB;q=0.8,en-US;q=0.7,en;q=0.6,fr;q=0.5","66b61da8697a1059a78e7008","683db6dfa200031b80f2a654","6865076fc1495b205f4e37bc","66b61da8697a1059a78e7008","","","","","true","","","","","","","","","","","","","","","","","","","","","","","","","","","","","","","","","","","","","","","",""
"6727","1751451642207"," <p style='font-size:1.1em;line-height:1.25'>Thank you for completing the consent form and closing all other tabs.</p><p style='font-size:1.1em;line-height:1.25'>We will now invite you to fill in some demographic information and questionnaires, before starting the game.<br>This will take about 5 minutes.<br></p><p style='font-size:1.1em;line-height:1.25'>Press the <strong>Next</strong> button to continue.</p>","0","custom-html-button-response","4","129198","0.0-5.0","20","1","2025-07-02 10:18:29","80fe4187154257d5fb01684ea91b68b9","165.165.127.92","Mozilla/5.0 (Windows NT 10.0; Win64; x64) AppleWebKit/537.36 (KHTML, like Gecko) Chrome/137.0.0.0 Safari/537.36","WebKit","Chrome","137.0.0.0","Windows","10.0","https://app.prolific.com/","en-AU,en-ZA;q=0.9,en-GB;q=0.8,en-US;q=0.7,en;q=0.6,fr;q=0.5","66b61da8697a1059a78e7008","683db6dfa200031b80f2a654","6865076fc1495b205f4e37bc","66b61da8697a1059a78e7008","2025-07-02T10:20:42.208Z","","","","","","","","","","","","","","","","","","","","","","","","","","","","","","","","","","","","","","","","","","","",""
"3648","","","{""age"":""28""}","survey-text","5","132851","0.0-6.0-0.0","20","1","2025-07-02 10:18:29","80fe4187154257d5fb01684ea91b68b9","165.165.127.92","Mozilla/5.0 (Windows NT 10.0; Win64; x64) AppleWebKit/537.36 (KHTML, like Gecko) Chrome/137.0.0.0 Safari/537.36","WebKit","Chrome","137.0.0.0","Windows","10.0","https://app.prolific.com/","en-AU,en-ZA;q=0.9,en-GB;q=0.8,en-US;q=0.7,en;q=0.6,fr;q=0.5","66b61da8697a1059a78e7008","683db6dfa200031b80f2a654","6865076fc1495b205f4e37bc","66b61da8697a1059a78e7008","","","","","","0","demographics","","","","","","","","","","","","","","","","","","","","","","","","","","","","","","","","","","","","","",""
"24392","","","{""gender_identity"":""male/man""}","survey-multi-choice","6","157245","0.0-6.0-1.0","20","1","2025-07-02 10:18:29","80fe4187154257d5fb01684ea91b68b9","165.165.127.92","Mozilla/5.0 (Windows NT 10.0; Win64; x64) AppleWebKit/537.36 (KHTML, like Gecko) Chrome/137.0.0.0 Safari/537.36","WebKit","Chrome","137.0.0.0","Windows","10.0","https://app.prolific.com/","en-AU,en-ZA;q=0.9,en-GB;q=0.8,en-US;q=0.7,en;q=0.6,fr;q=0.5","66b61da8697a1059a78e7008","683db6dfa200031b80f2a654","6865076fc1495b205f4e37bc","66b61da8697a1059a78e7008","","","[0]","","","1","demographics","","","","","","","","","","","","","","","","","","","","","","","","","","","","","","","","","","","","","",""
"4297","","","{""assigned_sex"":""male""}","survey-multi-choice","7","161544","0.0-6.0-2.0","20","1","2025-07-02 10:18:29","80fe4187154257d5fb01684ea91b68b9","165.165.127.92","Mozilla/5.0 (Windows NT 10.0; Win64; x64) AppleWebKit/537.36 (KHTML, like Gecko) Chrome/137.0.0.0 Safari/537.36","WebKit","Chrome","137.0.0.0","Windows","10.0","https://app.prolific.com/","en-AU,en-ZA;q=0.9,en-GB;q=0.8,en-US;q=0.7,en;q=0.6,fr;q=0.5","66b61da8697a1059a78e7008","683db6dfa200031b80f2a654","6865076fc1495b205f4e37bc","66b61da8697a1059a78e7008","","","[0]","","","2","demographics","","","","","","","","","","","","","","","","","","","","","","","","","","","","","","","","","","","","","",""
"6959","","","{""menstrual_cycle"":""No""}","survey-multi-choice","8","168505","0.0-6.0-3.0","20","1","2025-07-02 10:18:29","80fe4187154257d5fb01684ea91b68b9","165.165.127.92","Mozilla/5.0 (Windows NT 10.0; Win64; x64) AppleWebKit/537.36 (KHTML, like Gecko) Chrome/137.0.0.0 Safari/537.36","WebKit","Chrome","137.0.0.0","Windows","10.0","https://app.prolific.com/","en-AU,en-ZA;q=0.9,en-GB;q=0.8,en-US;q=0.7,en;q=0.6,fr;q=0.5","66b61da8697a1059a78e7008","683db6dfa200031b80f2a654","6865076fc1495b205f4e37bc","66b61da8697a1059a78e7008","","","[0]","","","4","demographics","","","","","","","","","","","","","","","","","","","","","","","","","","","","","","","","","","","","","",""
"4329","","","{""education"":""Bachelor's Degree (e.g., BA)""}","survey-multi-choice","9","172835","0.0-6.0-4.0","20","1","2025-07-02 10:18:29","80fe4187154257d5fb01684ea91b68b9","165.165.127.92","Mozilla/5.0 (Windows NT 10.0; Win64; x64) AppleWebKit/537.36 (KHTML, like Gecko) Chrome/137.0.0.0 Safari/537.36","WebKit","Chrome","137.0.0.0","Windows","10.0","https://app.prolific.com/","en-AU,en-ZA;q=0.9,en-GB;q=0.8,en-US;q=0.7,en;q=0.6,fr;q=0.5","66b61da8697a1059a78e7008","683db6dfa200031b80f2a654","6865076fc1495b205f4e37bc","66b61da8697a1059a78e7008","","","[0]","","","5","demographics","","","","","","","","","","","","","","","","","","","","","","","","","","","","","","","","","","","","","",""
"3705","","","{""education"":""Bachelor's Degree (e.g., BA)""}","survey-multi-choice","10","176542","0.0-6.0-5.0","20","1","2025-07-02 10:18:29","80fe4187154257d5fb01684ea91b68b9","165.165.127.92","Mozilla/5.0 (Windows NT 10.0; Win64; x64) AppleWebKit/537.36 (KHTML, like Gecko) Chrome/137.0.0.0 Safari/537.36","WebKit","Chrome","137.0.0.0","Windows","10.0","https://app.prolific.com/","en-AU,en-ZA;q=0.9,en-GB;q=0.8,en-US;q=0.7,en;q=0.6,fr;q=0.5","66b61da8697a1059a78e7008","683db6dfa200031b80f2a654","6865076fc1495b205f4e37bc","66b61da8697a1059a78e7008","2025-07-02T10:21:29.552Z","","[0]","","","6","demographics","","","","","","","","","","","","","","","","","","","","","","","","","","","","","","","","","","","","","",""
"9280","","","{""mental_health_condition"":"""",""mental_health_treatment"":"""",""psychiatric_medication"":""""}","survey-text","11","185827","0.0-7.0-0.0","20","1","2025-07-02 10:18:29","80fe4187154257d5fb01684ea91b68b9","165.165.127.92","Mozilla/5.0 (Windows NT 10.0; Win64; x64) AppleWebKit/537.36 (KHTML, like Gecko) Chrome/137.0.0.0 Safari/537.36","WebKit","Chrome","137.0.0.0","Windows","10.0","https://app.prolific.com/","en-AU,en-ZA;q=0.9,en-GB;q=0.8,en-US;q=0.7,en;q=0.6,fr;q=0.5","66b61da8697a1059a78e7008","683db6dfa200031b80f2a654","6865076fc1495b205f4e37bc","66b61da8697a1059a78e7008","2025-07-02T10:21:38.837Z","","","","","1","mental_health","","","","","","","","","","","","","","","","","","","","","","","","","","","","","","","","","","","","","",""
"8131","","","{""depression_history"":[""Yes""]}","survey-multi-select","12","193964","0.0-7.0-1.0","20","1","2025-07-02 10:18:29","80fe4187154257d5fb01684ea91b68b9","165.165.127.92","Mozilla/5.0 (Windows NT 10.0; Win64; x64) AppleWebKit/537.36 (KHTML, like Gecko) Chrome/137.0.0.0 Safari/537.36","WebKit","Chrome","137.0.0.0","Windows","10.0","https://app.prolific.com/","en-AU,en-ZA;q=0.9,en-GB;q=0.8,en-US;q=0.7,en;q=0.6,fr;q=0.5","66b61da8697a1059a78e7008","683db6dfa200031b80f2a654","6865076fc1495b205f4e37bc","66b61da8697a1059a78e7008","","","[0]","","","","mental_health","","","","","","","","","","","","","","","","","","","","","","","","","","","","","","","","","","","","","",""
"7721","","","{""depression_episodes"":""1-2"",""depression_recent"":""Within the past year""}","survey-multi-choice","13","201687","0.0-7.0-2.0-0.0","20","1","2025-07-02 10:18:29","80fe4187154257d5fb01684ea91b68b9","165.165.127.92","Mozilla/5.0 (Windows NT 10.0; Win64; x64) AppleWebKit/537.36 (KHTML, like Gecko) Chrome/137.0.0.0 Safari/537.36","WebKit","Chrome","137.0.0.0","Windows","10.0","https://app.prolific.com/","en-AU,en-ZA;q=0.9,en-GB;q=0.8,en-US;q=0.7,en;q=0.6,fr;q=0.5","66b61da8697a1059a78e7008","683db6dfa200031b80f2a654","6865076fc1495b205f4e37bc","66b61da8697a1059a78e7008","2025-07-02T10:21:54.697Z","","[0,1]","","","3","mental_health","","","","","","","","","","","","","","","","","","","","","","","","","","","","","","","","","","","","","",""
"71143.89999997616","","","","survey-template","14","272839","0.0-7.0-3.0","20","1","2025-07-02 10:18:29","80fe4187154257d5fb01684ea91b68b9","165.165.127.92","Mozilla/5.0 (Windows NT 10.0; Win64; x64) AppleWebKit/537.36 (KHTML, like Gecko) Chrome/137.0.0.0 Safari/537.36","WebKit","Chrome","137.0.0.0","Windows","10.0","https://app.prolific.com/","en-AU,en-ZA;q=0.9,en-GB;q=0.8,en-US;q=0.7,en;q=0.6,fr;q=0.5","66b61da8697a1059a78e7008","683db6dfa200031b80f2a654","6865076fc1495b205f4e37bc","66b61da8697a1059a78e7008","2025-07-02T10:23:05.849Z","","","","","","ius","{""Q01"":""3"",""Q02"":""4"",""Q03"":""1"",""Q04"":""3"",""Q05"":""0"",""Q06"":""0"",""Q07"":""2"",""Q08"":""0"",""Q09"":""3"",""Q10"":""1"",""Q11"":""0"",""Q12"":""3"",""Q13"":""1""}","[0,1,2,3,4,5,6,7,8,9,10,11,12]","[""Q01"",""Q02"",""Q03"",""Q04"",""Q05"",""Q06"",""Q07"",""Q08"",""Q09"",""Q10"",""Q10"",""Q11"",""Q12"",""Q13""]","[9048.299999952316,13226.599999904633,16298.399999976158,21301.799999952316,25682.5,30756.599999904633,39420.59999990463,43522.39999997616,51301.699999928474,55373.799999952316,58192,61517.299999952316,65699.59999990463,68348]","[]","[7061.099999904633,9048.299999952316,12601.899999976158,13226.599999904633,16298.399999976158,21301.799999952316,25682.5,30756.599999904633,39420.59999990463,43522.39999997616,51301.699999928474,55373.799999952316,58192,60358,61517.299999952316,65699.59999990463,68348,71138.19999992847]","0.3076923076923077","0.16666666666666666","0","","","","","","","","","","","","","","","","","","","","","","","","","","","","",""
"7383","1751451793234","<p style='font-size:1.1em;line-height:1.25'>In the following, we will ask you a few questions relating to your experiences over the past month.<br></p><p style='font-size:1.1em;line-height:1.25'>Press the <strong>Next</strong> button to continue.</p>","0","custom-html-button-response","15","280224","0.0-7.0-4.0","20","1","2025-07-02 10:18:29","80fe4187154257d5fb01684ea91b68b9","165.165.127.92","Mozilla/5.0 (Windows NT 10.0; Win64; x64) AppleWebKit/537.36 (KHTML, like Gecko) Chrome/137.0.0.0 Safari/537.36","WebKit","Chrome","137.0.0.0","Windows","10.0","https://app.prolific.com/","en-AU,en-ZA;q=0.9,en-GB;q=0.8,en-US;q=0.7,en;q=0.6,fr;q=0.5","66b61da8697a1059a78e7008","683db6dfa200031b80f2a654","6865076fc1495b205f4e37bc","66b61da8697a1059a78e7008","2025-07-02T10:23:13.234Z","","","","","","","","","","","","","","","","","","","","","","","","","","","","","","","","","","","","","","","","","","","",""
"43166.10000002384","","","","survey-template","16","323394","0.0-7.0-5.0","20","1","2025-07-02 10:18:29","80fe4187154257d5fb01684ea91b68b9","165.165.127.92","Mozilla/5.0 (Windows NT 10.0; Win64; x64) AppleWebKit/537.36 (KHTML, like Gecko) Chrome/137.0.0.0 Safari/537.36","WebKit","Chrome","137.0.0.0","Windows","10.0","https://app.prolific.com/","en-AU,en-ZA;q=0.9,en-GB;q=0.8,en-US;q=0.7,en;q=0.6,fr;q=0.5","66b61da8697a1059a78e7008","683db6dfa200031b80f2a654","6865076fc1495b205f4e37bc","66b61da8697a1059a78e7008","2025-07-02T10:23:56.404Z","","","","","","pss","{""Q01"":""3"",""Q02"":""2"",""Q03"":""2"",""Q04"":""1"",""Q05"":""1"",""Q06"":""2"",""Q07"":""2"",""Q08"":""2"",""Q09"":""3"",""Q10"":""2""}","[0,1,2,3,4,5,6,7,8,9]","[""Q01"",""Q02"",""Q03"",""Q03"",""Q04"",""Q05"",""Q06"",""Q07"",""Q08"",""Q09"",""Q10""]","[12619.400000095367,16202.100000023842,18439.200000047684,20592.800000071526,23255.700000047684,26201,32292.300000071526,34827.700000047684,38710.90000009537,39793.60000002384,41871.5]","[]","[0,12619.400000095367,16202.100000023842,18439.200000047684,19815.300000071526,20592.800000071526,22403.900000095367,23255.700000047684,26201,32292.300000071526,34827.700000047684,38710.90000009537,39793.60000002384,41082.60000002384,41871.5,43161.200000047684]","0.6","0.5555555555555556","0","","","","","","","","","","","","","","","","","","","","","","","","","","","","",""
"5269","1751451841675","<p style='font-size:1.1em;line-height:1.25'>Thank you for your answers! Now we will ask you a few more questions relating to your feelings in the last 24 hours.<br></p><p style='font-size:1.1em;line-height:1.25'>Press the <strong>Next</strong> button to continue.</p>","0","custom-html-button-response","17","328665","0.0-7.0-6.0","20","1","2025-07-02 10:18:29","80fe4187154257d5fb01684ea91b68b9","165.165.127.92","Mozilla/5.0 (Windows NT 10.0; Win64; x64) AppleWebKit/537.36 (KHTML, like Gecko) Chrome/137.0.0.0 Safari/537.36","WebKit","Chrome","137.0.0.0","Windows","10.0","https://app.prolific.com/","en-AU,en-ZA;q=0.9,en-GB;q=0.8,en-US;q=0.7,en;q=0.6,fr;q=0.5","66b61da8697a1059a78e7008","683db6dfa200031b80f2a654","6865076fc1495b205f4e37bc","66b61da8697a1059a78e7008","2025-07-02T10:24:01.675Z","","","","","","","","","","","","","","","","","","","","","","","","","","","","","","","","","","","","","","","","","","","",""
"67355.60000002384","","","","survey-template","18","396026","0.0-7.0-7.0","20","1","2025-07-02 10:18:29","80fe4187154257d5fb01684ea91b68b9","165.165.127.92","Mozilla/5.0 (Windows NT 10.0; Win64; x64) AppleWebKit/537.36 (KHTML, like Gecko) Chrome/137.0.0.0 Safari/537.36","WebKit","Chrome","137.0.0.0","Windows","10.0","https://app.prolific.com/","en-AU,en-ZA;q=0.9,en-GB;q=0.8,en-US;q=0.7,en;q=0.6,fr;q=0.5","66b61da8697a1059a78e7008","683db6dfa200031b80f2a654","6865076fc1495b205f4e37bc","66b61da8697a1059a78e7008","2025-07-02T10:25:09.037Z","","","","","","drsp","{""Q01"":""3"",""Q02"":""3"",""Q03"":""3"",""Q04"":""4"",""Q05"":""3"",""Q06"":""3"",""Q07"":""3"",""Q08"":""3"",""Q09"":""1"",""Q10"":""0"",""Q11"":""1"",""Q12"":""3"",""Q13"":""4"",""Q14"":""4"",""Q15"":""4"",""Q16"":""3"",""Q17"":""1"",""Q18"":""0"",""Q19"":""0"",""Q20"":""1"",""Q21"":""1""}","[0,1,2,3,4,5,6,7,8,9,10,11,12,13,14,15,16,17,18,19,20]","[""Q01"",""Q02"",""Q03"",""Q04"",""Q03"",""Q05"",""Q06"",""Q07"",""Q07"",""Q08"",""Q09"",""Q07"",""Q09"",""Q10"",""Q11"",""Q12"",""Q13"",""Q14"",""Q15"",""Q15"",""Q16"",""Q17"",""Q18"",""Q19"",""Q20"",""Q21""]","[4622.900000095367,5516.5,7032.900000095367,8920.900000095367,9814.600000023842,14927.900000095367,16177.5,19159,20725.5,24600.100000023842,27197.100000023842,29848.400000095367,31363.400000095367,34689.300000071526,37156.90000009537,41470.40000009537,43012,44782.300000071526,46311,47584.40000009537,50678.800000071526,53203,55614.200000047684,59603.5,64471.200000047684,65859]","[]","[0,3540.600000023842,4622.900000095367,5516.5,7032.900000095367,8920.900000095367,9814.600000023842,12288.800000071526,13689.700000047684,14136.600000023842,14927.900000095367,15757,16177.5,19159,20099.800000071526,20725.5,21695.100000023842,22573.5,23236.200000047684,23962.800000071526,24600.100000023842,26320.700000047684,27197.100000023842,29007.800000071526,29848.400000095367,31363.400000095367,34689.300000071526,36332.200000047684,37156.90000009537,41470.40000009537,43012,44782.300000071526,46311,47584.40000009537,50678.800000071526,52220.60000002384,53203,55614.200000047684,59603.5,64471.200000047684,65859,67347.90000009537]","0.42857142857142855","0.4","0","","","","","","","","","","","","","","","","","","","","","","","","","","","","",""
"9336.800000071526","","","","survey-template","19","405367","0.0-7.0-8.0","20","1","2025-07-02 10:18:29","80fe4187154257d5fb01684ea91b68b9","165.165.127.92","Mozilla/5.0 (Windows NT 10.0; Win64; x64) AppleWebKit/537.36 (KHTML, like Gecko) Chrome/137.0.0.0 Safari/537.36","WebKit","Chrome","137.0.0.0","Windows","10.0","https://app.prolific.com/","en-AU,en-ZA;q=0.9,en-GB;q=0.8,en-US;q=0.7,en;q=0.6,fr;q=0.5","66b61da8697a1059a78e7008","683db6dfa200031b80f2a654","6865076fc1495b205f4e37bc","66b61da8697a1059a78e7008","2025-07-02T10:25:18.377Z","","","","","","stress","{""Q01"":""4"",""Q02"":""2"",""Q03"":""3""}","[0,1,2]","[""Q01"",""Q02"",""Q03""]","[3409.7000000476837,4797.399999976158,6823.600000023842]","[]","[3409.7000000476837,4797.399999976158,6823.600000023842,9334.5]","0.6666666666666666","0.5","0","","","","","","","","","","","","","","","","","","","","","","","","","","","","",""
"51123","","","","instructions","20","456491","0.0-8.0-0.0","20","1","2025-07-02 10:18:29","80fe4187154257d5fb01684ea91b68b9","165.165.127.92","Mozilla/5.0 (Windows NT 10.0; Win64; x64) AppleWebKit/537.36 (KHTML, like Gecko) Chrome/137.0.0.0 Safari/537.36","WebKit","Chrome","137.0.0.0","Windows","10.0","https://app.prolific.com/","en-AU,en-ZA;q=0.9,en-GB;q=0.8,en-US;q=0.7,en;q=0.6,fr;q=0.5","66b61da8697a1059a78e7008","683db6dfa200031b80f2a654","6865076fc1495b205f4e37bc","66b61da8697a1059a78e7008","","[{""page_index"":0,""viewing_time"":22805},{""page_index"":1,""viewing_time"":6419},{""page_index"":2,""viewing_time"":3406},{""page_index"":3,""viewing_time"":18493}]","","","","","","","","","","","","","","","","","","","","","","","","","","","","","","","","","","","","","","","","","","",""
"","","","","ctl-task-cpt","21","488580","0.0-8.0-1.0","20","1","2025-07-02 10:18:29","80fe4187154257d5fb01684ea91b68b9","165.165.127.92","Mozilla/5.0 (Windows NT 10.0; Win64; x64) AppleWebKit/537.36 (KHTML, like Gecko) Chrome/137.0.0.0 Safari/537.36","WebKit","Chrome","137.0.0.0","Windows","10.0","https://app.prolific.com/","en-AU,en-ZA;q=0.9,en-GB;q=0.8,en-US;q=0.7,en;q=0.6,fr;q=0.5","66b61da8697a1059a78e7008","683db6dfa200031b80f2a654","6865076fc1495b205f4e37bc","66b61da8697a1059a78e7008","","","","","","","","","","","","","","","","","win-only","2","g1:SE,g2:NW","1","0","1","459905.2","3984","7986.3","29078.7","2","4","4","6","1","2","2","2","0","0.015151515151515152","3730.5","4000","2000","[""down"",""right""]","{""num_key_presses"":4,""num_perfect"":4,""num_errors"":0,""num_randdir"":0,""num_randdir_good_moves"":0,""num_whilered"":0,""num_whileblue"":0,""num_blue"":3,""num_good_moves"":4}","[294.22232142857143,294.12857142857143,0.7,294.22232142857143,294.12857142857143,102.2,294.22232142857143,294.12857142857143,203,294.22232142857143,294.12857142857143,307.9,294.22232142857143,294.12857142857143,409.7,294.22232142857143,294.12857142857143,511.8,294.22232142857143,294.12857142857143,612.3,294.22232142857143,294.12857142857143,712.6,294.22232142857143,294.12857142857143,817.1,294.22232142857143,294.12857142857143,917.1,294.22232142857143,294.12857142857143,1017.2,294.22232142857143,294.12857142857143,1122.1,294.22232142857143,294.12857142857143,1223.7,294.22232142857143,294.12857142857143,1328.1,294.22232142857143,294.12857142857143,1432.2,294.22232142857143,294.12857142857143,1532.3,294.22232142857143,294.12857142857143,1637.2,294.22232142857143,294.12857142857143,1738.1,294.22232142857143,294.12857142857143,1842.3,294.22232142857143,294.12857142857143,1942.4,294.22232142857143,294.12857142857143,2046.9,294.22232142857143,294.12857142857143,2147,294.22232142857143,294.12857142857143,2248.2,294.22232142857143,294.12857142857143,2351.6,294.22232142857143,294.12857142857143,2451.8,294.22232142857143,294.12857142857143,2553.3,294.22232142857143,294.12857142857143,2657.3,294.22232142857143,294.12857142857143,2763.4,299.22232142857143,294.12857142857143,2867.1,342.22232142857143,304.12857142857143,2968.4,364.22232142857143,322.12857142857143,3072.5,385.22232142857143,382.12857142857143,3178.4,418.22232142857143,438.12857142857143,3279.6,455.22232142857143,452.12857142857143,3383.2,531.2223214285714,521.1285714285714,3483.6,539.2223214285714,529.1285714285714,3589.5,542.2223214285714,534.1285714285714,3694.9,544.2223214285714,538.1285714285714,3795.4,544.2223214285714,538.1285714285714,3897.6]","[1710.9,1710.9,1000,0,710.9,""smooth"",""right"",""right"",""good_move"",7675.7,5964,2226.9,5034.2,414.6,""smooth"",""down"",""down"",""good_move"",11058.8,3381.7,2822.1,7677.1,559.6,""smooth"",""down"",""down"",""good_move"",20996.9,9937,2534.3,17959.1,503.5,""smooth"",""right"",""right"",""good_move""]","",""
"8497","","","","instructions","22","497078","0.0-8.0-2.0","20","1","2025-07-02 10:18:29","80fe4187154257d5fb01684ea91b68b9","165.165.127.92","Mozilla/5.0 (Windows NT 10.0; Win64; x64) AppleWebKit/537.36 (KHTML, like Gecko) Chrome/137.0.0.0 Safari/537.36","WebKit","Chrome","137.0.0.0","Windows","10.0","https://app.prolific.com/","en-AU,en-ZA;q=0.9,en-GB;q=0.8,en-US;q=0.7,en;q=0.6,fr;q=0.5","66b61da8697a1059a78e7008","683db6dfa200031b80f2a654","6865076fc1495b205f4e37bc","66b61da8697a1059a78e7008","","[{""page_index"":0,""viewing_time"":8496}]","","","","","","","","","","","","","","","","","","","","","","","","","","","","","","","","","","","","","","","","","","",""
"","","","","ctl-task-cpt","23","549188","0.0-8.0-3.0","20","1","2025-07-02 10:18:29","80fe4187154257d5fb01684ea91b68b9","165.165.127.92","Mozilla/5.0 (Windows NT 10.0; Win64; x64) AppleWebKit/537.36 (KHTML, like Gecko) Chrome/137.0.0.0 Safari/537.36","WebKit","Chrome","137.0.0.0","Windows","10.0","https://app.prolific.com/","en-AU,en-ZA;q=0.9,en-GB;q=0.8,en-US;q=0.7,en;q=0.6,fr;q=0.5","66b61da8697a1059a78e7008","683db6dfa200031b80f2a654","6865076fc1495b205f4e37bc","66b61da8697a1059a78e7008","","","","","","","","","","","","","","","","","win-only","2","g1:SE,g2:NW","0.35","0","3","500490.4","2228.5","6232.6","49097","2","4","8","6","2","-8","-8","0","0","0","1502.6","4000","-2665","[""left"",""up""]","{""num_key_presses"":11,""num_perfect"":4,""num_errors"":0,""num_randdir"":7,""num_randdir_good_moves"":4,""num_whilered"":0,""num_whileblue"":0,""num_blue"":3,""num_good_moves"":8}","[297.22232142857143,300.12857142857143,0.8,297.22232142857143,300.12857142857143,102.7,297.22232142857143,300.12857142857143,203.1,297.22232142857143,300.12857142857143,303.6,297.22232142857143,300.12857142857143,410.8,297.22232142857143,300.12857142857143,513.6,297.22232142857143,300.12857142857143,613.8,238.22232142857143,214.12857142857143,715.2,118.22232142857143,133.12857142857143,816.6,94.22232142857143,129.12857142857143,917.4,72.22232142857143,116.12857142857143,1019.8,71.22232142857143,107.12857142857143,1123.9,66.22232142857143,72.12857142857143,1234.2,69.22232142857143,60.128571428571426,1334.9,70.22232142857143,57.128571428571426,1436.2,69.22232142857143,56.128571428571426,1538.1,69.22232142857143,56.128571428571426,1638.2,69.22232142857143,56.128571428571426,1744.6,70.22232142857143,62.128571428571426,1845,75.22232142857143,107.12857142857143,1945.2,82.22232142857143,177.12857142857143,2048.9,93.22232142857143,275.12857142857143,2150.1,90.22232142857143,323.12857142857143,2253,47.222321428571426,363.12857142857143,2353.7,11.222321428571426,367.12857142857143,2454,-1.7776785714285737,367.12857142857143,2564.5,-7.777678571428574,367.12857142857143,2669.2,-8.777678571428574,367.12857142857143,2772.3,-8.777678571428574,367.12857142857143,2875.8,-8.777678571428574,367.12857142857143,2979.2,-8.777678571428574,367.12857142857143,3081.4,-8.777678571428574,367.12857142857143,3182.6,-8.777678571428574,367.12857142857143,3284.4,-8.777678571428574,367.12857142857143,3387.8,-8.777678571428574,367.12857142857143,3496.3,-8.777678571428574,367.12857142857143,3596.9,-8.777678571428574,367.12857142857143,3701,-8.777678571428574,367.12857142857143,3804.3,-8.777678571428574,367.12857142857143,3909.1]","[1414.9,1414.9,1000,0,414.9,""smooth"",""up"",""up"",""good_move"",4368.8,2953,2492.7,1415.9,460.2,""oops"",""up"",""up"",""good_move"",7210.6,2841.4,2380.2,4369.2,461.2,""oops"",""up"",""left"",""good_move"",13450.5,6238.8,2825.9,10269.2,355.4,""smooth"",""up"",""up"",""good_move"",19992.5,6541.5,2473.6,17135,384,""smooth"",""left"",""left"",""good_move"",22944.7,2951.8,2483.3,19992.9,468.5,""oops"",""left"",""down"",""bad_move"",25437.4,2492.1,2065.5,22945.4,426.7,""smooth"",""left"",""left"",""good_move"",28275.2,2836.8,2436.7,25438.4,400.1,""oops"",""up"",""right"",""bad_move"",31303.8,3027.5,2663.3,28276.3,364.2,""oops"",""up"",""up"",""good_move"",34204.4,2899.8,2532.4,31304.6,367.4,""oops"",""left"",""right"",""bad_move"",36525.6,2320.4,1866.5,34205.2,454,""oops"",""up"",""left"",""good_move""]","",""
"7345","","","","instructions","24","556534","0.0-8.0-4.0","20","1","2025-07-02 10:18:29","80fe4187154257d5fb01684ea91b68b9","165.165.127.92","Mozilla/5.0 (Windows NT 10.0; Win64; x64) AppleWebKit/537.36 (KHTML, like Gecko) Chrome/137.0.0.0 Safari/537.36","WebKit","Chrome","137.0.0.0","Windows","10.0","https://app.prolific.com/","en-AU,en-ZA;q=0.9,en-GB;q=0.8,en-US;q=0.7,en;q=0.6,fr;q=0.5","66b61da8697a1059a78e7008","683db6dfa200031b80f2a654","6865076fc1495b205f4e37bc","66b61da8697a1059a78e7008","","[{""page_index"":0,""viewing_time"":3243},{""page_index"":1,""viewing_time"":4102}]","","","","","","","","","","","","","","","","","","","","","","","","","","","","","","","","","","","","","","","","","","",""
"20121","","","{""green_ball"":[""Ball always moves in the direction I press""]}","survey-multi-select","25","576661","0.0-8.0-5.0-0.0","20","1","2025-07-02 10:18:29","80fe4187154257d5fb01684ea91b68b9","165.165.127.92","Mozilla/5.0 (Windows NT 10.0; Win64; x64) AppleWebKit/537.36 (KHTML, like Gecko) Chrome/137.0.0.0 Safari/537.36","WebKit","Chrome","137.0.0.0","Windows","10.0","https://app.prolific.com/","en-AU,en-ZA;q=0.9,en-GB;q=0.8,en-US;q=0.7,en;q=0.6,fr;q=0.5","66b61da8697a1059a78e7008","683db6dfa200031b80f2a654","6865076fc1495b205f4e37bc","66b61da8697a1059a78e7008","","","[0]","","","","quiz","","","","","","","","","","","","","","","","","","","","","","","","","","","","","","","","","","","","","false",""
"1818","","<p align='center'><b>INCORRECT.</b> Usually the green ball moves in the indicated direction, but sometimes it shakes and moves randomly. </p>","0","html-button-response","26","578483","0.0-8.0-5.0-1.0","20","1","2025-07-02 10:18:29","80fe4187154257d5fb01684ea91b68b9","165.165.127.92","Mozilla/5.0 (Windows NT 10.0; Win64; x64) AppleWebKit/537.36 (KHTML, like Gecko) Chrome/137.0.0.0 Safari/537.36","WebKit","Chrome","137.0.0.0","Windows","10.0","https://app.prolific.com/","en-AU,en-ZA;q=0.9,en-GB;q=0.8,en-US;q=0.7,en;q=0.6,fr;q=0.5","66b61da8697a1059a78e7008","683db6dfa200031b80f2a654","6865076fc1495b205f4e37bc","66b61da8697a1059a78e7008","","","","","","","","","","","","","","","","","","","","","","","","","","","","","","","","","","","","","","","","","","","","",""
"2017","","","{""green_ball"":[""Ball sometimes shakes and moves in a random direction""]}","survey-multi-select","27","580505","0.0-8.0-5.1-0.1","20","1","2025-07-02 10:18:29","80fe4187154257d5fb01684ea91b68b9","165.165.127.92","Mozilla/5.0 (Windows NT 10.0; Win64; x64) AppleWebKit/537.36 (KHTML, like Gecko) Chrome/137.0.0.0 Safari/537.36","WebKit","Chrome","137.0.0.0","Windows","10.0","https://app.prolific.com/","en-AU,en-ZA;q=0.9,en-GB;q=0.8,en-US;q=0.7,en;q=0.6,fr;q=0.5","66b61da8697a1059a78e7008","683db6dfa200031b80f2a654","6865076fc1495b205f4e37bc","66b61da8697a1059a78e7008","","","[0]","","","","quiz","","","","","","","","","","","","","","","","","","","","","","","","","","","","","","","","","","","","","true",""
"2582","","<p align='center'><b>CORRECT!</b> Indeed, the green ball may sometimes shake and move in a random direction.</p>","0","html-button-response","28","583090","0.0-8.0-5.1-1.1","20","1","2025-07-02 10:18:29","80fe4187154257d5fb01684ea91b68b9","165.165.127.92","Mozilla/5.0 (Windows NT 10.0; Win64; x64) AppleWebKit/537.36 (KHTML, like Gecko) Chrome/137.0.0.0 Safari/537.36","WebKit","Chrome","137.0.0.0","Windows","10.0","https://app.prolific.com/","en-AU,en-ZA;q=0.9,en-GB;q=0.8,en-US;q=0.7,en;q=0.6,fr;q=0.5","66b61da8697a1059a78e7008","683db6dfa200031b80f2a654","6865076fc1495b205f4e37bc","66b61da8697a1059a78e7008","","","","","","","","","","","","","","","","","","","","","","","","","","","","","","","","","","","","","","","","","","","","",""
"5655","","","{""yellow_ball"":[""Ball doesn‘t move and I get -1 penalty point""]}","survey-multi-select","29","588751","0.0-8.0-6.0-0.0","20","1","2025-07-02 10:18:29","80fe4187154257d5fb01684ea91b68b9","165.165.127.92","Mozilla/5.0 (Windows NT 10.0; Win64; x64) AppleWebKit/537.36 (KHTML, like Gecko) Chrome/137.0.0.0 Safari/537.36","WebKit","Chrome","137.0.0.0","Windows","10.0","https://app.prolific.com/","en-AU,en-ZA;q=0.9,en-GB;q=0.8,en-US;q=0.7,en;q=0.6,fr;q=0.5","66b61da8697a1059a78e7008","683db6dfa200031b80f2a654","6865076fc1495b205f4e37bc","66b61da8697a1059a78e7008","","","[0]","","","","quiz","","","","","","","","","","","","","","","","","","","","","","","","","","","","","","","","","","","","","true",""
"1570","","<p align='center'><b>CORRECT!</b> Indeed, the yellow ball never moves and you receive a penalty.</p>","0","html-button-response","30","590324","0.0-8.0-6.0-1.0","20","1","2025-07-02 10:18:29","80fe4187154257d5fb01684ea91b68b9","165.165.127.92","Mozilla/5.0 (Windows NT 10.0; Win64; x64) AppleWebKit/537.36 (KHTML, like Gecko) Chrome/137.0.0.0 Safari/537.36","WebKit","Chrome","137.0.0.0","Windows","10.0","https://app.prolific.com/","en-AU,en-ZA;q=0.9,en-GB;q=0.8,en-US;q=0.7,en;q=0.6,fr;q=0.5","66b61da8697a1059a78e7008","683db6dfa200031b80f2a654","6865076fc1495b205f4e37bc","66b61da8697a1059a78e7008","","","","","","","","","","","","","","","","","","","","","","","","","","","","","","","","","","","","","","","","","","","","",""
"6840","","","{""blue_ball"":[""Ball always shakes and moves in a random direction""]}","survey-multi-select","31","597168","0.0-8.0-7.0-0.0","20","1","2025-07-02 10:18:29","80fe4187154257d5fb01684ea91b68b9","165.165.127.92","Mozilla/5.0 (Windows NT 10.0; Win64; x64) AppleWebKit/537.36 (KHTML, like Gecko) Chrome/137.0.0.0 Safari/537.36","WebKit","Chrome","137.0.0.0","Windows","10.0","https://app.prolific.com/","en-AU,en-ZA;q=0.9,en-GB;q=0.8,en-US;q=0.7,en;q=0.6,fr;q=0.5","66b61da8697a1059a78e7008","683db6dfa200031b80f2a654","6865076fc1495b205f4e37bc","66b61da8697a1059a78e7008","","","[0]","","","","quiz","","","","","","","","","","","","","","","","","","","","","","","","","","","","","","","","","","","","","true",""
"1745","","<p align='center'><b>CORRECT!</b> Indeed, the blue ball always shakes and moves in a random direction. Also there is a penalty of -1 point.</p>","0","html-button-response","32","598916","0.0-8.0-7.0-1.0","20","1","2025-07-02 10:18:29","80fe4187154257d5fb01684ea91b68b9","165.165.127.92","Mozilla/5.0 (Windows NT 10.0; Win64; x64) AppleWebKit/537.36 (KHTML, like Gecko) Chrome/137.0.0.0 Safari/537.36","WebKit","Chrome","137.0.0.0","Windows","10.0","https://app.prolific.com/","en-AU,en-ZA;q=0.9,en-GB;q=0.8,en-US;q=0.7,en;q=0.6,fr;q=0.5","66b61da8697a1059a78e7008","683db6dfa200031b80f2a654","6865076fc1495b205f4e37bc","66b61da8697a1059a78e7008","","","","","","","","","","","","","","","","","","","","","","","","","","","","","","","","","","","","","","","","","","","","",""
"5643","","","{""bonus"":[""When I reach all possible points""]}","survey-multi-select","33","604564","0.0-8.0-8.0-0.0","20","1","2025-07-02 10:18:29","80fe4187154257d5fb01684ea91b68b9","165.165.127.92","Mozilla/5.0 (Windows NT 10.0; Win64; x64) AppleWebKit/537.36 (KHTML, like Gecko) Chrome/137.0.0.0 Safari/537.36","WebKit","Chrome","137.0.0.0","Windows","10.0","https://app.prolific.com/","en-AU,en-ZA;q=0.9,en-GB;q=0.8,en-US;q=0.7,en;q=0.6,fr;q=0.5","66b61da8697a1059a78e7008","683db6dfa200031b80f2a654","6865076fc1495b205f4e37bc","66b61da8697a1059a78e7008","","","[0]","","","","quiz","","","","","","","","","","","","","","","","","","","","","","","","","","","","","","","","","","","","","false",""
"2195","","<p align='center'><b>INCORRECT.</b> You receive 2 pounds extra when you reach 50% of points </p>","0","html-button-response","34","606762","0.0-8.0-8.0-1.0","20","1","2025-07-02 10:18:29","80fe4187154257d5fb01684ea91b68b9","165.165.127.92","Mozilla/5.0 (Windows NT 10.0; Win64; x64) AppleWebKit/537.36 (KHTML, like Gecko) Chrome/137.0.0.0 Safari/537.36","WebKit","Chrome","137.0.0.0","Windows","10.0","https://app.prolific.com/","en-AU,en-ZA;q=0.9,en-GB;q=0.8,en-US;q=0.7,en;q=0.6,fr;q=0.5","66b61da8697a1059a78e7008","683db6dfa200031b80f2a654","6865076fc1495b205f4e37bc","66b61da8697a1059a78e7008","","","","","","","","","","","","","","","","","","","","","","","","","","","","","","","","","","","","","","","","","","","","",""
"1951","","","{""bonus"":[""When I reach 50% of points""]}","survey-multi-select","35","608717","0.0-8.0-8.1-0.1","20","1","2025-07-02 10:18:29","80fe4187154257d5fb01684ea91b68b9","165.165.127.92","Mozilla/5.0 (Windows NT 10.0; Win64; x64) AppleWebKit/537.36 (KHTML, like Gecko) Chrome/137.0.0.0 Safari/537.36","WebKit","Chrome","137.0.0.0","Windows","10.0","https://app.prolific.com/","en-AU,en-ZA;q=0.9,en-GB;q=0.8,en-US;q=0.7,en;q=0.6,fr;q=0.5","66b61da8697a1059a78e7008","683db6dfa200031b80f2a654","6865076fc1495b205f4e37bc","66b61da8697a1059a78e7008","","","[0]","","","","quiz","","","","","","","","","","","","","","","","","","","","","","","","","","","","","","","","","","","","","true",""
"1366","","<p align='center'><b>CORRECT!</b> Indeed, you receive 2 pounds extra when you reach 50% of points.</p>","0","html-button-response","36","610084","0.0-8.0-8.1-1.1","20","1","2025-07-02 10:18:29","80fe4187154257d5fb01684ea91b68b9","165.165.127.92","Mozilla/5.0 (Windows NT 10.0; Win64; x64) AppleWebKit/537.36 (KHTML, like Gecko) Chrome/137.0.0.0 Safari/537.36","WebKit","Chrome","137.0.0.0","Windows","10.0","https://app.prolific.com/","en-AU,en-ZA;q=0.9,en-GB;q=0.8,en-US;q=0.7,en;q=0.6,fr;q=0.5","66b61da8697a1059a78e7008","683db6dfa200031b80f2a654","6865076fc1495b205f4e37bc","66b61da8697a1059a78e7008","","","","","","","","","","","","","","","","","","","","","","","","","","","","","","","","","","","","","","","","","","","","",""
"2734","","","","instructions","37","612820","0.0-8.0-9.0","20","1","2025-07-02 10:18:29","80fe4187154257d5fb01684ea91b68b9","165.165.127.92","Mozilla/5.0 (Windows NT 10.0; Win64; x64) AppleWebKit/537.36 (KHTML, like Gecko) Chrome/137.0.0.0 Safari/537.36","WebKit","Chrome","137.0.0.0","Windows","10.0","https://app.prolific.com/","en-AU,en-ZA;q=0.9,en-GB;q=0.8,en-US;q=0.7,en;q=0.6,fr;q=0.5","66b61da8697a1059a78e7008","683db6dfa200031b80f2a654","6865076fc1495b205f4e37bc","66b61da8697a1059a78e7008","","[{""page_index"":0,""viewing_time"":2734}]","","","","","","","","","","","","","","","","","","","","","","","","","","","","","","","","","","","","","","","","","","",""
"7943","","<p>Before you start with this game please answer the following three questions yourself. </p>
  <p>Through this game, we measure several aspects of your cognitive performance, such as reaction times, multi-tasking capabilities </p>
  <p>and the ability to assess the situation you are in.</p>
  <p></p>
  <p><b>How good do you usually are in such tasks?</b></p>","92","html-slider-response","38","620765","0.0-9.0-0.0","20","1","2025-07-02 10:18:29","80fe4187154257d5fb01684ea91b68b9","165.165.127.92","Mozilla/5.0 (Windows NT 10.0; Win64; x64) AppleWebKit/537.36 (KHTML, like Gecko) Chrome/137.0.0.0 Safari/537.36","WebKit","Chrome","137.0.0.0","Windows","10.0","https://app.prolific.com/","en-AU,en-ZA;q=0.9,en-GB;q=0.8,en-US;q=0.7,en;q=0.6,fr;q=0.5","66b61da8697a1059a78e7008","683db6dfa200031b80f2a654","6865076fc1495b205f4e37bc","66b61da8697a1059a78e7008","2025-07-02T10:28:53.775Z","","","","","","PreSkillQ","","","","","","","","","","","","","","","","","","","","","","","","","","","","","","","","","","","","","","50"
"3548","","<div style=""width:500px;"">
  <p>How well do you think you will perform in this task compared to other participants?</p>
  </div>","89","html-slider-response","39","624315","0.0-9.0-1.0","20","1","2025-07-02 10:18:29","80fe4187154257d5fb01684ea91b68b9","165.165.127.92","Mozilla/5.0 (Windows NT 10.0; Win64; x64) AppleWebKit/537.36 (KHTML, like Gecko) Chrome/137.0.0.0 Safari/537.36","WebKit","Chrome","137.0.0.0","Windows","10.0","https://app.prolific.com/","en-AU,en-ZA;q=0.9,en-GB;q=0.8,en-US;q=0.7,en;q=0.6,fr;q=0.5","66b61da8697a1059a78e7008","683db6dfa200031b80f2a654","6865076fc1495b205f4e37bc","66b61da8697a1059a78e7008","2025-07-02T10:28:57.326Z","","","","","","PrePerfQ","","","","","","","","","","","","","","","","","","","","","","","","","","","","","","","","","","","","","","50"
"3164","","<div style=""width:500px;"">
  <p>What best describes how you currently feel?</p>
  </div>","88","html-slider-response","40","627483","0.0-9.0-2.0","20","1","2025-07-02 10:18:29","80fe4187154257d5fb01684ea91b68b9","165.165.127.92","Mozilla/5.0 (Windows NT 10.0; Win64; x64) AppleWebKit/537.36 (KHTML, like Gecko) Chrome/137.0.0.0 Safari/537.36","WebKit","Chrome","137.0.0.0","Windows","10.0","https://app.prolific.com/","en-AU,en-ZA;q=0.9,en-GB;q=0.8,en-US;q=0.7,en;q=0.6,fr;q=0.5","66b61da8697a1059a78e7008","683db6dfa200031b80f2a654","6865076fc1495b205f4e37bc","66b61da8697a1059a78e7008","2025-07-02T10:29:00.493Z","","","","","","PreMotivationQ","","","","","","","","","","","","","","","","","","","","","","","","","","","","","","","","","","","","","","50"
"","","","","ctl-task-cpt","41","655689","0.0-10.0-0.0","20","1","2025-07-02 10:18:29","80fe4187154257d5fb01684ea91b68b9","165.165.127.92","Mozilla/5.0 (Windows NT 10.0; Win64; x64) AppleWebKit/537.36 (KHTML, like Gecko) Chrome/137.0.0.0 Safari/537.36","WebKit","Chrome","137.0.0.0","Windows","10.0","https://app.prolific.com/","en-AU,en-ZA;q=0.9,en-GB;q=0.8,en-US;q=0.7,en;q=0.6,fr;q=0.5","66b61da8697a1059a78e7008","683db6dfa200031b80f2a654","6865076fc1495b205f4e37bc","66b61da8697a1059a78e7008","2025-07-02T10:29:28.699Z","","","","","","","","","","","","","","","","win-only","3","g1:SW,g2:NE","1","1","0","630898.1","2573.8","7574.9","25196.6","1","4","4","6","2","4","4","4","0","0.030303030303030304","1477.1","3000","1290","[""up"",""right""]","{""num_key_presses"":6,""num_perfect"":6,""num_errors"":0,""num_randdir"":0,""num_randdir_good_moves"":0,""num_whilered"":0,""num_whileblue"":0,""num_blue"":1,""num_good_moves"":6}","[299.22232142857143,297.12857142857143,0.5,299.22232142857143,297.12857142857143,102.5,299.22232142857143,297.12857142857143,203.4,299.22232142857143,297.12857142857143,310.4,299.22232142857143,297.12857142857143,416.7,299.22232142857143,297.12857142857143,517.5,299.22232142857143,297.12857142857143,631.2,357.22232142857143,267.12857142857143,732.7,416.22232142857143,200.12857142857143,832.9,431.22232142857143,178.12857142857143,933.1,444.22232142857143,168.12857142857143,1047.7,476.22232142857143,122.12857142857143,1148.4,539.2223214285714,53.128571428571426,1252.8,555.2223214285714,41.128571428571426,1361.1,558.2223214285714,39.128571428571426,1462.3,558.2223214285714,39.128571428571426,1568.4,558.2223214285714,39.128571428571426,1669.7,558.2223214285714,39.128571428571426,1772.4,558.2223214285714,39.128571428571426,1873,558.2223214285714,39.128571428571426,1977.6,558.2223214285714,39.128571428571426,2078.2,558.2223214285714,39.128571428571426,2181.7,558.2223214285714,39.128571428571426,2283.6,558.2223214285714,39.128571428571426,2392.5,558.2223214285714,39.128571428571426,2498.2,558.2223214285714,39.128571428571426,2598.8,558.2223214285714,39.128571428571426,2699.2,558.2223214285714,39.128571428571426,2802.3,558.2223214285714,42.128571428571426,2903.5,529.2223214285714,108.12857142857143,3017.8,518.2223214285714,135.12857142857143,3121.3,513.2223214285714,152.12857142857143,3223.8,511.22232142857143,157.12857142857143,3330.5,511.22232142857143,157.12857142857143,3434.9,511.22232142857143,157.12857142857143,3547,511.22232142857143,157.12857142857143,3650.6,511.22232142857143,157.12857142857143,3752.1,511.22232142857143,157.12857142857143,3853,511.22232142857143,157.12857142857143,3957.4,511.22232142857143,157.12857142857143,4070.3,511.22232142857143,157.12857142857143,4181,511.22232142857143,157.12857142857143,4283,511.22232142857143,157.12857142857143,4383.4,511.22232142857143,157.12857142857143,4484.3,511.22232142857143,157.12857142857143,4590.2,511.22232142857143,157.12857142857143,4700,511.22232142857143,157.12857142857143,4802,511.22232142857143,157.12857142857143,4902.3]","[4792.6,4792.7,2453.2,2000.9,338.6,""smooth"",""up"",""up"",""good_move"",7204.9,2411,1979,4793.9,432,""smooth"",""up"",""up"",""good_move"",10265.6,3060.4,2721,7205.2,339.5,""smooth"",""up"",""up"",""good_move"",12531.2,2264.5,1873.7,10266.9,390.6,""smooth"",""right"",""right"",""good_move"",14874.6,2342.7,2020.9,12531.9,321.9,""smooth"",""right"",""right"",""good_move"",17514.4,2639.4,2295.7,14875,343.8,""smooth"",""right"",""right"",""good_move""]","",""
"4893","","<div style=""width:500px;"">
  <p>What determined the result of this run?</p>
  </div>","89","html-slider-response","42","660584","0.0-10.0-1.0","20","1","2025-07-02 10:18:29","80fe4187154257d5fb01684ea91b68b9","165.165.127.92","Mozilla/5.0 (Windows NT 10.0; Win64; x64) AppleWebKit/537.36 (KHTML, like Gecko) Chrome/137.0.0.0 Safari/537.36","WebKit","Chrome","137.0.0.0","Windows","10.0","https://app.prolific.com/","en-AU,en-ZA;q=0.9,en-GB;q=0.8,en-US;q=0.7,en;q=0.6,fr;q=0.5","66b61da8697a1059a78e7008","683db6dfa200031b80f2a654","6865076fc1495b205f4e37bc","66b61da8697a1059a78e7008","2025-07-02T10:29:33.594Z","","","","","","AttribQ","","","","","","","","","","","","","","","","","","","","","","","","","","","","","","","","","","","","","","50"
"3384","","<div style=""width:500px;"">
  <p>How much control did you have over the ball?</p>
  </div>","92","html-slider-response","43","663970","0.0-10.0-2.0","20","1","2025-07-02 10:18:29","80fe4187154257d5fb01684ea91b68b9","165.165.127.92","Mozilla/5.0 (Windows NT 10.0; Win64; x64) AppleWebKit/537.36 (KHTML, like Gecko) Chrome/137.0.0.0 Safari/537.36","WebKit","Chrome","137.0.0.0","Windows","10.0","https://app.prolific.com/","en-AU,en-ZA;q=0.9,en-GB;q=0.8,en-US;q=0.7,en;q=0.6,fr;q=0.5","66b61da8697a1059a78e7008","683db6dfa200031b80f2a654","6865076fc1495b205f4e37bc","66b61da8697a1059a78e7008","2025-07-02T10:29:36.980Z","","","","","","ControlQ","","","","","","","","","","","","","","","","","","","","","","","","","","","","","","","","","","","","","","50"
"4108","","<div style=""width:500px;"">
  <p>How would you describe your current emotional state?</p>
  </div>","43","html-slider-response","44","668080","0.0-10.0-3.0","20","1","2025-07-02 10:18:29","80fe4187154257d5fb01684ea91b68b9","165.165.127.92","Mozilla/5.0 (Windows NT 10.0; Win64; x64) AppleWebKit/537.36 (KHTML, like Gecko) Chrome/137.0.0.0 Safari/537.36","WebKit","Chrome","137.0.0.0","Windows","10.0","https://app.prolific.com/","en-AU,en-ZA;q=0.9,en-GB;q=0.8,en-US;q=0.7,en;q=0.6,fr;q=0.5","66b61da8697a1059a78e7008","683db6dfa200031b80f2a654","6865076fc1495b205f4e37bc","66b61da8697a1059a78e7008","2025-07-02T10:29:41.090Z","","","","","","StressQ","","","","","","","","","","","","","","","","","","","","","","","","","","","","","","","","","","","","","","50"
"6049","","<div style=""width:500px;"">
  <p>What best describes how you currently feel?</p>
  </div>","77","html-slider-response","45","674131","0.0-10.0-4.0","20","1","2025-07-02 10:18:29","80fe4187154257d5fb01684ea91b68b9","165.165.127.92","Mozilla/5.0 (Windows NT 10.0; Win64; x64) AppleWebKit/537.36 (KHTML, like Gecko) Chrome/137.0.0.0 Safari/537.36","WebKit","Chrome","137.0.0.0","Windows","10.0","https://app.prolific.com/","en-AU,en-ZA;q=0.9,en-GB;q=0.8,en-US;q=0.7,en;q=0.6,fr;q=0.5","66b61da8697a1059a78e7008","683db6dfa200031b80f2a654","6865076fc1495b205f4e37bc","66b61da8697a1059a78e7008","2025-07-02T10:29:47.141Z","","","","","","MotivationQ","","","","","","","","","","","","","","","","","","","","","","","","","","","","","","","","","","","","","","50"
"","","","","ctl-task-cpt","46","697767","0.0-10.0-0.1","20","1","2025-07-02 10:18:29","80fe4187154257d5fb01684ea91b68b9","165.165.127.92","Mozilla/5.0 (Windows NT 10.0; Win64; x64) AppleWebKit/537.36 (KHTML, like Gecko) Chrome/137.0.0.0 Safari/537.36","WebKit","Chrome","137.0.0.0","Windows","10.0","https://app.prolific.com/","en-AU,en-ZA;q=0.9,en-GB;q=0.8,en-US;q=0.7,en;q=0.6,fr;q=0.5","66b61da8697a1059a78e7008","683db6dfa200031b80f2a654","6865076fc1495b205f4e37bc","66b61da8697a1059a78e7008","2025-07-02T10:30:10.777Z","","","","","","","","","","","","","","","","win-only","3","g1:SW,g2:NE","0.9","2","0","677544.9","2359.2","7362.6","20616.5","1","4","8","6","1","1","1","5","4","0.03787878787878788","1310.9","3000","1900","[""down"",""left""]","{""num_key_presses"":4,""num_perfect"":4,""num_errors"":0,""num_randdir"":0,""num_randdir_good_moves"":0,""num_whilered"":0,""num_whileblue"":0,""num_blue"":1,""num_good_moves"":4}","[289.22232142857143,294.12857142857143,0.3,289.22232142857143,294.12857142857143,101.6,289.22232142857143,294.12857142857143,201.8,289.22232142857143,294.12857142857143,302.4,289.22232142857143,294.12857142857143,408.1,289.22232142857143,294.12857142857143,517.7,289.22232142857143,294.12857142857143,617.8,244.22232142857143,400.12857142857143,736.2,239.22232142857143,416.12857142857143,838,229.22232142857143,440.12857142857143,942.1,97.22232142857143,538.1285714285714,1053.3,78.22232142857143,547.1285714285714,1169.8,64.22232142857143,550.1285714285714,1273.4,59.222321428571426,551.1285714285714,1378.1,59.222321428571426,551.1285714285714,1481.8,59.222321428571426,551.1285714285714,1584.3,59.222321428571426,551.1285714285714,1687.3,59.222321428571426,551.1285714285714,1791.8,59.222321428571426,551.1285714285714,1891.9,59.222321428571426,551.1285714285714,1999.8,59.222321428571426,551.1285714285714,2103.1,59.222321428571426,551.1285714285714,2216.9,59.222321428571426,551.1285714285714,2318.9,59.222321428571426,551.1285714285714,2421.3,59.222321428571426,551.1285714285714,2531.2,59.222321428571426,551.1285714285714,2636.1,59.222321428571426,551.1285714285714,2736.1,59.222321428571426,551.1285714285714,2836.9,59.222321428571426,551.1285714285714,2951.9,59.222321428571426,551.1285714285714,3057.4,59.222321428571426,551.1285714285714,3162.4,59.222321428571426,551.1285714285714,3264,59.222321428571426,551.1285714285714,3365.5,59.222321428571426,551.1285714285714,3470.1,59.222321428571426,551.1285714285714,3573.5,59.222321428571426,551.1285714285714,3685.6,59.222321428571426,551.1285714285714,3786.4,59.222321428571426,551.1285714285714,3886.9,59.222321428571426,551.1285714285714,3986.9,59.222321428571426,551.1285714285714,4092.4,59.222321428571426,551.1285714285714,4192.9,59.222321428571426,551.1285714285714,4302.4,59.222321428571426,551.1285714285714,4417.2,59.222321428571426,551.1285714285714,4519.6,59.222321428571426,551.1285714285714,4623,59.222321428571426,551.1285714285714,4729.2,59.222321428571426,551.1285714285714,4835.7,59.222321428571426,551.1285714285714,4938.1]","[4769,4769.1,2402.5,2014.9,351.7,""smooth"",""down"",""down"",""good_move"",7651.8,2882.1,2506.5,4769.8,375.6,""smooth"",""left"",""left"",""good_move"",10864.7,3211.4,2860.4,7653.3,351.1,""smooth"",""left"",""left"",""good_move"",13141.9,2276.7,1870.6,10865.2,406.1,""smooth"",""down"",""down"",""good_move""]","",""
"3318","","<div style=""width:500px;"">
  <p>What determined the result of this run?</p>
  </div>","100","html-slider-response","47","701087","0.0-10.0-1.1","20","1","2025-07-02 10:18:29","80fe4187154257d5fb01684ea91b68b9","165.165.127.92","Mozilla/5.0 (Windows NT 10.0; Win64; x64) AppleWebKit/537.36 (KHTML, like Gecko) Chrome/137.0.0.0 Safari/537.36","WebKit","Chrome","137.0.0.0","Windows","10.0","https://app.prolific.com/","en-AU,en-ZA;q=0.9,en-GB;q=0.8,en-US;q=0.7,en;q=0.6,fr;q=0.5","66b61da8697a1059a78e7008","683db6dfa200031b80f2a654","6865076fc1495b205f4e37bc","66b61da8697a1059a78e7008","2025-07-02T10:30:14.097Z","","","","","","AttribQ","","","","","","","","","","","","","","","","","","","","","","","","","","","","","","","","","","","","","","50"
"3119","","<div style=""width:500px;"">
  <p>How much control did you have over the ball?</p>
  </div>","98","html-slider-response","48","704209","0.0-10.0-2.1","20","1","2025-07-02 10:18:29","80fe4187154257d5fb01684ea91b68b9","165.165.127.92","Mozilla/5.0 (Windows NT 10.0; Win64; x64) AppleWebKit/537.36 (KHTML, like Gecko) Chrome/137.0.0.0 Safari/537.36","WebKit","Chrome","137.0.0.0","Windows","10.0","https://app.prolific.com/","en-AU,en-ZA;q=0.9,en-GB;q=0.8,en-US;q=0.7,en;q=0.6,fr;q=0.5","66b61da8697a1059a78e7008","683db6dfa200031b80f2a654","6865076fc1495b205f4e37bc","66b61da8697a1059a78e7008","2025-07-02T10:30:17.219Z","","","","","","ControlQ","","","","","","","","","","","","","","","","","","","","","","","","","","","","","","","","","","","","","","50"
"3122","","<div style=""width:500px;"">
  <p>How would you describe your current emotional state?</p>
  </div>","31","html-slider-response","49","707333","0.0-10.0-3.1","20","1","2025-07-02 10:18:29","80fe4187154257d5fb01684ea91b68b9","165.165.127.92","Mozilla/5.0 (Windows NT 10.0; Win64; x64) AppleWebKit/537.36 (KHTML, like Gecko) Chrome/137.0.0.0 Safari/537.36","WebKit","Chrome","137.0.0.0","Windows","10.0","https://app.prolific.com/","en-AU,en-ZA;q=0.9,en-GB;q=0.8,en-US;q=0.7,en;q=0.6,fr;q=0.5","66b61da8697a1059a78e7008","683db6dfa200031b80f2a654","6865076fc1495b205f4e37bc","66b61da8697a1059a78e7008","2025-07-02T10:30:20.344Z","","","","","","StressQ","","","","","","","","","","","","","","","","","","","","","","","","","","","","","","","","","","","","","","50"
"2706","","<div style=""width:500px;"">
  <p>What best describes how you currently feel?</p>
  </div>","69","html-slider-response","50","710043","0.0-10.0-4.1","20","1","2025-07-02 10:18:29","80fe4187154257d5fb01684ea91b68b9","165.165.127.92","Mozilla/5.0 (Windows NT 10.0; Win64; x64) AppleWebKit/537.36 (KHTML, like Gecko) Chrome/137.0.0.0 Safari/537.36","WebKit","Chrome","137.0.0.0","Windows","10.0","https://app.prolific.com/","en-AU,en-ZA;q=0.9,en-GB;q=0.8,en-US;q=0.7,en;q=0.6,fr;q=0.5","66b61da8697a1059a78e7008","683db6dfa200031b80f2a654","6865076fc1495b205f4e37bc","66b61da8697a1059a78e7008","2025-07-02T10:30:23.053Z","","","","","","MotivationQ","","","","","","","","","","","","","","","","","","","","","","","","","","","","","","","","","","","","","","50"
"","","","","ctl-task-cpt","51","735646","0.0-10.0-0.2","20","1","2025-07-02 10:18:29","80fe4187154257d5fb01684ea91b68b9","165.165.127.92","Mozilla/5.0 (Windows NT 10.0; Win64; x64) AppleWebKit/537.36 (KHTML, like Gecko) Chrome/137.0.0.0 Safari/537.36","WebKit","Chrome","137.0.0.0","Windows","10.0","https://app.prolific.com/","en-AU,en-ZA;q=0.9,en-GB;q=0.8,en-US;q=0.7,en;q=0.6,fr;q=0.5","66b61da8697a1059a78e7008","683db6dfa200031b80f2a654","6865076fc1495b205f4e37bc","66b61da8697a1059a78e7008","2025-07-02T10:30:48.656Z","","","","","","","","","","","","","","","","win-only","1","g1:NE,g2:SW","0.8","3","0","713457.7","1546.8","6549.4","22580.8","1","4","4","6","2","4","4","9","5","0.06818181818181818","1245","3000","1535","[""down"",""left""]","{""num_key_presses"":6,""num_perfect"":5,""num_errors"":0,""num_randdir"":1,""num_randdir_good_moves"":1,""num_whilered"":0,""num_whileblue"":0,""num_blue"":0,""num_good_moves"":6}","[297.22232142857143,299.12857142857143,0.4,297.22232142857143,299.12857142857143,107.9,297.22232142857143,299.12857142857143,218.9,297.22232142857143,299.12857142857143,320.4,297.22232142857143,299.12857142857143,425.7,297.22232142857143,299.12857142857143,528.9,295.22232142857143,304.12857142857143,631.1,209.22232142857143,388.12857142857143,735.6,139.22232142857143,462.12857142857143,838.8,98.22232142857143,499.12857142857143,941.7,72.22232142857143,515.1285714285714,1047.9,57.222321428571426,519.1285714285714,1155.5,52.222321428571426,522.1285714285714,1265.1,52.222321428571426,522.1285714285714,1371.6,52.222321428571426,522.1285714285714,1482.4,52.222321428571426,522.1285714285714,1589.1,52.222321428571426,522.1285714285714,1695.4,52.222321428571426,522.1285714285714,1805.5,52.222321428571426,522.1285714285714,1906,52.222321428571426,522.1285714285714,2008.8,52.222321428571426,522.1285714285714,2123.7,52.222321428571426,522.1285714285714,2225.9,52.222321428571426,522.1285714285714,2330.5,52.222321428571426,522.1285714285714,2436.2,52.222321428571426,522.1285714285714,2548.3,52.222321428571426,522.1285714285714,2650.4,52.222321428571426,522.1285714285714,2754.8,52.222321428571426,522.1285714285714,2855.1,52.222321428571426,522.1285714285714,2968.8,52.222321428571426,522.1285714285714,3071.1,52.222321428571426,522.1285714285714,3179.7,52.222321428571426,522.1285714285714,3281.2,52.222321428571426,522.1285714285714,3387,52.222321428571426,522.1285714285714,3497,52.222321428571426,522.1285714285714,3599.1,52.222321428571426,522.1285714285714,3699.8,52.222321428571426,522.1285714285714,3805.2,52.222321428571426,522.1285714285714,3918.9,52.222321428571426,522.1285714285714,4019.6,52.222321428571426,522.1285714285714,4134.2,52.222321428571426,522.1285714285714,4234.9,52.222321428571426,522.1285714285714,4337.3,52.222321428571426,522.1285714285714,4448.1,52.222321428571426,522.1285714285714,4552.3,52.222321428571426,522.1285714285714,4660.1,52.222321428571426,522.1285714285714,4765.1,52.222321428571426,522.1285714285714,4867.8,52.222321428571426,522.1285714285714,4969.7]","[1439.9,1439.9,1000,0,439.9,""smooth"",""left"",""left"",""good_move"",4515.7,3074.6,2722.5,1441.1,352.1,""smooth"",""left"",""left"",""good_move"",7717.4,3200.8,2863.4,4516.7,337.3,""smooth"",""down"",""down"",""good_move"",10426.4,2708.3,2394.1,7718.1,314.2,""smooth"",""down"",""down"",""good_move"",12742.1,2314.3,1954.6,10427.8,359.7,""oops"",""down"",""left"",""good_move"",15902.9,3160.1,2818.3,12742.9,341.7,""smooth"",""down"",""down"",""good_move""]","",""
"3273","","<div style=""width:500px;"">
  <p>What determined the result of this run?</p>
  </div>","68","html-slider-response","52","738922","0.0-10.0-1.2","20","1","2025-07-02 10:18:29","80fe4187154257d5fb01684ea91b68b9","165.165.127.92","Mozilla/5.0 (Windows NT 10.0; Win64; x64) AppleWebKit/537.36 (KHTML, like Gecko) Chrome/137.0.0.0 Safari/537.36","WebKit","Chrome","137.0.0.0","Windows","10.0","https://app.prolific.com/","en-AU,en-ZA;q=0.9,en-GB;q=0.8,en-US;q=0.7,en;q=0.6,fr;q=0.5","66b61da8697a1059a78e7008","683db6dfa200031b80f2a654","6865076fc1495b205f4e37bc","66b61da8697a1059a78e7008","2025-07-02T10:30:51.933Z","","","","","","AttribQ","","","","","","","","","","","","","","","","","","","","","","","","","","","","","","","","","","","","","","50"
"2751","","<div style=""width:500px;"">
  <p>How much control did you have over the ball?</p>
  </div>","39","html-slider-response","53","741677","0.0-10.0-2.2","20","1","2025-07-02 10:18:29","80fe4187154257d5fb01684ea91b68b9","165.165.127.92","Mozilla/5.0 (Windows NT 10.0; Win64; x64) AppleWebKit/537.36 (KHTML, like Gecko) Chrome/137.0.0.0 Safari/537.36","WebKit","Chrome","137.0.0.0","Windows","10.0","https://app.prolific.com/","en-AU,en-ZA;q=0.9,en-GB;q=0.8,en-US;q=0.7,en;q=0.6,fr;q=0.5","66b61da8697a1059a78e7008","683db6dfa200031b80f2a654","6865076fc1495b205f4e37bc","66b61da8697a1059a78e7008","2025-07-02T10:30:54.687Z","","","","","","ControlQ","","","","","","","","","","","","","","","","","","","","","","","","","","","","","","","","","","","","","","50"
"2681","","<div style=""width:500px;"">
  <p>How would you describe your current emotional state?</p>
  </div>","57","html-slider-response","54","744361","0.0-10.0-3.2","20","1","2025-07-02 10:18:29","80fe4187154257d5fb01684ea91b68b9","165.165.127.92","Mozilla/5.0 (Windows NT 10.0; Win64; x64) AppleWebKit/537.36 (KHTML, like Gecko) Chrome/137.0.0.0 Safari/537.36","WebKit","Chrome","137.0.0.0","Windows","10.0","https://app.prolific.com/","en-AU,en-ZA;q=0.9,en-GB;q=0.8,en-US;q=0.7,en;q=0.6,fr;q=0.5","66b61da8697a1059a78e7008","683db6dfa200031b80f2a654","6865076fc1495b205f4e37bc","66b61da8697a1059a78e7008","2025-07-02T10:30:57.371Z","","","","","","StressQ","","","","","","","","","","","","","","","","","","","","","","","","","","","","","","","","","","","","","","50"
"2722","","<div style=""width:500px;"">
  <p>What best describes how you currently feel?</p>
  </div>","70","html-slider-response","55","747086","0.0-10.0-4.2","20","1","2025-07-02 10:18:29","80fe4187154257d5fb01684ea91b68b9","165.165.127.92","Mozilla/5.0 (Windows NT 10.0; Win64; x64) AppleWebKit/537.36 (KHTML, like Gecko) Chrome/137.0.0.0 Safari/537.36","WebKit","Chrome","137.0.0.0","Windows","10.0","https://app.prolific.com/","en-AU,en-ZA;q=0.9,en-GB;q=0.8,en-US;q=0.7,en;q=0.6,fr;q=0.5","66b61da8697a1059a78e7008","683db6dfa200031b80f2a654","6865076fc1495b205f4e37bc","66b61da8697a1059a78e7008","2025-07-02T10:31:00.096Z","","","","","","MotivationQ","","","","","","","","","","","","","","","","","","","","","","","","","","","","","","","","","","","","","","50"
"","","","","ctl-task-cpt","56","784475","0.0-10.0-0.3","20","1","2025-07-02 10:18:29","80fe4187154257d5fb01684ea91b68b9","165.165.127.92","Mozilla/5.0 (Windows NT 10.0; Win64; x64) AppleWebKit/537.36 (KHTML, like Gecko) Chrome/137.0.0.0 Safari/537.36","WebKit","Chrome","137.0.0.0","Windows","10.0","https://app.prolific.com/","en-AU,en-ZA;q=0.9,en-GB;q=0.8,en-US;q=0.7,en;q=0.6,fr;q=0.5","66b61da8697a1059a78e7008","683db6dfa200031b80f2a654","6865076fc1495b205f4e37bc","66b61da8697a1059a78e7008","2025-07-02T10:31:37.485Z","","","","","","","","","","","","","","","","win-only","2","g1:SE,g2:NW","0.7","4","0","750501.6","1707.7","6712.4","34348.4","1","4","8","6","1","1","1","10","9","0.07575757575757576","1408.8","3000","1030","[""down"",""right""]","{""num_key_presses"":8,""num_perfect"":5,""num_errors"":0,""num_randdir"":3,""num_randdir_good_moves"":2,""num_whilered"":0,""num_whileblue"":0,""num_blue"":2,""num_good_moves"":6}","[293.22232142857143,305.12857142857143,0.5,293.22232142857143,305.12857142857143,105.5,293.22232142857143,305.12857142857143,205.6,293.22232142857143,305.12857142857143,312.8,293.22232142857143,305.12857142857143,413.9,293.22232142857143,305.12857142857143,516,293.22232142857143,307.12857142857143,621.8,339.22232142857143,394.12857142857143,732.1,438.22232142857143,493.12857142857143,832.3,457.22232142857143,516.1285714285714,947,460.22232142857143,520.1285714285714,1054.7,486.22232142857143,519.1285714285714,1159.1,514.2223214285714,529.1285714285714,1259.5,521.2223214285714,535.1285714285714,1363.4,522.2223214285714,536.1285714285714,1475.2,522.2223214285714,536.1285714285714,1583.5,522.2223214285714,536.1285714285714,1684.4,522.2223214285714,536.1285714285714,1796.8,522.2223214285714,536.1285714285714,1901.9,522.2223214285714,536.1285714285714,2005.1,522.2223214285714,536.1285714285714,2108.5,522.2223214285714,536.1285714285714,2214,522.2223214285714,536.1285714285714,2315.7,522.2223214285714,536.1285714285714,2416.2,522.2223214285714,536.1285714285714,2518.1,522.2223214285714,536.1285714285714,2620,522.2223214285714,536.1285714285714,2728.2,522.2223214285714,536.1285714285714,2831.3,522.2223214285714,536.1285714285714,2934.1,522.2223214285714,536.1285714285714,3044.6,522.2223214285714,536.1285714285714,3144.8,522.2223214285714,536.1285714285714,3247.1,522.2223214285714,536.1285714285714,3350.3,522.2223214285714,536.1285714285714,3453.7,522.2223214285714,536.1285714285714,3557.1,522.2223214285714,536.1285714285714,3658.2,522.2223214285714,536.1285714285714,3769.5,522.2223214285714,536.1285714285714,3871.9,522.2223214285714,536.1285714285714,3973.5,522.2223214285714,536.1285714285714,4075.3,522.2223214285714,536.1285714285714,4177.1,522.2223214285714,536.1285714285714,4291.6,522.2223214285714,536.1285714285714,4395.5,522.2223214285714,536.1285714285714,4509.6,522.2223214285714,536.1285714285714,4612.2,522.2223214285714,536.1285714285714,4731.5,522.2223214285714,536.1285714285714,4840.3,522.2223214285714,536.1285714285714,4940.5]","[4219.5,4219.5,1758.9,2011.4,449.2,""smooth"",""right"",""right"",""good_move"",6291.7,2071.5,1682.7,4220.3,388.8,""smooth"",""right"",""right"",""good_move"",10002.3,3709.8,3332.1,6292.5,377.7,""oops"",""down"",""down"",""good_move"",15606,5602.8,2495.9,12748.1,362,""oops"",""down"",""up"",""bad_move"",18822.8,3215.8,2822.1,15607,393.8,""smooth"",""up"",""up"",""bad_move"",22037,3213.2,2812.7,18823.8,400.5,""smooth"",""down"",""down"",""good_move"",24547.4,2509.7,2142.1,22037.7,367.6,""smooth"",""down"",""down"",""good_move"",27500.6,2952.5,2435.7,24548.2,516.7,""oops"",""down"",""down"",""good_move""]","",""
"3215","","<div style=""width:500px;"">
  <p>What determined the result of this run?</p>
  </div>","79","html-slider-response","57","787692","0.0-10.0-1.3","20","1","2025-07-02 10:18:29","80fe4187154257d5fb01684ea91b68b9","165.165.127.92","Mozilla/5.0 (Windows NT 10.0; Win64; x64) AppleWebKit/537.36 (KHTML, like Gecko) Chrome/137.0.0.0 Safari/537.36","WebKit","Chrome","137.0.0.0","Windows","10.0","https://app.prolific.com/","en-AU,en-ZA;q=0.9,en-GB;q=0.8,en-US;q=0.7,en;q=0.6,fr;q=0.5","66b61da8697a1059a78e7008","683db6dfa200031b80f2a654","6865076fc1495b205f4e37bc","66b61da8697a1059a78e7008","2025-07-02T10:31:40.702Z","","","","","","AttribQ","","","","","","","","","","","","","","","","","","","","","","","","","","","","","","","","","","","","","","50"
"3222","","<div style=""width:500px;"">
  <p>How much control did you have over the ball?</p>
  </div>","47","html-slider-response","58","790917","0.0-10.0-2.3","20","1","2025-07-02 10:18:29","80fe4187154257d5fb01684ea91b68b9","165.165.127.92","Mozilla/5.0 (Windows NT 10.0; Win64; x64) AppleWebKit/537.36 (KHTML, like Gecko) Chrome/137.0.0.0 Safari/537.36","WebKit","Chrome","137.0.0.0","Windows","10.0","https://app.prolific.com/","en-AU,en-ZA;q=0.9,en-GB;q=0.8,en-US;q=0.7,en;q=0.6,fr;q=0.5","66b61da8697a1059a78e7008","683db6dfa200031b80f2a654","6865076fc1495b205f4e37bc","66b61da8697a1059a78e7008","2025-07-02T10:31:43.927Z","","","","","","ControlQ","","","","","","","","","","","","","","","","","","","","","","","","","","","","","","","","","","","","","","50"
"3413","","<div style=""width:500px;"">
  <p>How would you describe your current emotional state?</p>
  </div>","46","html-slider-response","59","794332","0.0-10.0-3.3","20","1","2025-07-02 10:18:29","80fe4187154257d5fb01684ea91b68b9","165.165.127.92","Mozilla/5.0 (Windows NT 10.0; Win64; x64) AppleWebKit/537.36 (KHTML, like Gecko) Chrome/137.0.0.0 Safari/537.36","WebKit","Chrome","137.0.0.0","Windows","10.0","https://app.prolific.com/","en-AU,en-ZA;q=0.9,en-GB;q=0.8,en-US;q=0.7,en;q=0.6,fr;q=0.5","66b61da8697a1059a78e7008","683db6dfa200031b80f2a654","6865076fc1495b205f4e37bc","66b61da8697a1059a78e7008","2025-07-02T10:31:47.343Z","","","","","","StressQ","","","","","","","","","","","","","","","","","","","","","","","","","","","","","","","","","","","","","","50"
"4050","","<div style=""width:500px;"">
  <p>What best describes how you currently feel?</p>
  </div>","78","html-slider-response","60","798384","0.0-10.0-4.3","20","1","2025-07-02 10:18:29","80fe4187154257d5fb01684ea91b68b9","165.165.127.92","Mozilla/5.0 (Windows NT 10.0; Win64; x64) AppleWebKit/537.36 (KHTML, like Gecko) Chrome/137.0.0.0 Safari/537.36","WebKit","Chrome","137.0.0.0","Windows","10.0","https://app.prolific.com/","en-AU,en-ZA;q=0.9,en-GB;q=0.8,en-US;q=0.7,en;q=0.6,fr;q=0.5","66b61da8697a1059a78e7008","683db6dfa200031b80f2a654","6865076fc1495b205f4e37bc","66b61da8697a1059a78e7008","2025-07-02T10:31:51.395Z","","","","","","MotivationQ","","","","","","","","","","","","","","","","","","","","","","","","","","","","","","","","","","","","","","50"
"","","","","ctl-task-cpt","61","856091","0.0-10.0-0.4","20","1","2025-07-02 10:18:29","80fe4187154257d5fb01684ea91b68b9","165.165.127.92","Mozilla/5.0 (Windows NT 10.0; Win64; x64) AppleWebKit/537.36 (KHTML, like Gecko) Chrome/137.0.0.0 Safari/537.36","WebKit","Chrome","137.0.0.0","Windows","10.0","https://app.prolific.com/","en-AU,en-ZA;q=0.9,en-GB;q=0.8,en-US;q=0.7,en;q=0.6,fr;q=0.5","66b61da8697a1059a78e7008","683db6dfa200031b80f2a654","6865076fc1495b205f4e37bc","66b61da8697a1059a78e7008","2025-07-02T10:32:49.101Z","","","","","","","","","","","","","","","","win-only","0","g1:NW,g2:SE","0.6","5","0","801800","25196.2","30201","54666","1","4","4","6","2","4","4","14","10","0.10606060606060606","1758.1","3000","1565","[""down"",""right""]","{""num_key_presses"":6,""num_perfect"":6,""num_errors"":0,""num_randdir"":0,""num_randdir_good_moves"":0,""num_whilered"":0,""num_whileblue"":0,""num_blue"":2,""num_good_moves"":6}","[294.22232142857143,295.12857142857143,1.4,294.22232142857143,295.12857142857143,102.9,294.22232142857143,295.12857142857143,205.7,294.22232142857143,295.12857142857143,311.9,294.22232142857143,295.12857142857143,422.2,294.22232142857143,295.12857142857143,522.3,294.22232142857143,295.12857142857143,644.3,294.22232142857143,295.12857142857143,745.9,294.22232142857143,295.12857142857143,849.3,294.22232142857143,295.12857142857143,951.4,294.22232142857143,295.12857142857143,1056.5,475.22232142857143,402.12857142857143,1162.4,510.22232142857143,426.12857142857143,1270.2,537.2223214285714,464.12857142857143,1393,553.2223214285714,498.12857142857143,1495.3,555.2223214285714,513.1285714285714,1614.6,551.2223214285714,529.1285714285714,1716.5,550.2223214285714,533.1285714285714,1820.2,550.2223214285714,533.1285714285714,1925.9,550.2223214285714,533.1285714285714,2027.1,550.2223214285714,533.1285714285714,2128.4,550.2223214285714,533.1285714285714,2246.6,550.2223214285714,533.1285714285714,2349.8,550.2223214285714,533.1285714285714,2453.7,550.2223214285714,533.1285714285714,2556,550.2223214285714,533.1285714285714,2661.3,550.2223214285714,533.1285714285714,2763.6,550.2223214285714,533.1285714285714,2868.4,550.2223214285714,533.1285714285714,2971.5,550.2223214285714,533.1285714285714,3078.1,550.2223214285714,533.1285714285714,3190.6,550.2223214285714,533.1285714285714,3295.2,550.2223214285714,533.1285714285714,3405.7,550.2223214285714,533.1285714285714,3510.7,550.2223214285714,533.1285714285714,3623.9,550.2223214285714,533.1285714285714,3745.2,550.2223214285714,533.1285714285714,3848.2,550.2223214285714,533.1285714285714,3950.9,550.2223214285714,533.1285714285714,4052.9,550.2223214285714,533.1285714285714,4159,550.2223214285714,533.1285714285714,4266.7,550.2223214285714,533.1285714285714,4368.4,550.2223214285714,533.1285714285714,4476.6,550.2223214285714,533.1285714285714,4582.4,550.2223214285714,533.1285714285714,4688.8,550.2223214285714,533.1285714285714,4807.7,550.2223214285714,533.1285714285714,4919]","[1404.2,1404.2,1000,0,404.2,""smooth"",""right"",""right"",""good_move"",4636.9,3231.5,2853.8,1405.5,377.6,""smooth"",""down"",""down"",""good_move"",7957.4,3318.5,2922.8,4638.9,395.7,""smooth"",""down"",""down"",""good_move"",11527.1,3569,3183.1,7958.2,385.8,""smooth"",""down"",""down"",""good_move"",14127.1,2599.2,2004.6,11527.9,594.7,""smooth"",""right"",""right"",""good_move"",24315.2,10186.7,2276.6,21519.7,518.9,""smooth"",""right"",""right"",""good_move""]","",""
"2816","","<div style=""width:500px;"">
  <p>What determined the result of this run?</p>
  </div>","87","html-slider-response","62","858910","0.0-10.0-1.4","20","1","2025-07-02 10:18:29","80fe4187154257d5fb01684ea91b68b9","165.165.127.92","Mozilla/5.0 (Windows NT 10.0; Win64; x64) AppleWebKit/537.36 (KHTML, like Gecko) Chrome/137.0.0.0 Safari/537.36","WebKit","Chrome","137.0.0.0","Windows","10.0","https://app.prolific.com/","en-AU,en-ZA;q=0.9,en-GB;q=0.8,en-US;q=0.7,en;q=0.6,fr;q=0.5","66b61da8697a1059a78e7008","683db6dfa200031b80f2a654","6865076fc1495b205f4e37bc","66b61da8697a1059a78e7008","2025-07-02T10:32:51.920Z","","","","","","AttribQ","","","","","","","","","","","","","","","","","","","","","","","","","","","","","","","","","","","","","","50"
"3274","","<div style=""width:500px;"">
  <p>How much control did you have over the ball?</p>
  </div>","95","html-slider-response","63","862187","0.0-10.0-2.4","20","1","2025-07-02 10:18:29","80fe4187154257d5fb01684ea91b68b9","165.165.127.92","Mozilla/5.0 (Windows NT 10.0; Win64; x64) AppleWebKit/537.36 (KHTML, like Gecko) Chrome/137.0.0.0 Safari/537.36","WebKit","Chrome","137.0.0.0","Windows","10.0","https://app.prolific.com/","en-AU,en-ZA;q=0.9,en-GB;q=0.8,en-US;q=0.7,en;q=0.6,fr;q=0.5","66b61da8697a1059a78e7008","683db6dfa200031b80f2a654","6865076fc1495b205f4e37bc","66b61da8697a1059a78e7008","2025-07-02T10:32:55.197Z","","","","","","ControlQ","","","","","","","","","","","","","","","","","","","","","","","","","","","","","","","","","","","","","","50"
"3025","","<div style=""width:500px;"">
  <p>How would you describe your current emotional state?</p>
  </div>","34","html-slider-response","64","865215","0.0-10.0-3.4","20","1","2025-07-02 10:18:29","80fe4187154257d5fb01684ea91b68b9","165.165.127.92","Mozilla/5.0 (Windows NT 10.0; Win64; x64) AppleWebKit/537.36 (KHTML, like Gecko) Chrome/137.0.0.0 Safari/537.36","WebKit","Chrome","137.0.0.0","Windows","10.0","https://app.prolific.com/","en-AU,en-ZA;q=0.9,en-GB;q=0.8,en-US;q=0.7,en;q=0.6,fr;q=0.5","66b61da8697a1059a78e7008","683db6dfa200031b80f2a654","6865076fc1495b205f4e37bc","66b61da8697a1059a78e7008","2025-07-02T10:32:58.225Z","","","","","","StressQ","","","","","","","","","","","","","","","","","","","","","","","","","","","","","","","","","","","","","","50"
"21868","","<div style=""width:500px;"">
  <p>What best describes how you currently feel?</p>
  </div>","82","html-slider-response","65","887086","0.0-10.0-4.4","20","1","2025-07-02 10:18:29","80fe4187154257d5fb01684ea91b68b9","165.165.127.92","Mozilla/5.0 (Windows NT 10.0; Win64; x64) AppleWebKit/537.36 (KHTML, like Gecko) Chrome/137.0.0.0 Safari/537.36","WebKit","Chrome","137.0.0.0","Windows","10.0","https://app.prolific.com/","en-AU,en-ZA;q=0.9,en-GB;q=0.8,en-US;q=0.7,en;q=0.6,fr;q=0.5","66b61da8697a1059a78e7008","683db6dfa200031b80f2a654","6865076fc1495b205f4e37bc","66b61da8697a1059a78e7008","2025-07-02T10:33:20.096Z","","","","","","MotivationQ","","","","","","","","","","","","","","","","","","","","","","","","","","","","","","","","","","","","","","50"
"","","","","ctl-task-cpt","66","963395","0.0-10.0-0.5","20","1","2025-07-02 10:18:29","80fe4187154257d5fb01684ea91b68b9","165.165.127.92","Mozilla/5.0 (Windows NT 10.0; Win64; x64) AppleWebKit/537.36 (KHTML, like Gecko) Chrome/137.0.0.0 Safari/537.36","WebKit","Chrome","137.0.0.0","Windows","10.0","https://app.prolific.com/","en-AU,en-ZA;q=0.9,en-GB;q=0.8,en-US;q=0.7,en;q=0.6,fr;q=0.5","66b61da8697a1059a78e7008","683db6dfa200031b80f2a654","6865076fc1495b205f4e37bc","66b61da8697a1059a78e7008","2025-07-02T10:34:36.405Z","","","","","","","","","","","","","","","","win-only","1","g1:NE,g2:SW","0.5","6","0","890503.1","14682.7","19686.8","73274.3","1","4","8","6","2","8","7","21","14","0.1590909090909091","1428.9","3000","460","[""down"",""left""]","{""num_key_presses"":16,""num_perfect"":7,""num_errors"":1,""num_randdir"":8,""num_randdir_good_moves"":4,""num_whilered"":0,""num_whileblue"":1,""num_blue"":4,""num_good_moves"":11}","[297.22232142857143,295.12857142857143,1.5,297.22232142857143,295.12857142857143,104.3,297.22232142857143,295.12857142857143,206.2,297.22232142857143,295.12857142857143,313.2,297.22232142857143,295.12857142857143,413.6,297.22232142857143,295.12857142857143,519.2,284.22232142857143,303.12857142857143,619.2,-114.77767857142857,600.1285714285714,720.1,-123.77767857142857,624.1285714285714,831.6,-108.77767857142857,635.1285714285714,958,-23.777678571428574,600.1285714285714,1064.4,6.222321428571426,582.1285714285714,1183.2,25.222321428571426,577.1285714285714,1288.2,37.222321428571426,573.1285714285714,1389.2,38.222321428571426,572.1285714285714,1489.8,38.222321428571426,572.1285714285714,1614.8,38.222321428571426,572.1285714285714,1748.6,38.222321428571426,572.1285714285714,1852.5,38.222321428571426,572.1285714285714,1956.5,38.222321428571426,572.1285714285714,2061.5,38.222321428571426,572.1285714285714,2182,38.222321428571426,572.1285714285714,2307.4,38.222321428571426,572.1285714285714,2422.4,38.222321428571426,572.1285714285714,2525.6,38.222321428571426,572.1285714285714,2642.6,38.222321428571426,572.1285714285714,2748,38.222321428571426,572.1285714285714,2852.5,38.222321428571426,572.1285714285714,2957,38.222321428571426,572.1285714285714,3062.8,38.222321428571426,572.1285714285714,3167.8,38.222321428571426,572.1285714285714,3274.8,38.222321428571426,572.1285714285714,3376.2,38.222321428571426,572.1285714285714,3484.2,38.222321428571426,572.1285714285714,3591.8,38.222321428571426,572.1285714285714,3699.4,38.222321428571426,572.1285714285714,3800.5,38.222321428571426,572.1285714285714,3904.8,38.222321428571426,572.1285714285714,4006.6,38.222321428571426,572.1285714285714,4106.7,38.222321428571426,572.1285714285714,4209.2,38.222321428571426,572.1285714285714,4314,38.222321428571426,572.1285714285714,4417.4,38.222321428571426,572.1285714285714,4524.3,38.222321428571426,572.1285714285714,4626.3,38.222321428571426,572.1285714285714,4732.8,38.222321428571426,572.1285714285714,4841.9,38.222321428571426,572.1285714285714,4941.9]","[1428.1,1428.2,1000,0,428.2,""smooth"",""down"",""down"",""good_move"",4571,3142.2,2702.4,1428.9,439.7,""oops"",""left"",""up"",""bad_move"",10132.6,5560.4,2234.9,7522.6,375.1,""oops"",""down"",""right"",""bad_move"",12970.8,2836.7,2358.3,10134.1,478.4,""oops"",""right"",""down"",""good_move"",15663.5,2692,2223.3,12971.5,468.8,""oops"",""right"",""up"",""bad_move"",18575.7,2910.9,2540.6,15664.9,370.3,""smooth"",""left"",""left"",""good_move"",21511.9,2934.8,2464.3,18577.1,470.5,""smooth"",""down"",""down"",""good_move"",23768,2254.3,1854.9,21513.9,399.3,""smooth"",""left"",""left"",""good_move"",26364.2,2595.4,2212.1,23768.8,383.3,""smooth"",""left"",""left"",""good_move"",29179.5,2814.5,2473.9,26365.1,340.6,""oops"",""down"",""up"",""bad_move"",38032.3,8851.9,2179.2,35474.6,378.5,""smooth"",""left"",""left"",""good_move"",40931.9,2898.6,2570.7,38033.3,327.9,""while_blue"",""down"",""right"",""bad_move"",43840.4,2907.2,2499.1,40933.2,408.1,""smooth"",""down"",""down"",""good_move"",46719.9,2877.9,2401.9,43842,476,""oops"",""down"",""left"",""good_move"",50054.1,3333.8,2093,46720.4,1240.8,""oops"",""down"",""down"",""good_move"",53286.1,3231.5,2866.3,50054.6,365.2,""oops"",""down"",""down"",""good_move""]","",""
"6143","","<div style=""width:500px;"">
  <p>What determined the result of this run?</p>
  </div>","67","html-slider-response","67","969544","0.0-10.0-1.5","20","1","2025-07-02 10:18:29","80fe4187154257d5fb01684ea91b68b9","165.165.127.92","Mozilla/5.0 (Windows NT 10.0; Win64; x64) AppleWebKit/537.36 (KHTML, like Gecko) Chrome/137.0.0.0 Safari/537.36","WebKit","Chrome","137.0.0.0","Windows","10.0","https://app.prolific.com/","en-AU,en-ZA;q=0.9,en-GB;q=0.8,en-US;q=0.7,en;q=0.6,fr;q=0.5","66b61da8697a1059a78e7008","683db6dfa200031b80f2a654","6865076fc1495b205f4e37bc","66b61da8697a1059a78e7008","2025-07-02T10:34:42.555Z","","","","","","AttribQ","","","","","","","","","","","","","","","","","","","","","","","","","","","","","","","","","","","","","","50"
"2657","","<div style=""width:500px;"">
  <p>How much control did you have over the ball?</p>
  </div>","11","html-slider-response","68","972206","0.0-10.0-2.5","20","1","2025-07-02 10:18:29","80fe4187154257d5fb01684ea91b68b9","165.165.127.92","Mozilla/5.0 (Windows NT 10.0; Win64; x64) AppleWebKit/537.36 (KHTML, like Gecko) Chrome/137.0.0.0 Safari/537.36","WebKit","Chrome","137.0.0.0","Windows","10.0","https://app.prolific.com/","en-AU,en-ZA;q=0.9,en-GB;q=0.8,en-US;q=0.7,en;q=0.6,fr;q=0.5","66b61da8697a1059a78e7008","683db6dfa200031b80f2a654","6865076fc1495b205f4e37bc","66b61da8697a1059a78e7008","2025-07-02T10:34:45.216Z","","","","","","ControlQ","","","","","","","","","","","","","","","","","","","","","","","","","","","","","","","","","","","","","","50"
"2635","","<div style=""width:500px;"">
  <p>How would you describe your current emotional state?</p>
  </div>","75","html-slider-response","69","974844","0.0-10.0-3.5","20","1","2025-07-02 10:18:29","80fe4187154257d5fb01684ea91b68b9","165.165.127.92","Mozilla/5.0 (Windows NT 10.0; Win64; x64) AppleWebKit/537.36 (KHTML, like Gecko) Chrome/137.0.0.0 Safari/537.36","WebKit","Chrome","137.0.0.0","Windows","10.0","https://app.prolific.com/","en-AU,en-ZA;q=0.9,en-GB;q=0.8,en-US;q=0.7,en;q=0.6,fr;q=0.5","66b61da8697a1059a78e7008","683db6dfa200031b80f2a654","6865076fc1495b205f4e37bc","66b61da8697a1059a78e7008","2025-07-02T10:34:47.854Z","","","","","","StressQ","","","","","","","","","","","","","","","","","","","","","","","","","","","","","","","","","","","","","","50"
"2660","","<div style=""width:500px;"">
  <p>What best describes how you currently feel?</p>
  </div>","69","html-slider-response","70","977507","0.0-10.0-4.5","20","1","2025-07-02 10:18:29","80fe4187154257d5fb01684ea91b68b9","165.165.127.92","Mozilla/5.0 (Windows NT 10.0; Win64; x64) AppleWebKit/537.36 (KHTML, like Gecko) Chrome/137.0.0.0 Safari/537.36","WebKit","Chrome","137.0.0.0","Windows","10.0","https://app.prolific.com/","en-AU,en-ZA;q=0.9,en-GB;q=0.8,en-US;q=0.7,en;q=0.6,fr;q=0.5","66b61da8697a1059a78e7008","683db6dfa200031b80f2a654","6865076fc1495b205f4e37bc","66b61da8697a1059a78e7008","2025-07-02T10:34:50.518Z","","","","","","MotivationQ","","","","","","","","","","","","","","","","","","","","","","","","","","","","","","","","","","","","","","50"
"","","","","ctl-task-cpt","71","1040065","0.0-10.0-0.6","20","1","2025-07-02 10:18:29","80fe4187154257d5fb01684ea91b68b9","165.165.127.92","Mozilla/5.0 (Windows NT 10.0; Win64; x64) AppleWebKit/537.36 (KHTML, like Gecko) Chrome/137.0.0.0 Safari/537.36","WebKit","Chrome","137.0.0.0","Windows","10.0","https://app.prolific.com/","en-AU,en-ZA;q=0.9,en-GB;q=0.8,en-US;q=0.7,en;q=0.6,fr;q=0.5","66b61da8697a1059a78e7008","683db6dfa200031b80f2a654","6865076fc1495b205f4e37bc","66b61da8697a1059a78e7008","2025-07-02T10:35:53.075Z","","","","","","","","","","","","","","","","win-only","0","g1:NW,g2:SE","0.4","7","0","980924.2","15825.1","20828.6","59515.7","1","4","4","6","2","4","4","25","21","0.1893939393939394","1624.2","3000","1915","[""down"",""right""]","{""num_key_presses"":12,""num_perfect"":5,""num_errors"":0,""num_randdir"":7,""num_randdir_good_moves"":4,""num_whilered"":0,""num_whileblue"":0,""num_blue"":1,""num_good_moves"":9}","[294.22232142857143,294.12857142857143,1.2,294.22232142857143,294.12857142857143,116.4,294.22232142857143,294.12857142857143,216.9,294.22232142857143,294.12857142857143,317,294.22232142857143,294.12857142857143,428.8,294.22232142857143,294.12857142857143,529.2,294.22232142857143,294.12857142857143,634.8,294.22232142857143,294.12857142857143,742.8,294.22232142857143,294.12857142857143,849.4,353.22232142857143,336.12857142857143,952.4,450.22232142857143,438.12857142857143,1060.4,462.22232142857143,458.12857142857143,1168.3,486.22232142857143,482.12857142857143,1276.6,502.22232142857143,512.1285714285714,1386.3,510.22232142857143,519.1285714285714,1493,515.2223214285714,520.1285714285714,1599.7,515.2223214285714,521.1285714285714,1717.2,515.2223214285714,521.1285714285714,1821.4,515.2223214285714,521.1285714285714,1941.4,515.2223214285714,521.1285714285714,2058.8,515.2223214285714,521.1285714285714,2158.9,515.2223214285714,521.1285714285714,2272.4,515.2223214285714,521.1285714285714,2377.6,515.2223214285714,521.1285714285714,2478.7,515.2223214285714,521.1285714285714,2581.7,515.2223214285714,521.1285714285714,2697.4,515.2223214285714,521.1285714285714,2800.4,515.2223214285714,521.1285714285714,2902.8,515.2223214285714,521.1285714285714,3013.5,515.2223214285714,521.1285714285714,3116.7,515.2223214285714,521.1285714285714,3216.9,515.2223214285714,521.1285714285714,3329,515.2223214285714,521.1285714285714,3434,515.2223214285714,521.1285714285714,3536.2,515.2223214285714,521.1285714285714,3654.7,515.2223214285714,521.1285714285714,3767.2,515.2223214285714,521.1285714285714,3874,515.2223214285714,521.1285714285714,3986.3,515.2223214285714,521.1285714285714,4086.9,515.2223214285714,521.1285714285714,4200.3,515.2223214285714,521.1285714285714,4320.5,515.2223214285714,521.1285714285714,4435.8,515.2223214285714,521.1285714285714,4547.9,515.2223214285714,521.1285714285714,4652.1,515.2223214285714,521.1285714285714,4765.3,515.2223214285714,521.1285714285714,4866.7,515.2223214285714,521.1285714285714,4969.5]","[1438.5,1438.5,1000,0,438.5,""oops"",""right"",""up"",""bad_move"",4710.6,3270.9,2522.8,1439.7,748.1,""oops"",""down"",""down"",""good_move"",7343.1,2630.7,2268.8,4712.4,361.9,""oops"",""down"",""up"",""bad_move"",10745.8,3402.3,2563.7,7343.5,838.6,""smooth"",""right"",""right"",""good_move"",14106.1,3359,2858.3,10747.1,500.7,""smooth"",""right"",""right"",""good_move"",20116.5,6009.9,2386.1,17333.1,397.3,""oops"",""down"",""down"",""good_move"",22781.4,2664.3,2156.6,20117.1,507.7,""smooth"",""down"",""down"",""good_move"",25401.2,2619,2192,22782.2,427,""oops"",""down"",""right"",""good_move"",27774.8,2373.2,1937.8,25401.7,435.3,""oops"",""down"",""up"",""bad_move"",32336.4,4561.2,3104.3,27775.2,1456.9,""smooth"",""down"",""down"",""good_move"",35267.6,2930.7,2480.1,32337,450.5,""oops"",""down"",""down"",""good_move"",38151.8,2883.2,2487.6,35268.6,395.6,""smooth"",""down"",""down"",""good_move""]","",""
"238948","","<div style=""width:500px;"">
  <p>What determined the result of this run?</p>
  </div>","91","html-slider-response","72","1279020","0.0-10.0-1.6","20","1","2025-07-02 10:18:29","80fe4187154257d5fb01684ea91b68b9","165.165.127.92","Mozilla/5.0 (Windows NT 10.0; Win64; x64) AppleWebKit/537.36 (KHTML, like Gecko) Chrome/137.0.0.0 Safari/537.36","WebKit","Chrome","137.0.0.0","Windows","10.0","https://app.prolific.com/","en-AU,en-ZA;q=0.9,en-GB;q=0.8,en-US;q=0.7,en;q=0.6,fr;q=0.5","66b61da8697a1059a78e7008","683db6dfa200031b80f2a654","6865076fc1495b205f4e37bc","66b61da8697a1059a78e7008","2025-07-02T10:39:52.030Z","","","","","","AttribQ","","","","","","","","","","","","","","","","","","","","","","","","","","","","","","","","","","","","","","50"
"2544","","<div style=""width:500px;"">
  <p>How much control did you have over the ball?</p>
  </div>","43","html-slider-response","73","1281573","0.0-10.0-2.6","20","1","2025-07-02 10:18:29","80fe4187154257d5fb01684ea91b68b9","165.165.127.92","Mozilla/5.0 (Windows NT 10.0; Win64; x64) AppleWebKit/537.36 (KHTML, like Gecko) Chrome/137.0.0.0 Safari/537.36","WebKit","Chrome","137.0.0.0","Windows","10.0","https://app.prolific.com/","en-AU,en-ZA;q=0.9,en-GB;q=0.8,en-US;q=0.7,en;q=0.6,fr;q=0.5","66b61da8697a1059a78e7008","683db6dfa200031b80f2a654","6865076fc1495b205f4e37bc","66b61da8697a1059a78e7008","2025-07-02T10:39:54.584Z","","","","","","ControlQ","","","","","","","","","","","","","","","","","","","","","","","","","","","","","","","","","","","","","","50"
"3635","","<div style=""width:500px;"">
  <p>How would you describe your current emotional state?</p>
  </div>","58","html-slider-response","74","1285214","0.0-10.0-3.6","20","1","2025-07-02 10:18:29","80fe4187154257d5fb01684ea91b68b9","165.165.127.92","Mozilla/5.0 (Windows NT 10.0; Win64; x64) AppleWebKit/537.36 (KHTML, like Gecko) Chrome/137.0.0.0 Safari/537.36","WebKit","Chrome","137.0.0.0","Windows","10.0","https://app.prolific.com/","en-AU,en-ZA;q=0.9,en-GB;q=0.8,en-US;q=0.7,en;q=0.6,fr;q=0.5","66b61da8697a1059a78e7008","683db6dfa200031b80f2a654","6865076fc1495b205f4e37bc","66b61da8697a1059a78e7008","2025-07-02T10:39:58.224Z","","","","","","StressQ","","","","","","","","","","","","","","","","","","","","","","","","","","","","","","","","","","","","","","50"
"2117","","<div style=""width:500px;"">
  <p>What best describes how you currently feel?</p>
  </div>","85","html-slider-response","75","1287334","0.0-10.0-4.6","20","1","2025-07-02 10:18:29","80fe4187154257d5fb01684ea91b68b9","165.165.127.92","Mozilla/5.0 (Windows NT 10.0; Win64; x64) AppleWebKit/537.36 (KHTML, like Gecko) Chrome/137.0.0.0 Safari/537.36","WebKit","Chrome","137.0.0.0","Windows","10.0","https://app.prolific.com/","en-AU,en-ZA;q=0.9,en-GB;q=0.8,en-US;q=0.7,en;q=0.6,fr;q=0.5","66b61da8697a1059a78e7008","683db6dfa200031b80f2a654","6865076fc1495b205f4e37bc","66b61da8697a1059a78e7008","2025-07-02T10:40:00.344Z","","","","","","MotivationQ","","","","","","","","","","","","","","","","","","","","","","","","","","","","","","","","","","","","","","50"
"","","","","ctl-task-cpt","76","1336188","0.0-10.0-0.7","20","1","2025-07-02 10:18:29","80fe4187154257d5fb01684ea91b68b9","165.165.127.92","Mozilla/5.0 (Windows NT 10.0; Win64; x64) AppleWebKit/537.36 (KHTML, like Gecko) Chrome/137.0.0.0 Safari/537.36","WebKit","Chrome","137.0.0.0","Windows","10.0","https://app.prolific.com/","en-AU,en-ZA;q=0.9,en-GB;q=0.8,en-US;q=0.7,en;q=0.6,fr;q=0.5","66b61da8697a1059a78e7008","683db6dfa200031b80f2a654","6865076fc1495b205f4e37bc","66b61da8697a1059a78e7008","2025-07-02T10:40:49.198Z","","","","","","","","","","","","","","","","win-only","1","g1:NE,g2:SW","0.3","8","0","1290749.3","2004.2","7007.2","45815.5","1","4","8","6","2","8","7","32","25","0.24242424242424243","1197.7","3000","1655","[""down"",""left""]","{""num_key_presses"":12,""num_perfect"":4,""num_errors"":1,""num_randdir"":7,""num_randdir_good_moves"":5,""num_whilered"":0,""num_whileblue"":1,""num_blue"":2,""num_good_moves"":9}","[298.22232142857143,302.12857142857143,0.4,298.22232142857143,302.12857142857143,130.5,298.22232142857143,302.12857142857143,248.1,298.22232142857143,302.12857142857143,361.7,304.22232142857143,302.12857142857143,485.3,328.22232142857143,288.12857142857143,585.9,183.22232142857143,406.12857142857143,703.6,97.22232142857143,571.1285714285714,823.6,94.22232142857143,578.1285714285714,943.1,84.22232142857143,577.1285714285714,1062.2,72.22232142857143,549.1285714285714,1186.3,71.22232142857143,545.1285714285714,1312.6,71.22232142857143,545.1285714285714,1427.6,71.22232142857143,545.1285714285714,1541.7,71.22232142857143,545.1285714285714,1660.5,71.22232142857143,545.1285714285714,1773,71.22232142857143,545.1285714285714,1885.9,71.22232142857143,545.1285714285714,2001.6,71.22232142857143,545.1285714285714,2113.4,71.22232142857143,545.1285714285714,2232.4,71.22232142857143,545.1285714285714,2343.7,71.22232142857143,545.1285714285714,2458.7,71.22232142857143,545.1285714285714,2570.2,71.22232142857143,545.1285714285714,2686.3,71.22232142857143,545.1285714285714,2800.2,71.22232142857143,545.1285714285714,2916.4,71.22232142857143,545.1285714285714,3030.8,71.22232142857143,545.1285714285714,3146.9,71.22232142857143,545.1285714285714,3255.7,71.22232142857143,545.1285714285714,3369.5,71.22232142857143,545.1285714285714,3479.7,71.22232142857143,545.1285714285714,3580.4,71.22232142857143,545.1285714285714,3691.3,71.22232142857143,545.1285714285714,3814.9,71.22232142857143,545.1285714285714,3929.8,71.22232142857143,545.1285714285714,4044.8,71.22232142857143,545.1285714285714,4165,71.22232142857143,545.1285714285714,4268.3,71.22232142857143,545.1285714285714,4371.6,71.22232142857143,545.1285714285714,4481.7,71.22232142857143,545.1285714285714,4584.8,71.22232142857143,545.1285714285714,4692,71.22232142857143,545.1285714285714,4797.7,71.22232142857143,545.1285714285714,4903.4]","[1370.1,1370.1,1000,0,370.1,""oops"",""down"",""up"",""bad_move"",3846.2,2474.9,2047.4,1371.4,427.5,""oops"",""left"",""down"",""good_move"",6607.4,2760.1,2383.7,3847.3,376.4,""smooth"",""left"",""left"",""good_move"",8904.7,2294.9,1901.2,6609.8,393.7,""oops"",""down"",""right"",""bad_move"",12222.7,3315.7,2986.7,8907,329,""oops"",""down"",""left"",""good_move"",14845.2,2620.5,2268.8,12224.7,351.7,""while_blue"",""down"",""right"",""bad_move"",17754.1,2907.8,2558.3,14846.4,349.4,""oops"",""down"",""left"",""good_move"",20749.9,2995.4,2613.8,17754.6,381.5,""smooth"",""down"",""down"",""good_move"",24527.2,3776.1,3393.2,20751.1,382.9,""oops"",""down"",""down"",""good_move"",31318.1,6788.5,2569,28277.2,471.9,""smooth"",""down"",""down"",""good_move"",35099.3,3780.6,3375.9,31318.8,404.7,""oops"",""left"",""left"",""good_move"",38470.4,3369.9,2765.7,35100.6,604.1,""smooth"",""left"",""left"",""good_move""]","",""
"30003","","<div style=""width:500px;"">
  <p>What determined the result of this run?</p>
  </div>","96","html-slider-response","77","1366193","0.0-10.0-1.7","20","1","2025-07-02 10:18:29","80fe4187154257d5fb01684ea91b68b9","165.165.127.92","Mozilla/5.0 (Windows NT 10.0; Win64; x64) AppleWebKit/537.36 (KHTML, like Gecko) Chrome/137.0.0.0 Safari/537.36","WebKit","Chrome","137.0.0.0","Windows","10.0","https://app.prolific.com/","en-AU,en-ZA;q=0.9,en-GB;q=0.8,en-US;q=0.7,en;q=0.6,fr;q=0.5","66b61da8697a1059a78e7008","683db6dfa200031b80f2a654","6865076fc1495b205f4e37bc","66b61da8697a1059a78e7008","2025-07-02T10:41:19.203Z","","","","","","AttribQ","","","","","","","","","","","","","","","","","","","","","","","","","","","","","","","","","","","","","","50"
"2663","","<div style=""width:500px;"">
  <p>How much control did you have over the ball?</p>
  </div>","34","html-slider-response","78","1368858","0.0-10.0-2.7","20","1","2025-07-02 10:18:29","80fe4187154257d5fb01684ea91b68b9","165.165.127.92","Mozilla/5.0 (Windows NT 10.0; Win64; x64) AppleWebKit/537.36 (KHTML, like Gecko) Chrome/137.0.0.0 Safari/537.36","WebKit","Chrome","137.0.0.0","Windows","10.0","https://app.prolific.com/","en-AU,en-ZA;q=0.9,en-GB;q=0.8,en-US;q=0.7,en;q=0.6,fr;q=0.5","66b61da8697a1059a78e7008","683db6dfa200031b80f2a654","6865076fc1495b205f4e37bc","66b61da8697a1059a78e7008","2025-07-02T10:41:21.869Z","","","","","","ControlQ","","","","","","","","","","","","","","","","","","","","","","","","","","","","","","","","","","","","","","50"
"2319","","<div style=""width:500px;"">
  <p>How would you describe your current emotional state?</p>
  </div>","55","html-slider-response","79","1371181","0.0-10.0-3.7","20","1","2025-07-02 10:18:29","80fe4187154257d5fb01684ea91b68b9","165.165.127.92","Mozilla/5.0 (Windows NT 10.0; Win64; x64) AppleWebKit/537.36 (KHTML, like Gecko) Chrome/137.0.0.0 Safari/537.36","WebKit","Chrome","137.0.0.0","Windows","10.0","https://app.prolific.com/","en-AU,en-ZA;q=0.9,en-GB;q=0.8,en-US;q=0.7,en;q=0.6,fr;q=0.5","66b61da8697a1059a78e7008","683db6dfa200031b80f2a654","6865076fc1495b205f4e37bc","66b61da8697a1059a78e7008","2025-07-02T10:41:24.191Z","","","","","","StressQ","","","","","","","","","","","","","","","","","","","","","","","","","","","","","","","","","","","","","","50"
"3646","","<div style=""width:500px;"">
  <p>What best describes how you currently feel?</p>
  </div>","90","html-slider-response","80","1374830","0.0-10.0-4.7","20","1","2025-07-02 10:18:29","80fe4187154257d5fb01684ea91b68b9","165.165.127.92","Mozilla/5.0 (Windows NT 10.0; Win64; x64) AppleWebKit/537.36 (KHTML, like Gecko) Chrome/137.0.0.0 Safari/537.36","WebKit","Chrome","137.0.0.0","Windows","10.0","https://app.prolific.com/","en-AU,en-ZA;q=0.9,en-GB;q=0.8,en-US;q=0.7,en;q=0.6,fr;q=0.5","66b61da8697a1059a78e7008","683db6dfa200031b80f2a654","6865076fc1495b205f4e37bc","66b61da8697a1059a78e7008","2025-07-02T10:41:27.840Z","","","","","","MotivationQ","","","","","","","","","","","","","","","","","","","","","","","","","","","","","","","","","","","","","","50"
"","","","","ctl-task-cpt","81","1397494","0.0-10.0-0.8","20","1","2025-07-02 10:18:29","80fe4187154257d5fb01684ea91b68b9","165.165.127.92","Mozilla/5.0 (Windows NT 10.0; Win64; x64) AppleWebKit/537.36 (KHTML, like Gecko) Chrome/137.0.0.0 Safari/537.36","WebKit","Chrome","137.0.0.0","Windows","10.0","https://app.prolific.com/","en-AU,en-ZA;q=0.9,en-GB;q=0.8,en-US;q=0.7,en;q=0.6,fr;q=0.5","66b61da8697a1059a78e7008","683db6dfa200031b80f2a654","6865076fc1495b205f4e37bc","66b61da8697a1059a78e7008","2025-07-02T10:41:50.505Z","","","","","","","","","","","","","","","","win-only","0","g1:NW,g2:SE","0.4","9","0","1378245.9","3301.5","8307.3","19642.5","1","4","8","6","1","1","1","33","32","0.25","1753.5","3000","2375","[""left"",""up""]","{""num_key_presses"":4,""num_perfect"":3,""num_errors"":0,""num_randdir"":1,""num_randdir_good_moves"":1,""num_whilered"":0,""num_whileblue"":0,""num_blue"":0,""num_good_moves"":4}","[296.22232142857143,298.12857142857143,1,296.22232142857143,298.12857142857143,118.9,296.22232142857143,298.12857142857143,238.7,296.22232142857143,298.12857142857143,345.8,296.22232142857143,298.12857142857143,447.3,296.22232142857143,298.12857142857143,565.3,296.22232142857143,298.12857142857143,695.7,299.22232142857143,303.12857142857143,820.2,273.22232142857143,267.12857142857143,927.4,259.22232142857143,240.12857142857143,1027.4,259.22232142857143,240.12857142857143,1144.3,118.22232142857143,147.12857142857143,1249.1,91.22232142857143,124.12857142857143,1356.7,75.22232142857143,104.12857142857143,1464.6,65.22232142857143,79.12857142857143,1573.8,60.222321428571426,65.12857142857143,1680.3,59.222321428571426,62.128571428571426,1796,59.222321428571426,62.128571428571426,1898.8,59.222321428571426,62.128571428571426,2004.7,58.222321428571426,65.12857142857143,2106,-21.777678571428574,182.12857142857143,2218,-75.77767857142857,224.12857142857143,2324.9,-78.77767857142857,228.12857142857143,2427.1,-78.77767857142857,228.12857142857143,2544,-78.77767857142857,228.12857142857143,2660.6,-78.77767857142857,228.12857142857143,2761.5,-78.77767857142857,228.12857142857143,2863.8,-78.77767857142857,228.12857142857143,2981.3,-78.77767857142857,228.12857142857143,3086.6,-78.77767857142857,228.12857142857143,3208.3,-78.77767857142857,228.12857142857143,3314.1,-78.77767857142857,228.12857142857143,3419.4,-78.77767857142857,228.12857142857143,3539.8,-78.77767857142857,228.12857142857143,3655.9,-78.77767857142857,228.12857142857143,3776.2,-78.77767857142857,228.12857142857143,3876.2,-78.77767857142857,228.12857142857143,3999.9,-78.77767857142857,228.12857142857143,4107.2,-78.77767857142857,228.12857142857143,4229.4,-78.77767857142857,228.12857142857143,4346.4,-78.77767857142857,228.12857142857143,4464.1,-78.77767857142857,228.12857142857143,4586.3,-78.77767857142857,228.12857142857143,4687.4,-78.77767857142857,228.12857142857143,4806.2,-78.77767857142857,228.12857142857143,4921.9]","[1442.4,1442.5,1000,0,442.5,""smooth"",""up"",""up"",""good_move"",4493,3049,2611.3,1444,437.7,""smooth"",""up"",""up"",""good_move"",8091,3597.2,3188.3,4493.8,408.9,""oops"",""left"",""left"",""good_move"",11109.1,3015,1499.3,8094.2,1515.6,""smooth"",""left"",""left"",""good_move""]","",""
"3553","","<div style=""width:500px;"">
  <p>What determined the result of this run?</p>
  </div>","98","html-slider-response","82","1401052","0.0-10.0-1.8","20","1","2025-07-02 10:18:29","80fe4187154257d5fb01684ea91b68b9","165.165.127.92","Mozilla/5.0 (Windows NT 10.0; Win64; x64) AppleWebKit/537.36 (KHTML, like Gecko) Chrome/137.0.0.0 Safari/537.36","WebKit","Chrome","137.0.0.0","Windows","10.0","https://app.prolific.com/","en-AU,en-ZA;q=0.9,en-GB;q=0.8,en-US;q=0.7,en;q=0.6,fr;q=0.5","66b61da8697a1059a78e7008","683db6dfa200031b80f2a654","6865076fc1495b205f4e37bc","66b61da8697a1059a78e7008","2025-07-02T10:41:54.062Z","","","","","","AttribQ","","","","","","","","","","","","","","","","","","","","","","","","","","","","","","","","","","","","","","50"
"2521","","<div style=""width:500px;"">
  <p>How much control did you have over the ball?</p>
  </div>","98","html-slider-response","83","1403575","0.0-10.0-2.8","20","1","2025-07-02 10:18:29","80fe4187154257d5fb01684ea91b68b9","165.165.127.92","Mozilla/5.0 (Windows NT 10.0; Win64; x64) AppleWebKit/537.36 (KHTML, like Gecko) Chrome/137.0.0.0 Safari/537.36","WebKit","Chrome","137.0.0.0","Windows","10.0","https://app.prolific.com/","en-AU,en-ZA;q=0.9,en-GB;q=0.8,en-US;q=0.7,en;q=0.6,fr;q=0.5","66b61da8697a1059a78e7008","683db6dfa200031b80f2a654","6865076fc1495b205f4e37bc","66b61da8697a1059a78e7008","2025-07-02T10:41:56.585Z","","","","","","ControlQ","","","","","","","","","","","","","","","","","","","","","","","","","","","","","","","","","","","","","","50"
"3576","","<div style=""width:500px;"">
  <p>How would you describe your current emotional state?</p>
