"rt","response_timestamp","stimulus","response","trial_type","trial_index","time_elapsed","internal_node_id","run_id","condition","recorded_at","source_code_version","ip","user_agent","device","browser","browser_version","platform","platform_version","referer","accept_language","PROLIFIC_PID","STUDY_ID","SESSION_ID","prolific_id","realtime","view_history","question_order","consent","success","question_id","eventType","responses","item_order","radio_event_ids","radio_event_times","key_event_times","mouse_event_times","straightlining","zigzagging","honeypot","which_type","canvas_config","goals_layout","control_level","trial_number","tutorial_trial_number","trial_start_time","phase1_start_time","phase2_start_time","phase3_start_time","goal_1_value","goal_1_distance","goal_2_value","goal_2_distance","goal_selected","outcome","outcome_total","participant_final_score","participant_initial_score","participant_final_score_prop","goal_choice_rt","allocated_time","allocated_time_remaining","goal_direction","counts","mouse_movements","key_presses","correct","slider_start"
"13654","1751451664009","<p style='font-size:40px;line-height:1.25'><strong>Welcome to the experiment!</strong></p><p style='font-size:1.1em;line-height:1.25'>Thank you for your interest in our experiment! Before you begin, it is important that we obtain your informed consent to participate in the study.</p><p style='font-size:1.1em;line-height:1.25'>On the next screen will be an <strong>information sheet</strong> for you to read. To participate in the study we need you to read this information sheet and the following consent form carefully. If you agree with all the statements, please click the <strong>I agree</strong> button.</p><p style='font-size:1.1em;line-height:1.25'>Press <strong>Next</strong> to read the information sheet.</p>","0","custom-html-button-response","0","13656","0.0-0.0","141","1","2025-07-02 10:20:48","80fe4187154257d5fb01684ea91b68b9","196.75.183.10","Mozilla/5.0 (Windows NT 10.0; Win64; x64) AppleWebKit/537.36 (KHTML, like Gecko) Chrome/137.0.0.0 Safari/537.36","WebKit","Chrome","137.0.0.0","Windows","10.0","https://app.prolific.com/","en-US,en;q=0.9,ar;q=0.8","66ce541cd8da920539a1c3cc","683db6dfa200031b80f2a654","6865076a5fa6908a1d0bb8ba","66ce541cd8da920539a1c3cc","2025-07-02T10:21:04.010Z","","","","","","","","","","","","","","","","","","","","","","","","","","","","","","","","","","","","","","","","","","","",""
"194879","","","","instructions","1","208535","0.0-1.0","141","1","2025-07-02 10:20:48","80fe4187154257d5fb01684ea91b68b9","196.75.183.10","Mozilla/5.0 (Windows NT 10.0; Win64; x64) AppleWebKit/537.36 (KHTML, like Gecko) Chrome/137.0.0.0 Safari/537.36","WebKit","Chrome","137.0.0.0","Windows","10.0","https://app.prolific.com/","en-US,en;q=0.9,ar;q=0.8","66ce541cd8da920539a1c3cc","683db6dfa200031b80f2a654","6865076a5fa6908a1d0bb8ba","66ce541cd8da920539a1c3cc","","[{""page_index"":0,""viewing_time"":143311},{""page_index"":1,""viewing_time"":51568}]","","","","","","","","","","","","","","","","","","","","","","","","","","","","","","","","","","","","","","","","","","",""
"9920","","","{""Q0"":"""",""Q1"":"""",""Q2"":"""",""Q3"":"""",""Q4"":"""",""Q5"":"""",""Q6"":""I agree""}","survey-multi-choice","2","218456","0.0-2.0","141","1","2025-07-02 10:20:48","80fe4187154257d5fb01684ea91b68b9","196.75.183.10","Mozilla/5.0 (Windows NT 10.0; Win64; x64) AppleWebKit/537.36 (KHTML, like Gecko) Chrome/137.0.0.0 Safari/537.36","WebKit","Chrome","137.0.0.0","Windows","10.0","https://app.prolific.com/","en-US,en;q=0.9,ar;q=0.8","66ce541cd8da920539a1c3cc","683db6dfa200031b80f2a654","6865076a5fa6908a1d0bb8ba","66ce541cd8da920539a1c3cc","","","[0,1,2,3,4,5,6]","true","","","","","","","","","","","","","","","","","","","","","","","","","","","","","","","","","","","","","","","","",""
"14366","","","","fullscreen","3","233835","0.0-4.0","141","1","2025-07-02 10:20:48","80fe4187154257d5fb01684ea91b68b9","196.75.183.10","Mozilla/5.0 (Windows NT 10.0; Win64; x64) AppleWebKit/537.36 (KHTML, like Gecko) Chrome/137.0.0.0 Safari/537.36","WebKit","Chrome","137.0.0.0","Windows","10.0","https://app.prolific.com/","en-US,en;q=0.9,ar;q=0.8","66ce541cd8da920539a1c3cc","683db6dfa200031b80f2a654","6865076a5fa6908a1d0bb8ba","66ce541cd8da920539a1c3cc","","","","","true","","","","","","","","","","","","","","","","","","","","","","","","","","","","","","","","","","","","","","","",""
"8091","1751451892281"," <p style='font-size:1.1em;line-height:1.25'>Thank you for completing the consent form and closing all other tabs.</p><p style='font-size:1.1em;line-height:1.25'>We will now invite you to fill in some demographic information and questionnaires, before starting the game.<br>This will take about 5 minutes.<br></p><p style='font-size:1.1em;line-height:1.25'>Press the <strong>Next</strong> button to continue.</p>","0","custom-html-button-response","4","241927","0.0-5.0","141","1","2025-07-02 10:20:48","80fe4187154257d5fb01684ea91b68b9","196.75.183.10","Mozilla/5.0 (Windows NT 10.0; Win64; x64) AppleWebKit/537.36 (KHTML, like Gecko) Chrome/137.0.0.0 Safari/537.36","WebKit","Chrome","137.0.0.0","Windows","10.0","https://app.prolific.com/","en-US,en;q=0.9,ar;q=0.8","66ce541cd8da920539a1c3cc","683db6dfa200031b80f2a654","6865076a5fa6908a1d0bb8ba","66ce541cd8da920539a1c3cc","2025-07-02T10:24:52.281Z","","","","","","","","","","","","","","","","","","","","","","","","","","","","","","","","","","","","","","","","","","","",""
"17663","","","{""age"":""21""}","survey-text","5","259591","0.0-6.0-0.0","141","1","2025-07-02 10:20:48","80fe4187154257d5fb01684ea91b68b9","196.75.183.10","Mozilla/5.0 (Windows NT 10.0; Win64; x64) AppleWebKit/537.36 (KHTML, like Gecko) Chrome/137.0.0.0 Safari/537.36","WebKit","Chrome","137.0.0.0","Windows","10.0","https://app.prolific.com/","en-US,en;q=0.9,ar;q=0.8","66ce541cd8da920539a1c3cc","683db6dfa200031b80f2a654","6865076a5fa6908a1d0bb8ba","66ce541cd8da920539a1c3cc","","","","","","0","demographics","","","","","","","","","","","","","","","","","","","","","","","","","","","","","","","","","","","","","",""
"4175","","","{""gender_identity"":""male/man""}","survey-multi-choice","6","263767","0.0-6.0-1.0","141","1","2025-07-02 10:20:48","80fe4187154257d5fb01684ea91b68b9","196.75.183.10","Mozilla/5.0 (Windows NT 10.0; Win64; x64) AppleWebKit/537.36 (KHTML, like Gecko) Chrome/137.0.0.0 Safari/537.36","WebKit","Chrome","137.0.0.0","Windows","10.0","https://app.prolific.com/","en-US,en;q=0.9,ar;q=0.8","66ce541cd8da920539a1c3cc","683db6dfa200031b80f2a654","6865076a5fa6908a1d0bb8ba","66ce541cd8da920539a1c3cc","","","[0]","","","1","demographics","","","","","","","","","","","","","","","","","","","","","","","","","","","","","","","","","","","","","",""
"3423","","","{""assigned_sex"":""male""}","survey-multi-choice","7","267191","0.0-6.0-2.0","141","1","2025-07-02 10:20:48","80fe4187154257d5fb01684ea91b68b9","196.75.183.10","Mozilla/5.0 (Windows NT 10.0; Win64; x64) AppleWebKit/537.36 (KHTML, like Gecko) Chrome/137.0.0.0 Safari/537.36","WebKit","Chrome","137.0.0.0","Windows","10.0","https://app.prolific.com/","en-US,en;q=0.9,ar;q=0.8","66ce541cd8da920539a1c3cc","683db6dfa200031b80f2a654","6865076a5fa6908a1d0bb8ba","66ce541cd8da920539a1c3cc","","","[0]","","","2","demographics","","","","","","","","","","","","","","","","","","","","","","","","","","","","","","","","","","","","","",""
"5599","","","{""menstrual_cycle"":""No""}","survey-multi-choice","8","272791","0.0-6.0-3.0","141","1","2025-07-02 10:20:48","80fe4187154257d5fb01684ea91b68b9","196.75.183.10","Mozilla/5.0 (Windows NT 10.0; Win64; x64) AppleWebKit/537.36 (KHTML, like Gecko) Chrome/137.0.0.0 Safari/537.36","WebKit","Chrome","137.0.0.0","Windows","10.0","https://app.prolific.com/","en-US,en;q=0.9,ar;q=0.8","66ce541cd8da920539a1c3cc","683db6dfa200031b80f2a654","6865076a5fa6908a1d0bb8ba","66ce541cd8da920539a1c3cc","","","[0]","","","4","demographics","","","","","","","","","","","","","","","","","","","","","","","","","","","","","","","","","","","","","",""
"13991","","","{""education"":""Bachelor's Degree (e.g., BA)""}","survey-multi-choice","9","286783","0.0-6.0-4.0","141","1","2025-07-02 10:20:48","80fe4187154257d5fb01684ea91b68b9","196.75.183.10","Mozilla/5.0 (Windows NT 10.0; Win64; x64) AppleWebKit/537.36 (KHTML, like Gecko) Chrome/137.0.0.0 Safari/537.36","WebKit","Chrome","137.0.0.0","Windows","10.0","https://app.prolific.com/","en-US,en;q=0.9,ar;q=0.8","66ce541cd8da920539a1c3cc","683db6dfa200031b80f2a654","6865076a5fa6908a1d0bb8ba","66ce541cd8da920539a1c3cc","","","[0]","","","5","demographics","","","","","","","","","","","","","","","","","","","","","","","","","","","","","","","","","","","","","",""
"16183","","","{""education"":""Others""}","survey-multi-choice","10","302967","0.0-6.0-5.0","141","1","2025-07-02 10:20:48","80fe4187154257d5fb01684ea91b68b9","196.75.183.10","Mozilla/5.0 (Windows NT 10.0; Win64; x64) AppleWebKit/537.36 (KHTML, like Gecko) Chrome/137.0.0.0 Safari/537.36","WebKit","Chrome","137.0.0.0","Windows","10.0","https://app.prolific.com/","en-US,en;q=0.9,ar;q=0.8","66ce541cd8da920539a1c3cc","683db6dfa200031b80f2a654","6865076a5fa6908a1d0bb8ba","66ce541cd8da920539a1c3cc","2025-07-02T10:25:53.321Z","","[0]","","","6","demographics","","","","","","","","","","","","","","","","","","","","","","","","","","","","","","","","","","","","","",""
"25070","","","{""mental_health_condition"":""no"",""mental_health_treatment"":""no"",""psychiatric_medication"":""no""}","survey-text","11","328039","0.0-7.0-0.0","141","1","2025-07-02 10:20:48","80fe4187154257d5fb01684ea91b68b9","196.75.183.10","Mozilla/5.0 (Windows NT 10.0; Win64; x64) AppleWebKit/537.36 (KHTML, like Gecko) Chrome/137.0.0.0 Safari/537.36","WebKit","Chrome","137.0.0.0","Windows","10.0","https://app.prolific.com/","en-US,en;q=0.9,ar;q=0.8","66ce541cd8da920539a1c3cc","683db6dfa200031b80f2a654","6865076a5fa6908a1d0bb8ba","66ce541cd8da920539a1c3cc","2025-07-02T10:26:18.393Z","","","","","1","mental_health","","","","","","","","","","","","","","","","","","","","","","","","","","","","","","","","","","","","","",""
"16127","","","{""depression_history"":[""Yes""]}","survey-multi-select","12","344167","0.0-7.0-1.0","141","1","2025-07-02 10:20:48","80fe4187154257d5fb01684ea91b68b9","196.75.183.10","Mozilla/5.0 (Windows NT 10.0; Win64; x64) AppleWebKit/537.36 (KHTML, like Gecko) Chrome/137.0.0.0 Safari/537.36","WebKit","Chrome","137.0.0.0","Windows","10.0","https://app.prolific.com/","en-US,en;q=0.9,ar;q=0.8","66ce541cd8da920539a1c3cc","683db6dfa200031b80f2a654","6865076a5fa6908a1d0bb8ba","66ce541cd8da920539a1c3cc","","","[0]","","","","mental_health","","","","","","","","","","","","","","","","","","","","","","","","","","","","","","","","","","","","","",""
"15808","","","{""depression_episodes"":""3-5"",""depression_recent"":""More than 1 year ago""}","survey-multi-choice","13","359975","0.0-7.0-2.0-0.0","141","1","2025-07-02 10:20:48","80fe4187154257d5fb01684ea91b68b9","196.75.183.10","Mozilla/5.0 (Windows NT 10.0; Win64; x64) AppleWebKit/537.36 (KHTML, like Gecko) Chrome/137.0.0.0 Safari/537.36","WebKit","Chrome","137.0.0.0","Windows","10.0","https://app.prolific.com/","en-US,en;q=0.9,ar;q=0.8","66ce541cd8da920539a1c3cc","683db6dfa200031b80f2a654","6865076a5fa6908a1d0bb8ba","66ce541cd8da920539a1c3cc","2025-07-02T10:26:50.329Z","","[0,1]","","","3","mental_health","","","","","","","","","","","","","","","","","","","","","","","","","","","","","","","","","","","","","",""
"87903.5","","","","survey-template","14","447881","0.0-7.0-3.0","141","1","2025-07-02 10:20:48","80fe4187154257d5fb01684ea91b68b9","196.75.183.10","Mozilla/5.0 (Windows NT 10.0; Win64; x64) AppleWebKit/537.36 (KHTML, like Gecko) Chrome/137.0.0.0 Safari/537.36","WebKit","Chrome","137.0.0.0","Windows","10.0","https://app.prolific.com/","en-US,en;q=0.9,ar;q=0.8","66ce541cd8da920539a1c3cc","683db6dfa200031b80f2a654","6865076a5fa6908a1d0bb8ba","66ce541cd8da920539a1c3cc","2025-07-02T10:28:18.235Z","","","","","","ius","{""Q01"":""1"",""Q02"":""2"",""Q03"":""2"",""Q04"":""2"",""Q05"":""1"",""Q06"":""1"",""Q07"":""1"",""Q08"":""0"",""Q09"":""2"",""Q10"":""1"",""Q11"":""1"",""Q12"":""2"",""Q13"":""2""}","[0,1,2,3,4,5,6,7,8,9,10,11,12]","[""Q01"",""Q02"",""Q03"",""Q04"",""Q05"",""Q06"",""Q07"",""Q08"",""Q09"",""Q10"",""Q11"",""Q12"",""Q13"",""Q04""]","[8956.09999999404,13294.09999999404,21382.09999999404,27118.09999999404,33718.09999999404,40253.90000000596,43773.80000001192,51198.09999999404,54942.19999998808,58062.19999998808,61950.19999998808,69454,75390,79485.80000001192]","[]","[8956.09999999404,13294.09999999404,21382.09999999404,26118.19999998808,27118.09999999404,33718.09999999404,40253.90000000596,43773.80000001192,47342.19999998808,50341.80000001192,51198.09999999404,54942.19999998808,58062.19999998808,61950.19999998808,68742.09999999404,69454,75390,79485.80000001192,87902.09999999404]","0.46153846153846156","0.4166666666666667","0","","","","","","","","","","","","","","","","","","","","","","","","","","","","",""
"5597","1751452103833","<p style='font-size:1.1em;line-height:1.25'>In the following, we will ask you a few questions relating to your experiences over the past month.<br></p><p style='font-size:1.1em;line-height:1.25'>Press the <strong>Next</strong> button to continue.</p>","0","custom-html-button-response","15","453479","0.0-7.0-4.0","141","1","2025-07-02 10:20:48","80fe4187154257d5fb01684ea91b68b9","196.75.183.10","Mozilla/5.0 (Windows NT 10.0; Win64; x64) AppleWebKit/537.36 (KHTML, like Gecko) Chrome/137.0.0.0 Safari/537.36","WebKit","Chrome","137.0.0.0","Windows","10.0","https://app.prolific.com/","en-US,en;q=0.9,ar;q=0.8","66ce541cd8da920539a1c3cc","683db6dfa200031b80f2a654","6865076a5fa6908a1d0bb8ba","66ce541cd8da920539a1c3cc","2025-07-02T10:28:23.833Z","","","","","","","","","","","","","","","","","","","","","","","","","","","","","","","","","","","","","","","","","","","",""
"73688.40000000596","","","","survey-template","16","527169","0.0-7.0-5.0","141","1","2025-07-02 10:20:48","80fe4187154257d5fb01684ea91b68b9","196.75.183.10","Mozilla/5.0 (Windows NT 10.0; Win64; x64) AppleWebKit/537.36 (KHTML, like Gecko) Chrome/137.0.0.0 Safari/537.36","WebKit","Chrome","137.0.0.0","Windows","10.0","https://app.prolific.com/","en-US,en;q=0.9,ar;q=0.8","66ce541cd8da920539a1c3cc","683db6dfa200031b80f2a654","6865076a5fa6908a1d0bb8ba","66ce541cd8da920539a1c3cc","2025-07-02T10:29:37.523Z","","","","","","pss","{""Q01"":""2"",""Q02"":""2"",""Q03"":""3"",""Q04"":""2"",""Q05"":""2"",""Q06"":""1"",""Q07"":""1"",""Q08"":""2"",""Q09"":""2"",""Q10"":""1""}","[0,1,2,3,4,5,6,7,8,9]","[""Q01"",""Q01"",""Q02"",""Q03"",""Q04"",""Q05"",""Q06"",""Q07"",""Q08"",""Q09"",""Q10"",""Q04""]","[5647.0999999940395,5670.700000017881,11654.40000000596,14791,19735,26679,34543,40615.09999999404,45175,58638.80000001192,65687,69671.09999999404]","[]","[0.09999999403953552,5647.0999999940395,5670.700000017881,11654.40000000596,14791,19735,26679,33855,34543,39679,40615.09999999404,44182.5,45175,57817.40000000596,58638.80000001192,65687,69671.09999999404,73687]","0.6","0.5555555555555556","0","","","","","","","","","","","","","","","","","","","","","","","","","","","","",""
"4334","1751452181857","<p style='font-size:1.1em;line-height:1.25'>Thank you for your answers! Now we will ask you a few more questions relating to your feelings in the last 24 hours.<br></p><p style='font-size:1.1em;line-height:1.25'>Press the <strong>Next</strong> button to continue.</p>","0","custom-html-button-response","17","531503","0.0-7.0-6.0","141","1","2025-07-02 10:20:48","80fe4187154257d5fb01684ea91b68b9","196.75.183.10","Mozilla/5.0 (Windows NT 10.0; Win64; x64) AppleWebKit/537.36 (KHTML, like Gecko) Chrome/137.0.0.0 Safari/537.36","WebKit","Chrome","137.0.0.0","Windows","10.0","https://app.prolific.com/","en-US,en;q=0.9,ar;q=0.8","66ce541cd8da920539a1c3cc","683db6dfa200031b80f2a654","6865076a5fa6908a1d0bb8ba","66ce541cd8da920539a1c3cc","2025-07-02T10:29:41.857Z","","","","","","","","","","","","","","","","","","","","","","","","","","","","","","","","","","","","","","","","","","","",""
"117417.09999999404","","","","survey-template","18","648922","0.0-7.0-7.0","141","1","2025-07-02 10:20:48","80fe4187154257d5fb01684ea91b68b9","196.75.183.10","Mozilla/5.0 (Windows NT 10.0; Win64; x64) AppleWebKit/537.36 (KHTML, like Gecko) Chrome/137.0.0.0 Safari/537.36","WebKit","Chrome","137.0.0.0","Windows","10.0","https://app.prolific.com/","en-US,en;q=0.9,ar;q=0.8","66ce541cd8da920539a1c3cc","683db6dfa200031b80f2a654","6865076a5fa6908a1d0bb8ba","66ce541cd8da920539a1c3cc","2025-07-02T10:31:39.276Z","","","","","","drsp","{""Q01"":""1"",""Q02"":""1"",""Q03"":""1"",""Q04"":""3"",""Q05"":""1"",""Q06"":""1"",""Q07"":""2"",""Q08"":""0"",""Q09"":""1"",""Q10"":""1"",""Q11"":""3"",""Q12"":""1"",""Q13"":""1"",""Q14"":""0"",""Q15"":""0"",""Q16"":""1"",""Q17"":""1"",""Q18"":""0"",""Q19"":""1"",""Q20"":""2"",""Q21"":""2""}","[0,1,2,3,4,5,6,7,8,9,10,11,12,13,14,15,16,17,18,19,20]","[""Q01"",""Q02"",""Q03"",""Q04"",""Q03"",""Q05"",""Q06"",""Q07"",""Q09"",""Q09"",""Q08"",""Q17"",""Q16"",""Q15"",""Q14"",""Q14"",""Q13"",""Q12"",""Q11"",""Q11"",""Q10"",""Q18"",""Q19"",""Q20"",""Q21"",""Q21"",""Q20""]","[2327,4375,6079,8463,9518.399999976158,16751,18638.59999999404,20358.899999976158,31102.899999976158,31862.79999998212,34630.29999998212,53382.5,57630.39999997616,58710.79999998212,62166.79999998212,62190.39999997616,65598.39999997616,69742.5,71687,73726.69999998808,75678.79999998212,84486.69999998808,90398.69999998808,96246.79999998212,100934.79999998212,107206.79999998212,111686.79999998212]","[]","[0.09999999403953552,2327,4375,6079,8463,9518.399999976158,12926.799999982119,15254.799999982119,16751,18638.59999999404,20358.899999976158,28966.19999998808,31102.899999976158,31862.79999998212,34630.29999998212,53382.5,55231.09999999404,56478.79999998212,57198.79999998212,57630.39999997616,58710.79999998212,62166.79999998212,62190.39999997616,65598.39999997616,68463,69742.5,71687,72719,73726.69999998808,75678.79999998212,84486.69999998808,90398.69999998808,96246.79999998212,100934.79999998212,107206.79999998212,111686.79999998212,117415.19999998808]","0.5714285714285714","0.35","0","","","","","","","","","","","","","","","","","","","","","","","","","","","","",""
"14764.899999976158","","","","survey-template","19","663688","0.0-7.0-8.0","141","1","2025-07-02 10:20:48","80fe4187154257d5fb01684ea91b68b9","196.75.183.10","Mozilla/5.0 (Windows NT 10.0; Win64; x64) AppleWebKit/537.36 (KHTML, like Gecko) Chrome/137.0.0.0 Safari/537.36","WebKit","Chrome","137.0.0.0","Windows","10.0","https://app.prolific.com/","en-US,en;q=0.9,ar;q=0.8","66ce541cd8da920539a1c3cc","683db6dfa200031b80f2a654","6865076a5fa6908a1d0bb8ba","66ce541cd8da920539a1c3cc","2025-07-02T10:31:54.042Z","","","","","","stress","{""Q01"":""2"",""Q02"":""2"",""Q03"":""1""}","[0,1,2]","[""Q01"",""Q01"",""Q02"",""Q03""]","[2500.399999976158,5308.399999976158,8660.09999999404,13067.899999976158]","[]","[2500.399999976158,4276,5308.399999976158,8660.09999999404,13067.899999976158,14764.299999982119]","0.3333333333333333","0.5","0","","","","","","","","","","","","","","","","","","","","","","","","","","","","",""
"111831","","","","instructions","20","775519","0.0-8.0-0.0","141","1","2025-07-02 10:20:48","80fe4187154257d5fb01684ea91b68b9","196.75.183.10","Mozilla/5.0 (Windows NT 10.0; Win64; x64) AppleWebKit/537.36 (KHTML, like Gecko) Chrome/137.0.0.0 Safari/537.36","WebKit","Chrome","137.0.0.0","Windows","10.0","https://app.prolific.com/","en-US,en;q=0.9,ar;q=0.8","66ce541cd8da920539a1c3cc","683db6dfa200031b80f2a654","6865076a5fa6908a1d0bb8ba","66ce541cd8da920539a1c3cc","","[{""page_index"":0,""viewing_time"":21431},{""page_index"":1,""viewing_time"":65552},{""page_index"":2,""viewing_time"":7432},{""page_index"":3,""viewing_time"":17416}]","","","","","","","","","","","","","","","","","","","","","","","","","","","","","","","","","","","","","","","","","","",""
"","","","","ctl-task-cpt","21","807701","0.0-8.0-1.0","141","1","2025-07-02 10:20:48","80fe4187154257d5fb01684ea91b68b9","196.75.183.10","Mozilla/5.0 (Windows NT 10.0; Win64; x64) AppleWebKit/537.36 (KHTML, like Gecko) Chrome/137.0.0.0 Safari/537.36","WebKit","Chrome","137.0.0.0","Windows","10.0","https://app.prolific.com/","en-US,en;q=0.9,ar;q=0.8","66ce541cd8da920539a1c3cc","683db6dfa200031b80f2a654","6865076a5fa6908a1d0bb8ba","66ce541cd8da920539a1c3cc","","","","","","","","","","","","","","","","","win-only","0","g1:NW,g2:SE","1","0","1","779542.6","3054.7","7056.1","29178.4","2","4","4","6","2","4","3","3","0","0.022727272727272728","1663.7","4000","785","[""down"",""right""]","{""num_key_presses"":7,""num_perfect"":6,""num_errors"":1,""num_randdir"":0,""num_randdir_good_moves"":0,""num_whilered"":0,""num_whileblue"":0,""num_blue"":1,""num_good_moves"":6}","[409.57142857142856,414.47767857142856,0.1,409.57142857142856,413.47767857142856,101.1,409.57142857142856,413.47767857142856,205.9,410.57142857142856,412.47767857142856,306.9,410.57142857142856,412.47767857142856,407,417.57142857142856,394.47767857142856,511.3,350.57142857142856,338.47767857142856,611.3,339.57142857142856,340.47767857142856,716.4,319.57142857142856,383.47767857142856,822.4,325.57142857142856,386.47767857142856,922.4,345.57142857142856,381.47767857142856,1026.4,517.5714285714286,545.4776785714286,1131.2,646.5714285714286,685.4776785714286,1231.4,690.5714285714286,705.4776785714286,1336.1,715.5714285714286,721.4776785714286,1436.7,753.5714285714286,746.4776785714286,1537.1,754.5714285714286,750.4776785714286,1641.1,754.5714285714286,750.4776785714286,1741.1,754.5714285714286,750.4776785714286,1841.2,755.5714285714286,751.4776785714286,1941.2,755.5714285714286,751.4776785714286,2046.2,755.5714285714286,751.4776785714286,2147.9,755.5714285714286,751.4776785714286,2250.8,755.5714285714286,751.4776785714286,2356,755.5714285714286,751.4776785714286,2460.8,755.5714285714286,751.4776785714286,2560.9,755.5714285714286,751.4776785714286,2665.8,755.5714285714286,751.4776785714286,2765.8,755.5714285714286,751.4776785714286,2866.4,755.5714285714286,751.4776785714286,2967.1,755.5714285714286,751.4776785714286,3070.7,755.5714285714286,751.4776785714286,3171.3,755.5714285714286,751.4776785714286,3272.1,755.5714285714286,751.4776785714286,3372.1,755.5714285714286,751.4776785714286,3476.3,755.5714285714286,751.4776785714286,3576.4,755.5714285714286,751.4776785714286,3680.8,755.5714285714286,751.4776785714286,3781.2,755.5714285714286,751.4776785714286,3881.4,755.5714285714286,751.4776785714286,3986.1]","[1496,1495.9,1000,0.1,495.9,""smooth"",""right"",""right"",""good_move"",1863.7,367.5,2694.9,1496.2,-2327.4,""error"",""-"",""-"",""no_move"",5802.9,3939.1,2306,2864.1,632.8,""smooth"",""down"",""down"",""good_move"",8751.8,2948.7,2343.1,5803.1,605.6,""smooth"",""right"",""right"",""good_move"",12390.7,3638.7,3063.2,8752,575.5,""smooth"",""down"",""down"",""good_move"",15723.7,3332.9,2826.9,12390.8,506,""smooth"",""down"",""down"",""good_move"",22031,6307.2,2092.4,19509.7,428.9,""smooth"",""right"",""right"",""good_move""]","",""
"15881","","","","instructions","22","823583","0.0-8.0-2.0","141","1","2025-07-02 10:20:48","80fe4187154257d5fb01684ea91b68b9","196.75.183.10","Mozilla/5.0 (Windows NT 10.0; Win64; x64) AppleWebKit/537.36 (KHTML, like Gecko) Chrome/137.0.0.0 Safari/537.36","WebKit","Chrome","137.0.0.0","Windows","10.0","https://app.prolific.com/","en-US,en;q=0.9,ar;q=0.8","66ce541cd8da920539a1c3cc","683db6dfa200031b80f2a654","6865076a5fa6908a1d0bb8ba","66ce541cd8da920539a1c3cc","","[{""page_index"":0,""viewing_time"":15881}]","","","","","","","","","","","","","","","","","","","","","","","","","","","","","","","","","","","","","","","","","","",""
"","","","","ctl-task-cpt","23","860138","0.0-8.0-3.0","141","1","2025-07-02 10:20:48","80fe4187154257d5fb01684ea91b68b9","196.75.183.10","Mozilla/5.0 (Windows NT 10.0; Win64; x64) AppleWebKit/537.36 (KHTML, like Gecko) Chrome/137.0.0.0 Safari/537.36","WebKit","Chrome","137.0.0.0","Windows","10.0","https://app.prolific.com/","en-US,en;q=0.9,ar;q=0.8","66ce541cd8da920539a1c3cc","683db6dfa200031b80f2a654","6865076a5fa6908a1d0bb8ba","66ce541cd8da920539a1c3cc","","","","","","","","","","","","","","","","","win-only","0","g1:NW,g2:SE","0.35","0","3","827605.5","1175.6","5177.1","33536.2","2","4","8","6","1","-2","-2","0","0","0","1480","4000","-3015","[""left"",""up""]","{""num_key_presses"":8,""num_perfect"":3,""num_errors"":0,""num_randdir"":5,""num_randdir_good_moves"":2,""num_whilered"":0,""num_whileblue"":0,""num_blue"":1,""num_good_moves"":5}","[409.57142857142856,415.47767857142856,0.1,409.57142857142856,415.47767857142856,100.4,409.57142857142856,415.47767857142856,200.4,409.57142857142856,415.47767857142856,300.4,391.57142857142856,442.47767857142856,406.4,404.57142857142856,466.47767857142856,506.4,440.57142857142856,505.47767857142856,610.3,446.57142857142856,513.4776785714286,710.4,458.57142857142856,518.4776785714286,814.6,614.5714285714286,604.4776785714286,915.4,529.5714285714286,579.4776785714286,1015.5,36.57142857142857,126.47767857142857,1120,6.571428571428569,38.47767857142857,1225.1,59.57142857142857,59.47767857142857,1329.9,68.57142857142857,63.47767857142857,1430,68.57142857142857,63.47767857142857,1531.6,69.57142857142857,64.47767857142857,1635.5,69.57142857142857,64.47767857142857,1736.1,73.57142857142857,69.47767857142857,1840.5,80.57142857142857,71.47767857142857,1946,84.57142857142857,79.47767857142857,2050.4,84.57142857142857,79.47767857142857,2150.5,85.57142857142857,79.47767857142857,2255.4,87.57142857142857,84.47767857142857,2356.4,91.57142857142857,85.47767857142857,2460.4,93.57142857142857,87.47767857142857,2564.6,126.57142857142857,89.47767857142857,2664.9,176.57142857142856,126.47767857142857,2765.2,232.57142857142856,193.47767857142856,2865.5,253.57142857142856,239.47767857142856,2969.8,254.57142857142856,242.47767857142856,3075.5,255.57142857142856,245.47767857142856,3180.5,255.57142857142856,245.47767857142856,3280.5,256.57142857142856,245.47767857142856,3385.5,256.57142857142856,245.47767857142856,3490.3,256.57142857142856,245.47767857142856,3595,256.57142857142856,245.47767857142856,3695.4,256.57142857142856,245.47767857142856,3795.5,256.57142857142856,245.47767857142856,3896.5]","[1543.8,1543.8,1000,0,543.8,""smooth"",""left"",""left"",""good_move"",4769,3225.1,2698.2,1543.9,526.9,""oops"",""up"",""right"",""bad_move"",8465.7,3696.6,3123.8,4769.1,572.8,""oops"",""up"",""right"",""bad_move"",11351.8,2886,2349.4,8465.8,536.6,""oops"",""up"",""left"",""good_move"",14280,2928,2533.6,11352,394.4,""oops"",""left"",""left"",""good_move"",16793.9,2513.9,1964.7,14280.1,549.2,""oops"",""up"",""right"",""bad_move"",19488.9,2694.8,2223.5,16794.1,471.3,""smooth"",""up"",""up"",""good_move"",22715.5,3226.5,2899.9,19489,326.6,""smooth"",""left"",""left"",""good_move""]","",""
"34053","","","","instructions","24","894191","0.0-8.0-4.0","141","1","2025-07-02 10:20:48","80fe4187154257d5fb01684ea91b68b9","196.75.183.10","Mozilla/5.0 (Windows NT 10.0; Win64; x64) AppleWebKit/537.36 (KHTML, like Gecko) Chrome/137.0.0.0 Safari/537.36","WebKit","Chrome","137.0.0.0","Windows","10.0","https://app.prolific.com/","en-US,en;q=0.9,ar;q=0.8","66ce541cd8da920539a1c3cc","683db6dfa200031b80f2a654","6865076a5fa6908a1d0bb8ba","66ce541cd8da920539a1c3cc","","[{""page_index"":0,""viewing_time"":8429},{""page_index"":1,""viewing_time"":25623}]","","","","","","","","","","","","","","","","","","","","","","","","","","","","","","","","","","","","","","","","","","",""
"17439","","","{""green_ball"":[""Ball sometimes shakes and moves in a random direction""]}","survey-multi-select","25","911631","0.0-8.0-5.0-0.0","141","1","2025-07-02 10:20:48","80fe4187154257d5fb01684ea91b68b9","196.75.183.10","Mozilla/5.0 (Windows NT 10.0; Win64; x64) AppleWebKit/537.36 (KHTML, like Gecko) Chrome/137.0.0.0 Safari/537.36","WebKit","Chrome","137.0.0.0","Windows","10.0","https://app.prolific.com/","en-US,en;q=0.9,ar;q=0.8","66ce541cd8da920539a1c3cc","683db6dfa200031b80f2a654","6865076a5fa6908a1d0bb8ba","66ce541cd8da920539a1c3cc","","","[0]","","","","quiz","","","","","","","","","","","","","","","","","","","","","","","","","","","","","","","","","","","","","true",""
"2047","","<p align='center'><b>CORRECT!</b> Indeed, the green ball may sometimes shake and move in a random direction.</p>","0","html-button-response","26","913679","0.0-8.0-5.0-1.0","141","1","2025-07-02 10:20:48","80fe4187154257d5fb01684ea91b68b9","196.75.183.10","Mozilla/5.0 (Windows NT 10.0; Win64; x64) AppleWebKit/537.36 (KHTML, like Gecko) Chrome/137.0.0.0 Safari/537.36","WebKit","Chrome","137.0.0.0","Windows","10.0","https://app.prolific.com/","en-US,en;q=0.9,ar;q=0.8","66ce541cd8da920539a1c3cc","683db6dfa200031b80f2a654","6865076a5fa6908a1d0bb8ba","66ce541cd8da920539a1c3cc","","","","","","","","","","","","","","","","","","","","","","","","","","","","","","","","","","","","","","","","","","","","",""
"6799","","","{""yellow_ball"":[""Ball doesn‘t move and I get -1 penalty point""]}","survey-multi-select","27","920479","0.0-8.0-6.0-0.0","141","1","2025-07-02 10:20:48","80fe4187154257d5fb01684ea91b68b9","196.75.183.10","Mozilla/5.0 (Windows NT 10.0; Win64; x64) AppleWebKit/537.36 (KHTML, like Gecko) Chrome/137.0.0.0 Safari/537.36","WebKit","Chrome","137.0.0.0","Windows","10.0","https://app.prolific.com/","en-US,en;q=0.9,ar;q=0.8","66ce541cd8da920539a1c3cc","683db6dfa200031b80f2a654","6865076a5fa6908a1d0bb8ba","66ce541cd8da920539a1c3cc","","","[0]","","","","quiz","","","","","","","","","","","","","","","","","","","","","","","","","","","","","","","","","","","","","true",""
"1159","","<p align='center'><b>CORRECT!</b> Indeed, the yellow ball never moves and you receive a penalty.</p>","0","html-button-response","28","921639","0.0-8.0-6.0-1.0","141","1","2025-07-02 10:20:48","80fe4187154257d5fb01684ea91b68b9","196.75.183.10","Mozilla/5.0 (Windows NT 10.0; Win64; x64) AppleWebKit/537.36 (KHTML, like Gecko) Chrome/137.0.0.0 Safari/537.36","WebKit","Chrome","137.0.0.0","Windows","10.0","https://app.prolific.com/","en-US,en;q=0.9,ar;q=0.8","66ce541cd8da920539a1c3cc","683db6dfa200031b80f2a654","6865076a5fa6908a1d0bb8ba","66ce541cd8da920539a1c3cc","","","","","","","","","","","","","","","","","","","","","","","","","","","","","","","","","","","","","","","","","","","","",""
"7247","","","{""blue_ball"":[""Ball always shakes and moves in a random direction""]}","survey-multi-select","29","928887","0.0-8.0-7.0-0.0","141","1","2025-07-02 10:20:48","80fe4187154257d5fb01684ea91b68b9","196.75.183.10","Mozilla/5.0 (Windows NT 10.0; Win64; x64) AppleWebKit/537.36 (KHTML, like Gecko) Chrome/137.0.0.0 Safari/537.36","WebKit","Chrome","137.0.0.0","Windows","10.0","https://app.prolific.com/","en-US,en;q=0.9,ar;q=0.8","66ce541cd8da920539a1c3cc","683db6dfa200031b80f2a654","6865076a5fa6908a1d0bb8ba","66ce541cd8da920539a1c3cc","","","[0]","","","","quiz","","","","","","","","","","","","","","","","","","","","","","","","","","","","","","","","","","","","","true",""
"1631","","<p align='center'><b>CORRECT!</b> Indeed, the blue ball always shakes and moves in a random direction. Also there is a penalty of -1 point.</p>","0","html-button-response","30","930519","0.0-8.0-7.0-1.0","141","1","2025-07-02 10:20:48","80fe4187154257d5fb01684ea91b68b9","196.75.183.10","Mozilla/5.0 (Windows NT 10.0; Win64; x64) AppleWebKit/537.36 (KHTML, like Gecko) Chrome/137.0.0.0 Safari/537.36","WebKit","Chrome","137.0.0.0","Windows","10.0","https://app.prolific.com/","en-US,en;q=0.9,ar;q=0.8","66ce541cd8da920539a1c3cc","683db6dfa200031b80f2a654","6865076a5fa6908a1d0bb8ba","66ce541cd8da920539a1c3cc","","","","","","","","","","","","","","","","","","","","","","","","","","","","","","","","","","","","","","","","","","","","",""
"5200","","","{""bonus"":[""When I reach 50% of points""]}","survey-multi-select","31","935720","0.0-8.0-8.0-0.0","141","1","2025-07-02 10:20:48","80fe4187154257d5fb01684ea91b68b9","196.75.183.10","Mozilla/5.0 (Windows NT 10.0; Win64; x64) AppleWebKit/537.36 (KHTML, like Gecko) Chrome/137.0.0.0 Safari/537.36","WebKit","Chrome","137.0.0.0","Windows","10.0","https://app.prolific.com/","en-US,en;q=0.9,ar;q=0.8","66ce541cd8da920539a1c3cc","683db6dfa200031b80f2a654","6865076a5fa6908a1d0bb8ba","66ce541cd8da920539a1c3cc","","","[0]","","","","quiz","","","","","","","","","","","","","","","","","","","","","","","","","","","","","","","","","","","","","true",""
"5430","","<p align='center'><b>CORRECT!</b> Indeed, you receive 2 pounds extra when you reach 50% of points.</p>","0","html-button-response","32","941151","0.0-8.0-8.0-1.0","141","1","2025-07-02 10:20:48","80fe4187154257d5fb01684ea91b68b9","196.75.183.10","Mozilla/5.0 (Windows NT 10.0; Win64; x64) AppleWebKit/537.36 (KHTML, like Gecko) Chrome/137.0.0.0 Safari/537.36","WebKit","Chrome","137.0.0.0","Windows","10.0","https://app.prolific.com/","en-US,en;q=0.9,ar;q=0.8","66ce541cd8da920539a1c3cc","683db6dfa200031b80f2a654","6865076a5fa6908a1d0bb8ba","66ce541cd8da920539a1c3cc","","","","","","","","","","","","","","","","","","","","","","","","","","","","","","","","","","","","","","","","","","","","",""
"2991","","","","instructions","33","944143","0.0-8.0-9.0","141","1","2025-07-02 10:20:48","80fe4187154257d5fb01684ea91b68b9","196.75.183.10","Mozilla/5.0 (Windows NT 10.0; Win64; x64) AppleWebKit/537.36 (KHTML, like Gecko) Chrome/137.0.0.0 Safari/537.36","WebKit","Chrome","137.0.0.0","Windows","10.0","https://app.prolific.com/","en-US,en;q=0.9,ar;q=0.8","66ce541cd8da920539a1c3cc","683db6dfa200031b80f2a654","6865076a5fa6908a1d0bb8ba","66ce541cd8da920539a1c3cc","","[{""page_index"":0,""viewing_time"":2991}]","","","","","","","","","","","","","","","","","","","","","","","","","","","","","","","","","","","","","","","","","","",""
"10048","","<p>Before you start with this game please answer the following three questions yourself. </p>
  <p>Through this game, we measure several aspects of your cognitive performance, such as reaction times, multi-tasking capabilities </p>
  <p>and the ability to assess the situation you are in.</p>
  <p></p>
  <p><b>How good do you usually are in such tasks?</b></p>","84","html-slider-response","34","954191","0.0-9.0-0.0","141","1","2025-07-02 10:20:48","80fe4187154257d5fb01684ea91b68b9","196.75.183.10","Mozilla/5.0 (Windows NT 10.0; Win64; x64) AppleWebKit/537.36 (KHTML, like Gecko) Chrome/137.0.0.0 Safari/537.36","WebKit","Chrome","137.0.0.0","Windows","10.0","https://app.prolific.com/","en-US,en;q=0.9,ar;q=0.8","66ce541cd8da920539a1c3cc","683db6dfa200031b80f2a654","6865076a5fa6908a1d0bb8ba","66ce541cd8da920539a1c3cc","2025-07-02T10:36:44.545Z","","","","","","PreSkillQ","","","","","","","","","","","","","","","","","","","","","","","","","","","","","","","","","","","","","","50"
"10599","","<div style=""width:500px;"">
  <p>How well do you think you will perform in this task compared to other participants?</p>
  </div>","85","html-slider-response","35","964791","0.0-9.0-1.0","141","1","2025-07-02 10:20:48","80fe4187154257d5fb01684ea91b68b9","196.75.183.10","Mozilla/5.0 (Windows NT 10.0; Win64; x64) AppleWebKit/537.36 (KHTML, like Gecko) Chrome/137.0.0.0 Safari/537.36","WebKit","Chrome","137.0.0.0","Windows","10.0","https://app.prolific.com/","en-US,en;q=0.9,ar;q=0.8","66ce541cd8da920539a1c3cc","683db6dfa200031b80f2a654","6865076a5fa6908a1d0bb8ba","66ce541cd8da920539a1c3cc","2025-07-02T10:36:55.145Z","","","","","","PrePerfQ","","","","","","","","","","","","","","","","","","","","","","","","","","","","","","","","","","","","","","50"
"3638","","<div style=""width:500px;"">
  <p>What best describes how you currently feel?</p>
  </div>","100","html-slider-response","36","968431","0.0-9.0-2.0","141","1","2025-07-02 10:20:48","80fe4187154257d5fb01684ea91b68b9","196.75.183.10","Mozilla/5.0 (Windows NT 10.0; Win64; x64) AppleWebKit/537.36 (KHTML, like Gecko) Chrome/137.0.0.0 Safari/537.36","WebKit","Chrome","137.0.0.0","Windows","10.0","https://app.prolific.com/","en-US,en;q=0.9,ar;q=0.8","66ce541cd8da920539a1c3cc","683db6dfa200031b80f2a654","6865076a5fa6908a1d0bb8ba","66ce541cd8da920539a1c3cc","2025-07-02T10:36:58.785Z","","","","","","PreMotivationQ","","","","","","","","","","","","","","","","","","","","","","","","","","","","","","","","","","","","","","50"
"","","","","ctl-task-cpt","37","1000531","0.0-10.0-0.0","141","1","2025-07-02 10:20:48","80fe4187154257d5fb01684ea91b68b9","196.75.183.10","Mozilla/5.0 (Windows NT 10.0; Win64; x64) AppleWebKit/537.36 (KHTML, like Gecko) Chrome/137.0.0.0 Safari/537.36","WebKit","Chrome","137.0.0.0","Windows","10.0","https://app.prolific.com/","en-US,en;q=0.9,ar;q=0.8","66ce541cd8da920539a1c3cc","683db6dfa200031b80f2a654","6865076a5fa6908a1d0bb8ba","66ce541cd8da920539a1c3cc","2025-07-02T10:37:30.885Z","","","","","","","","","","","","","","","","win-only","0","g1:NW,g2:SE","1","1","0","972454.1","2131.4","7132.5","29091.2","1","4","8","6","2","8","8","8","0","0.06060606060606061","1267.7","3000","565","[""down"",""right""]","{""num_key_presses"":6,""num_perfect"":6,""num_errors"":0,""num_randdir"":0,""num_randdir_good_moves"":0,""num_whilered"":0,""num_whileblue"":0,""num_blue"":1,""num_good_moves"":6}","[414.57142857142856,417.47767857142856,0.2,414.57142857142856,417.47767857142856,100.8,414.57142857142856,417.47767857142856,200.8,414.57142857142856,417.47767857142856,301.2,413.57142857142856,421.47767857142856,401.6,419.57142857142856,423.47767857142856,504,464.57142857142856,475.47767857142856,604.1,602.5714285714286,599.4776785714286,704.3,648.5714285714286,665.4776785714286,809.2,681.5714285714286,695.4776785714286,917.3,693.5714285714286,707.4776785714286,1017.3,705.5714285714286,719.4776785714286,1118,746.5714285714286,736.4776785714286,1218.1,746.5714285714286,736.4776785714286,1318.9,746.5714285714286,736.4776785714286,1418.9,746.5714285714286,736.4776785714286,1523.9,746.5714285714286,736.4776785714286,1624,746.5714285714286,736.4776785714286,1733.8,746.5714285714286,736.4776785714286,1833.9,746.5714285714286,736.4776785714286,1934.1,746.5714285714286,736.4776785714286,2034.2,746.5714285714286,736.4776785714286,2138.8,746.5714285714286,736.4776785714286,2239.1,746.5714285714286,736.4776785714286,2339.3,746.5714285714286,734.4776785714286,2439.5,746.5714285714286,734.4776785714286,2540.6,746.5714285714286,734.4776785714286,2645.5,746.5714285714286,734.4776785714286,2750.6,746.5714285714286,732.4776785714286,2851,735.5714285714286,727.4776785714286,2951.2,730.5714285714286,726.4776785714286,3053.8,751.5714285714286,722.4776785714286,3154.1,761.5714285714286,720.4776785714286,3254.1,761.5714285714286,722.4776785714286,3354.2,761.5714285714286,721.4776785714286,3455.6,782.5714285714286,717.4776785714286,3560,786.5714285714286,717.4776785714286,3667.5,796.5714285714286,715.4776785714286,3767.6,793.5714285714286,711.4776785714286,3867.7,795.5714285714286,714.4776785714286,3969.6,802.5714285714286,715.4776785714286,4069.6,797.5714285714286,720.4776785714286,4175.3,795.5714285714286,726.4776785714286,4283.6,792.5714285714286,733.4776785714286,4384,812.5714285714286,727.4776785714286,4484.1,823.5714285714286,723.4776785714286,4584.2,829.5714285714286,721.4776785714286,4684.2,828.5714285714286,722.4776785714286,4784.3,822.5714285714286,729.4776785714286,4888.7,828.5714285714286,727.4776785714286,4988.8]","[1353.9,1353.9,1000,0,353.9,""smooth"",""right"",""right"",""good_move"",8235.9,6881.8,2752.7,5093.3,389.9,""smooth"",""down"",""down"",""good_move"",11506,3269.9,2653.8,8236.1,616.1,""smooth"",""right"",""right"",""good_move"",15007.7,3501.6,2979.2,11506.1,522.4,""smooth"",""right"",""right"",""good_move"",18388.8,3380.9,2975.1,15007.9,405.8,""smooth"",""down"",""down"",""good_move"",21866.1,3477.1,3028.5,18389,448.6,""smooth"",""down"",""down"",""good_move""]","",""
"4835","","<div style=""width:500px;"">
  <p>What determined the result of this run?</p>
  </div>","100","html-slider-response","38","1005367","0.0-10.0-1.0","141","1","2025-07-02 10:20:48","80fe4187154257d5fb01684ea91b68b9","196.75.183.10","Mozilla/5.0 (Windows NT 10.0; Win64; x64) AppleWebKit/537.36 (KHTML, like Gecko) Chrome/137.0.0.0 Safari/537.36","WebKit","Chrome","137.0.0.0","Windows","10.0","https://app.prolific.com/","en-US,en;q=0.9,ar;q=0.8","66ce541cd8da920539a1c3cc","683db6dfa200031b80f2a654","6865076a5fa6908a1d0bb8ba","66ce541cd8da920539a1c3cc","2025-07-02T10:37:35.721Z","","","","","","AttribQ","","","","","","","","","","","","","","","","","","","","","","","","","","","","","","","","","","","","","","50"
"2319","","<div style=""width:500px;"">
  <p>How much control did you have over the ball?</p>
  </div>","100","html-slider-response","39","1007687","0.0-10.0-2.0","141","1","2025-07-02 10:20:48","80fe4187154257d5fb01684ea91b68b9","196.75.183.10","Mozilla/5.0 (Windows NT 10.0; Win64; x64) AppleWebKit/537.36 (KHTML, like Gecko) Chrome/137.0.0.0 Safari/537.36","WebKit","Chrome","137.0.0.0","Windows","10.0","https://app.prolific.com/","en-US,en;q=0.9,ar;q=0.8","66ce541cd8da920539a1c3cc","683db6dfa200031b80f2a654","6865076a5fa6908a1d0bb8ba","66ce541cd8da920539a1c3cc","2025-07-02T10:37:38.041Z","","","","","","ControlQ","","","","","","","","","","","","","","","","","","","","","","","","","","","","","","","","","","","","","","50"
"3535","","<div style=""width:500px;"">
  <p>How would you describe your current emotional state?</p>
  </div>","21","html-slider-response","40","1011223","0.0-10.0-3.0","141","1","2025-07-02 10:20:48","80fe4187154257d5fb01684ea91b68b9","196.75.183.10","Mozilla/5.0 (Windows NT 10.0; Win64; x64) AppleWebKit/537.36 (KHTML, like Gecko) Chrome/137.0.0.0 Safari/537.36","WebKit","Chrome","137.0.0.0","Windows","10.0","https://app.prolific.com/","en-US,en;q=0.9,ar;q=0.8","66ce541cd8da920539a1c3cc","683db6dfa200031b80f2a654","6865076a5fa6908a1d0bb8ba","66ce541cd8da920539a1c3cc","2025-07-02T10:37:41.577Z","","","","","","StressQ","","","","","","","","","","","","","","","","","","","","","","","","","","","","","","","","","","","","","","50"
"5687","","<div style=""width:500px;"">
  <p>What best describes how you currently feel?</p>
  </div>","98","html-slider-response","41","1016911","0.0-10.0-4.0","141","1","2025-07-02 10:20:48","80fe4187154257d5fb01684ea91b68b9","196.75.183.10","Mozilla/5.0 (Windows NT 10.0; Win64; x64) AppleWebKit/537.36 (KHTML, like Gecko) Chrome/137.0.0.0 Safari/537.36","WebKit","Chrome","137.0.0.0","Windows","10.0","https://app.prolific.com/","en-US,en;q=0.9,ar;q=0.8","66ce541cd8da920539a1c3cc","683db6dfa200031b80f2a654","6865076a5fa6908a1d0bb8ba","66ce541cd8da920539a1c3cc","2025-07-02T10:37:47.265Z","","","","","","MotivationQ","","","","","","","","","","","","","","","","","","","","","","","","","","","","","","","","","","","","","","50"
"","","","","ctl-task-cpt","42","1050295","0.0-10.0-0.1","141","1","2025-07-02 10:20:48","80fe4187154257d5fb01684ea91b68b9","196.75.183.10","Mozilla/5.0 (Windows NT 10.0; Win64; x64) AppleWebKit/537.36 (KHTML, like Gecko) Chrome/137.0.0.0 Safari/537.36","WebKit","Chrome","137.0.0.0","Windows","10.0","https://app.prolific.com/","en-US,en;q=0.9,ar;q=0.8","66ce541cd8da920539a1c3cc","683db6dfa200031b80f2a654","6865076a5fa6908a1d0bb8ba","66ce541cd8da920539a1c3cc","2025-07-02T10:38:20.649Z","","","","","","","","","","","","","","","","win-only","2","g1:SE,g2:NW","0.9","2","0","1020934","1359.2","6360.9","30366","1","4","4","6","2","4","4","12","8","0.09090909090909091","1343.8","3000","440","[""left"",""up""]","{""num_key_presses"":6,""num_perfect"":6,""num_errors"":0,""num_randdir"":0,""num_randdir_good_moves"":0,""num_whilered"":0,""num_whileblue"":0,""num_blue"":2,""num_good_moves"":6}","[408.57142857142856,409.47767857142856,0,408.57142857142856,408.47767857142856,101.7,408.57142857142856,406.47767857142856,206.6,408.57142857142856,409.47767857142856,306.7,412.57142857142856,437.47767857142856,411.7,421.57142857142856,458.47767857142856,516.6,480.57142857142856,528.4776785714286,617.5,482.57142857142856,532.4776785714286,721,335.57142857142856,448.47767857142856,822.8,-55.42857142857143,45.47767857142857,922.8,-39.42857142857143,53.47767857142857,1026.8,28.57142857142857,54.47767857142857,1127.4,74.57142857142857,54.47767857142857,1227.6,75.57142857142857,54.47767857142857,1327.7,76.57142857142857,55.47767857142857,1440.8,76.57142857142857,55.47767857142857,1541.3,80.57142857142857,58.47767857142857,1646.1,90.57142857142857,66.47767857142857,1751,99.57142857142857,76.47767857142857,1852,110.57142857142857,86.47767857142857,1952.7,114.57142857142857,90.47767857142857,2056.9,114.57142857142857,90.47767857142857,2157.4,114.57142857142857,90.47767857142857,2261.5,114.57142857142857,90.47767857142857,2365.9,114.57142857142857,90.47767857142857,2466,114.57142857142857,90.47767857142857,2566.3,114.57142857142857,90.47767857142857,2666.4,114.57142857142857,90.47767857142857,2766.4,114.57142857142857,90.47767857142857,2867.4,121.57142857142857,100.47767857142857,2971.1,122.57142857142857,109.47767857142857,3071.1,122.57142857142857,109.47767857142857,3171.8,123.57142857142857,109.47767857142857,3276.7,123.57142857142857,109.47767857142857,3381.6,124.57142857142857,109.47767857142857,3481.7,124.57142857142857,109.47767857142857,3581.7,124.57142857142857,109.47767857142857,3686.7,124.57142857142857,109.47767857142857,3790.9,124.57142857142857,109.47767857142857,3891.2,124.57142857142857,109.47767857142857,3996.8,124.57142857142857,109.47767857142857,4101.6,124.57142857142857,109.47767857142857,4201.6,124.57142857142857,109.47767857142857,4301.7,124.57142857142857,109.47767857142857,4406.1,124.57142857142857,109.47767857142857,4506.4,124.57142857142857,109.47767857142857,4606.6,124.57142857142857,109.47767857142857,4712.6,124.57142857142857,109.47767857142857,4816.7,124.57142857142857,109.47767857142857,4916.7]","[1584.5,1584.5,1000,0,584.6,""smooth"",""up"",""up"",""good_move"",4697.5,3112.7,2725.7,1584.8,387,""smooth"",""left"",""left"",""good_move"",7911.6,3213.9,2813.7,4697.7,400.2,""smooth"",""up"",""up"",""good_move"",10326.4,2414.6,1991.4,7911.8,423.2,""smooth"",""left"",""left"",""good_move"",20616.8,10290.2,2196.1,17969.8,450.9,""smooth"",""left"",""left"",""good_move"",23913.5,3296.5,2949.5,20617,347,""smooth"",""up"",""up"",""good_move""]","",""
"4271","","<div style=""width:500px;"">
  <p>What determined the result of this run?</p>
  </div>","86","html-slider-response","43","1054567","0.0-10.0-1.1","141","1","2025-07-02 10:20:48","80fe4187154257d5fb01684ea91b68b9","196.75.183.10","Mozilla/5.0 (Windows NT 10.0; Win64; x64) AppleWebKit/537.36 (KHTML, like Gecko) Chrome/137.0.0.0 Safari/537.36","WebKit","Chrome","137.0.0.0","Windows","10.0","https://app.prolific.com/","en-US,en;q=0.9,ar;q=0.8","66ce541cd8da920539a1c3cc","683db6dfa200031b80f2a654","6865076a5fa6908a1d0bb8ba","66ce541cd8da920539a1c3cc","2025-07-02T10:38:24.921Z","","","","","","AttribQ","","","","","","","","","","","","","","","","","","","","","","","","","","","","","","","","","","","","","","50"
"3000","","<div style=""width:500px;"">
  <p>How much control did you have over the ball?</p>
  </div>","100","html-slider-response","44","1057567","0.0-10.0-2.1","141","1","2025-07-02 10:20:48","80fe4187154257d5fb01684ea91b68b9","196.75.183.10","Mozilla/5.0 (Windows NT 10.0; Win64; x64) AppleWebKit/537.36 (KHTML, like Gecko) Chrome/137.0.0.0 Safari/537.36","WebKit","Chrome","137.0.0.0","Windows","10.0","https://app.prolific.com/","en-US,en;q=0.9,ar;q=0.8","66ce541cd8da920539a1c3cc","683db6dfa200031b80f2a654","6865076a5fa6908a1d0bb8ba","66ce541cd8da920539a1c3cc","2025-07-02T10:38:27.921Z","","","","","","ControlQ","","","","","","","","","","","","","","","","","","","","","","","","","","","","","","","","","","","","","","50"
"3239","","<div style=""width:500px;"">
  <p>How would you describe your current emotional state?</p>
  </div>","18","html-slider-response","45","1060807","0.0-10.0-3.1","141","1","2025-07-02 10:20:48","80fe4187154257d5fb01684ea91b68b9","196.75.183.10","Mozilla/5.0 (Windows NT 10.0; Win64; x64) AppleWebKit/537.36 (KHTML, like Gecko) Chrome/137.0.0.0 Safari/537.36","WebKit","Chrome","137.0.0.0","Windows","10.0","https://app.prolific.com/","en-US,en;q=0.9,ar;q=0.8","66ce541cd8da920539a1c3cc","683db6dfa200031b80f2a654","6865076a5fa6908a1d0bb8ba","66ce541cd8da920539a1c3cc","2025-07-02T10:38:31.161Z","","","","","","StressQ","","","","","","","","","","","","","","","","","","","","","","","","","","","","","","","","","","","","","","50"
"2120","","<div style=""width:500px;"">
  <p>What best describes how you currently feel?</p>
  </div>","90","html-slider-response","46","1062927","0.0-10.0-4.1","141","1","2025-07-02 10:20:48","80fe4187154257d5fb01684ea91b68b9","196.75.183.10","Mozilla/5.0 (Windows NT 10.0; Win64; x64) AppleWebKit/537.36 (KHTML, like Gecko) Chrome/137.0.0.0 Safari/537.36","WebKit","Chrome","137.0.0.0","Windows","10.0","https://app.prolific.com/","en-US,en;q=0.9,ar;q=0.8","66ce541cd8da920539a1c3cc","683db6dfa200031b80f2a654","6865076a5fa6908a1d0bb8ba","66ce541cd8da920539a1c3cc","2025-07-02T10:38:33.281Z","","","","","","MotivationQ","","","","","","","","","","","","","","","","","","","","","","","","","","","","","","","","","","","","","","50"
"","","","","ctl-task-cpt","47","1095332","0.0-10.0-0.2","141","1","2025-07-02 10:20:48","80fe4187154257d5fb01684ea91b68b9","196.75.183.10","Mozilla/5.0 (Windows NT 10.0; Win64; x64) AppleWebKit/537.36 (KHTML, like Gecko) Chrome/137.0.0.0 Safari/537.36","WebKit","Chrome","137.0.0.0","Windows","10.0","https://app.prolific.com/","en-US,en;q=0.9,ar;q=0.8","66ce541cd8da920539a1c3cc","683db6dfa200031b80f2a654","6865076a5fa6908a1d0bb8ba","66ce541cd8da920539a1c3cc","2025-07-02T10:39:05.686Z","","","","","","","","","","","","","","","","win-only","2","g1:SE,g2:NW","0.8","3","0","1066950.2","1431","6432.3","29386.5","1","4","8","6","2","8","7","19","12","0.14393939393939395","1728","3000","915","[""left"",""up""]","{""num_key_presses"":6,""num_perfect"":5,""num_errors"":1,""num_randdir"":0,""num_randdir_good_moves"":0,""num_whilered"":0,""num_whileblue"":1,""num_blue"":3,""num_good_moves"":6}","[415.57142857142856,414.47767857142856,0.1,415.57142857142856,414.47767857142856,105.6,415.57142857142856,414.47767857142856,210.4,416.57142857142856,418.47767857142856,315.1,415.57142857142856,419.47767857142856,416.1,415.57142857142856,419.47767857142856,519.5,415.57142857142856,421.47767857142856,625.8,274.57142857142856,317.47767857142856,730.2,214.57142857142856,232.47767857142856,834.2,123.57142857142857,158.47767857142856,935,82.57142857142857,124.47767857142857,1035.3,81.57142857142857,120.47767857142857,1140,79.57142857142857,108.47767857142857,1240.1,72.57142857142857,100.47767857142857,1340.1,72.57142857142857,100.47767857142857,1441.1,72.57142857142857,100.47767857142857,1545.2,72.57142857142857,100.47767857142857,1645.2,72.57142857142857,100.47767857142857,1750.2,69.57142857142857,100.47767857142857,1850.2,68.57142857142857,100.47767857142857,1954.2,68.57142857142857,100.47767857142857,2055.3,68.57142857142857,100.47767857142857,2159.8,97.57142857142857,120.47767857142857,2260.1,105.57142857142857,149.47767857142856,2364.2,112.57142857142857,161.47767857142856,2464.9,120.57142857142857,173.47767857142856,2569.3,130.57142857142856,175.47767857142856,2670.5,129.57142857142856,177.47767857142856,2774.5,129.57142857142856,177.47767857142856,2874.9,129.57142857142856,177.47767857142856,2979.8,129.57142857142856,179.47767857142856,3080,127.57142857142857,181.47767857142856,3181,126.57142857142857,184.47767857142856,3285.3,123.57142857142857,186.47767857142856,3389.9,124.57142857142857,187.47767857142856,3490.1,124.57142857142857,187.47767857142856,3590.9,124.57142857142857,187.47767857142856,3695.4,124.57142857142857,187.47767857142856,3799.8,124.57142857142857,187.47767857142856,3900.2,124.57142857142857,187.47767857142856,4004.8,124.57142857142857,187.47767857142856,4104.9,124.57142857142857,187.47767857142856,4205.9,124.57142857142857,187.47767857142856,4309.9,124.57142857142857,187.47767857142856,4410.2,124.57142857142857,187.47767857142856,4514.6,124.57142857142857,187.47767857142856,4614.6,125.57142857142857,189.47767857142856,4715.5,125.57142857142857,191.47767857142856,4816.1,125.57142857142857,191.47767857142856,4919.8]","[1403.9,1403.9,1000,0,403.9,""smooth"",""up"",""up"",""good_move"",7864,6459.8,2156.4,5353.5,354.1,""smooth"",""left"",""left"",""good_move"",10708.9,2844.6,2258.1,7864.3,586.5,""smooth"",""left"",""left"",""good_move"",13972.9,3263.8,2916.6,10709.1,347.2,""smooth"",""up"",""up"",""good_move"",17228.8,3255.7,2870.7,13973.1,385,""while_blue"",""left"",""left"",""good_move"",22860,5631,2014.1,20428.8,417.1,""smooth"",""up"",""up"",""good_move""]","",""
"3922","","<div style=""width:500px;"">
  <p>What determined the result of this run?</p>
  </div>","93","html-slider-response","48","1099255","0.0-10.0-1.2","141","1","2025-07-02 10:20:48","80fe4187154257d5fb01684ea91b68b9","196.75.183.10","Mozilla/5.0 (Windows NT 10.0; Win64; x64) AppleWebKit/537.36 (KHTML, like Gecko) Chrome/137.0.0.0 Safari/537.36","WebKit","Chrome","137.0.0.0","Windows","10.0","https://app.prolific.com/","en-US,en;q=0.9,ar;q=0.8","66ce541cd8da920539a1c3cc","683db6dfa200031b80f2a654","6865076a5fa6908a1d0bb8ba","66ce541cd8da920539a1c3cc","2025-07-02T10:39:09.609Z","","","","","","AttribQ","","","","","","","","","","","","","","","","","","","","","","","","","","","","","","","","","","","","","","50"
"2535","","<div style=""width:500px;"">
  <p>How much control did you have over the ball?</p>
  </div>","100","html-slider-response","49","1101791","0.0-10.0-2.2","141","1","2025-07-02 10:20:48","80fe4187154257d5fb01684ea91b68b9","196.75.183.10","Mozilla/5.0 (Windows NT 10.0; Win64; x64) AppleWebKit/537.36 (KHTML, like Gecko) Chrome/137.0.0.0 Safari/537.36","WebKit","Chrome","137.0.0.0","Windows","10.0","https://app.prolific.com/","en-US,en;q=0.9,ar;q=0.8","66ce541cd8da920539a1c3cc","683db6dfa200031b80f2a654","6865076a5fa6908a1d0bb8ba","66ce541cd8da920539a1c3cc","2025-07-02T10:39:12.145Z","","","","","","ControlQ","","","","","","","","","","","","","","","","","","","","","","","","","","","","","","","","","","","","","","50"
"2759","","<div style=""width:500px;"">
  <p>How would you describe your current emotional state?</p>
  </div>","11","html-slider-response","50","1104550","0.0-10.0-3.2","141","1","2025-07-02 10:20:48","80fe4187154257d5fb01684ea91b68b9","196.75.183.10","Mozilla/5.0 (Windows NT 10.0; Win64; x64) AppleWebKit/537.36 (KHTML, like Gecko) Chrome/137.0.0.0 Safari/537.36","WebKit","Chrome","137.0.0.0","Windows","10.0","https://app.prolific.com/","en-US,en;q=0.9,ar;q=0.8","66ce541cd8da920539a1c3cc","683db6dfa200031b80f2a654","6865076a5fa6908a1d0bb8ba","66ce541cd8da920539a1c3cc","2025-07-02T10:39:14.905Z","","","","","","StressQ","","","","","","","","","","","","","","","","","","","","","","","","","","","","","","","","","","","","","","50"
"3392","","<div style=""width:500px;"">
  <p>What best describes how you currently feel?</p>
  </div>","87","html-slider-response","51","1107943","0.0-10.0-4.2","141","1","2025-07-02 10:20:48","80fe4187154257d5fb01684ea91b68b9","196.75.183.10","Mozilla/5.0 (Windows NT 10.0; Win64; x64) AppleWebKit/537.36 (KHTML, like Gecko) Chrome/137.0.0.0 Safari/537.36","WebKit","Chrome","137.0.0.0","Windows","10.0","https://app.prolific.com/","en-US,en;q=0.9,ar;q=0.8","66ce541cd8da920539a1c3cc","683db6dfa200031b80f2a654","6865076a5fa6908a1d0bb8ba","66ce541cd8da920539a1c3cc","2025-07-02T10:39:18.297Z","","","","","","MotivationQ","","","","","","","","","","","","","","","","","","","","","","","","","","","","","","","","","","","","","","50"
"","","","","ctl-task-cpt","52","1155799","0.0-10.0-0.3","141","1","2025-07-02 10:20:48","80fe4187154257d5fb01684ea91b68b9","196.75.183.10","Mozilla/5.0 (Windows NT 10.0; Win64; x64) AppleWebKit/537.36 (KHTML, like Gecko) Chrome/137.0.0.0 Safari/537.36","WebKit","Chrome","137.0.0.0","Windows","10.0","https://app.prolific.com/","en-US,en;q=0.9,ar;q=0.8","66ce541cd8da920539a1c3cc","683db6dfa200031b80f2a654","6865076a5fa6908a1d0bb8ba","66ce541cd8da920539a1c3cc","2025-07-02T10:40:06.153Z","","","","","","","","","","","","","","","","win-only","2","g1:SE,g2:NW","0.7","4","0","1111966.2","1006.7","6006.9","44845.1","1","4","4","6","2","4","4","23","19","0.17424242424242425","3336.3","3000","190","[""left"",""up""]","{""num_key_presses"":8,""num_perfect"":5,""num_errors"":0,""num_randdir"":3,""num_randdir_good_moves"":2,""num_whilered"":0,""num_whileblue"":0,""num_blue"":5,""num_good_moves"":7}","[408.57142857142856,419.47767857142856,0.1,408.57142857142856,419.47767857142856,103.8,408.57142857142856,419.47767857142856,204.3,409.57142857142856,419.47767857142856,305,411.57142857142856,420.47767857142856,405,416.57142857142856,424.47767857142856,508.9,419.57142857142856,424.47767857142856,610,415.57142857142856,405.47767857142856,714.7,400.57142857142856,382.47767857142856,815.2,310.57142857142856,278.47767857142856,919.8,512.5714285714286,409.47767857142856,1023.4,563.5714285714286,463.47767857142856,1124.7,529.5714285714286,440.47767857142856,1231.8,479.57142857142856,396.47767857142856,1333.7,417.57142857142856,358.47767857142856,1433.8,325.57142857142856,313.47767857142856,1533.8,191.57142857142856,293.47767857142856,1633.9,-119.42857142857143,259.47767857142856,1738.8,-95.42857142857143,247.47767857142856,1839.6,-95.42857142857143,247.47767857142856,1947.9,-95.42857142857143,247.47767857142856,2048.6,-91.42857142857143,223.47767857142856,2148.6,-82.42857142857143,218.47767857142856,2254.5,-37.42857142857143,200.47767857142856,2358.6,20.57142857142857,157.47767857142856,2458.6,42.57142857142857,125.47767857142857,2564.4,43.57142857142857,91.47767857142857,2665,41.57142857142857,87.47767857142857,2768.9,41.57142857142857,87.47767857142857,2870,42.57142857142857,85.47767857142857,2973.8,42.57142857142857,85.47767857142857,3074.2,42.57142857142857,85.47767857142857,3181.5,42.57142857142857,85.47767857142857,3284.8,42.57142857142857,85.47767857142857,3389.1,42.57142857142857,85.47767857142857,3489.1,42.57142857142857,85.47767857142857,3598.2,42.57142857142857,85.47767857142857,3698.6,42.57142857142857,85.47767857142857,3798.9,42.57142857142857,85.47767857142857,3899.7,51.57142857142857,92.47767857142857,4000,49.57142857142857,95.47767857142857,4100.1,51.57142857142857,99.47767857142857,4204.6,52.57142857142857,100.47767857142857,4305.1,57.57142857142857,102.47767857142857,4414.5,59.57142857142857,105.47767857142857,4514.5,64.57142857142857,109.47767857142857,4614.8,64.57142857142857,109.47767857142857,4714.8,65.57142857142857,108.47767857142857,4819.2,65.57142857142857,108.47767857142857,4919.9]","[1496.7,1496.7,1000,0,496.7,""smooth"",""left"",""left"",""good_move"",4458.3,2961.2,2579.9,1497.2,381.3,""oops"",""up"",""left"",""good_move"",7221.3,2762.8,2408.9,4458.5,353.9,""oops"",""up"",""down"",""bad_move"",10430.2,3208.6,2856.1,7221.6,352.5,""smooth"",""up"",""up"",""good_move"",16830.3,6399.9,2338.7,14083.7,407.9,""smooth"",""up"",""up"",""good_move"",19896.9,3066.5,2669.1,16830.4,397.4,""oops"",""up"",""up"",""good_move"",26463.2,6566.1,2226.8,23764.5,471.9,""smooth"",""left"",""left"",""good_move"",38746.7,12283.3,2911.4,35497.6,337.7,""smooth"",""up"",""up"",""good_move""]","",""
"4799","","<div style=""width:500px;"">
  <p>What determined the result of this run?</p>
  </div>","64","html-slider-response","53","1160599","0.0-10.0-1.3","141","1","2025-07-02 10:20:48","80fe4187154257d5fb01684ea91b68b9","196.75.183.10","Mozilla/5.0 (Windows NT 10.0; Win64; x64) AppleWebKit/537.36 (KHTML, like Gecko) Chrome/137.0.0.0 Safari/537.36","WebKit","Chrome","137.0.0.0","Windows","10.0","https://app.prolific.com/","en-US,en;q=0.9,ar;q=0.8","66ce541cd8da920539a1c3cc","683db6dfa200031b80f2a654","6865076a5fa6908a1d0bb8ba","66ce541cd8da920539a1c3cc","2025-07-02T10:40:10.953Z","","","","","","AttribQ","","","","","","","","","","","","","","","","","","","","","","","","","","","","","","","","","","","","","","50"
"4080","","<div style=""width:500px;"">
  <p>How much control did you have over the ball?</p>
  </div>","58","html-slider-response","54","1164679","0.0-10.0-2.3","141","1","2025-07-02 10:20:48","80fe4187154257d5fb01684ea91b68b9","196.75.183.10","Mozilla/5.0 (Windows NT 10.0; Win64; x64) AppleWebKit/537.36 (KHTML, like Gecko) Chrome/137.0.0.0 Safari/537.36","WebKit","Chrome","137.0.0.0","Windows","10.0","https://app.prolific.com/","en-US,en;q=0.9,ar;q=0.8","66ce541cd8da920539a1c3cc","683db6dfa200031b80f2a654","6865076a5fa6908a1d0bb8ba","66ce541cd8da920539a1c3cc","2025-07-02T10:40:15.033Z","","","","","","ControlQ","","","","","","","","","","","","","","","","","","","","","","","","","","","","","","","","","","","","","","50"
"3311","","<div style=""width:500px;"">
  <p>How would you describe your current emotional state?</p>
  </div>","13","html-slider-response","55","1167991","0.0-10.0-3.3","141","1","2025-07-02 10:20:48","80fe4187154257d5fb01684ea91b68b9","196.75.183.10","Mozilla/5.0 (Windows NT 10.0; Win64; x64) AppleWebKit/537.36 (KHTML, like Gecko) Chrome/137.0.0.0 Safari/537.36","WebKit","Chrome","137.0.0.0","Windows","10.0","https://app.prolific.com/","en-US,en;q=0.9,ar;q=0.8","66ce541cd8da920539a1c3cc","683db6dfa200031b80f2a654","6865076a5fa6908a1d0bb8ba","66ce541cd8da920539a1c3cc","2025-07-02T10:40:18.345Z","","","","","","StressQ","","","","","","","","","","","","","","","","","","","","","","","","","","","","","","","","","","","","","","50"
"4743","","<div style=""width:500px;"">
  <p>What best describes how you currently feel?</p>
  </div>","88","html-slider-response","56","1172735","0.0-10.0-4.3","141","1","2025-07-02 10:20:48","80fe4187154257d5fb01684ea91b68b9","196.75.183.10","Mozilla/5.0 (Windows NT 10.0; Win64; x64) AppleWebKit/537.36 (KHTML, like Gecko) Chrome/137.0.0.0 Safari/537.36","WebKit","Chrome","137.0.0.0","Windows","10.0","https://app.prolific.com/","en-US,en;q=0.9,ar;q=0.8","66ce541cd8da920539a1c3cc","683db6dfa200031b80f2a654","6865076a5fa6908a1d0bb8ba","66ce541cd8da920539a1c3cc","2025-07-02T10:40:23.089Z","","","","","","MotivationQ","","","","","","","","","","","","","","","","","","","","","","","","","","","","","","","","","","","","","","50"
"","","","","ctl-task-cpt","57","1208079","0.0-10.0-0.4","141","1","2025-07-02 10:20:48","80fe4187154257d5fb01684ea91b68b9","196.75.183.10","Mozilla/5.0 (Windows NT 10.0; Win64; x64) AppleWebKit/537.36 (KHTML, like Gecko) Chrome/137.0.0.0 Safari/537.36","WebKit","Chrome","137.0.0.0","Windows","10.0","https://app.prolific.com/","en-US,en;q=0.9,ar;q=0.8","66ce541cd8da920539a1c3cc","683db6dfa200031b80f2a654","6865076a5fa6908a1d0bb8ba","66ce541cd8da920539a1c3cc","2025-07-02T10:40:58.433Z","","","","","","","","","","","","","","","","win-only","1","g1:NE,g2:SW","0.6","5","0","1176758.2","1177.1","6180.7","32325.7","1","4","4","6","2","-4","-4","19","23","0.14393939393939395","1237.9","3000","-3015","[""down"",""left""]","{""num_key_presses"":6,""num_perfect"":4,""num_errors"":0,""num_randdir"":2,""num_randdir_good_moves"":0,""num_whilered"":0,""num_whileblue"":0,""num_blue"":2,""num_good_moves"":4}","[420.57142857142856,415.47767857142856,0.1,421.57142857142856,413.47767857142856,104.6,421.57142857142856,410.47767857142856,209.4,421.57142857142856,410.47767857142856,313.5,421.57142857142856,410.47767857142856,413.8,431.57142857142856,401.47767857142856,518.7,439.57142857142856,396.47767857142856,623.9,440.57142857142856,396.47767857142856,729.7,306.57142857142856,497.47767857142856,833.5,104.57142857142857,649.4776785714286,938.5,102.57142857142857,660.4776785714286,1044.8,101.57142857142857,694.4776785714286,1148.7,101.57142857142857,695.4776785714286,1249.2,101.57142857142857,706.4776785714286,1353.9,109.57142857142857,713.4776785714286,1454,109.57142857142857,713.4776785714286,1558.8,110.57142857142857,713.4776785714286,1658.8,110.57142857142857,713.4776785714286,1763.8,110.57142857142857,713.4776785714286,1868.8,109.57142857142857,713.4776785714286,1974.1,109.57142857142857,713.4776785714286,2079,109.57142857142857,713.4776785714286,2184.6,109.57142857142857,713.4776785714286,2289.7,109.57142857142857,713.4776785714286,2393.3,109.57142857142857,713.4776785714286,2498.6,109.57142857142857,713.4776785714286,2598.8,109.57142857142857,713.4776785714286,2703.3,109.57142857142857,713.4776785714286,2803.6,109.57142857142857,713.4776785714286,2908.1,109.57142857142857,713.4776785714286,3014.3,109.57142857142857,713.4776785714286,3114.4,109.57142857142857,713.4776785714286,3219.7,109.57142857142857,713.4776785714286,3323.9,109.57142857142857,713.4776785714286,3429.7,109.57142857142857,713.4776785714286,3533.7,109.57142857142857,713.4776785714286,3638.4,109.57142857142857,713.4776785714286,3738.4,109.57142857142857,713.4776785714286,3843.4,109.57142857142857,713.4776785714286,3943.6,109.57142857142857,713.4776785714286,4048.6,109.57142857142857,713.4776785714286,4154.2,109.57142857142857,713.4776785714286,4259.1,106.57142857142857,713.4776785714286,4359.6,102.57142857142857,710.4776785714286,4463.3,100.57142857142857,710.4776785714286,4563.4,100.57142857142857,710.4776785714286,4668.2,100.57142857142857,710.4776785714286,4773.8,100.57142857142857,710.4776785714286,4878.9,100.57142857142857,710.4776785714286,4979]","[1464.5,1464.5,1000,0,464.5,""smooth"",""left"",""left"",""good_move"",4869.5,3404.6,2925.5,1464.9,479.1,""oops"",""down"",""up"",""bad_move"",11833.6,6963.9,2757.5,8670,406.1,""smooth"",""down"",""down"",""good_move"",14443.4,2609.6,2102.6,11833.8,507,""oops"",""left"",""right"",""bad_move"",17278,2834.3,2317.4,14443.7,516.9,""smooth"",""down"",""down"",""good_move"",23569.7,6291.6,2514.1,20670.3,385.3,""smooth"",""left"",""left"",""good_move""]","",""
"5007","","<div style=""width:500px;"">
  <p>What determined the result of this run?</p>
  </div>","34","html-slider-response","58","1213087","0.0-10.0-1.4","141","1","2025-07-02 10:20:48","80fe4187154257d5fb01684ea91b68b9","196.75.183.10","Mozilla/5.0 (Windows NT 10.0; Win64; x64) AppleWebKit/537.36 (KHTML, like Gecko) Chrome/137.0.0.0 Safari/537.36","WebKit","Chrome","137.0.0.0","Windows","10.0","https://app.prolific.com/","en-US,en;q=0.9,ar;q=0.8","66ce541cd8da920539a1c3cc","683db6dfa200031b80f2a654","6865076a5fa6908a1d0bb8ba","66ce541cd8da920539a1c3cc","2025-07-02T10:41:03.441Z","","","","","","AttribQ","","","","","","","","","","","","","","","","","","","","","","","","","","","","","","","","","","","","","","50"
"3135","","<div style=""width:500px;"">
  <p>How much control did you have over the ball?</p>
  </div>","29","html-slider-response","59","1216223","0.0-10.0-2.4","141","1","2025-07-02 10:20:48","80fe4187154257d5fb01684ea91b68b9","196.75.183.10","Mozilla/5.0 (Windows NT 10.0; Win64; x64) AppleWebKit/537.36 (KHTML, like Gecko) Chrome/137.0.0.0 Safari/537.36","WebKit","Chrome","137.0.0.0","Windows","10.0","https://app.prolific.com/","en-US,en;q=0.9,ar;q=0.8","66ce541cd8da920539a1c3cc","683db6dfa200031b80f2a654","6865076a5fa6908a1d0bb8ba","66ce541cd8da920539a1c3cc","2025-07-02T10:41:06.577Z","","","","","","ControlQ","","","","","","","","","","","","","","","","","","","","","","","","","","","","","","","","","","","","","","50"
"6416","","<div style=""width:500px;"">
  <p>How would you describe your current emotional state?</p>
  </div>","44","html-slider-response","60","1222639","0.0-10.0-3.4","141","1","2025-07-02 10:20:48","80fe4187154257d5fb01684ea91b68b9","196.75.183.10","Mozilla/5.0 (Windows NT 10.0; Win64; x64) AppleWebKit/537.36 (KHTML, like Gecko) Chrome/137.0.0.0 Safari/537.36","WebKit","Chrome","137.0.0.0","Windows","10.0","https://app.prolific.com/","en-US,en;q=0.9,ar;q=0.8","66ce541cd8da920539a1c3cc","683db6dfa200031b80f2a654","6865076a5fa6908a1d0bb8ba","66ce541cd8da920539a1c3cc","2025-07-02T10:41:12.993Z","","","","","","StressQ","","","","","","","","","","","","","","","","","","","","","","","","","","","","","","","","","","","","","","50"
"2111","","<div style=""width:500px;"">
  <p>What best describes how you currently feel?</p>
  </div>","76","html-slider-response","61","1224750","0.0-10.0-4.4","141","1","2025-07-02 10:20:48","80fe4187154257d5fb01684ea91b68b9","196.75.183.10","Mozilla/5.0 (Windows NT 10.0; Win64; x64) AppleWebKit/537.36 (KHTML, like Gecko) Chrome/137.0.0.0 Safari/537.36","WebKit","Chrome","137.0.0.0","Windows","10.0","https://app.prolific.com/","en-US,en;q=0.9,ar;q=0.8","66ce541cd8da920539a1c3cc","683db6dfa200031b80f2a654","6865076a5fa6908a1d0bb8ba","66ce541cd8da920539a1c3cc","2025-07-02T10:41:15.105Z","","","","","","MotivationQ","","","","","","","","","","","","","","","","","","","","","","","","","","","","","","","","","","","","","","50"
"","","","","ctl-task-cpt","62","1260023","0.0-10.0-0.5","141","1","2025-07-02 10:20:48","80fe4187154257d5fb01684ea91b68b9","196.75.183.10","Mozilla/5.0 (Windows NT 10.0; Win64; x64) AppleWebKit/537.36 (KHTML, like Gecko) Chrome/137.0.0.0 Safari/537.36","WebKit","Chrome","137.0.0.0","Windows","10.0","https://app.prolific.com/","en-US,en;q=0.9,ar;q=0.8","66ce541cd8da920539a1c3cc","683db6dfa200031b80f2a654","6865076a5fa6908a1d0bb8ba","66ce541cd8da920539a1c3cc","2025-07-02T10:41:50.377Z","","","","","","","","","","","","","","","","win-only","2","g1:SE,g2:NW","0.5","6","0","1228773.8","1711.5","6716","32255.3","1","4","8","6","1","-1","-1","18","19","0.13636363636363635","2280","3000","-3015","[""down"",""right""]","{""num_key_presses"":8,""num_perfect"":3,""num_errors"":0,""num_randdir"":5,""num_randdir_good_moves"":1,""num_whilered"":0,""num_whileblue"":0,""num_blue"":0,""num_good_moves"":4}","[412.57142857142856,423.47767857142856,0.1,413.57142857142856,422.47767857142856,103.7,413.57142857142856,422.47767857142856,205.4,414.57142857142856,422.47767857142856,308.7,414.57142857142856,422.47767857142856,408.8,415.57142857142856,424.47767857142856,513.7,417.57142857142856,434.47767857142856,613.7,417.57142857142856,435.47767857142856,719.1,417.57142857142856,441.47767857142856,823.9,419.57142857142856,442.47767857142856,924.1,428.57142857142856,452.47767857142856,1024.7,428.57142857142856,452.47767857142856,1128.7,460.57142857142856,474.47767857142856,1229.9,527.5714285714286,525.4776785714286,1333.8,674.5714285714286,600.4776785714286,1435,718.5714285714286,636.4776785714286,1538.8,726.5714285714286,650.4776785714286,1638.8,739.5714285714286,707.4776785714286,1738.9,747.5714285714286,733.4776785714286,1843.8,748.5714285714286,733.4776785714286,1945,748.5714285714286,736.4776785714286,2045,748.5714285714286,736.4776785714286,2148.8,748.5714285714286,736.4776785714286,2254.6,748.5714285714286,736.4776785714286,2359.3,748.5714285714286,736.4776785714286,2464.3,748.5714285714286,736.4776785714286,2568.8,747.5714285714286,737.4776785714286,2669.7,747.5714285714286,737.4776785714286,2769.9,747.5714285714286,737.4776785714286,2874.4,747.5714285714286,737.4776785714286,2978.9,747.5714285714286,737.4776785714286,3078.9,747.5714285714286,737.4776785714286,3178.9,747.5714285714286,737.4776785714286,3279,747.5714285714286,737.4776785714286,3379.1,747.5714285714286,737.4776785714286,3483.8,745.5714285714286,737.4776785714286,3584.1,747.5714285714286,736.4776785714286,3689,747.5714285714286,736.4776785714286,3794,747.5714285714286,736.4776785714286,3894,747.5714285714286,736.4776785714286,3994.2,746.5714285714286,732.4776785714286,4094.4,744.5714285714286,732.4776785714286,4198.6,744.5714285714286,732.4776785714286,4299.4,744.5714285714286,732.4776785714286,4404.7,744.5714285714286,732.4776785714286,4509.1,746.5714285714286,730.4776785714286,4610.4,747.5714285714286,730.4776785714286,4714.6,747.5714285714286,730.4776785714286,4814.6,747.5714285714286,730.4776785714286,4918.7]","[1379.6,1379.6,1000,0,379.6,""oops"",""right"",""left"",""bad_move"",4469.7,3089.9,2669,1379.8,420.9,""oops"",""down"",""left"",""bad_move"",7643.6,3173.8,2764.9,4469.8,408.9,""oops"",""right"",""right"",""good_move"",10569.6,2925.7,2586.3,7643.9,339.4,""smooth"",""right"",""right"",""good_move"",14159.5,3589.8,3200,10569.7,389.8,""smooth"",""down"",""down"",""good_move"",16877.8,2718,2333.5,14159.8,384.5,""oops"",""right"",""up"",""bad_move"",19814.6,2936.4,2634.4,16878.2,302,""oops"",""right"",""left"",""bad_move"",22680.5,2865.6,2526.6,19814.9,339,""smooth"",""down"",""down"",""good_move""]","",""
"3712","","<div style=""width:500px;"">
  <p>What determined the result of this run?</p>
  </div>","10","html-slider-response","63","1263735","0.0-10.0-1.5","141","1","2025-07-02 10:20:48","80fe4187154257d5fb01684ea91b68b9","196.75.183.10","Mozilla/5.0 (Windows NT 10.0; Win64; x64) AppleWebKit/537.36 (KHTML, like Gecko) Chrome/137.0.0.0 Safari/537.36","WebKit","Chrome","137.0.0.0","Windows","10.0","https://app.prolific.com/","en-US,en;q=0.9,ar;q=0.8","66ce541cd8da920539a1c3cc","683db6dfa200031b80f2a654","6865076a5fa6908a1d0bb8ba","66ce541cd8da920539a1c3cc","2025-07-02T10:41:54.089Z","","","","","","AttribQ","","","","","","","","","","","","","","","","","","","","","","","","","","","","","","","","","","","","","","50"
"5375","","<div style=""width:500px;"">
  <p>How much control did you have over the ball?</p>
  </div>","14","html-slider-response","64","1269110","0.0-10.0-2.5","141","1","2025-07-02 10:20:48","80fe4187154257d5fb01684ea91b68b9","196.75.183.10","Mozilla/5.0 (Windows NT 10.0; Win64; x64) AppleWebKit/537.36 (KHTML, like Gecko) Chrome/137.0.0.0 Safari/537.36","WebKit","Chrome","137.0.0.0","Windows","10.0","https://app.prolific.com/","en-US,en;q=0.9,ar;q=0.8","66ce541cd8da920539a1c3cc","683db6dfa200031b80f2a654","6865076a5fa6908a1d0bb8ba","66ce541cd8da920539a1c3cc","2025-07-02T10:41:59.465Z","","","","","","ControlQ","","","","","","","","","","","","","","","","","","","","","","","","","","","","","","","","","","","","","","50"
"3319","","<div style=""width:500px;"">
  <p>How would you describe your current emotional state?</p>
  </div>","55","html-slider-response","65","1272431","0.0-10.0-3.5","141","1","2025-07-02 10:20:48","80fe4187154257d5fb01684ea91b68b9","196.75.183.10","Mozilla/5.0 (Windows NT 10.0; Win64; x64) AppleWebKit/537.36 (KHTML, like Gecko) Chrome/137.0.0.0 Safari/537.36","WebKit","Chrome","137.0.0.0","Windows","10.0","https://app.prolific.com/","en-US,en;q=0.9,ar;q=0.8","66ce541cd8da920539a1c3cc","683db6dfa200031b80f2a654","6865076a5fa6908a1d0bb8ba","66ce541cd8da920539a1c3cc","2025-07-02T10:42:02.785Z","","","","","","StressQ","","","","","","","","","","","","","","","","","","","","","","","","","","","","","","","","","","","","","","50"
"2751","","<div style=""width:500px;"">
  <p>What best describes how you currently feel?</p>
  </div>","84","html-slider-response","66","1275183","0.0-10.0-4.5","141","1","2025-07-02 10:20:48","80fe4187154257d5fb01684ea91b68b9","196.75.183.10","Mozilla/5.0 (Windows NT 10.0; Win64; x64) AppleWebKit/537.36 (KHTML, like Gecko) Chrome/137.0.0.0 Safari/537.36","WebKit","Chrome","137.0.0.0","Windows","10.0","https://app.prolific.com/","en-US,en;q=0.9,ar;q=0.8","66ce541cd8da920539a1c3cc","683db6dfa200031b80f2a654","6865076a5fa6908a1d0bb8ba","66ce541cd8da920539a1c3cc","2025-07-02T10:42:05.537Z","","","","","","MotivationQ","","","","","","","","","","","","","","","","","","","","","","","","","","","","","","","","","","","","","","50"
"","","","","ctl-task-cpt","67","1308096","0.0-10.0-0.6","141","1","2025-07-02 10:20:48","80fe4187154257d5fb01684ea91b68b9","196.75.183.10","Mozilla/5.0 (Windows NT 10.0; Win64; x64) AppleWebKit/537.36 (KHTML, like Gecko) Chrome/137.0.0.0 Safari/537.36","WebKit","Chrome","137.0.0.0","Windows","10.0","https://app.prolific.com/","en-US,en;q=0.9,ar;q=0.8","66ce541cd8da920539a1c3cc","683db6dfa200031b80f2a654","6865076a5fa6908a1d0bb8ba","66ce541cd8da920539a1c3cc","2025-07-02T10:42:38.450Z","","","","","","","","","","","","","","","","win-only","2","g1:SE,g2:NW","0.4","7","0","1279206","1271.1","6275.6","29895.7","1","4","4","6","2","-4","-4","14","18","0.10606060606060606","1880.1","3000","-3010","[""left"",""up""]","{""num_key_presses"":6,""num_perfect"":2,""num_errors"":0,""num_randdir"":4,""num_randdir_good_moves"":3,""num_whilered"":0,""num_whileblue"":0,""num_blue"":1,""num_good_moves"":5}","[417.57142857142856,405.47767857142856,0.1,412.57142857142856,404.47767857142856,104.4,412.57142857142856,399.47767857142856,204.6,413.57142857142856,398.47767857142856,305.4,418.57142857142856,398.47767857142856,405.4,426.57142857142856,384.47767857142856,509.4,426.57142857142856,384.47767857142856,609.6,426.57142857142856,384.47767857142856,710.1,432.57142857142856,380.47767857142856,815.4,416.57142857142856,381.47767857142856,919.3,351.57142857142856,338.47767857142856,1019.3,276.57142857142856,291.47767857142856,1120.5,230.57142857142856,264.47767857142856,1220.5,196.57142857142856,232.47767857142856,1324,184.57142857142856,212.47767857142856,1424,136.57142857142856,177.47767857142856,1524.2,129.57142857142856,151.47767857142856,1625.3,117.57142857142857,123.47767857142857,1729.6,92.57142857142857,97.47767857142857,1834.4,91.57142857142857,87.47767857142857,1939.1,91.57142857142857,87.47767857142857,2039.4,98.57142857142857,87.47767857142857,2139.5,116.57142857142857,89.47767857142857,2240.4,136.57142857142856,94.47767857142857,2345.2,149.57142857142856,101.47767857142857,2450.4,160.57142857142856,107.47767857142857,2554.4,160.57142857142856,107.47767857142857,2655.5,160.57142857142856,107.47767857142857,2759.9,160.57142857142856,107.47767857142857,2865.1,164.57142857142856,108.47767857142857,2965.7,173.57142857142856,119.47767857142857,3065.9,205.57142857142856,145.47767857142856,3170.1,212.57142857142856,153.47767857142856,3270.1,212.57142857142856,153.47767857142856,3374.8,212.57142857142856,153.47767857142856,3475.9,212.57142857142856,153.47767857142856,3580.8,212.57142857142856,153.47767857142856,3685.4,217.57142857142856,154.47767857142856,3790.8,221.57142857142856,158.47767857142856,3895.1,221.57142857142856,158.47767857142856,3999.8,221.57142857142856,158.47767857142856,4100.7,221.57142857142856,161.47767857142856,4205.4,221.57142857142856,161.47767857142856,4310.5,221.57142857142856,161.47767857142856,4415.6,221.57142857142856,161.47767857142856,4520.6,221.57142857142856,161.47767857142856,4624.1,221.57142857142856,161.47767857142856,4729.6,221.57142857142856,161.47767857142856,4834.6,221.57142857142856,161.47767857142856,4939.2]","[1384.8,1384.8,1000,0,384.8,""oops"",""up"",""up"",""good_move"",3664.9,2279.9,1946,1385,333.9,""smooth"",""left"",""left"",""good_move"",10540.7,6875.6,3455.2,6770,315.5,""oops"",""left"",""left"",""good_move"",14245.9,3704.9,3311,10541,393.9,""smooth"",""up"",""up"",""good_move"",18227.7,3981.7,3062.6,14246.1,919.1,""oops"",""left"",""right"",""bad_move"",21036.1,2808,2370.2,18228.1,437.8,""oops"",""up"",""up"",""good_move""]","",""
"4318","","<div style=""width:500px;"">
  <p>What determined the result of this run?</p>
  </div>","32","html-slider-response","68","1312415","0.0-10.0-1.6","141","1","2025-07-02 10:20:48","80fe4187154257d5fb01684ea91b68b9","196.75.183.10","Mozilla/5.0 (Windows NT 10.0; Win64; x64) AppleWebKit/537.36 (KHTML, like Gecko) Chrome/137.0.0.0 Safari/537.36","WebKit","Chrome","137.0.0.0","Windows","10.0","https://app.prolific.com/","en-US,en;q=0.9,ar;q=0.8","66ce541cd8da920539a1c3cc","683db6dfa200031b80f2a654","6865076a5fa6908a1d0bb8ba","66ce541cd8da920539a1c3cc","2025-07-02T10:42:42.769Z","","","","","","AttribQ","","","","","","","","","","","","","","","","","","","","","","","","","","","","","","","","","","","","","","50"
"2447","","<div style=""width:500px;"">
  <p>How much control did you have over the ball?</p>
  </div>","19","html-slider-response","69","1314863","0.0-10.0-2.6","141","1","2025-07-02 10:20:48","80fe4187154257d5fb01684ea91b68b9","196.75.183.10","Mozilla/5.0 (Windows NT 10.0; Win64; x64) AppleWebKit/537.36 (KHTML, like Gecko) Chrome/137.0.0.0 Safari/537.36","WebKit","Chrome","137.0.0.0","Windows","10.0","https://app.prolific.com/","en-US,en;q=0.9,ar;q=0.8","66ce541cd8da920539a1c3cc","683db6dfa200031b80f2a654","6865076a5fa6908a1d0bb8ba","66ce541cd8da920539a1c3cc","2025-07-02T10:42:45.217Z","","","","","","ControlQ","","","","","","","","","","","","","","","","","","","","","","","","","","","","","","","","","","","","","","50"
"3464","","<div style=""width:500px;"">
  <p>How would you describe your current emotional state?</p>
  </div>","72","html-slider-response","70","1318327","0.0-10.0-3.6","141","1","2025-07-02 10:20:48","80fe4187154257d5fb01684ea91b68b9","196.75.183.10","Mozilla/5.0 (Windows NT 10.0; Win64; x64) AppleWebKit/537.36 (KHTML, like Gecko) Chrome/137.0.0.0 Safari/537.36","WebKit","Chrome","137.0.0.0","Windows","10.0","https://app.prolific.com/","en-US,en;q=0.9,ar;q=0.8","66ce541cd8da920539a1c3cc","683db6dfa200031b80f2a654","6865076a5fa6908a1d0bb8ba","66ce541cd8da920539a1c3cc","2025-07-02T10:42:48.681Z","","","","","","StressQ","","","","","","","","","","","","","","","","","","","","","","","","","","","","","","","","","","","","","","50"
"3143","","<div style=""width:500px;"">
  <p>What best describes how you currently feel?</p>
  </div>","84","html-slider-response","71","1321471","0.0-10.0-4.6","141","1","2025-07-02 10:20:48","80fe4187154257d5fb01684ea91b68b9","196.75.183.10","Mozilla/5.0 (Windows NT 10.0; Win64; x64) AppleWebKit/537.36 (KHTML, like Gecko) Chrome/137.0.0.0 Safari/537.36","WebKit","Chrome","137.0.0.0","Windows","10.0","https://app.prolific.com/","en-US,en;q=0.9,ar;q=0.8","66ce541cd8da920539a1c3cc","683db6dfa200031b80f2a654","6865076a5fa6908a1d0bb8ba","66ce541cd8da920539a1c3cc","2025-07-02T10:42:51.825Z","","","","","","MotivationQ","","","","","","","","","","","","","","","","","","","","","","","","","","","","","","","","","","","","","","50"
"","","","","ctl-task-cpt","72","1355236","0.0-10.0-0.7","141","1","2025-07-02 10:20:48","80fe4187154257d5fb01684ea91b68b9","196.75.183.10","Mozilla/5.0 (Windows NT 10.0; Win64; x64) AppleWebKit/537.36 (KHTML, like Gecko) Chrome/137.0.0.0 Safari/537.36","WebKit","Chrome","137.0.0.0","Windows","10.0","https://app.prolific.com/","en-US,en;q=0.9,ar;q=0.8","66ce541cd8da920539a1c3cc","683db6dfa200031b80f2a654","6865076a5fa6908a1d0bb8ba","66ce541cd8da920539a1c3cc","2025-07-02T10:43:25.590Z","","","","","","","","","","","","","","","","win-only","3","g1:SW,g2:NE","0.3","8","0","1325494","1127.5","6130.4","30747.2","1","4","8","6","2","-8","-8","6","14","0.045454545454545456","1439.6","3000","-3005","[""up"",""right""]","{""num_key_presses"":7,""num_perfect"":3,""num_errors"":0,""num_randdir"":4,""num_randdir_good_moves"":2,""num_whilered"":0,""num_whileblue"":0,""num_blue"":1,""num_good_moves"":5}","[411.57142857142856,428.47767857142856,0.2,411.57142857142856,428.47767857142856,102.8,411.57142857142856,428.47767857142856,204,411.57142857142856,428.47767857142856,309.6,411.57142857142856,428.47767857142856,412.8,440.57142857142856,419.47767857142856,513.5,600.5714285714286,312.47767857142856,618.4,674.5714285714286,245.47767857142856,718.7,688.5714285714286,232.47767857142856,823,711.5714285714286,215.47767857142856,924.5,736.5714285714286,168.47767857142856,1029.3,736.5714285714286,146.47767857142856,1134,737.5714285714286,129.47767857142856,1234.3,741.5714285714286,114.47767857142857,1339.4,741.5714285714286,113.47767857142857,1447.4,741.5714285714286,113.47767857142857,1549.1,741.5714285714286,113.47767857142857,1654.4,741.5714285714286,113.47767857142857,1759.5,741.5714285714286,113.47767857142857,1863.4,741.5714285714286,113.47767857142857,1968.3,741.5714285714286,113.47767857142857,2069,741.5714285714286,113.47767857142857,2174.8,741.5714285714286,113.47767857142857,2279,741.5714285714286,113.47767857142857,2383,741.5714285714286,113.47767857142857,2484.1,741.5714285714286,113.47767857142857,2589.4,741.5714285714286,113.47767857142857,2692.7,741.5714285714286,113.47767857142857,2792.8,741.5714285714286,113.47767857142857,2892.9,741.5714285714286,113.47767857142857,2994.1,741.5714285714286,113.47767857142857,3099.1,741.5714285714286,113.47767857142857,3203.1,741.5714285714286,113.47767857142857,3307.8,741.5714285714286,113.47767857142857,3408.1,741.5714285714286,113.47767857142857,3509.2,741.5714285714286,113.47767857142857,3613.1,741.5714285714286,113.47767857142857,3718.5,741.5714285714286,113.47767857142857,3818.6,741.5714285714286,113.47767857142857,3918.9,741.5714285714286,113.47767857142857,4023.6,741.5714285714286,113.47767857142857,4128,741.5714285714286,113.47767857142857,4228.5,741.5714285714286,113.47767857142857,4329.1,741.5714285714286,113.47767857142857,4433.7,741.5714285714286,113.47767857142857,4534.3,741.5714285714286,113.47767857142857,4634.5,741.5714285714286,113.47767857142857,4737.8,741.5714285714286,113.47767857142857,4839.6,741.5714285714286,113.47767857142857,4943.5]","[1397.1,1397.1,1000,0,397.1,""smooth"",""right"",""right"",""good_move"",3837.1,2439.9,2082.8,1397.2,357.1,""oops"",""up"",""down"",""bad_move"",6554.4,2717,2396.7,3837.4,320.3,""oops"",""right"",""left"",""bad_move"",9047.1,2492.5,2142.3,6554.6,350.2,""smooth"",""right"",""right"",""good_move"",15462,6414.6,2491.5,12601.7,368.8,""oops"",""right"",""right"",""good_move"",18294.1,2831.9,2199.7,15462.2,632.2,""oops"",""up"",""right"",""good_move"",21278,2983.7,2627,18294.3,356.7,""smooth"",""up"",""up"",""good_move""]","",""
"5274","","<div style=""width:500px;"">
  <p>What determined the result of this run?</p>
  </div>","4","html-slider-response","73","1360511","0.0-10.0-1.7","141","1","2025-07-02 10:20:48","80fe4187154257d5fb01684ea91b68b9","196.75.183.10","Mozilla/5.0 (Windows NT 10.0; Win64; x64) AppleWebKit/537.36 (KHTML, like Gecko) Chrome/137.0.0.0 Safari/537.36","WebKit","Chrome","137.0.0.0","Windows","10.0","https://app.prolific.com/","en-US,en;q=0.9,ar;q=0.8","66ce541cd8da920539a1c3cc","683db6dfa200031b80f2a654","6865076a5fa6908a1d0bb8ba","66ce541cd8da920539a1c3cc","2025-07-02T10:43:30.865Z","","","","","","AttribQ","","","","","","","","","","","","","","","","","","","","","","","","","","","","","","","","","","","","","","50"
"3792","","<div style=""width:500px;"">
  <p>How much control did you have over the ball?</p>
  </div>","1","html-slider-response","74","1364303","0.0-10.0-2.7","141","1","2025-07-02 10:20:48","80fe4187154257d5fb01684ea91b68b9","196.75.183.10","Mozilla/5.0 (Windows NT 10.0; Win64; x64) AppleWebKit/537.36 (KHTML, like Gecko) Chrome/137.0.0.0 Safari/537.36","WebKit","Chrome","137.0.0.0","Windows","10.0","https://app.prolific.com/","en-US,en;q=0.9,ar;q=0.8","66ce541cd8da920539a1c3cc","683db6dfa200031b80f2a654","6865076a5fa6908a1d0bb8ba","66ce541cd8da920539a1c3cc","2025-07-02T10:43:34.657Z","","","","","","ControlQ","","","","","","","","","","","","","","","","","","","","","","","","","","","","","","","","","","","","","","50"
"3623","","<div style=""width:500px;"">
  <p>How would you describe your current emotional state?</p>
  </div>","86","html-slider-response","75","1367927","0.0-10.0-3.7","141","1","2025-07-02 10:20:48","80fe4187154257d5fb01684ea91b68b9","196.75.183.10","Mozilla/5.0 (Windows NT 10.0; Win64; x64) AppleWebKit/537.36 (KHTML, like Gecko) Chrome/137.0.0.0 Safari/537.36","WebKit","Chrome","137.0.0.0","Windows","10.0","https://app.prolific.com/","en-US,en;q=0.9,ar;q=0.8","66ce541cd8da920539a1c3cc","683db6dfa200031b80f2a654","6865076a5fa6908a1d0bb8ba","66ce541cd8da920539a1c3cc","2025-07-02T10:43:38.281Z","","","","","","StressQ","","","","","","","","","","","","","","","","","","","","","","","","","","","","","","","","","","","","","","50"
"2199","","<div style=""width:500px;"">
  <p>What best describes how you currently feel?</p>
  </div>","44","html-slider-response","76","1370127","0.0-10.0-4.7","141","1","2025-07-02 10:20:48","80fe4187154257d5fb01684ea91b68b9","196.75.183.10","Mozilla/5.0 (Windows NT 10.0; Win64; x64) AppleWebKit/537.36 (KHTML, like Gecko) Chrome/137.0.0.0 Safari/537.36","WebKit","Chrome","137.0.0.0","Windows","10.0","https://app.prolific.com/","en-US,en;q=0.9,ar;q=0.8","66ce541cd8da920539a1c3cc","683db6dfa200031b80f2a654","6865076a5fa6908a1d0bb8ba","66ce541cd8da920539a1c3cc","2025-07-02T10:43:40.481Z","","","","","","MotivationQ","","","","","","","","","","","","","","","","","","","","","","","","","","","","","","","","","","","","","","50"
"","","","","ctl-task-cpt","77","1413155","0.0-10.0-0.8","141","1","2025-07-02 10:20:48","80fe4187154257d5fb01684ea91b68b9","196.75.183.10","Mozilla/5.0 (Windows NT 10.0; Win64; x64) AppleWebKit/537.36 (KHTML, like Gecko) Chrome/137.0.0.0 Safari/537.36","WebKit","Chrome","137.0.0.0","Windows","10.0","https://app.prolific.com/","en-US,en;q=0.9,ar;q=0.8","66ce541cd8da920539a1c3cc","683db6dfa200031b80f2a654","6865076a5fa6908a1d0bb8ba","66ce541cd8da920539a1c3cc","2025-07-02T10:44:23.509Z","","","","","","","","","","","","","","","","win-only","1","g1:NE,g2:SW","0.4","9","0","1374150.1","1351.4","6355.7","40010.4","1","4","8","6","2","-8","-9","0","6","0","1439.9","3000","-3010","[""down"",""left""]","{""num_key_presses"":9,""num_perfect"":4,""num_errors"":1,""num_randdir"":4,""num_randdir_good_moves"":1,""num_whilered"":0,""num_whileblue"":1,""num_blue"":3,""num_good_moves"":4}","[415.57142857142856,421.47767857142856,0,415.57142857142856,421.47767857142856,100.3,415.57142857142856,421.47767857142856,204.4,415.57142857142856,421.47767857142856,304.5,415.57142857142856,421.47767857142856,404.6,403.57142857142856,433.47767857142856,504.7,295.57142857142856,580.4776785714286,604.7,263.57142857142856,636.4776785714286,704.9,261.57142857142856,677.4776785714286,809.7,241.57142857142856,685.4776785714286,910.6,130.57142857142856,728.4776785714286,1015.7,128.57142857142856,728.4776785714286,1118.8,123.57142857142857,728.4776785714286,1219.3,106.57142857142857,728.4776785714286,1325.2,106.57142857142857,728.4776785714286,1425.4,106.57142857142857,728.4776785714286,1529.4,106.57142857142857,728.4776785714286,1634.2,106.57142857142857,728.4776785714286,1740.7,106.57142857142857,728.4776785714286,1844.4,106.57142857142857,728.4776785714286,1948.8,106.57142857142857,728.4776785714286,2049.6,106.57142857142857,728.4776785714286,2153.8,106.57142857142857,728.4776785714286,2255.2,106.57142857142857,728.4776785714286,2359.3,106.57142857142857,728.4776785714286,2460.2,106.57142857142857,728.4776785714286,2562.5,106.57142857142857,728.4776785714286,2664.4,106.57142857142857,728.4776785714286,2765.1,106.57142857142857,728.4776785714286,2869,106.57142857142857,728.4776785714286,2969.3,106.57142857142857,728.4776785714286,3074.6,106.57142857142857,728.4776785714286,3175.7,106.57142857142857,728.4776785714286,3280.1,106.57142857142857,728.4776785714286,3385.4,106.57142857142857,728.4776785714286,3485.4,106.57142857142857,728.4776785714286,3589.4,106.57142857142857,728.4776785714286,3689.5,106.57142857142857,728.4776785714286,3789.6,106.57142857142857,728.4776785714286,3894.6,106.57142857142857,728.4776785714286,3995.6,106.57142857142857,728.4776785714286,4099.1,106.57142857142857,728.4776785714286,4199.1,106.57142857142857,728.4776785714286,4299.1,106.57142857142857,728.4776785714286,4403.9,106.57142857142857,728.4776785714286,4503.9,106.57142857142857,728.4776785714286,4604,106.57142857142857,728.4776785714286,4704.5,106.57142857142857,728.4776785714286,4804.5,106.57142857142857,728.4776785714286,4909.2]","[1361.7,1361.7,1000,0,361.7,""smooth"",""left"",""left"",""good_move"",4921.8,3559.9,3237.5,1362,322.4,""oops"",""down"",""up"",""bad_move"",7940.6,3018.5,2627.6,4922.1,390.9,""while_blue"",""down"",""left"",""good_move"",11098,3157.2,2689.5,7940.8,467.7,""oops"",""down"",""right"",""bad_move"",14342.6,3244.4,2911.7,11098.2,332.7,""smooth"",""right"",""right"",""bad_move"",17393.8,3051,2688.5,14342.8,362.5,""oops"",""up"",""up"",""bad_move"",20464.7,3070.7,2743.3,17394,327.4,""smooth"",""down"",""down"",""good_move"",22492.7,2027.6,1710.3,20465.1,317.3,""smooth"",""right"",""right"",""bad_move"",28592.7,6099.7,2353,25910.8,328.9,""oops"",""down"",""down"",""good_move""]","",""
"5939","","<div style=""width:500px;"">
  <p>What determined the result of this run?</p>
  </div>","7","html-slider-response","78","1419095","0.0-10.0-1.8","141","1","2025-07-02 10:20:48","80fe4187154257d5fb01684ea91b68b9","196.75.183.10","Mozilla/5.0 (Windows NT 10.0; Win64; x64) AppleWebKit/537.36 (KHTML, like Gecko) Chrome/137.0.0.0 Safari/537.36","WebKit","Chrome","137.0.0.0","Windows","10.0","https://app.prolific.com/","en-US,en;q=0.9,ar;q=0.8","66ce541cd8da920539a1c3cc","683db6dfa200031b80f2a654","6865076a5fa6908a1d0bb8ba","66ce541cd8da920539a1c3cc","2025-07-02T10:44:29.449Z","","","","","","AttribQ","","","","","","","","","","","","","","","","","","","","","","","","","","","","","","","","","","","","","","50"
"5039","","<div style=""width:500px;"">
  <p>How much control did you have over the ball?</p>
  </div>","1","html-slider-response","79","1424135","0.0-10.0-2.8","141","1","2025-07-02 10:20:48","80fe4187154257d5fb01684ea91b68b9","196.75.183.10","Mozilla/5.0 (Windows NT 10.0; Win64; x64) AppleWebKit/537.36 (KHTML, like Gecko) Chrome/137.0.0.0 Safari/537.36","WebKit","Chrome","137.0.0.0","Windows","10.0","https://app.prolific.com/","en-US,en;q=0.9,ar;q=0.8","66ce541cd8da920539a1c3cc","683db6dfa200031b80f2a654","6865076a5fa6908a1d0bb8ba","66ce541cd8da920539a1c3cc","2025-07-02T10:44:34.489Z","","","","","","ControlQ","","","","","","","","","","","","","","","","","","","","","","","","","","","","","","","","","","","","","","50"
"3991","","<div style=""width:500px;"">
  <p>How would you describe your current emotional state?</p>
  </div>","88","html-slider-response","80","1428126","0.0-10.0-3.8","141","1","2025-07-02 10:20:48","80fe4187154257d5fb01684ea91b68b9","196.75.183.10","Mozilla/5.0 (Windows NT 10.0; Win64; x64) AppleWebKit/537.36 (KHTML, like Gecko) Chrome/137.0.0.0 Safari/537.36","WebKit","Chrome","137.0.0.0","Windows","10.0","https://app.prolific.com/","en-US,en;q=0.9,ar;q=0.8","66ce541cd8da920539a1c3cc","683db6dfa200031b80f2a654","6865076a5fa6908a1d0bb8ba","66ce541cd8da920539a1c3cc","2025-07-02T10:44:38.481Z","","","","","","StressQ","","","","","","","","","","","","","","","","","","","","","","","","","","","","","","","","","","","","","","50"
"1943","","<div style=""width:500px;"">
  <p>What best describes how you currently feel?</p>
  </div>","36","html-slider-response","81","1430071","0.0-10.0-4.8","141","1","2025-07-02 10:20:48","80fe4187154257d5fb01684ea91b68b9","196.75.183.10","Mozilla/5.0 (Windows NT 10.0; Win64; x64) AppleWebKit/537.36 (KHTML, like Gecko) Chrome/137.0.0.0 Safari/537.36","WebKit","Chrome","137.0.0.0","Windows","10.0","https://app.prolific.com/","en-US,en;q=0.9,ar;q=0.8","66ce541cd8da920539a1c3cc","683db6dfa200031b80f2a654","6865076a5fa6908a1d0bb8ba","66ce541cd8da920539a1c3cc","2025-07-02T10:44:40.425Z","","","","","","MotivationQ","","","","","","","","","","","","","","","","","","","","","","","","","","","","","","","","","","","","","","50"
"","","","","ctl-task-cpt","82","1458383","0.0-10.0-0.9","141","1","2025-07-02 10:20:48","80fe4187154257d5fb01684ea91b68b9","196.75.183.10","Mozilla/5.0 (Windows NT 10.0; Win64; x64) AppleWebKit/537.36 (KHTML, like Gecko) Chrome/137.0.0.0 Safari/537.36","WebKit","Chrome","137.0.0.0","Windows","10.0","https://app.prolific.com/","en-US,en;q=0.9,ar;q=0.8","66ce541cd8da920539a1c3cc","683db6dfa200031b80f2a654","6865076a5fa6908a1d0bb8ba","66ce541cd8da920539a1c3cc","2025-07-02T10:45:08.737Z","","","","","","","","","","","","","","","","win-only","0","g1:NW,g2:SE","0.5","10","0","1434094","1311.2","6315.3","25295.1","1","4","4","6","2","4","4","4","0","0.030303030303030304","1959.9","3000","735","[""down"",""right""]","{""num_key_presses"":6,""num_perfect"":4,""num_errors"":0,""num_randdir"":2,""num_randdir_good_moves"":2,""num_whilered"":0,""num_whileblue"":0,""num_blue"":1,""num_good_moves"":6}","[409.57142857142856,424.47767857142856,0.1,409.57142857142856,424.47767857142856,104.3,409.57142857142856,424.47767857142856,209.2,411.57142857142856,427.47767857142856,314,411.57142857142856,427.47767857142856,414.6,397.57142857142856,417.47767857142856,514.8,301.57142857142856,348.47767857142856,619.7,266.57142857142856,316.47767857142856,720.1,239.57142857142856,289.47767857142856,823.9,183.57142857142856,224.47767857142856,924.6,135.57142857142856,187.47767857142856,1029.3,126.57142857142857,174.47767857142856,1129.3,125.57142857142857,170.47767857142856,1233.9,109.57142857142857,149.47767857142856,1334.7,119.57142857142857,142.47767857142856,1438.9,602.5714285714286,507.47767857142856,1539,708.5714285714286,617.4776785714286,1639.1,744.5714285714286,705.4776785714286,1740.2,750.5714285714286,732.4776785714286,1844.3,755.5714285714286,751.4776785714286,1945.1,755.5714285714286,751.4776785714286,2047.2,755.5714285714286,751.4776785714286,2149,757.5714285714286,753.4776785714286,2249.6,757.5714285714286,753.4776785714286,2350.2,757.5714285714286,753.4776785714286,2455,757.5714285714286,753.4776785714286,2559.1,757.5714285714286,753.4776785714286,2663.9,757.5714285714286,753.4776785714286,2765.1,757.5714285714286,753.4776785714286,2870.1,757.5714285714286,753.4776785714286,2974,757.5714285714286,753.4776785714286,3075.2,757.5714285714286,753.4776785714286,3175.6,757.5714285714286,753.4776785714286,3279,757.5714285714286,753.4776785714286,3379,757.5714285714286,753.4776785714286,3479,757.5714285714286,753.4776785714286,3579.1,757.5714285714286,753.4776785714286,3684.1,757.5714285714286,753.4776785714286,3784.1,757.5714285714286,753.4776785714286,3885.4,757.5714285714286,753.4776785714286,3990.1,757.5714285714286,753.4776785714286,4094.2,757.5714285714286,753.4776785714286,4194.5,757.5714285714286,753.4776785714286,4294.5,757.5714285714286,753.4776785714286,4399.4,757.5714285714286,753.4776785714286,4499.5,757.5714285714286,753.4776785714286,4604.2,757.5714285714286,753.4776785714286,4704.7,757.5714285714286,753.4776785714286,4810.6,757.5714285714286,753.4776785714286,4913.9]","[1393.2,1393.2,1000,0,393.2,""smooth"",""right"",""right"",""good_move"",4263.2,2869.8,2500.8,1393.4,369,""smooth"",""down"",""down"",""good_move"",10364.1,6100.6,2563.7,7445.8,354.6,""oops"",""right"",""right"",""good_move"",12786.1,2421.7,2022,10364.4,399.7,""smooth"",""down"",""down"",""good_move"",16182.2,3395.9,2987.3,12786.3,408.6,""oops"",""right"",""down"",""good_move"",18892.1,2709.8,2344.3,16182.3,365.5,""smooth"",""right"",""right"",""good_move""]","",""
"3087","","<div style=""width:500px;"">
  <p>What determined the result of this run?</p>
  </div>","37","html-slider-response","83","1461471","0.0-10.0-1.9","141","1","2025-07-02 10:20:48","80fe4187154257d5fb01684ea91b68b9","196.75.183.10","Mozilla/5.0 (Windows NT 10.0; Win64; x64) AppleWebKit/537.36 (KHTML, like Gecko) Chrome/137.0.0.0 Safari/537.36","WebKit","Chrome","137.0.0.0","Windows","10.0","https://app.prolific.com/","en-US,en;q=0.9,ar;q=0.8","66ce541cd8da920539a1c3cc","683db6dfa200031b80f2a654","6865076a5fa6908a1d0bb8ba","66ce541cd8da920539a1c3cc","2025-07-02T10:45:11.825Z","","","","","","AttribQ","","","","","","","","","","","","","","","","","","","","","","","","","","","","","","","","","","","","","","50"
"5352","","<div style=""width:500px;"">
  <p>How much control did you have over the ball?</p>
