"rt","response_timestamp","stimulus","response","trial_type","trial_index","time_elapsed","internal_node_id","run_id","condition","recorded_at","source_code_version","ip","user_agent","device","browser","browser_version","platform","platform_version","referer","accept_language","PROLIFIC_PID","STUDY_ID","SESSION_ID","prolific_id","realtime","view_history","question_order","consent","success","question_id","eventType","responses","item_order","radio_event_ids","radio_event_times","key_event_times","mouse_event_times","straightlining","zigzagging","honeypot","which_type","canvas_config","goals_layout","control_level","trial_number","tutorial_trial_number","trial_start_time","phase1_start_time","phase2_start_time","phase3_start_time","goal_1_value","goal_1_distance","goal_2_value","goal_2_distance","goal_selected","outcome","outcome_total","participant_final_score","participant_initial_score","participant_final_score_prop","goal_choice_rt","allocated_time","allocated_time_remaining","goal_direction","counts","mouse_movements","key_presses","correct","slider_start"
"2491","1751451604998","<p style='font-size:40px;line-height:1.25'><strong>Welcome to the experiment!</strong></p><p style='font-size:1.1em;line-height:1.25'>Thank you for your interest in our experiment! Before you begin, it is important that we obtain your informed consent to participate in the study.</p><p style='font-size:1.1em;line-height:1.25'>On the next screen will be an <strong>information sheet</strong> for you to read. To participate in the study we need you to read this information sheet and the following consent form carefully. If you agree with all the statements, please click the <strong>I agree</strong> button.</p><p style='font-size:1.1em;line-height:1.25'>Press <strong>Next</strong> to read the information sheet.</p>","0","custom-html-button-response","0","2493","0.0-0.0","121","1","2025-07-02 10:20:01","80fe4187154257d5fb01684ea91b68b9","188.36.3.22","Mozilla/5.0 (Windows NT 10.0; Win64; x64) AppleWebKit/537.36 (KHTML, like Gecko) Chrome/137.0.0.0 Safari/537.36","WebKit","Chrome","137.0.0.0","Windows","10.0","https://app.prolific.com/","hu-HU,hu;q=0.9,en-US;q=0.8,en;q=0.7","66d749dad04d6166d7928a7f","683db6dfa200031b80f2a654","68650755851971074672d75a","66d749dad04d6166d7928a7f","2025-07-02T10:20:04.999Z","","","","","","","","","","","","","","","","","","","","","","","","","","","","","","","","","","","","","","","","","","","",""
"2877","","","","instructions","1","5371","0.0-1.0","121","1","2025-07-02 10:20:01","80fe4187154257d5fb01684ea91b68b9","188.36.3.22","Mozilla/5.0 (Windows NT 10.0; Win64; x64) AppleWebKit/537.36 (KHTML, like Gecko) Chrome/137.0.0.0 Safari/537.36","WebKit","Chrome","137.0.0.0","Windows","10.0","https://app.prolific.com/","hu-HU,hu;q=0.9,en-US;q=0.8,en;q=0.7","66d749dad04d6166d7928a7f","683db6dfa200031b80f2a654","68650755851971074672d75a","66d749dad04d6166d7928a7f","","[{""page_index"":0,""viewing_time"":1811},{""page_index"":1,""viewing_time"":1066}]","","","","","","","","","","","","","","","","","","","","","","","","","","","","","","","","","","","","","","","","","","",""
"30142","","","{""Q0"":"""",""Q1"":"""",""Q2"":"""",""Q3"":"""",""Q4"":"""",""Q5"":"""",""Q6"":""I agree""}","survey-multi-choice","2","35516","0.0-2.0","121","1","2025-07-02 10:20:01","80fe4187154257d5fb01684ea91b68b9","188.36.3.22","Mozilla/5.0 (Windows NT 10.0; Win64; x64) AppleWebKit/537.36 (KHTML, like Gecko) Chrome/137.0.0.0 Safari/537.36","WebKit","Chrome","137.0.0.0","Windows","10.0","https://app.prolific.com/","hu-HU,hu;q=0.9,en-US;q=0.8,en;q=0.7","66d749dad04d6166d7928a7f","683db6dfa200031b80f2a654","68650755851971074672d75a","66d749dad04d6166d7928a7f","","","[0,1,2,3,4,5,6]","true","","","","","","","","","","","","","","","","","","","","","","","","","","","","","","","","","","","","","","","","",""
"240564","","","","fullscreen","3","277091","0.0-4.0","121","1","2025-07-02 10:20:01","80fe4187154257d5fb01684ea91b68b9","188.36.3.22","Mozilla/5.0 (Windows NT 10.0; Win64; x64) AppleWebKit/537.36 (KHTML, like Gecko) Chrome/137.0.0.0 Safari/537.36","WebKit","Chrome","137.0.0.0","Windows","10.0","https://app.prolific.com/","hu-HU,hu;q=0.9,en-US;q=0.8,en;q=0.7","66d749dad04d6166d7928a7f","683db6dfa200031b80f2a654","68650755851971074672d75a","66d749dad04d6166d7928a7f","","","","","true","","","","","","","","","","","","","","","","","","","","","","","","","","","","","","","","","","","","","","","",""
"3043","1751451882642"," <p style='font-size:1.1em;line-height:1.25'>Thank you for completing the consent form and closing all other tabs.</p><p style='font-size:1.1em;line-height:1.25'>We will now invite you to fill in some demographic information and questionnaires, before starting the game.<br>This will take about 5 minutes.<br></p><p style='font-size:1.1em;line-height:1.25'>Press the <strong>Next</strong> button to continue.</p>","0","custom-html-button-response","4","280136","0.0-5.0","121","1","2025-07-02 10:20:01","80fe4187154257d5fb01684ea91b68b9","188.36.3.22","Mozilla/5.0 (Windows NT 10.0; Win64; x64) AppleWebKit/537.36 (KHTML, like Gecko) Chrome/137.0.0.0 Safari/537.36","WebKit","Chrome","137.0.0.0","Windows","10.0","https://app.prolific.com/","hu-HU,hu;q=0.9,en-US;q=0.8,en;q=0.7","66d749dad04d6166d7928a7f","683db6dfa200031b80f2a654","68650755851971074672d75a","66d749dad04d6166d7928a7f","2025-07-02T10:24:42.642Z","","","","","","","","","","","","","","","","","","","","","","","","","","","","","","","","","","","","","","","","","","","",""
"20263","","","{""age"":""22""}","survey-text","5","300401","0.0-6.0-0.0","121","1","2025-07-02 10:20:01","80fe4187154257d5fb01684ea91b68b9","188.36.3.22","Mozilla/5.0 (Windows NT 10.0; Win64; x64) AppleWebKit/537.36 (KHTML, like Gecko) Chrome/137.0.0.0 Safari/537.36","WebKit","Chrome","137.0.0.0","Windows","10.0","https://app.prolific.com/","hu-HU,hu;q=0.9,en-US;q=0.8,en;q=0.7","66d749dad04d6166d7928a7f","683db6dfa200031b80f2a654","68650755851971074672d75a","66d749dad04d6166d7928a7f","","","","","","0","demographics","","","","","","","","","","","","","","","","","","","","","","","","","","","","","","","","","","","","","",""
"2664","","","{""gender_identity"":""male/man""}","survey-multi-choice","6","303066","0.0-6.0-1.0","121","1","2025-07-02 10:20:01","80fe4187154257d5fb01684ea91b68b9","188.36.3.22","Mozilla/5.0 (Windows NT 10.0; Win64; x64) AppleWebKit/537.36 (KHTML, like Gecko) Chrome/137.0.0.0 Safari/537.36","WebKit","Chrome","137.0.0.0","Windows","10.0","https://app.prolific.com/","hu-HU,hu;q=0.9,en-US;q=0.8,en;q=0.7","66d749dad04d6166d7928a7f","683db6dfa200031b80f2a654","68650755851971074672d75a","66d749dad04d6166d7928a7f","","","[0]","","","1","demographics","","","","","","","","","","","","","","","","","","","","","","","","","","","","","","","","","","","","","",""
"2032","","","{""assigned_sex"":""male""}","survey-multi-choice","7","305099","0.0-6.0-2.0","121","1","2025-07-02 10:20:01","80fe4187154257d5fb01684ea91b68b9","188.36.3.22","Mozilla/5.0 (Windows NT 10.0; Win64; x64) AppleWebKit/537.36 (KHTML, like Gecko) Chrome/137.0.0.0 Safari/537.36","WebKit","Chrome","137.0.0.0","Windows","10.0","https://app.prolific.com/","hu-HU,hu;q=0.9,en-US;q=0.8,en;q=0.7","66d749dad04d6166d7928a7f","683db6dfa200031b80f2a654","68650755851971074672d75a","66d749dad04d6166d7928a7f","","","[0]","","","2","demographics","","","","","","","","","","","","","","","","","","","","","","","","","","","","","","","","","","","","","",""
"3252","","","{""menstrual_cycle"":""No""}","survey-multi-choice","8","308353","0.0-6.0-3.0","121","1","2025-07-02 10:20:01","80fe4187154257d5fb01684ea91b68b9","188.36.3.22","Mozilla/5.0 (Windows NT 10.0; Win64; x64) AppleWebKit/537.36 (KHTML, like Gecko) Chrome/137.0.0.0 Safari/537.36","WebKit","Chrome","137.0.0.0","Windows","10.0","https://app.prolific.com/","hu-HU,hu;q=0.9,en-US;q=0.8,en;q=0.7","66d749dad04d6166d7928a7f","683db6dfa200031b80f2a654","68650755851971074672d75a","66d749dad04d6166d7928a7f","","","[0]","","","4","demographics","","","","","","","","","","","","","","","","","","","","","","","","","","","","","","","","","","","","","",""
"4452","","","{""education"":""Bachelor's Degree (e.g., BA)""}","survey-multi-choice","9","312806","0.0-6.0-4.0","121","1","2025-07-02 10:20:01","80fe4187154257d5fb01684ea91b68b9","188.36.3.22","Mozilla/5.0 (Windows NT 10.0; Win64; x64) AppleWebKit/537.36 (KHTML, like Gecko) Chrome/137.0.0.0 Safari/537.36","WebKit","Chrome","137.0.0.0","Windows","10.0","https://app.prolific.com/","hu-HU,hu;q=0.9,en-US;q=0.8,en;q=0.7","66d749dad04d6166d7928a7f","683db6dfa200031b80f2a654","68650755851971074672d75a","66d749dad04d6166d7928a7f","","","[0]","","","5","demographics","","","","","","","","","","","","","","","","","","","","","","","","","","","","","","","","","","","","","",""
"16694","","","{""education"":""Vocational Qualifications (e.g. City & Guilds)""}","survey-multi-choice","10","329502","0.0-6.0-5.0","121","1","2025-07-02 10:20:01","80fe4187154257d5fb01684ea91b68b9","188.36.3.22","Mozilla/5.0 (Windows NT 10.0; Win64; x64) AppleWebKit/537.36 (KHTML, like Gecko) Chrome/137.0.0.0 Safari/537.36","WebKit","Chrome","137.0.0.0","Windows","10.0","https://app.prolific.com/","hu-HU,hu;q=0.9,en-US;q=0.8,en;q=0.7","66d749dad04d6166d7928a7f","683db6dfa200031b80f2a654","68650755851971074672d75a","66d749dad04d6166d7928a7f","2025-07-02T10:25:32.008Z","","[0]","","","6","demographics","","","","","","","","","","","","","","","","","","","","","","","","","","","","","","","","","","","","","",""
"12055","","","{""mental_health_condition"":""No"",""mental_health_treatment"":""No"",""psychiatric_medication"":""No""}","survey-text","11","341560","0.0-7.0-0.0","121","1","2025-07-02 10:20:01","80fe4187154257d5fb01684ea91b68b9","188.36.3.22","Mozilla/5.0 (Windows NT 10.0; Win64; x64) AppleWebKit/537.36 (KHTML, like Gecko) Chrome/137.0.0.0 Safari/537.36","WebKit","Chrome","137.0.0.0","Windows","10.0","https://app.prolific.com/","hu-HU,hu;q=0.9,en-US;q=0.8,en;q=0.7","66d749dad04d6166d7928a7f","683db6dfa200031b80f2a654","68650755851971074672d75a","66d749dad04d6166d7928a7f","2025-07-02T10:25:44.066Z","","","","","1","mental_health","","","","","","","","","","","","","","","","","","","","","","","","","","","","","","","","","","","","","",""
"9624","","","{""depression_history"":[""No""]}","survey-multi-select","12","351187","0.0-7.0-1.0","121","1","2025-07-02 10:20:01","80fe4187154257d5fb01684ea91b68b9","188.36.3.22","Mozilla/5.0 (Windows NT 10.0; Win64; x64) AppleWebKit/537.36 (KHTML, like Gecko) Chrome/137.0.0.0 Safari/537.36","WebKit","Chrome","137.0.0.0","Windows","10.0","https://app.prolific.com/","hu-HU,hu;q=0.9,en-US;q=0.8,en;q=0.7","66d749dad04d6166d7928a7f","683db6dfa200031b80f2a654","68650755851971074672d75a","66d749dad04d6166d7928a7f","","","[0]","","","","mental_health","","","","","","","","","","","","","","","","","","","","","","","","","","","","","","","","","","","","","",""
"398717.60000002384","","","","survey-template","13","749912","0.0-7.0-3.0","121","1","2025-07-02 10:20:01","80fe4187154257d5fb01684ea91b68b9","188.36.3.22","Mozilla/5.0 (Windows NT 10.0; Win64; x64) AppleWebKit/537.36 (KHTML, like Gecko) Chrome/137.0.0.0 Safari/537.36","WebKit","Chrome","137.0.0.0","Windows","10.0","https://app.prolific.com/","hu-HU,hu;q=0.9,en-US;q=0.8,en;q=0.7","66d749dad04d6166d7928a7f","683db6dfa200031b80f2a654","68650755851971074672d75a","66d749dad04d6166d7928a7f","2025-07-02T10:32:32.418Z","","","","","","ius","{""Q01"":""1"",""Q02"":""2"",""Q03"":""0"",""Q04"":""2"",""Q05"":""0"",""Q06"":""1"",""Q07"":""1"",""Q08"":""0"",""Q09"":""3"",""Q10"":""1"",""Q11"":""1"",""Q12"":""2"",""Q13"":""2""}","[0,1,2,3,4,5,6,7,8,9,10,11,12]","[""Q01"",""Q02"",""Q06"",""Q05"",""Q04"",""Q03"",""Q07"",""Q08"",""Q13"",""Q12"",""Q10"",""Q09"",""Q11""]","[192301.30000007153,194216.10000002384,252963.20000004768,256491.89999997616,258156,261945.20000004768,264637.60000002384,270665.5,279549.7000000477,281865,390267.89999997616,392371.60000002384,395204.39999997616]","[]","[191639.80000007153,192301.30000007153,194216.10000002384,252963.20000004768,255302.30000007153,256491.89999997616,258156,261945.20000004768,264637.60000002384,270665.5,279549.7000000477,281494.5,281865,389893,390267.89999997616,392371.60000002384,395204.39999997616,398715.10000002384]","0.38461538461538464","0.3333333333333333","0","","","","","","","","","","","","","","","","","","","","","","","","","","","","",""
"4355","1751452356774","<p style='font-size:1.1em;line-height:1.25'>In the following, we will ask you a few questions relating to your experiences over the past month.<br></p><p style='font-size:1.1em;line-height:1.25'>Press the <strong>Next</strong> button to continue.</p>","0","custom-html-button-response","14","754269","0.0-7.0-4.0","121","1","2025-07-02 10:20:01","80fe4187154257d5fb01684ea91b68b9","188.36.3.22","Mozilla/5.0 (Windows NT 10.0; Win64; x64) AppleWebKit/537.36 (KHTML, like Gecko) Chrome/137.0.0.0 Safari/537.36","WebKit","Chrome","137.0.0.0","Windows","10.0","https://app.prolific.com/","hu-HU,hu;q=0.9,en-US;q=0.8,en;q=0.7","66d749dad04d6166d7928a7f","683db6dfa200031b80f2a654","68650755851971074672d75a","66d749dad04d6166d7928a7f","2025-07-02T10:32:36.775Z","","","","","","","","","","","","","","","","","","","","","","","","","","","","","","","","","","","","","","","","","","","",""
"55173.699999928474","","","","survey-template","15","809445","0.0-7.0-5.0","121","1","2025-07-02 10:20:01","80fe4187154257d5fb01684ea91b68b9","188.36.3.22","Mozilla/5.0 (Windows NT 10.0; Win64; x64) AppleWebKit/537.36 (KHTML, like Gecko) Chrome/137.0.0.0 Safari/537.36","WebKit","Chrome","137.0.0.0","Windows","10.0","https://app.prolific.com/","hu-HU,hu;q=0.9,en-US;q=0.8,en;q=0.7","66d749dad04d6166d7928a7f","683db6dfa200031b80f2a654","68650755851971074672d75a","66d749dad04d6166d7928a7f","2025-07-02T10:33:31.951Z","","","","","","pss","{""Q01"":""1"",""Q02"":""0"",""Q03"":""1"",""Q04"":""1"",""Q05"":""1"",""Q06"":""1"",""Q07"":""1"",""Q08"":""1"",""Q09"":""1"",""Q10"":""0""}","[0,1,2,3,4,5,6,7,8,9]","[""Q01"",""Q02"",""Q03"",""Q04"",""Q05"",""Q06"",""Q07"",""Q08"",""Q10"",""Q09"",""Q10""]","[4234.299999952316,7198.699999928474,9910,14085.299999952316,17120.399999976158,19708.600000023842,24875.699999928474,28419.299999952316,38654.10000002384,45319.299999952316,46259.299999952316]","[]","[0.10000002384185791,4234.299999952316,7198.699999928474,9397.699999928474,9910,13306.399999976158,13769.199999928474,14085.299999952316,17120.399999976158,19708.600000023842,24875.699999928474,27869.199999928474,28419.299999952316,38654.10000002384,40279.60000002384,43746.799999952316,44192.699999928474,45319.299999952316,46259.299999952316,52387.89999997616,55172.39999997616]","0.4","0.3333333333333333","0","","","","","","","","","","","","","","","","","","","","","","","","","","","","",""
"2627","1751452414579","<p style='font-size:1.1em;line-height:1.25'>Thank you for your answers! Now we will ask you a few more questions relating to your feelings in the last 24 hours.<br></p><p style='font-size:1.1em;line-height:1.25'>Press the <strong>Next</strong> button to continue.</p>","0","custom-html-button-response","16","812074","0.0-7.0-6.0","121","1","2025-07-02 10:20:01","80fe4187154257d5fb01684ea91b68b9","188.36.3.22","Mozilla/5.0 (Windows NT 10.0; Win64; x64) AppleWebKit/537.36 (KHTML, like Gecko) Chrome/137.0.0.0 Safari/537.36","WebKit","Chrome","137.0.0.0","Windows","10.0","https://app.prolific.com/","hu-HU,hu;q=0.9,en-US;q=0.8,en;q=0.7","66d749dad04d6166d7928a7f","683db6dfa200031b80f2a654","68650755851971074672d75a","66d749dad04d6166d7928a7f","2025-07-02T10:33:34.580Z","","","","","","","","","","","","","","","","","","","","","","","","","","","","","","","","","","","","","","","","","","","",""
"69174.39999997616","","","","survey-template","17","881253","0.0-7.0-7.0","121","1","2025-07-02 10:20:01","80fe4187154257d5fb01684ea91b68b9","188.36.3.22","Mozilla/5.0 (Windows NT 10.0; Win64; x64) AppleWebKit/537.36 (KHTML, like Gecko) Chrome/137.0.0.0 Safari/537.36","WebKit","Chrome","137.0.0.0","Windows","10.0","https://app.prolific.com/","hu-HU,hu;q=0.9,en-US;q=0.8,en;q=0.7","66d749dad04d6166d7928a7f","683db6dfa200031b80f2a654","68650755851971074672d75a","66d749dad04d6166d7928a7f","2025-07-02T10:34:43.759Z","","","","","","drsp","{""Q01"":""0"",""Q02"":""0"",""Q03"":""0"",""Q04"":""1"",""Q05"":""1"",""Q06"":""0"",""Q07"":""0"",""Q08"":""0"",""Q09"":""0"",""Q10"":""1"",""Q11"":""1"",""Q12"":""0"",""Q13"":""0"",""Q14"":""2"",""Q15"":""2"",""Q16"":""1"",""Q17"":""0"",""Q18"":""0"",""Q19"":""0"",""Q20"":""1"",""Q21"":""1""}","[0,1,2,3,4,5,6,7,8,9,10,11,12,13,14,15,16,17,18,19,20]","[""Q02"",""Q01"",""Q03"",""Q04"",""Q05"",""Q06"",""Q07"",""Q08"",""Q10"",""Q09"",""Q11"",""Q12"",""Q13"",""Q14"",""Q15"",""Q16"",""Q17"",""Q18"",""Q19"",""Q20"",""Q21""]","[5242.600000023842,5960.5,7478.200000047684,8968.899999976158,10420.399999976158,27436.100000023842,28737.300000071526,32850.200000047684,34604.800000071526,35688.5,37180.89999997616,40191.300000071526,41749,43105.89999997616,45247.700000047684,48807.10000002384,51394.10000002384,52738.39999997616,58550.10000002384,61120.10000002384,64829.39999997616]","[]","[0,4627.899999976158,5242.600000023842,5960.5,7478.200000047684,8968.899999976158,10420.399999976158,27436.100000023842,28737.300000071526,29334.399999976158,31546.100000023842,32850.200000047684,34143,34604.800000071526,35263.10000002384,35688.5,37180.89999997616,40191.300000071526,41749,43105.89999997616,45247.700000047684,48807.10000002384,50641.60000002384,51394.10000002384,52290.300000071526,52738.39999997616,58550.10000002384,61120.10000002384,64670.10000002384,64829.39999997616,67931.89999997616,69172.20000004768]","0.5714285714285714","0.35","0","","","","","","","","","","","","","","","","","","","","","","","","","","","","",""
"21455.399999976158","","","","survey-template","18","902711","0.0-7.0-8.0","121","1","2025-07-02 10:20:01","80fe4187154257d5fb01684ea91b68b9","188.36.3.22","Mozilla/5.0 (Windows NT 10.0; Win64; x64) AppleWebKit/537.36 (KHTML, like Gecko) Chrome/137.0.0.0 Safari/537.36","WebKit","Chrome","137.0.0.0","Windows","10.0","https://app.prolific.com/","hu-HU,hu;q=0.9,en-US;q=0.8,en;q=0.7","66d749dad04d6166d7928a7f","683db6dfa200031b80f2a654","68650755851971074672d75a","66d749dad04d6166d7928a7f","2025-07-02T10:35:05.217Z","","","","","","stress","{""Q01"":""1"",""Q02"":""2"",""Q03"":""0""}","[0,1,2]","[""Q01"",""Q02"",""Q03""]","[7503.700000047684,11965.100000023842,17465.200000047684]","[]","[7503.700000047684,11965.100000023842,17465.200000047684,20336.100000023842,21454.899999976158]","0.3333333333333333","0","0","","","","","","","","","","","","","","","","","","","","","","","","","","","","",""
"250021","","","","instructions","19","1152732","0.0-8.0-0.0","121","1","2025-07-02 10:20:01","80fe4187154257d5fb01684ea91b68b9","188.36.3.22","Mozilla/5.0 (Windows NT 10.0; Win64; x64) AppleWebKit/537.36 (KHTML, like Gecko) Chrome/137.0.0.0 Safari/537.36","WebKit","Chrome","137.0.0.0","Windows","10.0","https://app.prolific.com/","hu-HU,hu;q=0.9,en-US;q=0.8,en;q=0.7","66d749dad04d6166d7928a7f","683db6dfa200031b80f2a654","68650755851971074672d75a","66d749dad04d6166d7928a7f","","[{""page_index"":0,""viewing_time"":9638},{""page_index"":1,""viewing_time"":39432},{""page_index"":2,""viewing_time"":107988},{""page_index"":3,""viewing_time"":92962}]","","","","","","","","","","","","","","","","","","","","","","","","","","","","","","","","","","","","","","","","","","",""
"","","","","ctl-task-cpt","20","1185473","0.0-8.0-1.0","121","1","2025-07-02 10:20:01","80fe4187154257d5fb01684ea91b68b9","188.36.3.22","Mozilla/5.0 (Windows NT 10.0; Win64; x64) AppleWebKit/537.36 (KHTML, like Gecko) Chrome/137.0.0.0 Safari/537.36","WebKit","Chrome","137.0.0.0","Windows","10.0","https://app.prolific.com/","hu-HU,hu;q=0.9,en-US;q=0.8,en;q=0.7","66d749dad04d6166d7928a7f","683db6dfa200031b80f2a654","68650755851971074672d75a","66d749dad04d6166d7928a7f","","","","","","","","","","","","","","","","","win-only","1","g1:NE,g2:SW","1","0","1","1153968.8","2869.7","6871.4","29732.9","2","4","4","6","2","-4","-6","0","0","0","4001.7","4000","-2985","[""down"",""left""]","{""num_key_presses"":6,""num_perfect"":4,""num_errors"":2,""num_randdir"":0,""num_randdir_good_moves"":0,""num_whilered"":0,""num_whileblue"":0,""num_blue"":1,""num_good_moves"":4}","[419.57142857142856,417.47767857142856,0.2,419.57142857142856,417.47767857142856,101.1,419.57142857142856,417.47767857142856,201.9,709.5714285714286,413.47767857142856,306.9,1089.5714285714287,405.47767857142856,411.9,1119.5714285714287,382.47767857142856,516,1119.5714285714287,382.47767857142856,620.8,1119.5714285714287,382.47767857142856,720.9,1119.5714285714287,382.47767857142856,820.9,1119.5714285714287,382.47767857142856,925.8,1119.5714285714287,382.47767857142856,1026.6,1119.5714285714287,382.47767857142856,1130.9,1119.5714285714287,382.47767857142856,1231.4,1119.5714285714287,382.47767857142856,1331.6,1119.5714285714287,382.47767857142856,1437.4,1119.5714285714287,382.47767857142856,1541.7,1119.5714285714287,382.47767857142856,1646.4,1119.5714285714287,382.47767857142856,1751.6,1119.5714285714287,382.47767857142856,1856.1,1119.5714285714287,382.47767857142856,1961.2,1119.5714285714287,382.47767857142856,2061.5,1119.5714285714287,382.47767857142856,2166.3,1119.5714285714287,382.47767857142856,2270.8,1119.5714285714287,382.47767857142856,2376.5,1119.5714285714287,382.47767857142856,2481.9,1119.5714285714287,382.47767857142856,2585.6,1119.5714285714287,382.47767857142856,2686.4,1119.5714285714287,382.47767857142856,2791.8,1119.5714285714287,382.47767857142856,2895.5,1119.5714285714287,382.47767857142856,2996.3,1119.5714285714287,382.47767857142856,3101.6,1119.5714285714287,382.47767857142856,3201.7,1119.5714285714287,382.47767857142856,3307.9,1119.5714285714287,382.47767857142856,3411.8,1119.5714285714287,382.47767857142856,3516.7,1119.5714285714287,382.47767857142856,3616.8,1119.5714285714287,382.47767857142856,3720.8,1119.5714285714287,382.47767857142856,3826.5,1119.5714285714287,382.47767857142856,3931.7]","[543.5,543.5,1000,0,-456.5,""error"",""-"",""-"",""no_move"",7891.5,7347.8,2900.9,4509.8,480.8,""smooth"",""left"",""left"",""good_move"",8133,241.1,2375.7,7891.9,-2134.6,""error"",""-"",""-"",""no_move"",12554.6,4421.6,3037.2,9134.1,383.3,""smooth"",""down"",""down"",""good_move"",15282.1,2727,2316.6,12555.1,410.4,""smooth"",""down"",""down"",""good_move"",19864.3,4581.9,1724,15282.4,2857.9,""smooth"",""left"",""left"",""good_move""]","",""
"55467","","","","instructions","21","1240941","0.0-8.0-2.0","121","1","2025-07-02 10:20:01","80fe4187154257d5fb01684ea91b68b9","188.36.3.22","Mozilla/5.0 (Windows NT 10.0; Win64; x64) AppleWebKit/537.36 (KHTML, like Gecko) Chrome/137.0.0.0 Safari/537.36","WebKit","Chrome","137.0.0.0","Windows","10.0","https://app.prolific.com/","hu-HU,hu;q=0.9,en-US;q=0.8,en;q=0.7","66d749dad04d6166d7928a7f","683db6dfa200031b80f2a654","68650755851971074672d75a","66d749dad04d6166d7928a7f","","[{""page_index"":0,""viewing_time"":55467}]","","","","","","","","","","","","","","","","","","","","","","","","","","","","","","","","","","","","","","","","","","",""
"","","","","ctl-task-cpt","22","1327771","0.0-8.0-3.0","121","1","2025-07-02 10:20:01","80fe4187154257d5fb01684ea91b68b9","188.36.3.22","Mozilla/5.0 (Windows NT 10.0; Win64; x64) AppleWebKit/537.36 (KHTML, like Gecko) Chrome/137.0.0.0 Safari/537.36","WebKit","Chrome","137.0.0.0","Windows","10.0","https://app.prolific.com/","hu-HU,hu;q=0.9,en-US;q=0.8,en;q=0.7","66d749dad04d6166d7928a7f","683db6dfa200031b80f2a654","68650755851971074672d75a","66d749dad04d6166d7928a7f","","","","","","","","","","","","","","","","","win-only","1","g1:NE,g2:SW","0.35","0","3","1242177.5","47211.9","51215.7","83821","2","4","8","6","2","8","8","8","0","0.06060606060606061","4003.8","4000","335","[""down"",""left""]","{""num_key_presses"":12,""num_perfect"":6,""num_errors"":0,""num_randdir"":6,""num_randdir_good_moves"":3,""num_whilered"":0,""num_whileblue"":0,""num_blue"":0,""num_good_moves"":9}","[421.57142857142856,415.47767857142856,0.3,421.57142857142856,415.47767857142856,103.8,421.57142857142856,415.47767857142856,204.1,421.57142857142856,415.47767857142856,309.2,421.57142857142856,415.47767857142856,409.4,421.57142857142856,415.47767857142856,513.7,421.57142857142856,415.47767857142856,614,510.57142857142856,390.47767857142856,714.2,757.5714285714286,341.47767857142856,818.6,859.5714285714286,328.47767857142856,919.2,1167.5714285714287,353.47767857142856,1024.1,1224.5714285714287,354.47767857142856,1129.7,1224.5714285714287,354.47767857142856,1233.5,1224.5714285714287,354.47767857142856,1334.2,1224.5714285714287,354.47767857142856,1439.6,1224.5714285714287,354.47767857142856,1544.3,1224.5714285714287,354.47767857142856,1649.3,1224.5714285714287,354.47767857142856,1754.2,1224.5714285714287,354.47767857142856,1859,1224.5714285714287,354.47767857142856,1963.7,1224.5714285714287,354.47767857142856,2069.2,1224.5714285714287,354.47767857142856,2173.8,1224.5714285714287,354.47767857142856,2279,1224.5714285714287,354.47767857142856,2379.7,1224.5714285714287,354.47767857142856,2483.3,1224.5714285714287,354.47767857142856,2584.1,1224.5714285714287,354.47767857142856,2689.3,1224.5714285714287,354.47767857142856,2789.3,1224.5714285714287,354.47767857142856,2894.1,1224.5714285714287,354.47767857142856,2999.2,1224.5714285714287,354.47767857142856,3104,1224.5714285714287,354.47767857142856,3208.7,1224.5714285714287,354.47767857142856,3309.4,1224.5714285714287,354.47767857142856,3414.2,1224.5714285714287,354.47767857142856,3519,1224.5714285714287,354.47767857142856,3619.6,1224.5714285714287,354.47767857142856,3723.6,1224.5714285714287,354.47767857142856,3824,1224.5714285714287,354.47767857142856,3924.2]","[1403.9,1403.9,1000,0,403.9,""smooth"",""left"",""left"",""good_move"",3838.6,2434.3,2150.3,1404.3,284,""smooth"",""down"",""down"",""good_move"",7392.7,3553.6,3074.9,3839.1,478.7,""smooth"",""down"",""down"",""good_move"",10098.9,2706.1,2401.7,7392.8,304.4,""oops"",""left"",""down"",""good_move"",12848.4,2749.4,2407.9,10099,341.5,""oops"",""left"",""up"",""bad_move"",15667.5,2818.9,2537.4,12848.7,281.4,""oops"",""left"",""up"",""bad_move"",17751.8,2084.2,1764.7,15667.6,319.5,""oops"",""left"",""down"",""good_move"",20692.3,2940.3,2665.7,17752,274.7,""smooth"",""down"",""down"",""good_move"",23617.5,2924.9,2655.6,20692.6,269.3,""oops"",""left"",""left"",""good_move"",26196.2,2578.5,2332.2,23617.7,246.3,""oops"",""left"",""up"",""bad_move"",29331.5,3135.2,2877.4,26196.4,257.8,""smooth"",""left"",""left"",""good_move"",32505.6,3173.8,2900.7,29331.8,273.1,""smooth"",""down"",""down"",""good_move""]","",""
"30871","","","","instructions","23","1358643","0.0-8.0-4.0","121","1","2025-07-02 10:20:01","80fe4187154257d5fb01684ea91b68b9","188.36.3.22","Mozilla/5.0 (Windows NT 10.0; Win64; x64) AppleWebKit/537.36 (KHTML, like Gecko) Chrome/137.0.0.0 Safari/537.36","WebKit","Chrome","137.0.0.0","Windows","10.0","https://app.prolific.com/","hu-HU,hu;q=0.9,en-US;q=0.8,en;q=0.7","66d749dad04d6166d7928a7f","683db6dfa200031b80f2a654","68650755851971074672d75a","66d749dad04d6166d7928a7f","","[{""page_index"":0,""viewing_time"":8329},{""page_index"":1,""viewing_time"":22542}]","","","","","","","","","","","","","","","","","","","","","","","","","","","","","","","","","","","","","","","","","","",""
"36793","","","{""green_ball"":[""Ball sometimes shakes and moves in a random direction""]}","survey-multi-select","24","1395438","0.0-8.0-5.0-0.0","121","1","2025-07-02 10:20:01","80fe4187154257d5fb01684ea91b68b9","188.36.3.22","Mozilla/5.0 (Windows NT 10.0; Win64; x64) AppleWebKit/537.36 (KHTML, like Gecko) Chrome/137.0.0.0 Safari/537.36","WebKit","Chrome","137.0.0.0","Windows","10.0","https://app.prolific.com/","hu-HU,hu;q=0.9,en-US;q=0.8,en;q=0.7","66d749dad04d6166d7928a7f","683db6dfa200031b80f2a654","68650755851971074672d75a","66d749dad04d6166d7928a7f","","","[0]","","","","quiz","","","","","","","","","","","","","","","","","","","","","","","","","","","","","","","","","","","","","true",""
"2225","","<p align='center'><b>CORRECT!</b> Indeed, the green ball may sometimes shake and move in a random direction.</p>","0","html-button-response","25","1397665","0.0-8.0-5.0-1.0","121","1","2025-07-02 10:20:01","80fe4187154257d5fb01684ea91b68b9","188.36.3.22","Mozilla/5.0 (Windows NT 10.0; Win64; x64) AppleWebKit/537.36 (KHTML, like Gecko) Chrome/137.0.0.0 Safari/537.36","WebKit","Chrome","137.0.0.0","Windows","10.0","https://app.prolific.com/","hu-HU,hu;q=0.9,en-US;q=0.8,en;q=0.7","66d749dad04d6166d7928a7f","683db6dfa200031b80f2a654","68650755851971074672d75a","66d749dad04d6166d7928a7f","","","","","","","","","","","","","","","","","","","","","","","","","","","","","","","","","","","","","","","","","","","","",""
"5857","","","{""yellow_ball"":[""Ball doesn‘t move and I get -1 penalty point""]}","survey-multi-select","26","1403524","0.0-8.0-6.0-0.0","121","1","2025-07-02 10:20:01","80fe4187154257d5fb01684ea91b68b9","188.36.3.22","Mozilla/5.0 (Windows NT 10.0; Win64; x64) AppleWebKit/537.36 (KHTML, like Gecko) Chrome/137.0.0.0 Safari/537.36","WebKit","Chrome","137.0.0.0","Windows","10.0","https://app.prolific.com/","hu-HU,hu;q=0.9,en-US;q=0.8,en;q=0.7","66d749dad04d6166d7928a7f","683db6dfa200031b80f2a654","68650755851971074672d75a","66d749dad04d6166d7928a7f","","","[0]","","","","quiz","","","","","","","","","","","","","","","","","","","","","","","","","","","","","","","","","","","","","true",""
"910","","<p align='center'><b>CORRECT!</b> Indeed, the yellow ball never moves and you receive a penalty.</p>","0","html-button-response","27","1404435","0.0-8.0-6.0-1.0","121","1","2025-07-02 10:20:01","80fe4187154257d5fb01684ea91b68b9","188.36.3.22","Mozilla/5.0 (Windows NT 10.0; Win64; x64) AppleWebKit/537.36 (KHTML, like Gecko) Chrome/137.0.0.0 Safari/537.36","WebKit","Chrome","137.0.0.0","Windows","10.0","https://app.prolific.com/","hu-HU,hu;q=0.9,en-US;q=0.8,en;q=0.7","66d749dad04d6166d7928a7f","683db6dfa200031b80f2a654","68650755851971074672d75a","66d749dad04d6166d7928a7f","","","","","","","","","","","","","","","","","","","","","","","","","","","","","","","","","","","","","","","","","","","","",""
"4257","","","{""blue_ball"":[""Ball always shakes and moves in a random direction""]}","survey-multi-select","28","1408694","0.0-8.0-7.0-0.0","121","1","2025-07-02 10:20:01","80fe4187154257d5fb01684ea91b68b9","188.36.3.22","Mozilla/5.0 (Windows NT 10.0; Win64; x64) AppleWebKit/537.36 (KHTML, like Gecko) Chrome/137.0.0.0 Safari/537.36","WebKit","Chrome","137.0.0.0","Windows","10.0","https://app.prolific.com/","hu-HU,hu;q=0.9,en-US;q=0.8,en;q=0.7","66d749dad04d6166d7928a7f","683db6dfa200031b80f2a654","68650755851971074672d75a","66d749dad04d6166d7928a7f","","","[0]","","","","quiz","","","","","","","","","","","","","","","","","","","","","","","","","","","","","","","","","","","","","true",""
"883","","<p align='center'><b>CORRECT!</b> Indeed, the blue ball always shakes and moves in a random direction. Also there is a penalty of -1 point.</p>","0","html-button-response","29","1409578","0.0-8.0-7.0-1.0","121","1","2025-07-02 10:20:01","80fe4187154257d5fb01684ea91b68b9","188.36.3.22","Mozilla/5.0 (Windows NT 10.0; Win64; x64) AppleWebKit/537.36 (KHTML, like Gecko) Chrome/137.0.0.0 Safari/537.36","WebKit","Chrome","137.0.0.0","Windows","10.0","https://app.prolific.com/","hu-HU,hu;q=0.9,en-US;q=0.8,en;q=0.7","66d749dad04d6166d7928a7f","683db6dfa200031b80f2a654","68650755851971074672d75a","66d749dad04d6166d7928a7f","","","","","","","","","","","","","","","","","","","","","","","","","","","","","","","","","","","","","","","","","","","","",""
"3150","","","{""bonus"":[""When I reach 50% of points""]}","survey-multi-select","30","1412729","0.0-8.0-8.0-0.0","121","1","2025-07-02 10:20:01","80fe4187154257d5fb01684ea91b68b9","188.36.3.22","Mozilla/5.0 (Windows NT 10.0; Win64; x64) AppleWebKit/537.36 (KHTML, like Gecko) Chrome/137.0.0.0 Safari/537.36","WebKit","Chrome","137.0.0.0","Windows","10.0","https://app.prolific.com/","hu-HU,hu;q=0.9,en-US;q=0.8,en;q=0.7","66d749dad04d6166d7928a7f","683db6dfa200031b80f2a654","68650755851971074672d75a","66d749dad04d6166d7928a7f","","","[0]","","","","quiz","","","","","","","","","","","","","","","","","","","","","","","","","","","","","","","","","","","","","true",""
"1385","","<p align='center'><b>CORRECT!</b> Indeed, you receive 2 pounds extra when you reach 50% of points.</p>","0","html-button-response","31","1414115","0.0-8.0-8.0-1.0","121","1","2025-07-02 10:20:01","80fe4187154257d5fb01684ea91b68b9","188.36.3.22","Mozilla/5.0 (Windows NT 10.0; Win64; x64) AppleWebKit/537.36 (KHTML, like Gecko) Chrome/137.0.0.0 Safari/537.36","WebKit","Chrome","137.0.0.0","Windows","10.0","https://app.prolific.com/","hu-HU,hu;q=0.9,en-US;q=0.8,en;q=0.7","66d749dad04d6166d7928a7f","683db6dfa200031b80f2a654","68650755851971074672d75a","66d749dad04d6166d7928a7f","","","","","","","","","","","","","","","","","","","","","","","","","","","","","","","","","","","","","","","","","","","","",""
"1201","","","","instructions","32","1415317","0.0-8.0-9.0","121","1","2025-07-02 10:20:01","80fe4187154257d5fb01684ea91b68b9","188.36.3.22","Mozilla/5.0 (Windows NT 10.0; Win64; x64) AppleWebKit/537.36 (KHTML, like Gecko) Chrome/137.0.0.0 Safari/537.36","WebKit","Chrome","137.0.0.0","Windows","10.0","https://app.prolific.com/","hu-HU,hu;q=0.9,en-US;q=0.8,en;q=0.7","66d749dad04d6166d7928a7f","683db6dfa200031b80f2a654","68650755851971074672d75a","66d749dad04d6166d7928a7f","","[{""page_index"":0,""viewing_time"":1201}]","","","","","","","","","","","","","","","","","","","","","","","","","","","","","","","","","","","","","","","","","","",""
"6789","","<p>Before you start with this game please answer the following three questions yourself. </p>
  <p>Through this game, we measure several aspects of your cognitive performance, such as reaction times, multi-tasking capabilities </p>
  <p>and the ability to assess the situation you are in.</p>
  <p></p>
  <p><b>How good do you usually are in such tasks?</b></p>","87","html-slider-response","33","1422107","0.0-9.0-0.0","121","1","2025-07-02 10:20:01","80fe4187154257d5fb01684ea91b68b9","188.36.3.22","Mozilla/5.0 (Windows NT 10.0; Win64; x64) AppleWebKit/537.36 (KHTML, like Gecko) Chrome/137.0.0.0 Safari/537.36","WebKit","Chrome","137.0.0.0","Windows","10.0","https://app.prolific.com/","hu-HU,hu;q=0.9,en-US;q=0.8,en;q=0.7","66d749dad04d6166d7928a7f","683db6dfa200031b80f2a654","68650755851971074672d75a","66d749dad04d6166d7928a7f","2025-07-02T10:43:44.613Z","","","","","","PreSkillQ","","","","","","","","","","","","","","","","","","","","","","","","","","","","","","","","","","","","","","50"
"3273","","<div style=""width:500px;"">
  <p>How well do you think you will perform in this task compared to other participants?</p>
  </div>","70","html-slider-response","34","1425381","0.0-9.0-1.0","121","1","2025-07-02 10:20:01","80fe4187154257d5fb01684ea91b68b9","188.36.3.22","Mozilla/5.0 (Windows NT 10.0; Win64; x64) AppleWebKit/537.36 (KHTML, like Gecko) Chrome/137.0.0.0 Safari/537.36","WebKit","Chrome","137.0.0.0","Windows","10.0","https://app.prolific.com/","hu-HU,hu;q=0.9,en-US;q=0.8,en;q=0.7","66d749dad04d6166d7928a7f","683db6dfa200031b80f2a654","68650755851971074672d75a","66d749dad04d6166d7928a7f","2025-07-02T10:43:47.887Z","","","","","","PrePerfQ","","","","","","","","","","","","","","","","","","","","","","","","","","","","","","","","","","","","","","50"
"2820","","<div style=""width:500px;"">
  <p>What best describes how you currently feel?</p>
  </div>","90","html-slider-response","35","1428202","0.0-9.0-2.0","121","1","2025-07-02 10:20:01","80fe4187154257d5fb01684ea91b68b9","188.36.3.22","Mozilla/5.0 (Windows NT 10.0; Win64; x64) AppleWebKit/537.36 (KHTML, like Gecko) Chrome/137.0.0.0 Safari/537.36","WebKit","Chrome","137.0.0.0","Windows","10.0","https://app.prolific.com/","hu-HU,hu;q=0.9,en-US;q=0.8,en;q=0.7","66d749dad04d6166d7928a7f","683db6dfa200031b80f2a654","68650755851971074672d75a","66d749dad04d6166d7928a7f","2025-07-02T10:43:50.708Z","","","","","","PreMotivationQ","","","","","","","","","","","","","","","","","","","","","","","","","","","","","","","","","","","","","","50"
"","","","","ctl-task-cpt","36","1452811","0.0-10.0-0.0","121","1","2025-07-02 10:20:01","80fe4187154257d5fb01684ea91b68b9","188.36.3.22","Mozilla/5.0 (Windows NT 10.0; Win64; x64) AppleWebKit/537.36 (KHTML, like Gecko) Chrome/137.0.0.0 Safari/537.36","WebKit","Chrome","137.0.0.0","Windows","10.0","https://app.prolific.com/","hu-HU,hu;q=0.9,en-US;q=0.8,en;q=0.7","66d749dad04d6166d7928a7f","683db6dfa200031b80f2a654","68650755851971074672d75a","66d749dad04d6166d7928a7f","2025-07-02T10:44:15.317Z","","","","","","","","","","","","","","","","win-only","3","g1:SW,g2:NE","1","1","0","1429437.9","1918.6","6921.3","21590.6","1","4","4","6","2","4","4","4","0","0.030303030303030304","1100","3000","1280","[""up"",""right""]","{""num_key_presses"":6,""num_perfect"":6,""num_errors"":0,""num_randdir"":0,""num_randdir_good_moves"":0,""num_whilered"":0,""num_whileblue"":0,""num_blue"":0,""num_good_moves"":6}","[418.57142857142856,426.47767857142856,0.2,418.57142857142856,426.47767857142856,102.2,418.57142857142856,426.47767857142856,202.2,520.5714285714286,427.47767857142856,302.7,1028.5714285714287,420.47767857142856,403,1065.5714285714287,417.47767857142856,506.5,1065.5714285714287,417.47767857142856,607.3,1065.5714285714287,417.47767857142856,711.7,1058.5714285714287,400.47767857142856,816.7,927.5714285714286,238.47767857142856,918.3,774.5714285714286,105.47767857142857,1022.6,751.5714285714286,83.47767857142857,1127.2,751.5714285714286,83.47767857142857,1227.9,813.5714285714286,111.47767857142857,1332.3,1036.5714285714287,164.47767857142856,1432.6,1186.5714285714287,182.47767857142856,1532.6,1186.5714285714287,182.47767857142856,1632.9,1186.5714285714287,182.47767857142856,1737.5,1186.5714285714287,182.47767857142856,1842.8,1186.5714285714287,182.47767857142856,1947.3,1186.5714285714287,182.47767857142856,2048,1186.5714285714287,182.47767857142856,2152.4,1186.5714285714287,182.47767857142856,2256.7,1186.5714285714287,182.47767857142856,2356.9,1186.5714285714287,182.47767857142856,2457.4,1186.5714285714287,182.47767857142856,2557.3,1186.5714285714287,182.47767857142856,2661.8,1186.5714285714287,182.47767857142856,2766.8,1186.5714285714287,182.47767857142856,2872.2,1186.5714285714287,182.47767857142856,2972.4,1186.5714285714287,182.47767857142856,3077.6,1186.5714285714287,182.47767857142856,3182.3,1186.5714285714287,182.47767857142856,3287.3,1186.5714285714287,182.47767857142856,3392.6,1186.5714285714287,182.47767857142856,3492.6,1186.5714285714287,182.47767857142856,3597.2,1186.5714285714287,182.47767857142856,3697.3,1186.5714285714287,182.47767857142856,3802.6,1186.5714285714287,182.47767857142856,3907.5,1186.5714285714287,182.47767857142856,4011.7,1186.5714285714287,182.47767857142856,4111.7,1186.5714285714287,182.47767857142856,4211.8,1186.5714285714287,182.47767857142856,4311.8,1186.5714285714287,182.47767857142856,4417,1186.5714285714287,182.47767857142856,4521.6,1186.5714285714287,182.47767857142856,4622.4,1186.5714285714287,182.47767857142856,4727.2,1186.5714285714287,182.47767857142856,4827.2,1186.5714285714287,182.47767857142856,4932.6]","[1314.6,1314.6,1000,0,314.6,""smooth"",""up"",""up"",""good_move"",3531.4,2216.4,1903.6,1315,312.8,""smooth"",""up"",""up"",""good_move"",6318.4,2786.9,2509.5,3531.5,277.4,""smooth"",""right"",""right"",""good_move"",8925.4,2606.6,2319.3,6318.8,287.3,""smooth"",""right"",""right"",""good_move"",12436.2,3510.6,3221.1,8925.6,289.5,""smooth"",""right"",""right"",""good_move"",14569,2132.6,1842.5,12436.4,290.1,""smooth"",""up"",""up"",""good_move""]","",""
"3505","","<div style=""width:500px;"">
  <p>What determined the result of this run?</p>
  </div>","98","html-slider-response","37","1456317","0.0-10.0-1.0","121","1","2025-07-02 10:20:01","80fe4187154257d5fb01684ea91b68b9","188.36.3.22","Mozilla/5.0 (Windows NT 10.0; Win64; x64) AppleWebKit/537.36 (KHTML, like Gecko) Chrome/137.0.0.0 Safari/537.36","WebKit","Chrome","137.0.0.0","Windows","10.0","https://app.prolific.com/","hu-HU,hu;q=0.9,en-US;q=0.8,en;q=0.7","66d749dad04d6166d7928a7f","683db6dfa200031b80f2a654","68650755851971074672d75a","66d749dad04d6166d7928a7f","2025-07-02T10:44:18.823Z","","","","","","AttribQ","","","","","","","","","","","","","","","","","","","","","","","","","","","","","","","","","","","","","","50"
"3457","","<div style=""width:500px;"">
  <p>How much control did you have over the ball?</p>
  </div>","100","html-slider-response","38","1459775","0.0-10.0-2.0","121","1","2025-07-02 10:20:01","80fe4187154257d5fb01684ea91b68b9","188.36.3.22","Mozilla/5.0 (Windows NT 10.0; Win64; x64) AppleWebKit/537.36 (KHTML, like Gecko) Chrome/137.0.0.0 Safari/537.36","WebKit","Chrome","137.0.0.0","Windows","10.0","https://app.prolific.com/","hu-HU,hu;q=0.9,en-US;q=0.8,en;q=0.7","66d749dad04d6166d7928a7f","683db6dfa200031b80f2a654","68650755851971074672d75a","66d749dad04d6166d7928a7f","2025-07-02T10:44:22.282Z","","","","","","ControlQ","","","","","","","","","","","","","","","","","","","","","","","","","","","","","","","","","","","","","","50"
"2932","","<div style=""width:500px;"">
  <p>How would you describe your current emotional state?</p>
  </div>","14","html-slider-response","39","1462709","0.0-10.0-3.0","121","1","2025-07-02 10:20:01","80fe4187154257d5fb01684ea91b68b9","188.36.3.22","Mozilla/5.0 (Windows NT 10.0; Win64; x64) AppleWebKit/537.36 (KHTML, like Gecko) Chrome/137.0.0.0 Safari/537.36","WebKit","Chrome","137.0.0.0","Windows","10.0","https://app.prolific.com/","hu-HU,hu;q=0.9,en-US;q=0.8,en;q=0.7","66d749dad04d6166d7928a7f","683db6dfa200031b80f2a654","68650755851971074672d75a","66d749dad04d6166d7928a7f","2025-07-02T10:44:25.215Z","","","","","","StressQ","","","","","","","","","","","","","","","","","","","","","","","","","","","","","","","","","","","","","","50"
"4634","","<div style=""width:500px;"">
  <p>What best describes how you currently feel?</p>
  </div>","90","html-slider-response","40","1467344","0.0-10.0-4.0","121","1","2025-07-02 10:20:01","80fe4187154257d5fb01684ea91b68b9","188.36.3.22","Mozilla/5.0 (Windows NT 10.0; Win64; x64) AppleWebKit/537.36 (KHTML, like Gecko) Chrome/137.0.0.0 Safari/537.36","WebKit","Chrome","137.0.0.0","Windows","10.0","https://app.prolific.com/","hu-HU,hu;q=0.9,en-US;q=0.8,en;q=0.7","66d749dad04d6166d7928a7f","683db6dfa200031b80f2a654","68650755851971074672d75a","66d749dad04d6166d7928a7f","2025-07-02T10:44:29.850Z","","","","","","MotivationQ","","","","","","","","","","","","","","","","","","","","","","","","","","","","","","","","","","","","","","50"
"","","","","ctl-task-cpt","41","1504337","0.0-10.0-0.1","121","1","2025-07-02 10:20:01","80fe4187154257d5fb01684ea91b68b9","188.36.3.22","Mozilla/5.0 (Windows NT 10.0; Win64; x64) AppleWebKit/537.36 (KHTML, like Gecko) Chrome/137.0.0.0 Safari/537.36","WebKit","Chrome","137.0.0.0","Windows","10.0","https://app.prolific.com/","hu-HU,hu;q=0.9,en-US;q=0.8,en;q=0.7","66d749dad04d6166d7928a7f","683db6dfa200031b80f2a654","68650755851971074672d75a","66d749dad04d6166d7928a7f","2025-07-02T10:45:06.843Z","","","","","","","","","","","","","","","","win-only","2","g1:SE,g2:NW","0.9","2","0","1468579.5","994.7","5996.8","33976.2","1","4","8","6","2","8","7","11","4","0.08333333333333333","1068","3000","1100","[""left"",""up""]","{""num_key_presses"":8,""num_perfect"":6,""num_errors"":1,""num_randdir"":1,""num_randdir_good_moves"":1,""num_whilered"":0,""num_whileblue"":1,""num_blue"":3,""num_good_moves"":7}","[413.57142857142856,411.47767857142856,0.3,435.57142857142856,411.47767857142856,101.4,678.5714285714286,406.47767857142856,206.2,907.5714285714286,398.47767857142856,310.9,1003.5714285714286,369.47767857142856,415.5,1003.5714285714286,369.47767857142856,515.7,1003.5714285714286,369.47767857142856,616.3,1003.5714285714286,369.47767857142856,721.9,508.57142857142856,185.47767857142856,825.7,65.57142857142857,50.47767857142857,926.5,65.57142857142857,50.47767857142857,1030.9,65.57142857142857,50.47767857142857,1131.1,447.57142857142856,132.47767857142856,1232.8,1106.5714285714287,220.47767857142856,1336.3,1227.5714285714287,226.47767857142856,1441.3,1227.5714285714287,225.47767857142856,1541.9,1227.5714285714287,225.47767857142856,1645.9,1227.5714285714287,225.47767857142856,1751.3,1227.5714285714287,225.47767857142856,1851.3,1227.5714285714287,225.47767857142856,1955.5,1227.5714285714287,225.47767857142856,2055.6,1227.5714285714287,225.47767857142856,2156.4,1227.5714285714287,225.47767857142856,2260.7,1227.5714285714287,225.47767857142856,2365.7,1227.5714285714287,225.47767857142856,2467.4,1227.5714285714287,225.47767857142856,2570.8,1227.5714285714287,225.47767857142856,2671.4,1227.5714285714287,225.47767857142856,2775.6,1227.5714285714287,225.47767857142856,2876.5,1227.5714285714287,225.47767857142856,2980.4,1227.5714285714287,225.47767857142856,3081.5,1227.5714285714287,225.47767857142856,3187.3,1227.5714285714287,225.47767857142856,3292.3,1227.5714285714287,225.47767857142856,3395.7,1227.5714285714287,225.47767857142856,3495.8,1227.5714285714287,225.47767857142856,3596.4,1227.5714285714287,225.47767857142856,3700.9,1227.5714285714287,225.47767857142856,3806.2,1227.5714285714287,225.47767857142856,3910.4,1227.5714285714287,225.47767857142856,4010.8,1227.5714285714287,225.47767857142856,4116,1227.5714285714287,225.47767857142856,4221,1227.5714285714287,225.47767857142856,4326.6,1227.5714285714287,225.47767857142856,4431.1,1227.5714285714287,225.47767857142856,4536.3,1227.5714285714287,225.47767857142856,4641.1,1227.5714285714287,225.47767857142856,4742,1227.5714285714287,225.47767857142856,4846.1,1227.5714285714287,225.47767857142856,4946.9]","[1311.8,1311.8,1003.9,0,307.9,""while_blue"",""up"",""right"",""bad_move"",7642.4,6330.4,2346.2,5034,262.2,""smooth"",""up"",""up"",""good_move"",10027,2384.2,2054,7642.8,330.2,""smooth"",""left"",""left"",""good_move"",16583,6555.7,2419.5,13830,333.5,""oops"",""left"",""left"",""good_move"",18646.9,2063.6,1723,16583.3,340.6,""smooth"",""up"",""up"",""good_move"",21268.8,2621.8,2290.8,18647,331,""smooth"",""left"",""left"",""good_move"",24334.1,3065,2752.5,21269.1,312.5,""smooth"",""left"",""left"",""good_move"",27879.3,3544.9,3260.9,24334.4,284,""smooth"",""up"",""up"",""good_move""]","",""
"3515","","<div style=""width:500px;"">
  <p>What determined the result of this run?</p>
  </div>","85","html-slider-response","42","1507853","0.0-10.0-1.1","121","1","2025-07-02 10:20:01","80fe4187154257d5fb01684ea91b68b9","188.36.3.22","Mozilla/5.0 (Windows NT 10.0; Win64; x64) AppleWebKit/537.36 (KHTML, like Gecko) Chrome/137.0.0.0 Safari/537.36","WebKit","Chrome","137.0.0.0","Windows","10.0","https://app.prolific.com/","hu-HU,hu;q=0.9,en-US;q=0.8,en;q=0.7","66d749dad04d6166d7928a7f","683db6dfa200031b80f2a654","68650755851971074672d75a","66d749dad04d6166d7928a7f","2025-07-02T10:45:10.360Z","","","","","","AttribQ","","","","","","","","","","","","","","","","","","","","","","","","","","","","","","","","","","","","","","50"
"1888","","<div style=""width:500px;"">
  <p>How much control did you have over the ball?</p>
  </div>","75","html-slider-response","43","1509743","0.0-10.0-2.1","121","1","2025-07-02 10:20:01","80fe4187154257d5fb01684ea91b68b9","188.36.3.22","Mozilla/5.0 (Windows NT 10.0; Win64; x64) AppleWebKit/537.36 (KHTML, like Gecko) Chrome/137.0.0.0 Safari/537.36","WebKit","Chrome","137.0.0.0","Windows","10.0","https://app.prolific.com/","hu-HU,hu;q=0.9,en-US;q=0.8,en;q=0.7","66d749dad04d6166d7928a7f","683db6dfa200031b80f2a654","68650755851971074672d75a","66d749dad04d6166d7928a7f","2025-07-02T10:45:12.249Z","","","","","","ControlQ","","","","","","","","","","","","","","","","","","","","","","","","","","","","","","","","","","","","","","50"
"2477","","<div style=""width:500px;"">
  <p>How would you describe your current emotional state?</p>
  </div>","17","html-slider-response","44","1512221","0.0-10.0-3.1","121","1","2025-07-02 10:20:01","80fe4187154257d5fb01684ea91b68b9","188.36.3.22","Mozilla/5.0 (Windows NT 10.0; Win64; x64) AppleWebKit/537.36 (KHTML, like Gecko) Chrome/137.0.0.0 Safari/537.36","WebKit","Chrome","137.0.0.0","Windows","10.0","https://app.prolific.com/","hu-HU,hu;q=0.9,en-US;q=0.8,en;q=0.7","66d749dad04d6166d7928a7f","683db6dfa200031b80f2a654","68650755851971074672d75a","66d749dad04d6166d7928a7f","2025-07-02T10:45:14.727Z","","","","","","StressQ","","","","","","","","","","","","","","","","","","","","","","","","","","","","","","","","","","","","","","50"
"2387","","<div style=""width:500px;"">
  <p>What best describes how you currently feel?</p>
  </div>","79","html-slider-response","45","1514609","0.0-10.0-4.1","121","1","2025-07-02 10:20:01","80fe4187154257d5fb01684ea91b68b9","188.36.3.22","Mozilla/5.0 (Windows NT 10.0; Win64; x64) AppleWebKit/537.36 (KHTML, like Gecko) Chrome/137.0.0.0 Safari/537.36","WebKit","Chrome","137.0.0.0","Windows","10.0","https://app.prolific.com/","hu-HU,hu;q=0.9,en-US;q=0.8,en;q=0.7","66d749dad04d6166d7928a7f","683db6dfa200031b80f2a654","68650755851971074672d75a","66d749dad04d6166d7928a7f","2025-07-02T10:45:17.115Z","","","","","","MotivationQ","","","","","","","","","","","","","","","","","","","","","","","","","","","","","","","","","","","","","","50"
"","","","","ctl-task-cpt","46","1551507","0.0-10.0-0.2","121","1","2025-07-02 10:20:01","80fe4187154257d5fb01684ea91b68b9","188.36.3.22","Mozilla/5.0 (Windows NT 10.0; Win64; x64) AppleWebKit/537.36 (KHTML, like Gecko) Chrome/137.0.0.0 Safari/537.36","WebKit","Chrome","137.0.0.0","Windows","10.0","https://app.prolific.com/","hu-HU,hu;q=0.9,en-US;q=0.8,en;q=0.7","66d749dad04d6166d7928a7f","683db6dfa200031b80f2a654","68650755851971074672d75a","66d749dad04d6166d7928a7f","2025-07-02T10:45:54.013Z","","","","","","","","","","","","","","","","win-only","1","g1:NE,g2:SW","0.8","3","0","1515844.8","816.3","5821.1","33881.1","1","4","4","6","2","-4","-5","6","11","0.045454545454545456","1596.3","3000","-3005","[""down"",""left""]","{""num_key_presses"":9,""num_perfect"":6,""num_errors"":1,""num_randdir"":2,""num_randdir_good_moves"":1,""num_whilered"":0,""num_whileblue"":1,""num_blue"":1,""num_good_moves"":7}","[411.57142857142856,422.47767857142856,0.3,411.57142857142856,422.47767857142856,104,471.57142857142856,417.47767857142856,204.3,912.5714285714286,414.47767857142856,304.6,1028.5714285714287,403.47767857142856,409.4,1008.5714285714286,404.47767857142856,515.3,685.5714285714286,508.47767857142856,619.3,211.57142857142856,645.4776785714286,719.4,106.57142857142857,693.4776785714286,819.5,92.57142857142857,733.4776785714286,925.2,91.57142857142857,749.4776785714286,1030.4,169.57142857142856,726.4776785714286,1134.2,166.57142857142856,726.4776785714286,1235,141.57142857142856,731.4776785714286,1335,109.57142857142857,744.4776785714286,1439.8,77.57142857142857,760.4776785714286,1546.2,72.57142857142857,765.4776785714286,1649.1,210.57142857142856,723.4776785714286,1753.9,714.5714285714286,621.4776785714286,1854.4,989.5714285714286,581.4776785714286,1959.3,1047.5714285714287,556.4776785714286,2059.6,1047.5714285714287,556.4776785714286,2160.4,1047.5714285714287,556.4776785714286,2265.2,1047.5714285714287,556.4776785714286,2369.3,1047.5714285714287,556.4776785714286,2475.8,1047.5714285714287,556.4776785714286,2579.5,1047.5714285714287,556.4776785714286,2684.9,1047.5714285714287,556.4776785714286,2789.1,1047.5714285714287,556.4776785714286,2889.2,1047.5714285714287,556.4776785714286,2989.3,1047.5714285714287,556.4776785714286,3089.3,1047.5714285714287,556.4776785714286,3189.7,1047.5714285714287,556.4776785714286,3289.9,1047.5714285714287,556.4776785714286,3394.4,1047.5714285714287,556.4776785714286,3499.1,1047.5714285714287,556.4776785714286,3599.7,1047.5714285714287,556.4776785714286,3699.8,1047.5714285714287,556.4776785714286,3804.2,1047.5714285714287,556.4776785714286,3904.2,1047.5714285714287,556.4776785714286,4004.5,1047.5714285714287,556.4776785714286,4104.5,1047.5714285714287,556.4776785714286,4209.6,1047.5714285714287,556.4776785714286,4309.6,1047.5714285714287,556.4776785714286,4414.3,1047.5714285714287,556.4776785714286,4514.3,1047.5714285714287,556.4776785714286,4619.3,1047.5714285714287,556.4776785714286,4724.2,1047.5714285714287,556.4776785714286,4829.6,1047.5714285714287,556.4776785714286,4935.4]","[1402.7,1402.7,1000,0,402.7,""smooth"",""left"",""left"",""good_move"",4398,2995,2700.8,1403,294.2,""oops"",""down"",""left"",""good_move"",6593.6,2195.4,1916.6,4398.2,278.8,""while_blue"",""down"",""right"",""bad_move"",10262.4,3668.6,3059.6,6593.9,609,""smooth"",""down"",""down"",""good_move"",12998.1,2735.5,2276.1,10262.6,459.4,""oops"",""down"",""right"",""bad_move"",15602.1,2603.7,2298,12998.4,305.7,""smooth"",""left"",""left"",""good_move"",19415.5,3813,3542.1,15602.5,270.9,""smooth"",""left"",""left"",""good_move"",21947.8,2532.1,2253.1,19415.7,279,""smooth"",""left"",""left"",""good_move"",24941.7,2993.7,2703.5,21948,290.2,""smooth"",""down"",""down"",""good_move""]","",""
"2772","","<div style=""width:500px;"">
  <p>What determined the result of this run?</p>
  </div>","29","html-slider-response","47","1554280","0.0-10.0-1.2","121","1","2025-07-02 10:20:01","80fe4187154257d5fb01684ea91b68b9","188.36.3.22","Mozilla/5.0 (Windows NT 10.0; Win64; x64) AppleWebKit/537.36 (KHTML, like Gecko) Chrome/137.0.0.0 Safari/537.36","WebKit","Chrome","137.0.0.0","Windows","10.0","https://app.prolific.com/","hu-HU,hu;q=0.9,en-US;q=0.8,en;q=0.7","66d749dad04d6166d7928a7f","683db6dfa200031b80f2a654","68650755851971074672d75a","66d749dad04d6166d7928a7f","2025-07-02T10:45:56.786Z","","","","","","AttribQ","","","","","","","","","","","","","","","","","","","","","","","","","","","","","","","","","","","","","","50"
"2530","","<div style=""width:500px;"">
  <p>How much control did you have over the ball?</p>
  </div>","28","html-slider-response","48","1556812","0.0-10.0-2.2","121","1","2025-07-02 10:20:01","80fe4187154257d5fb01684ea91b68b9","188.36.3.22","Mozilla/5.0 (Windows NT 10.0; Win64; x64) AppleWebKit/537.36 (KHTML, like Gecko) Chrome/137.0.0.0 Safari/537.36","WebKit","Chrome","137.0.0.0","Windows","10.0","https://app.prolific.com/","hu-HU,hu;q=0.9,en-US;q=0.8,en;q=0.7","66d749dad04d6166d7928a7f","683db6dfa200031b80f2a654","68650755851971074672d75a","66d749dad04d6166d7928a7f","2025-07-02T10:45:59.318Z","","","","","","ControlQ","","","","","","","","","","","","","","","","","","","","","","","","","","","","","","","","","","","","","","50"
"1827","","<div style=""width:500px;"">
  <p>How would you describe your current emotional state?</p>
  </div>","44","html-slider-response","49","1558640","0.0-10.0-3.2","121","1","2025-07-02 10:20:01","80fe4187154257d5fb01684ea91b68b9","188.36.3.22","Mozilla/5.0 (Windows NT 10.0; Win64; x64) AppleWebKit/537.36 (KHTML, like Gecko) Chrome/137.0.0.0 Safari/537.36","WebKit","Chrome","137.0.0.0","Windows","10.0","https://app.prolific.com/","hu-HU,hu;q=0.9,en-US;q=0.8,en;q=0.7","66d749dad04d6166d7928a7f","683db6dfa200031b80f2a654","68650755851971074672d75a","66d749dad04d6166d7928a7f","2025-07-02T10:46:01.146Z","","","","","","StressQ","","","","","","","","","","","","","","","","","","","","","","","","","","","","","","","","","","","","","","50"
"2176","","<div style=""width:500px;"">
  <p>What best describes how you currently feel?</p>
  </div>","78","html-slider-response","50","1560817","0.0-10.0-4.2","121","1","2025-07-02 10:20:01","80fe4187154257d5fb01684ea91b68b9","188.36.3.22","Mozilla/5.0 (Windows NT 10.0; Win64; x64) AppleWebKit/537.36 (KHTML, like Gecko) Chrome/137.0.0.0 Safari/537.36","WebKit","Chrome","137.0.0.0","Windows","10.0","https://app.prolific.com/","hu-HU,hu;q=0.9,en-US;q=0.8,en;q=0.7","66d749dad04d6166d7928a7f","683db6dfa200031b80f2a654","68650755851971074672d75a","66d749dad04d6166d7928a7f","2025-07-02T10:46:03.323Z","","","","","","MotivationQ","","","","","","","","","","","","","","","","","","","","","","","","","","","","","","","","","","","","","","50"
"","","","","ctl-task-cpt","51","1587503","0.0-10.0-0.3","121","1","2025-07-02 10:20:01","80fe4187154257d5fb01684ea91b68b9","188.36.3.22","Mozilla/5.0 (Windows NT 10.0; Win64; x64) AppleWebKit/537.36 (KHTML, like Gecko) Chrome/137.0.0.0 Safari/537.36","WebKit","Chrome","137.0.0.0","Windows","10.0","https://app.prolific.com/","hu-HU,hu;q=0.9,en-US;q=0.8,en;q=0.7","66d749dad04d6166d7928a7f","683db6dfa200031b80f2a654","68650755851971074672d75a","66d749dad04d6166d7928a7f","2025-07-02T10:46:30.009Z","","","","","","","","","","","","","","","","win-only","1","g1:NE,g2:SW","0.7","4","0","1562053.8","622.2","5626","23665.7","1","4","8","6","2","8","8","14","6","0.10606060606060606","916.9","3000","1360","[""down"",""left""]","{""num_key_presses"":6,""num_perfect"":5,""num_errors"":0,""num_randdir"":1,""num_randdir_good_moves"":1,""num_whilered"":0,""num_whileblue"":0,""num_blue"":1,""num_good_moves"":6}","[418.57142857142856,420.47767857142856,0.2,425.57142857142856,420.47767857142856,103.4,672.5714285714286,448.47767857142856,204.6,875.5714285714286,437.47767857142856,308.7,923.5714285714286,419.47767857142856,409.2,882.5714285714286,441.47767857142856,514.1,307.57142857142856,657.4776785714286,614.1,165.57142857142856,693.4776785714286,719.1,136.57142857142856,702.4776785714286,823.3,59.57142857142857,729.4776785714286,930.5,213.57142857142856,694.4776785714286,1033.7,688.5714285714286,621.4776785714286,1133.8,874.5714285714286,589.4776785714286,1238.4,882.5714285714286,586.4776785714286,1338.4,882.5714285714286,586.4776785714286,1439.3,882.5714285714286,586.4776785714286,1540,882.5714285714286,586.4776785714286,1644.2,882.5714285714286,586.4776785714286,1748.8,882.5714285714286,586.4776785714286,1853.3,882.5714285714286,586.4776785714286,1953.7,882.5714285714286,586.4776785714286,2058.5,882.5714285714286,586.4776785714286,2163.3,882.5714285714286,586.4776785714286,2263.7,882.5714285714286,586.4776785714286,2368.4,882.5714285714286,586.4776785714286,2473.5,882.5714285714286,586.4776785714286,2578.2,882.5714285714286,586.4776785714286,2678.3,882.5714285714286,586.4776785714286,2783.5,882.5714285714286,586.4776785714286,2889.2,882.5714285714286,586.4776785714286,2993.2,882.5714285714286,586.4776785714286,3094.1,882.5714285714286,586.4776785714286,3199.3,882.5714285714286,586.4776785714286,3299.7,882.5714285714286,586.4776785714286,3403.6,882.5714285714286,586.4776785714286,3503.6,882.5714285714286,586.4776785714286,3604.1,882.5714285714286,586.4776785714286,3704.3,882.5714285714286,586.4776785714286,3809.2,882.5714285714286,586.4776785714286,3913.8,882.5714285714286,586.4776785714286,4019.4,882.5714285714286,586.4776785714286,4120.5,882.5714285714286,586.4776785714286,4223.6,882.5714285714286,586.4776785714286,4328.3,882.5714285714286,586.4776785714286,4429.4,882.5714285714286,586.4776785714286,4529.4,882.5714285714286,586.4776785714286,4635.4,882.5714285714286,586.4776785714286,4738.3,882.5714285714286,586.4776785714286,4844.1,882.5714285714286,586.4776785714286,4944.2]","[5076.1,5076.1,2812,2005.3,258.8,""smooth"",""left"",""left"",""good_move"",7667.7,2591.2,2300.4,5076.5,290.8,""oops"",""down"",""down"",""good_move"",9829,2161.1,1858.4,7667.9,302.7,""smooth"",""left"",""left"",""good_move"",11888.7,2059.4,1757.4,9829.3,302,""smooth"",""down"",""down"",""good_move"",14636.2,2747.4,2440.4,11888.8,307,""smooth"",""left"",""left"",""good_move"",17929.2,3292.8,2995.3,14636.5,297.5,""smooth"",""down"",""down"",""good_move""]","",""
"2090","","<div style=""width:500px;"">
  <p>What determined the result of this run?</p>
  </div>","99","html-slider-response","52","1589594","0.0-10.0-1.3","121","1","2025-07-02 10:20:01","80fe4187154257d5fb01684ea91b68b9","188.36.3.22","Mozilla/5.0 (Windows NT 10.0; Win64; x64) AppleWebKit/537.36 (KHTML, like Gecko) Chrome/137.0.0.0 Safari/537.36","WebKit","Chrome","137.0.0.0","Windows","10.0","https://app.prolific.com/","hu-HU,hu;q=0.9,en-US;q=0.8,en;q=0.7","66d749dad04d6166d7928a7f","683db6dfa200031b80f2a654","68650755851971074672d75a","66d749dad04d6166d7928a7f","2025-07-02T10:46:32.100Z","","","","","","AttribQ","","","","","","","","","","","","","","","","","","","","","","","","","","","","","","","","","","","","","","50"
"2026","","<div style=""width:500px;"">
  <p>How much control did you have over the ball?</p>
  </div>","98","html-slider-response","53","1591621","0.0-10.0-2.3","121","1","2025-07-02 10:20:01","80fe4187154257d5fb01684ea91b68b9","188.36.3.22","Mozilla/5.0 (Windows NT 10.0; Win64; x64) AppleWebKit/537.36 (KHTML, like Gecko) Chrome/137.0.0.0 Safari/537.36","WebKit","Chrome","137.0.0.0","Windows","10.0","https://app.prolific.com/","hu-HU,hu;q=0.9,en-US;q=0.8,en;q=0.7","66d749dad04d6166d7928a7f","683db6dfa200031b80f2a654","68650755851971074672d75a","66d749dad04d6166d7928a7f","2025-07-02T10:46:34.127Z","","","","","","ControlQ","","","","","","","","","","","","","","","","","","","","","","","","","","","","","","","","","","","","","","50"
"2005","","<div style=""width:500px;"">
  <p>How would you describe your current emotional state?</p>
  </div>","19","html-slider-response","54","1593627","0.0-10.0-3.3","121","1","2025-07-02 10:20:01","80fe4187154257d5fb01684ea91b68b9","188.36.3.22","Mozilla/5.0 (Windows NT 10.0; Win64; x64) AppleWebKit/537.36 (KHTML, like Gecko) Chrome/137.0.0.0 Safari/537.36","WebKit","Chrome","137.0.0.0","Windows","10.0","https://app.prolific.com/","hu-HU,hu;q=0.9,en-US;q=0.8,en;q=0.7","66d749dad04d6166d7928a7f","683db6dfa200031b80f2a654","68650755851971074672d75a","66d749dad04d6166d7928a7f","2025-07-02T10:46:36.133Z","","","","","","StressQ","","","","","","","","","","","","","","","","","","","","","","","","","","","","","","","","","","","","","","50"
"1415","","<div style=""width:500px;"">
  <p>What best describes how you currently feel?</p>
  </div>","86","html-slider-response","55","1595043","0.0-10.0-4.3","121","1","2025-07-02 10:20:01","80fe4187154257d5fb01684ea91b68b9","188.36.3.22","Mozilla/5.0 (Windows NT 10.0; Win64; x64) AppleWebKit/537.36 (KHTML, like Gecko) Chrome/137.0.0.0 Safari/537.36","WebKit","Chrome","137.0.0.0","Windows","10.0","https://app.prolific.com/","hu-HU,hu;q=0.9,en-US;q=0.8,en;q=0.7","66d749dad04d6166d7928a7f","683db6dfa200031b80f2a654","68650755851971074672d75a","66d749dad04d6166d7928a7f","2025-07-02T10:46:37.549Z","","","","","","MotivationQ","","","","","","","","","","","","","","","","","","","","","","","","","","","","","","","","","","","","","","50"
"","","","","ctl-task-cpt","56","1624067","0.0-10.0-0.4","121","1","2025-07-02 10:20:01","80fe4187154257d5fb01684ea91b68b9","188.36.3.22","Mozilla/5.0 (Windows NT 10.0; Win64; x64) AppleWebKit/537.36 (KHTML, like Gecko) Chrome/137.0.0.0 Safari/537.36","WebKit","Chrome","137.0.0.0","Windows","10.0","https://app.prolific.com/","hu-HU,hu;q=0.9,en-US;q=0.8,en;q=0.7","66d749dad04d6166d7928a7f","683db6dfa200031b80f2a654","68650755851971074672d75a","66d749dad04d6166d7928a7f","2025-07-02T10:47:06.573Z","","","","","","","","","","","","","","","","win-only","1","g1:NE,g2:SW","0.6","5","0","1596278.8","599.7","5600.7","26005.3","1","4","8","6","2","8","6","20","14","0.15151515151515152","1033.6","3000","890","[""down"",""left""]","{""num_key_presses"":8,""num_perfect"":4,""num_errors"":2,""num_randdir"":2,""num_randdir_good_moves"":1,""num_whilered"":0,""num_whileblue"":2,""num_blue"":2,""num_good_moves"":7}","[421.57142857142856,414.47767857142856,0.1,489.57142857142856,410.47767857142856,101,741.5714285714286,424.47767857142856,201.3,905.5714285714286,432.47767857142856,305.5,920.5714285714286,430.47767857142856,405.5,929.5714285714286,420.47767857142856,506.6,1025.5714285714287,400.47767857142856,610.7,603.5714285714286,559.4776785714286,713.9,137.57142857142856,720.4776785714286,817.9,118.57142857142857,729.4776785714286,921.5,94.57142857142857,738.4776785714286,1025.6,103.57142857142857,737.4776785714286,1125.6,432.57142857142856,707.4776785714286,1226.7,879.5714285714286,691.4776785714286,1331.8,1106.5714285714287,664.4776785714286,1436.1,1132.5714285714287,655.4776785714286,1540.9,1132.5714285714287,655.4776785714286,1641.5,1132.5714285714287,655.4776785714286,1745.8,1132.5714285714287,655.4776785714286,1847.7,1132.5714285714287,655.4776785714286,1951.1,1132.5714285714287,655.4776785714286,2051.3,1132.5714285714287,655.4776785714286,2157.3,1132.5714285714287,655.4776785714286,2260.9,1132.5714285714287,655.4776785714286,2361,1132.5714285714287,655.4776785714286,2465.8,1132.5714285714287,655.4776785714286,2570.9,1132.5714285714287,655.4776785714286,2675.6,1132.5714285714287,655.4776785714286,2776.4,1132.5714285714287,655.4776785714286,2877.1,1132.5714285714287,655.4776785714286,2980.7,1132.5714285714287,655.4776785714286,3080.8,1132.5714285714287,655.4776785714286,3186,1132.5714285714287,655.4776785714286,3291.4,1132.5714285714287,655.4776785714286,3395.5,1132.5714285714287,655.4776785714286,3495.8,1132.5714285714287,655.4776785714286,3597.1,1132.5714285714287,655.4776785714286,3700.6,1132.5714285714287,655.4776785714286,3800.7,1132.5714285714287,655.4776785714286,3900.7,1132.5714285714287,655.4776785714286,4006.5,1132.5714285714287,655.4776785714286,4110.7,1132.5714285714287,655.4776785714286,4212.3,1132.5714285714287,655.4776785714286,4316.4,1132.5714285714287,655.4776785714286,4420.6,1132.5714285714287,655.4776785714286,4520.7,1132.5714285714287,655.4776785714286,4625.5,1132.5714285714287,655.4776785714286,4725.5,1132.5714285714287,655.4776785714286,4826.2,1132.5714285714287,655.4776785714286,4931.4]","[1344.3,1344.3,1000,0,344.3,""oops"",""left"",""down"",""good_move"",4020.3,2675.6,2348.8,1344.7,326.8,""smooth"",""left"",""left"",""good_move"",6764.3,2743.7,2465.8,4020.6,277.9,""smooth"",""left"",""left"",""good_move"",9542,2777.6,2435.5,6764.5,342.1,""while_blue"",""left"",""left"",""good_move"",11876.4,2334,1984.2,9542.4,349.8,""oops"",""down"",""up"",""bad_move"",15066.3,3189.7,2883.4,11876.6,306.3,""while_blue"",""down"",""down"",""good_move"",17599.2,2532.7,2050.4,15066.5,482.3,""smooth"",""down"",""down"",""good_move"",20296.4,2697,2330.9,17599.4,366.1,""smooth"",""down"",""down"",""good_move""]","",""
"2245","","<div style=""width:500px;"">
  <p>What determined the result of this run?</p>
  </div>","74","html-slider-response","57","1626313","0.0-10.0-1.4","121","1","2025-07-02 10:20:01","80fe4187154257d5fb01684ea91b68b9","188.36.3.22","Mozilla/5.0 (Windows NT 10.0; Win64; x64) AppleWebKit/537.36 (KHTML, like Gecko) Chrome/137.0.0.0 Safari/537.36","WebKit","Chrome","137.0.0.0","Windows","10.0","https://app.prolific.com/","hu-HU,hu;q=0.9,en-US;q=0.8,en;q=0.7","66d749dad04d6166d7928a7f","683db6dfa200031b80f2a654","68650755851971074672d75a","66d749dad04d6166d7928a7f","2025-07-02T10:47:08.819Z","","","","","","AttribQ","","","","","","","","","","","","","","","","","","","","","","","","","","","","","","","","","","","","","","50"
"2443","","<div style=""width:500px;"">
  <p>How much control did you have over the ball?</p>
  </div>","77","html-slider-response","58","1628758","0.0-10.0-2.4","121","1","2025-07-02 10:20:01","80fe4187154257d5fb01684ea91b68b9","188.36.3.22","Mozilla/5.0 (Windows NT 10.0; Win64; x64) AppleWebKit/537.36 (KHTML, like Gecko) Chrome/137.0.0.0 Safari/537.36","WebKit","Chrome","137.0.0.0","Windows","10.0","https://app.prolific.com/","hu-HU,hu;q=0.9,en-US;q=0.8,en;q=0.7","66d749dad04d6166d7928a7f","683db6dfa200031b80f2a654","68650755851971074672d75a","66d749dad04d6166d7928a7f","2025-07-02T10:47:11.264Z","","","","","","ControlQ","","","","","","","","","","","","","","","","","","","","","","","","","","","","","","","","","","","","","","50"
"2843","","<div style=""width:500px;"">
  <p>How would you describe your current emotional state?</p>
  </div>","31","html-slider-response","59","1631602","0.0-10.0-3.4","121","1","2025-07-02 10:20:01","80fe4187154257d5fb01684ea91b68b9","188.36.3.22","Mozilla/5.0 (Windows NT 10.0; Win64; x64) AppleWebKit/537.36 (KHTML, like Gecko) Chrome/137.0.0.0 Safari/537.36","WebKit","Chrome","137.0.0.0","Windows","10.0","https://app.prolific.com/","hu-HU,hu;q=0.9,en-US;q=0.8,en;q=0.7","66d749dad04d6166d7928a7f","683db6dfa200031b80f2a654","68650755851971074672d75a","66d749dad04d6166d7928a7f","2025-07-02T10:47:14.108Z","","","","","","StressQ","","","","","","","","","","","","","","","","","","","","","","","","","","","","","","","","","","","","","","50"
"1523","","<div style=""width:500px;"">
  <p>What best describes how you currently feel?</p>
  </div>","71","html-slider-response","60","1633126","0.0-10.0-4.4","121","1","2025-07-02 10:20:01","80fe4187154257d5fb01684ea91b68b9","188.36.3.22","Mozilla/5.0 (Windows NT 10.0; Win64; x64) AppleWebKit/537.36 (KHTML, like Gecko) Chrome/137.0.0.0 Safari/537.36","WebKit","Chrome","137.0.0.0","Windows","10.0","https://app.prolific.com/","hu-HU,hu;q=0.9,en-US;q=0.8,en;q=0.7","66d749dad04d6166d7928a7f","683db6dfa200031b80f2a654","68650755851971074672d75a","66d749dad04d6166d7928a7f","2025-07-02T10:47:15.632Z","","","","","","MotivationQ","","","","","","","","","","","","","","","","","","","","","","","","","","","","","","","","","","","","","","50"
"","","","","ctl-task-cpt","61","1691568","0.0-10.0-0.5","121","1","2025-07-02 10:20:01","80fe4187154257d5fb01684ea91b68b9","188.36.3.22","Mozilla/5.0 (Windows NT 10.0; Win64; x64) AppleWebKit/537.36 (KHTML, like Gecko) Chrome/137.0.0.0 Safari/537.36","WebKit","Chrome","137.0.0.0","Windows","10.0","https://app.prolific.com/","hu-HU,hu;q=0.9,en-US;q=0.8,en;q=0.7","66d749dad04d6166d7928a7f","683db6dfa200031b80f2a654","68650755851971074672d75a","66d749dad04d6166d7928a7f","2025-07-02T10:48:14.074Z","","","","","","","","","","","","","","","","win-only","1","g1:NE,g2:SW","0.5","6","0","1634362.1","617.7","5618.8","55421.2","1","4","4","6","2","-4","-8","12","20","0.09090909090909091","1533.3","3000","-2970","[""down"",""left""]","{""num_key_presses"":13,""num_perfect"":3,""num_errors"":4,""num_randdir"":5,""num_randdir_good_moves"":2,""num_whilered"":1,""num_whileblue"":3,""num_blue"":7,""num_good_moves"":7}","[418.57142857142856,423.47767857142856,0.2,418.57142857142856,423.47767857142856,103.3,452.57142857142856,423.47767857142856,208.5,521.5714285714286,425.47767857142856,309,651.5714285714286,425.47767857142856,413.3,665.5714285714286,425.47767857142856,517.5,391.57142857142856,634.4776785714286,618.6,150.57142857142856,766.4776785714286,718.8,111.57142857142857,791.4776785714286,823,99.57142857142857,793.4776785714286,923.4,98.57142857142857,793.4776785714286,1027.9,98.57142857142857,793.4776785714286,1128,98.57142857142857,793.4776785714286,1228.1,98.57142857142857,793.4776785714286,1328.1,98.57142857142857,793.4776785714286,1433.4,98.57142857142857,793.4776785714286,1545.1,148.57142857142856,764.4776785714286,1650.1,500.57142857142856,670.4776785714286,1753.1,838.5714285714286,621.4776785714286,1858,1086.5714285714287,596.4776785714286,1958.1,1180.5714285714287,576.4776785714286,2058.7,1180.5714285714287,576.4776785714286,2162.6,1180.5714285714287,576.4776785714286,2262.8,1180.5714285714287,576.4776785714286,2365.3,1180.5714285714287,576.4776785714286,2467.8,1180.5714285714287,576.4776785714286,2568.9,1180.5714285714287,576.4776785714286,2668.9,1180.5714285714287,576.4776785714286,2772.7,1180.5714285714287,576.4776785714286,2873.3,1180.5714285714287,576.4776785714286,2978.7,1180.5714285714287,576.4776785714286,3078.8,1180.5714285714287,576.4776785714286,3183,1180.5714285714287,576.4776785714286,3284.4,1180.5714285714287,576.4776785714286,3388.8,1180.5714285714287,576.4776785714286,3492.5,1180.5714285714287,576.4776785714286,3593.3,1180.5714285714287,576.4776785714286,3699.2,1180.5714285714287,576.4776785714286,3802.4,1180.5714285714287,576.4776785714286,3903.2,1180.5714285714287,576.4776785714286,4007.9,1180.5714285714287,576.4776785714286,4112.6,1180.5714285714287,576.4776785714286,4216,1180.5714285714287,576.4776785714286,4317.9,1180.5714285714287,576.4776785714286,4423.9,1180.5714285714287,576.4776785714286,4528.1,1180.5714285714287,576.4776785714286,4632.5,1180.5714285714287,576.4776785714286,4732.6,1180.5714285714287,576.4776785714286,4832.6,1180.5714285714287,576.4776785714286,4933.4]","[1475.6,1475.6,1000,0,475.6,""oops"",""left"",""down"",""good_move"",8306.5,6830.5,2864.1,5167.7,274.7,""smooth"",""left"",""left"",""good_move"",11033.7,2726.9,2426.3,8306.8,300.6,""while_blue"",""left"",""up"",""bad_move"",14191.1,3157.1,2625.8,11034,531.3,""oops"",""left"",""up"",""bad_move"",17578.7,3387.5,3126.5,14191.2,261,""while_blue"",""down"",""left"",""good_move"",31090.9,13512,2234,28572.3,284.6,""oops"",""down"",""right"",""bad_move"",33332.8,2241.6,1911.6,31091.2,330,""smooth"",""down"",""down"",""good_move"",35662.8,2329.6,1913.3,33333.2,416.3,""smooth"",""down"",""down"",""good_move"",38310.5,2647.4,2373.5,35663.1,273.9,""while_blue"",""down"",""left"",""good_move"",41824.9,3514.1,3153.6,38310.8,360.5,""oops"",""down"",""down"",""good_move"",44825.7,3000.6,2635.5,41825.1,365.1,""oops"",""down"",""up"",""bad_move"",46370.6,1544.5,2793.5,44826.1,-1249,""error"",""-"",""-"",""no_move"",46547.4,176.8,2793.5,44826.1,-1072.1,""while_red"",""-"",""-"",""no_move""]","",""
"2456","","<div style=""width:500px;"">
  <p>What determined the result of this run?</p>
  </div>","15","html-slider-response","62","1694026","0.0-10.0-1.5","121","1","2025-07-02 10:20:01","80fe4187154257d5fb01684ea91b68b9","188.36.3.22","Mozilla/5.0 (Windows NT 10.0; Win64; x64) AppleWebKit/537.36 (KHTML, like Gecko) Chrome/137.0.0.0 Safari/537.36","WebKit","Chrome","137.0.0.0","Windows","10.0","https://app.prolific.com/","hu-HU,hu;q=0.9,en-US;q=0.8,en;q=0.7","66d749dad04d6166d7928a7f","683db6dfa200031b80f2a654","68650755851971074672d75a","66d749dad04d6166d7928a7f","2025-07-02T10:48:16.532Z","","","","","","AttribQ","","","","","","","","","","","","","","","","","","","","","","","","","","","","","","","","","","","","","","50"
"2366","","<div style=""width:500px;"">
  <p>How much control did you have over the ball?</p>
  </div>","8","html-slider-response","63","1696393","0.0-10.0-2.5","121","1","2025-07-02 10:20:01","80fe4187154257d5fb01684ea91b68b9","188.36.3.22","Mozilla/5.0 (Windows NT 10.0; Win64; x64) AppleWebKit/537.36 (KHTML, like Gecko) Chrome/137.0.0.0 Safari/537.36","WebKit","Chrome","137.0.0.0","Windows","10.0","https://app.prolific.com/","hu-HU,hu;q=0.9,en-US;q=0.8,en;q=0.7","66d749dad04d6166d7928a7f","683db6dfa200031b80f2a654","68650755851971074672d75a","66d749dad04d6166d7928a7f","2025-07-02T10:48:18.899Z","","","","","","ControlQ","","","","","","","","","","","","","","","","","","","","","","","","","","","","","","","","","","","","","","50"
"3191","","<div style=""width:500px;"">
  <p>How would you describe your current emotional state?</p>
  </div>","40","html-slider-response","64","1699585","0.0-10.0-3.5","121","1","2025-07-02 10:20:01","80fe4187154257d5fb01684ea91b68b9","188.36.3.22","Mozilla/5.0 (Windows NT 10.0; Win64; x64) AppleWebKit/537.36 (KHTML, like Gecko) Chrome/137.0.0.0 Safari/537.36","WebKit","Chrome","137.0.0.0","Windows","10.0","https://app.prolific.com/","hu-HU,hu;q=0.9,en-US;q=0.8,en;q=0.7","66d749dad04d6166d7928a7f","683db6dfa200031b80f2a654","68650755851971074672d75a","66d749dad04d6166d7928a7f","2025-07-02T10:48:22.091Z","","","","","","StressQ","","","","","","","","","","","","","","","","","","","","","","","","","","","","","","","","","","","","","","50"
"1415","","<div style=""width:500px;"">
  <p>What best describes how you currently feel?</p>
  </div>","69","html-slider-response","65","1701001","0.0-10.0-4.5","121","1","2025-07-02 10:20:01","80fe4187154257d5fb01684ea91b68b9","188.36.3.22","Mozilla/5.0 (Windows NT 10.0; Win64; x64) AppleWebKit/537.36 (KHTML, like Gecko) Chrome/137.0.0.0 Safari/537.36","WebKit","Chrome","137.0.0.0","Windows","10.0","https://app.prolific.com/","hu-HU,hu;q=0.9,en-US;q=0.8,en;q=0.7","66d749dad04d6166d7928a7f","683db6dfa200031b80f2a654","68650755851971074672d75a","66d749dad04d6166d7928a7f","2025-07-02T10:48:23.507Z","","","","","","MotivationQ","","","","","","","","","","","","","","","","","","","","","","","","","","","","","","","","","","","","","","50"
"","","","","ctl-task-cpt","66","1743357","0.0-10.0-0.6","121","1","2025-07-02 10:20:01","80fe4187154257d5fb01684ea91b68b9","188.36.3.22","Mozilla/5.0 (Windows NT 10.0; Win64; x64) AppleWebKit/537.36 (KHTML, like Gecko) Chrome/137.0.0.0 Safari/537.36","WebKit","Chrome","137.0.0.0","Windows","10.0","https://app.prolific.com/","hu-HU,hu;q=0.9,en-US;q=0.8,en;q=0.7","66d749dad04d6166d7928a7f","683db6dfa200031b80f2a654","68650755851971074672d75a","66d749dad04d6166d7928a7f","2025-07-02T10:49:05.863Z","","","","","","","","","","","","","","","","win-only","1","g1:NE,g2:SW","0.4","7","0","1702237.9","945.8","5946.6","39335.6","1","4","4","6","2","-4","-5","7","12","0.05303030303030303","1051","3000","-3000","[""down"",""left""]","{""num_key_presses"":9,""num_perfect"":4,""num_errors"":1,""num_randdir"":4,""num_randdir_good_moves"":2,""num_whilered"":0,""num_whileblue"":1,""num_blue"":3,""num_good_moves"":6}","[415.57142857142856,416.47767857142856,0.2,415.57142857142856,416.47767857142856,104.8,418.57142857142856,416.47767857142856,205,454.57142857142856,413.47767857142856,310.2,455.57142857142856,423.47767857142856,411.2,97.57142857142857,793.4776785714286,514.9,5.571428571428569,870.4776785714286,615.1,24.57142857142857,848.4776785714286,715.7,49.57142857142857,809.4776785714286,819.9,57.57142857142857,788.4776785714286,920.3,59.57142857142857,783.4776785714286,1021.1,72.57142857142857,774.4776785714286,1124.7,692.5714285714286,625.4776785714286,1224.8,1003.5714285714286,600.4776785714286,1325.6,1010.5714285714286,596.4776785714286,1431.5,1010.5714285714286,596.4776785714286,1533.5,1010.5714285714286,596.4776785714286,1635.8,1010.5714285714286,596.4776785714286,1739.8,1010.5714285714286,596.4776785714286,1839.8,1010.5714285714286,596.4776785714286,1945.3,1010.5714285714286,596.4776785714286,2050.7,1010.5714285714286,596.4776785714286,2155.2,1010.5714285714286,596.4776785714286,2255.4,1010.5714285714286,596.4776785714286,2359.6,1010.5714285714286,596.4776785714286,2459.9,1010.5714285714286,596.4776785714286,2564.5,1010.5714285714286,596.4776785714286,2669.8,1010.5714285714286,596.4776785714286,2770.8,1010.5714285714286,596.4776785714286,2874.7,1010.5714285714286,596.4776785714286,2975.6,1010.5714285714286,596.4776785714286,3080,1010.5714285714286,596.4776785714286,3181.7,1010.5714285714286,596.4776785714286,3285.6,1010.5714285714286,596.4776785714286,3389.4,1010.5714285714286,596.4776785714286,3490.5,1010.5714285714286,596.4776785714286,3595.4,1010.5714285714286,596.4776785714286,3700.1,1010.5714285714286,596.4776785714286,3805.6,1010.5714285714286,596.4776785714286,3910.6,1010.5714285714286,596.4776785714286,4012.4,1010.5714285714286,596.4776785714286,4113.6,1010.5714285714286,596.4776785714286,4216,1010.5714285714286,596.4776785714286,4320.8,1010.5714285714286,596.4776785714286,4424.3,1010.5714285714286,596.4776785714286,4524.5,1010.5714285714286,596.4776785714286,4625,1010.5714285714286,596.4776785714286,4725.2,1010.5714285714286,596.4776785714286,4825.6,1010.5714285714286,596.4776785714286,4929.9]","[4698.2,4698.2,2314.8,2005.1,378.3,""oops"",""left"",""down"",""good_move"",7760.5,3061.9,2679.4,4698.6,382.5,""smooth"",""left"",""left"",""good_move"",10182,2421.1,2039.5,7760.9,381.6,""smooth"",""down"",""down"",""good_move"",16937.3,6755.1,3170.4,13451.7,315.2,""oops"",""left"",""down"",""good_move"",19358.6,2421.1,2044.6,16937.5,376.5,""smooth"",""left"",""left"",""good_move"",22197,2838.3,2482.2,19358.9,356,""oops"",""left"",""up"",""bad_move"",24107,1909.6,1545.1,22197.4,364.5,""oops"",""left"",""right"",""bad_move"",27344,3236.7,2946,24107.3,290.7,""smooth"",""left"",""left"",""good_move"",30497.2,3153,2860.5,27344.2,292.5,""while_blue"",""down"",""up"",""bad_move""]","",""
"1166","","<div style=""width:500px;"">
  <p>What determined the result of this run?</p>
  </div>","2","html-slider-response","67","1744524","0.0-10.0-1.6","121","1","2025-07-02 10:20:01","80fe4187154257d5fb01684ea91b68b9","188.36.3.22","Mozilla/5.0 (Windows NT 10.0; Win64; x64) AppleWebKit/537.36 (KHTML, like Gecko) Chrome/137.0.0.0 Safari/537.36","WebKit","Chrome","137.0.0.0","Windows","10.0","https://app.prolific.com/","hu-HU,hu;q=0.9,en-US;q=0.8,en;q=0.7","66d749dad04d6166d7928a7f","683db6dfa200031b80f2a654","68650755851971074672d75a","66d749dad04d6166d7928a7f","2025-07-02T10:49:07.031Z","","","","","","AttribQ","","","","","","","","","","","","","","","","","","","","","","","","","","","","","","","","","","","","","","50"
"2068","","<div style=""width:500px;"">
  <p>How much control did you have over the ball?</p>
  </div>","28","html-slider-response","68","1746594","0.0-10.0-2.6","121","1","2025-07-02 10:20:01","80fe4187154257d5fb01684ea91b68b9","188.36.3.22","Mozilla/5.0 (Windows NT 10.0; Win64; x64) AppleWebKit/537.36 (KHTML, like Gecko) Chrome/137.0.0.0 Safari/537.36","WebKit","Chrome","137.0.0.0","Windows","10.0","https://app.prolific.com/","hu-HU,hu;q=0.9,en-US;q=0.8,en;q=0.7","66d749dad04d6166d7928a7f","683db6dfa200031b80f2a654","68650755851971074672d75a","66d749dad04d6166d7928a7f","2025-07-02T10:49:09.100Z","","","","","","ControlQ","","","","","","","","","","","","","","","","","","","","","","","","","","","","","","","","","","","","","","50"
"2278","","<div style=""width:500px;"">
  <p>How would you describe your current emotional state?</p>
  </div>","50","html-slider-response","69","1748873","0.0-10.0-3.6","121","1","2025-07-02 10:20:01","80fe4187154257d5fb01684ea91b68b9","188.36.3.22","Mozilla/5.0 (Windows NT 10.0; Win64; x64) AppleWebKit/537.36 (KHTML, like Gecko) Chrome/137.0.0.0 Safari/537.36","WebKit","Chrome","137.0.0.0","Windows","10.0","https://app.prolific.com/","hu-HU,hu;q=0.9,en-US;q=0.8,en;q=0.7","66d749dad04d6166d7928a7f","683db6dfa200031b80f2a654","68650755851971074672d75a","66d749dad04d6166d7928a7f","2025-07-02T10:49:11.380Z","","","","","","StressQ","","","","","","","","","","","","","","","","","","","","","","","","","","","","","","","","","","","","","","50"
"1593","","<div style=""width:500px;"">
  <p>What best describes how you currently feel?</p>
  </div>","73","html-slider-response","70","1750468","0.0-10.0-4.6","121","1","2025-07-02 10:20:01","80fe4187154257d5fb01684ea91b68b9","188.36.3.22","Mozilla/5.0 (Windows NT 10.0; Win64; x64) AppleWebKit/537.36 (KHTML, like Gecko) Chrome/137.0.0.0 Safari/537.36","WebKit","Chrome","137.0.0.0","Windows","10.0","https://app.prolific.com/","hu-HU,hu;q=0.9,en-US;q=0.8,en;q=0.7","66d749dad04d6166d7928a7f","683db6dfa200031b80f2a654","68650755851971074672d75a","66d749dad04d6166d7928a7f","2025-07-02T10:49:12.974Z","","","","","","MotivationQ","","","","","","","","","","","","","","","","","","","","","","","","","","","","","","","","","","","","","","50"
"","","","","ctl-task-cpt","71","1794042","0.0-10.0-0.7","121","1","2025-07-02 10:20:01","80fe4187154257d5fb01684ea91b68b9","188.36.3.22","Mozilla/5.0 (Windows NT 10.0; Win64; x64) AppleWebKit/537.36 (KHTML, like Gecko) Chrome/137.0.0.0 Safari/537.36","WebKit","Chrome","137.0.0.0","Windows","10.0","https://app.prolific.com/","hu-HU,hu;q=0.9,en-US;q=0.8,en;q=0.7","66d749dad04d6166d7928a7f","683db6dfa200031b80f2a654","68650755851971074672d75a","66d749dad04d6166d7928a7f","2025-07-02T10:49:56.548Z","","","","","","","","","","","","","","","","win-only","1","g1:NE,g2:SW","0.3","8","0","1751703.4","382.5","5387","40555.7","1","4","8","6","2","8","8","15","7","0.11363636363636363","714.7","3000","35","[""down"",""left""]","{""num_key_presses"":12,""num_perfect"":5,""num_errors"":0,""num_randdir"":7,""num_randdir_good_moves"":4,""num_whilered"":0,""num_whileblue"":0,""num_blue"":1,""num_good_moves"":9}","[422.57142857142856,420.47767857142856,0.1,422.57142857142856,420.47767857142856,103.9,470.57142857142856,414.47767857142856,209.1,549.5714285714286,401.47767857142856,312.9,550.5714285714286,401.47767857142856,416.3,339.57142857142856,561.4776785714286,518.1,30.57142857142857,757.4776785714286,618.1,16.57142857142857,763.4776785714286,727.6,252.57142857142856,693.4776785714286,832.7,805.5714285714286,615.4776785714286,933.2,1044.5714285714287,570.4776785714286,1033.9,1096.5714285714287,550.4776785714286,1137.6,1096.5714285714287,550.4776785714286,1238.1,1096.5714285714287,550.4776785714286,1343,1096.5714285714287,550.4776785714286,1447.8,1096.5714285714287,550.4776785714286,1547.9,1096.5714285714287,550.4776785714286,1649.2,1096.5714285714287,550.4776785714286,1754,1096.5714285714287,550.4776785714286,1857.7,1096.5714285714287,550.4776785714286,1960.7,1096.5714285714287,550.4776785714286,2063,1096.5714285714287,550.4776785714286,2168.3,1096.5714285714287,550.4776785714286,2268.3,1096.5714285714287,550.4776785714286,2369.1,1096.5714285714287,550.4776785714286,2473.8,1096.5714285714287,550.4776785714286,2578.1,1096.5714285714287,550.4776785714286,2678.2,1096.5714285714287,550.4776785714286,2783.6,1096.5714285714287,550.4776785714286,2883.9,1096.5714285714287,550.4776785714286,2984,1096.5714285714287,550.4776785714286,3088.9,1096.5714285714287,550.4776785714286,3197.7,1096.5714285714287,550.4776785714286,3299,1096.5714285714287,550.4776785714286,3399.1,1096.5714285714287,550.4776785714286,3503.3,1096.5714285714287,550.4776785714286,3604.2,1096.5714285714287,550.4776785714286,3704.6,1096.5714285714287,550.4776785714286,3811.6,1096.5714285714287,550.4776785714286,3914.4,1096.5714285714287,550.4776785714286,4017.6,1096.5714285714287,550.4776785714286,4117.9,1096.5714285714287,550.4776785714286,4219,1096.5714285714287,550.4776785714286,4324.1,1096.5714285714287,550.4776785714286,4424.6,1096.5714285714287,550.4776785714286,4533.9,1096.5714285714287,550.4776785714286,4638.5,1096.5714285714287,550.4776785714286,4738.5,1096.5714285714287,550.4776785714286,4844.1,1096.5714285714287,550.4776785714286,4945.8]","[1393.5,1393.5,1000,0,393.5,""oops"",""left"",""down"",""good_move"",4367.4,2973.7,2659.1,1393.7,314.6,""smooth"",""left"",""left"",""good_move"",7261.8,2894,2572.2,4367.8,321.8,""oops"",""left"",""right"",""bad_move"",10493.1,3230.9,2941.1,7262.2,289.9,""oops"",""down"",""left"",""good_move"",13095.3,2602,2285.5,10493.3,316.5,""smooth"",""down"",""down"",""good_move"",15228.3,2132.8,1831,13095.5,301.8,""oops"",""left"",""right"",""bad_move"",21882.1,6653.6,3057.3,18533.6,291.2,""oops"",""left"",""left"",""good_move"",24755.7,2873.5,2588.3,21882.2,285.2,""oops"",""left"",""up"",""bad_move"",27392.9,2636.6,2342.7,24756.3,293.9,""oops"",""left"",""left"",""good_move"",30044.2,2651,2399.6,27393.2,251.4,""smooth"",""down"",""down"",""good_move"",32705.5,2661,2404.8,30044.5,256.2,""smooth"",""left"",""left"",""good_move"",35072.4,2366.5,2319.7,32705.9,46.8,""smooth"",""down"",""down"",""good_move""]","",""
"6813","","<div style=""width:500px;"">
  <p>What determined the result of this run?</p>
  </div>","66","html-slider-response","72","1800857","0.0-10.0-1.7","121","1","2025-07-02 10:20:01","80fe4187154257d5fb01684ea91b68b9","188.36.3.22","Mozilla/5.0 (Windows NT 10.0; Win64; x64) AppleWebKit/537.36 (KHTML, like Gecko) Chrome/137.0.0.0 Safari/537.36","WebKit","Chrome","137.0.0.0","Windows","10.0","https://app.prolific.com/","hu-HU,hu;q=0.9,en-US;q=0.8,en;q=0.7","66d749dad04d6166d7928a7f","683db6dfa200031b80f2a654","68650755851971074672d75a","66d749dad04d6166d7928a7f","2025-07-02T10:50:03.363Z","","","","","","AttribQ","","","","","","","","","","","","","","","","","","","","","","","","","","","","","","","","","","","","","","50"
"2341","","<div style=""width:500px;"">
  <p>How much control did you have over the ball?</p>
  </div>","33","html-slider-response","73","1803199","0.0-10.0-2.7","121","1","2025-07-02 10:20:01","80fe4187154257d5fb01684ea91b68b9","188.36.3.22","Mozilla/5.0 (Windows NT 10.0; Win64; x64) AppleWebKit/537.36 (KHTML, like Gecko) Chrome/137.0.0.0 Safari/537.36","WebKit","Chrome","137.0.0.0","Windows","10.0","https://app.prolific.com/","hu-HU,hu;q=0.9,en-US;q=0.8,en;q=0.7","66d749dad04d6166d7928a7f","683db6dfa200031b80f2a654","68650755851971074672d75a","66d749dad04d6166d7928a7f","2025-07-02T10:50:05.705Z","","","","","","ControlQ","","","","","","","","","","","","","","","","","","","","","","","","","","","","","","","","","","","","","","50"
"2874","","<div style=""width:500px;"">
  <p>How would you describe your current emotional state?</p>
  </div>","32","html-slider-response","74","1806074","0.0-10.0-3.7","121","1","2025-07-02 10:20:01","80fe4187154257d5fb01684ea91b68b9","188.36.3.22","Mozilla/5.0 (Windows NT 10.0; Win64; x64) AppleWebKit/537.36 (KHTML, like Gecko) Chrome/137.0.0.0 Safari/537.36","WebKit","Chrome","137.0.0.0","Windows","10.0","https://app.prolific.com/","hu-HU,hu;q=0.9,en-US;q=0.8,en;q=0.7","66d749dad04d6166d7928a7f","683db6dfa200031b80f2a654","68650755851971074672d75a","66d749dad04d6166d7928a7f","2025-07-02T10:50:08.580Z","","","","","","StressQ","","","","","","","","","","","","","","","","","","","","","","","","","","","","","","","","","","","","","","50"
"1872","","<div style=""width:500px;"">
  <p>What best describes how you currently feel?</p>
  </div>","73","html-slider-response","75","1807947","0.0-10.0-4.7","121","1","2025-07-02 10:20:01","80fe4187154257d5fb01684ea91b68b9","188.36.3.22","Mozilla/5.0 (Windows NT 10.0; Win64; x64) AppleWebKit/537.36 (KHTML, like Gecko) Chrome/137.0.0.0 Safari/537.36","WebKit","Chrome","137.0.0.0","Windows","10.0","https://app.prolific.com/","hu-HU,hu;q=0.9,en-US;q=0.8,en;q=0.7","66d749dad04d6166d7928a7f","683db6dfa200031b80f2a654","68650755851971074672d75a","66d749dad04d6166d7928a7f","2025-07-02T10:50:10.454Z","","","","","","MotivationQ","","","","","","","","","","","","","","","","","","","","","","","","","","","","","","","","","","","","","","50"
"","","","","ctl-task-cpt","76","1848289","0.0-10.0-0.8","121","1","2025-07-02 10:20:01","80fe4187154257d5fb01684ea91b68b9","188.36.3.22","Mozilla/5.0 (Windows NT 10.0; Win64; x64) AppleWebKit/537.36 (KHTML, like Gecko) Chrome/137.0.0.0 Safari/537.36","WebKit","Chrome","137.0.0.0","Windows","10.0","https://app.prolific.com/","hu-HU,hu;q=0.9,en-US;q=0.8,en;q=0.7","66d749dad04d6166d7928a7f","683db6dfa200031b80f2a654","68650755851971074672d75a","66d749dad04d6166d7928a7f","2025-07-02T10:50:50.795Z","","","","","","","","","","","","","","","","win-only","1","g1:NE,g2:SW","0.4","9","0","1809184.3","1234.3","6238.2","37321.4","1","4","4","6","2","4","3","18","15","0.13636363636363635","1716.9","3000","310","[""down"",""left""]","{""num_key_presses"":12,""num_perfect"":4,""num_errors"":1,""num_randdir"":7,""num_randdir_good_moves"":4,""num_whilered"":0,""num_whileblue"":1,""num_blue"":1,""num_good_moves"":9}","[428.57142857142856,413.47767857142856,0.3,430.57142857142856,413.47767857142856,100,710.5714285714286,450.47767857142856,201.5,987.5714285714286,463.47767857142856,303.3,996.5714285714286,460.47767857142856,406,996.5714285714286,460.47767857142856,508,996.5714285714286,460.47767857142856,616.1,996.5714285714286,460.47767857142856,716.9,996.5714285714286,460.47767857142856,817.1,996.5714285714286,460.47767857142856,922.4,996.5714285714286,459.47767857142856,1027.5,703.5714285714286,479.47767857142856,1132.2,223.57142857142856,630.4776785714286,1237.5,73.57142857142857,773.4776785714286,1345.1,46.57142857142857,791.4776785714286,1446.3,51.57142857142857,788.4776785714286,1547.1,53.57142857142857,786.4776785714286,1651.2,54.57142857142857,784.4776785714286,1751.8,445.57142857142856,732.4776785714286,1856.8,1025.5714285714287,657.4776785714286,1972.8,1037.5714285714287,650.4776785714286,2076.6,1037.5714285714287,649.4776785714286,2176.6,1037.5714285714287,648.4776785714286,2282.1,1037.5714285714287,648.4776785714286,2382.1,1037.5714285714287,648.4776785714286,2482.2,1037.5714285714287,648.4776785714286,2586,1037.5714285714287,648.4776785714286,2687.3,1037.5714285714287,648.4776785714286,2791.7,1037.5714285714287,648.4776785714286,2891.9,1037.5714285714287,648.4776785714286,2992.2,1037.5714285714287,648.4776785714286,3092.2,1037.5714285714287,648.4776785714286,3196.5,1037.5714285714287,648.4776785714286,3297.9,1037.5714285714287,648.4776785714286,3401.7,1037.5714285714287,648.4776785714286,3502.1,1037.5714285714287,648.4776785714286,3602.5,1037.5714285714287,648.4776785714286,3702.7,1037.5714285714287,648.4776785714286,3806.8,1037.5714285714287,648.4776785714286,3907.5,1037.5714285714287,648.4776785714286,4011.8,1037.5714285714287,648.4776785714286,4117.5,1037.5714285714287,648.4776785714286,4220,1037.5714285714287,648.4776785714286,4320.5,1037.5714285714287,648.4776785714286,4422.2,1037.5714285714287,648.4776785714286,4526.4,1037.5714285714287,648.4776785714286,4626.7,1037.5714285714287,648.4776785714286,4728.2,1037.5714285714287,648.4776785714286,4836.2,1037.5714285714287,648.4776785714286,4938.7]","[1381.8,1381.8,1000,0,381.8,""smooth"",""left"",""left"",""good_move"",4411.6,3029.5,2747.2,1382.1,282.3,""while_blue"",""down"",""left"",""good_move"",6573.2,2161.4,1793.6,4411.8,367.8,""oops"",""down"",""down"",""good_move"",8963.2,2389.5,2057.6,6573.7,331.9,""smooth"",""down"",""down"",""good_move"",11592.7,2629.4,2238.6,8963.3,390.8,""oops"",""left"",""right"",""bad_move"",13686.2,2093.1,1751.6,11593.1,341.5,""oops"",""down"",""up"",""bad_move"",16440.2,2753.7,2418.4,13686.5,335.3,""oops"",""left"",""left"",""good_move"",19578.7,3138.2,2856.1,16440.5,282.1,""smooth"",""down"",""down"",""good_move"",22266,2686.9,2381.6,19579.2,305.2,""oops"",""down"",""right"",""bad_move"",25458.4,3192.2,2885.6,22266.2,306.6,""oops"",""left"",""left"",""good_move"",27965.6,2507,2208.4,25458.6,298.6,""smooth"",""left"",""left"",""good_move"",30972.4,3006.6,2688.4,27965.8,318.2,""oops"",""down"",""down"",""good_move""]","",""
"1466","","<div style=""width:500px;"">
  <p>What determined the result of this run?</p>
  </div>","56","html-slider-response","77","1849756","0.0-10.0-1.8","121","1","2025-07-02 10:20:01","80fe4187154257d5fb01684ea91b68b9","188.36.3.22","Mozilla/5.0 (Windows NT 10.0; Win64; x64) AppleWebKit/537.36 (KHTML, like Gecko) Chrome/137.0.0.0 Safari/537.36","WebKit","Chrome","137.0.0.0","Windows","10.0","https://app.prolific.com/","hu-HU,hu;q=0.9,en-US;q=0.8,en;q=0.7","66d749dad04d6166d7928a7f","683db6dfa200031b80f2a654","68650755851971074672d75a","66d749dad04d6166d7928a7f","2025-07-02T10:50:52.262Z","","","","","","AttribQ","","","","","","","","","","","","","","","","","","","","","","","","","","","","","","","","","","","","","","50"
"3110","","<div style=""width:500px;"">
  <p>How much control did you have over the ball?</p>
  </div>","63","html-slider-response","78","1852868","0.0-10.0-2.8","121","1","2025-07-02 10:20:01","80fe4187154257d5fb01684ea91b68b9","188.36.3.22","Mozilla/5.0 (Windows NT 10.0; Win64; x64) AppleWebKit/537.36 (KHTML, like Gecko) Chrome/137.0.0.0 Safari/537.36","WebKit","Chrome","137.0.0.0","Windows","10.0","https://app.prolific.com/","hu-HU,hu;q=0.9,en-US;q=0.8,en;q=0.7","66d749dad04d6166d7928a7f","683db6dfa200031b80f2a654","68650755851971074672d75a","66d749dad04d6166d7928a7f","2025-07-02T10:50:55.374Z","","","","","","ControlQ","","","","","","","","","","","","","","","","","","","","","","","","","","","","","","","","","","","","","","50"
"1499","","<div style=""width:500px;"">
  <p>How would you describe your current emotional state?</p>
  </div>","32","html-slider-response","79","1854368","0.0-10.0-3.8","121","1","2025-07-02 10:20:01","80fe4187154257d5fb01684ea91b68b9","188.36.3.22","Mozilla/5.0 (Windows NT 10.0; Win64; x64) AppleWebKit/537.36 (KHTML, like Gecko) Chrome/137.0.0.0 Safari/537.36","WebKit","Chrome","137.0.0.0","Windows","10.0","https://app.prolific.com/","hu-HU,hu;q=0.9,en-US;q=0.8,en;q=0.7","66d749dad04d6166d7928a7f","683db6dfa200031b80f2a654","68650755851971074672d75a","66d749dad04d6166d7928a7f","2025-07-02T10:50:56.875Z","","","","","","StressQ","","","","","","","","","","","","","","","","","","","","","","","","","","","","","","","","","","","","","","50"
"2557","","<div style=""width:500px;"">
  <p>What best describes how you currently feel?</p>
  </div>","67","html-slider-response","80","1856927","0.0-10.0-4.8","121","1","2025-07-02 10:20:01","80fe4187154257d5fb01684ea91b68b9","188.36.3.22","Mozilla/5.0 (Windows NT 10.0; Win64; x64) AppleWebKit/537.36 (KHTML, like Gecko) Chrome/137.0.0.0 Safari/537.36","WebKit","Chrome","137.0.0.0","Windows","10.0","https://app.prolific.com/","hu-HU,hu;q=0.9,en-US;q=0.8,en;q=0.7","66d749dad04d6166d7928a7f","683db6dfa200031b80f2a654","68650755851971074672d75a","66d749dad04d6166d7928a7f","2025-07-02T10:50:59.433Z","","","","","","MotivationQ","","","","","","","","","","","","","","","","","","","","","","","","","","","","","","","","","","","","","","50"
