"rt","response_timestamp","stimulus","response","trial_type","trial_index","time_elapsed","internal_node_id","run_id","condition","recorded_at","source_code_version","ip","user_agent","device","browser","browser_version","platform","platform_version","referer","accept_language","PROLIFIC_PID","STUDY_ID","SESSION_ID","prolific_id","realtime","view_history","question_order","consent","success","question_id","eventType","responses","item_order","radio_event_ids","radio_event_times","key_event_times","mouse_event_times","straightlining","zigzagging","honeypot","which_type","canvas_config","goals_layout","control_level","trial_number","tutorial_trial_number","trial_start_time","phase1_start_time","phase2_start_time","phase3_start_time","goal_1_value","goal_1_distance","goal_2_value","goal_2_distance","goal_selected","outcome","outcome_total","participant_final_score","participant_initial_score","participant_final_score_prop","goal_choice_rt","allocated_time","allocated_time_remaining","goal_direction","counts","mouse_movements","key_presses","correct","slider_start"
"17518","1751451544077","<p style='font-size:40px;line-height:1.25'><strong>Welcome to the experiment!</strong></p><p style='font-size:1.1em;line-height:1.25'>Thank you for your interest in our experiment! Before you begin, it is important that we obtain your informed consent to participate in the study.</p><p style='font-size:1.1em;line-height:1.25'>On the next screen will be an <strong>information sheet</strong> for you to read. To participate in the study we need you to read this information sheet and the following consent form carefully. If you agree with all the statements, please click the <strong>I agree</strong> button.</p><p style='font-size:1.1em;line-height:1.25'>Press <strong>Next</strong> to read the information sheet.</p>","0","custom-html-button-response","0","17520","0.0-0.0","46","1","2025-07-02 10:18:45","80fe4187154257d5fb01684ea91b68b9","89.154.153.225","Mozilla/5.0 (Macintosh; Intel Mac OS X 10_15_7) AppleWebKit/537.36 (KHTML, like Gecko) Chrome/138.0.0.0 Safari/537.36","Macintosh","Chrome","138.0.0.0","OS X","10_15_7","https://app.prolific.com/","pt-PT,pt;q=0.9,en-US;q=0.8,en;q=0.7,ca;q=0.6,fr;q=0.5,de;q=0.4","66db15814e7818d8b9593ad5","683db6dfa200031b80f2a654","686507774ac7943ff1a98779","66db15814e7818d8b9593ad5","2025-07-02T10:19:04.078Z","","","","","","","","","","","","","","","","","","","","","","","","","","","","","","","","","","","","","","","","","","","",""
"24585","","","","instructions","1","42107","0.0-1.0","46","1","2025-07-02 10:18:45","80fe4187154257d5fb01684ea91b68b9","89.154.153.225","Mozilla/5.0 (Macintosh; Intel Mac OS X 10_15_7) AppleWebKit/537.36 (KHTML, like Gecko) Chrome/138.0.0.0 Safari/537.36","Macintosh","Chrome","138.0.0.0","OS X","10_15_7","https://app.prolific.com/","pt-PT,pt;q=0.9,en-US;q=0.8,en;q=0.7,ca;q=0.6,fr;q=0.5,de;q=0.4","66db15814e7818d8b9593ad5","683db6dfa200031b80f2a654","686507774ac7943ff1a98779","66db15814e7818d8b9593ad5","","[{""page_index"":0,""viewing_time"":14863},{""page_index"":1,""viewing_time"":9721}]","","","","","","","","","","","","","","","","","","","","","","","","","","","","","","","","","","","","","","","","","","",""
"4703","","","{""Q0"":"""",""Q1"":"""",""Q2"":"""",""Q3"":"""",""Q4"":"""",""Q5"":"""",""Q6"":""I agree""}","survey-multi-choice","2","46813","0.0-2.0","46","1","2025-07-02 10:18:45","80fe4187154257d5fb01684ea91b68b9","89.154.153.225","Mozilla/5.0 (Macintosh; Intel Mac OS X 10_15_7) AppleWebKit/537.36 (KHTML, like Gecko) Chrome/138.0.0.0 Safari/537.36","Macintosh","Chrome","138.0.0.0","OS X","10_15_7","https://app.prolific.com/","pt-PT,pt;q=0.9,en-US;q=0.8,en;q=0.7,ca;q=0.6,fr;q=0.5,de;q=0.4","66db15814e7818d8b9593ad5","683db6dfa200031b80f2a654","686507774ac7943ff1a98779","66db15814e7818d8b9593ad5","","","[0,1,2,3,4,5,6]","true","","","","","","","","","","","","","","","","","","","","","","","","","","","","","","","","","","","","","","","","",""
"12186","","","","fullscreen","3","60003","0.0-4.0","46","1","2025-07-02 10:18:45","80fe4187154257d5fb01684ea91b68b9","89.154.153.225","Mozilla/5.0 (Macintosh; Intel Mac OS X 10_15_7) AppleWebKit/537.36 (KHTML, like Gecko) Chrome/138.0.0.0 Safari/537.36","Macintosh","Chrome","138.0.0.0","OS X","10_15_7","https://app.prolific.com/","pt-PT,pt;q=0.9,en-US;q=0.8,en;q=0.7,ca;q=0.6,fr;q=0.5,de;q=0.4","66db15814e7818d8b9593ad5","683db6dfa200031b80f2a654","686507774ac7943ff1a98779","66db15814e7818d8b9593ad5","","","","","true","","","","","","","","","","","","","","","","","","","","","","","","","","","","","","","","","","","","","","","",""
"4874","1751451591436"," <p style='font-size:1.1em;line-height:1.25'>Thank you for completing the consent form and closing all other tabs.</p><p style='font-size:1.1em;line-height:1.25'>We will now invite you to fill in some demographic information and questionnaires, before starting the game.<br>This will take about 5 minutes.<br></p><p style='font-size:1.1em;line-height:1.25'>Press the <strong>Next</strong> button to continue.</p>","0","custom-html-button-response","4","64879","0.0-5.0","46","1","2025-07-02 10:18:45","80fe4187154257d5fb01684ea91b68b9","89.154.153.225","Mozilla/5.0 (Macintosh; Intel Mac OS X 10_15_7) AppleWebKit/537.36 (KHTML, like Gecko) Chrome/138.0.0.0 Safari/537.36","Macintosh","Chrome","138.0.0.0","OS X","10_15_7","https://app.prolific.com/","pt-PT,pt;q=0.9,en-US;q=0.8,en;q=0.7,ca;q=0.6,fr;q=0.5,de;q=0.4","66db15814e7818d8b9593ad5","683db6dfa200031b80f2a654","686507774ac7943ff1a98779","66db15814e7818d8b9593ad5","2025-07-02T10:19:51.437Z","","","","","","","","","","","","","","","","","","","","","","","","","","","","","","","","","","","","","","","","","","","",""
"2729","","","{""age"":""29""}","survey-text","5","67612","0.0-6.0-0.0","46","1","2025-07-02 10:18:45","80fe4187154257d5fb01684ea91b68b9","89.154.153.225","Mozilla/5.0 (Macintosh; Intel Mac OS X 10_15_7) AppleWebKit/537.36 (KHTML, like Gecko) Chrome/138.0.0.0 Safari/537.36","Macintosh","Chrome","138.0.0.0","OS X","10_15_7","https://app.prolific.com/","pt-PT,pt;q=0.9,en-US;q=0.8,en;q=0.7,ca;q=0.6,fr;q=0.5,de;q=0.4","66db15814e7818d8b9593ad5","683db6dfa200031b80f2a654","686507774ac7943ff1a98779","66db15814e7818d8b9593ad5","","","","","","0","demographics","","","","","","","","","","","","","","","","","","","","","","","","","","","","","","","","","","","","","",""
"3033","","","{""gender_identity"":""female/woman""}","survey-multi-choice","6","70647","0.0-6.0-1.0","46","1","2025-07-02 10:18:45","80fe4187154257d5fb01684ea91b68b9","89.154.153.225","Mozilla/5.0 (Macintosh; Intel Mac OS X 10_15_7) AppleWebKit/537.36 (KHTML, like Gecko) Chrome/138.0.0.0 Safari/537.36","Macintosh","Chrome","138.0.0.0","OS X","10_15_7","https://app.prolific.com/","pt-PT,pt;q=0.9,en-US;q=0.8,en;q=0.7,ca;q=0.6,fr;q=0.5,de;q=0.4","66db15814e7818d8b9593ad5","683db6dfa200031b80f2a654","686507774ac7943ff1a98779","66db15814e7818d8b9593ad5","","","[0]","","","1","demographics","","","","","","","","","","","","","","","","","","","","","","","","","","","","","","","","","","","","","",""
"2509","","","{""assigned_sex"":""female""}","survey-multi-choice","7","73158","0.0-6.0-2.0","46","1","2025-07-02 10:18:45","80fe4187154257d5fb01684ea91b68b9","89.154.153.225","Mozilla/5.0 (Macintosh; Intel Mac OS X 10_15_7) AppleWebKit/537.36 (KHTML, like Gecko) Chrome/138.0.0.0 Safari/537.36","Macintosh","Chrome","138.0.0.0","OS X","10_15_7","https://app.prolific.com/","pt-PT,pt;q=0.9,en-US;q=0.8,en;q=0.7,ca;q=0.6,fr;q=0.5,de;q=0.4","66db15814e7818d8b9593ad5","683db6dfa200031b80f2a654","686507774ac7943ff1a98779","66db15814e7818d8b9593ad5","","","[0]","","","2","demographics","","","","","","","","","","","","","","","","","","","","","","","","","","","","","","","","","","","","","",""
"4996","","","{""menstrual_cycle"":""Yes""}","survey-multi-choice","8","78156","0.0-6.0-3.0","46","1","2025-07-02 10:18:45","80fe4187154257d5fb01684ea91b68b9","89.154.153.225","Mozilla/5.0 (Macintosh; Intel Mac OS X 10_15_7) AppleWebKit/537.36 (KHTML, like Gecko) Chrome/138.0.0.0 Safari/537.36","Macintosh","Chrome","138.0.0.0","OS X","10_15_7","https://app.prolific.com/","pt-PT,pt;q=0.9,en-US;q=0.8,en;q=0.7,ca;q=0.6,fr;q=0.5,de;q=0.4","66db15814e7818d8b9593ad5","683db6dfa200031b80f2a654","686507774ac7943ff1a98779","66db15814e7818d8b9593ad5","","","[0]","","","4","demographics","","","","","","","","","","","","","","","","","","","","","","","","","","","","","","","","","","","","","",""
"5185","","","{""education"":""Master's Degree (e.g., MSc)""}","survey-multi-choice","9","83343","0.0-6.0-4.0","46","1","2025-07-02 10:18:45","80fe4187154257d5fb01684ea91b68b9","89.154.153.225","Mozilla/5.0 (Macintosh; Intel Mac OS X 10_15_7) AppleWebKit/537.36 (KHTML, like Gecko) Chrome/138.0.0.0 Safari/537.36","Macintosh","Chrome","138.0.0.0","OS X","10_15_7","https://app.prolific.com/","pt-PT,pt;q=0.9,en-US;q=0.8,en;q=0.7,ca;q=0.6,fr;q=0.5,de;q=0.4","66db15814e7818d8b9593ad5","683db6dfa200031b80f2a654","686507774ac7943ff1a98779","66db15814e7818d8b9593ad5","","","[0]","","","5","demographics","","","","","","","","","","","","","","","","","","","","","","","","","","","","","","","","","","","","","",""
"3763","","","{""education"":""Bachelor's Degree (e.g., BA)""}","survey-multi-choice","10","87108","0.0-6.0-5.0","46","1","2025-07-02 10:18:45","80fe4187154257d5fb01684ea91b68b9","89.154.153.225","Mozilla/5.0 (Macintosh; Intel Mac OS X 10_15_7) AppleWebKit/537.36 (KHTML, like Gecko) Chrome/138.0.0.0 Safari/537.36","Macintosh","Chrome","138.0.0.0","OS X","10_15_7","https://app.prolific.com/","pt-PT,pt;q=0.9,en-US;q=0.8,en;q=0.7,ca;q=0.6,fr;q=0.5,de;q=0.4","66db15814e7818d8b9593ad5","683db6dfa200031b80f2a654","686507774ac7943ff1a98779","66db15814e7818d8b9593ad5","2025-07-02T10:20:13.666Z","","[0]","","","6","demographics","","","","","","","","","","","","","","","","","","","","","","","","","","","","","","","","","","","","","",""
"92302","","","{""mental_health_condition"":""anxiety disorder "",""mental_health_treatment"":""regular therapy sessions, CBT (cognitive behavioral therapy)"",""psychiatric_medication"":""no medication""}","survey-text","11","179413","0.0-7.0-0.0","46","1","2025-07-02 10:18:45","80fe4187154257d5fb01684ea91b68b9","89.154.153.225","Mozilla/5.0 (Macintosh; Intel Mac OS X 10_15_7) AppleWebKit/537.36 (KHTML, like Gecko) Chrome/138.0.0.0 Safari/537.36","Macintosh","Chrome","138.0.0.0","OS X","10_15_7","https://app.prolific.com/","pt-PT,pt;q=0.9,en-US;q=0.8,en;q=0.7,ca;q=0.6,fr;q=0.5,de;q=0.4","66db15814e7818d8b9593ad5","683db6dfa200031b80f2a654","686507774ac7943ff1a98779","66db15814e7818d8b9593ad5","2025-07-02T10:21:45.971Z","","","","","1","mental_health","","","","","","","","","","","","","","","","","","","","","","","","","","","","","","","","","","","","","",""
"20679","","","{""depression_history"":[""Yes""]}","survey-multi-select","12","200095","0.0-7.0-1.0","46","1","2025-07-02 10:18:45","80fe4187154257d5fb01684ea91b68b9","89.154.153.225","Mozilla/5.0 (Macintosh; Intel Mac OS X 10_15_7) AppleWebKit/537.36 (KHTML, like Gecko) Chrome/138.0.0.0 Safari/537.36","Macintosh","Chrome","138.0.0.0","OS X","10_15_7","https://app.prolific.com/","pt-PT,pt;q=0.9,en-US;q=0.8,en;q=0.7,ca;q=0.6,fr;q=0.5,de;q=0.4","66db15814e7818d8b9593ad5","683db6dfa200031b80f2a654","686507774ac7943ff1a98779","66db15814e7818d8b9593ad5","","","[0]","","","","mental_health","","","","","","","","","","","","","","","","","","","","","","","","","","","","","","","","","","","","","",""
"9921","","","{""depression_episodes"":""3-5"",""depression_recent"":""Within the past year""}","survey-multi-choice","13","210018","0.0-7.0-2.0-0.0","46","1","2025-07-02 10:18:45","80fe4187154257d5fb01684ea91b68b9","89.154.153.225","Mozilla/5.0 (Macintosh; Intel Mac OS X 10_15_7) AppleWebKit/537.36 (KHTML, like Gecko) Chrome/138.0.0.0 Safari/537.36","Macintosh","Chrome","138.0.0.0","OS X","10_15_7","https://app.prolific.com/","pt-PT,pt;q=0.9,en-US;q=0.8,en;q=0.7,ca;q=0.6,fr;q=0.5,de;q=0.4","66db15814e7818d8b9593ad5","683db6dfa200031b80f2a654","686507774ac7943ff1a98779","66db15814e7818d8b9593ad5","2025-07-02T10:22:16.576Z","","[0,1]","","","3","mental_health","","","","","","","","","","","","","","","","","","","","","","","","","","","","","","","","","","","","","",""
"57185.40000000014","","","","survey-template","14","267209","0.0-7.0-3.0","46","1","2025-07-02 10:18:45","80fe4187154257d5fb01684ea91b68b9","89.154.153.225","Mozilla/5.0 (Macintosh; Intel Mac OS X 10_15_7) AppleWebKit/537.36 (KHTML, like Gecko) Chrome/138.0.0.0 Safari/537.36","Macintosh","Chrome","138.0.0.0","OS X","10_15_7","https://app.prolific.com/","pt-PT,pt;q=0.9,en-US;q=0.8,en;q=0.7,ca;q=0.6,fr;q=0.5,de;q=0.4","66db15814e7818d8b9593ad5","683db6dfa200031b80f2a654","686507774ac7943ff1a98779","66db15814e7818d8b9593ad5","2025-07-02T10:23:13.767Z","","","","","","ius","{""Q01"":""2"",""Q02"":""3"",""Q03"":""2"",""Q04"":""1"",""Q05"":""2"",""Q06"":""2"",""Q07"":""3"",""Q08"":""0"",""Q09"":""3"",""Q10"":""1"",""Q11"":""2"",""Q12"":""3"",""Q13"":""1""}","[0,1,2,3,4,5,6,7,8,9,10,11,12]","[""Q01"",""Q02"",""Q03"",""Q04"",""Q05"",""Q06"",""Q07"",""Q08"",""Q09"",""Q10"",""Q11"",""Q13"",""Q12""]","[9334.40000000014,10634.40000000014,15558.100000000093,16392.5,23369.699999999953,25307.800000000047,31786.699999999953,33152.60000000009,41466.40000000014,42673.5,46346.40000000014,52071.10000000009,56277.69999999995]","[]","[8015.40000000014,9334.40000000014,10634.40000000014,13167.300000000047,15558.100000000093,16392.5,21464.5,23369.699999999953,25307.800000000047,31786.699999999953,33152.60000000009,39974.30000000005,41466.40000000014,42673.5,46346.40000000014,48904.10000000009,52071.10000000009,53157.5,56277.69999999995,57181.90000000014]","0.38461538461538464","0.5833333333333334","0","","","","","","","","","","","","","","","","","","","","","","","","","","","","",""
"2807","1751451796575","<p style='font-size:1.1em;line-height:1.25'>In the following, we will ask you a few questions relating to your experiences over the past month.<br></p><p style='font-size:1.1em;line-height:1.25'>Press the <strong>Next</strong> button to continue.</p>","0","custom-html-button-response","15","270018","0.0-7.0-4.0","46","1","2025-07-02 10:18:45","80fe4187154257d5fb01684ea91b68b9","89.154.153.225","Mozilla/5.0 (Macintosh; Intel Mac OS X 10_15_7) AppleWebKit/537.36 (KHTML, like Gecko) Chrome/138.0.0.0 Safari/537.36","Macintosh","Chrome","138.0.0.0","OS X","10_15_7","https://app.prolific.com/","pt-PT,pt;q=0.9,en-US;q=0.8,en;q=0.7,ca;q=0.6,fr;q=0.5,de;q=0.4","66db15814e7818d8b9593ad5","683db6dfa200031b80f2a654","686507774ac7943ff1a98779","66db15814e7818d8b9593ad5","2025-07-02T10:23:16.576Z","","","","","","","","","","","","","","","","","","","","","","","","","","","","","","","","","","","","","","","","","","","",""
"54800.09999999986","","","","survey-template","16","324821","0.0-7.0-5.0","46","1","2025-07-02 10:18:45","80fe4187154257d5fb01684ea91b68b9","89.154.153.225","Mozilla/5.0 (Macintosh; Intel Mac OS X 10_15_7) AppleWebKit/537.36 (KHTML, like Gecko) Chrome/138.0.0.0 Safari/537.36","Macintosh","Chrome","138.0.0.0","OS X","10_15_7","https://app.prolific.com/","pt-PT,pt;q=0.9,en-US;q=0.8,en;q=0.7,ca;q=0.6,fr;q=0.5,de;q=0.4","66db15814e7818d8b9593ad5","683db6dfa200031b80f2a654","686507774ac7943ff1a98779","66db15814e7818d8b9593ad5","2025-07-02T10:24:11.379Z","","","","","","pss","{""Q01"":""2"",""Q02"":""3"",""Q03"":""3"",""Q04"":""2"",""Q05"":""3"",""Q06"":""2"",""Q07"":""1"",""Q08"":""2"",""Q09"":""1"",""Q10"":""2""}","[0,1,2,3,4,5,6,7,8,9]","[""Q01"",""Q02"",""Q03"",""Q04"",""Q05"",""Q06"",""Q07"",""Q07"",""Q08"",""Q09"",""Q10""]","[10832.399999999907,13874.699999999953,16325.899999999907,20257.09999999986,25564.300000000047,34276.39999999991,36207.19999999995,38668.59999999986,43207.59999999986,47688.5,53854.89999999991]","[]","[0.19999999995343387,10832.399999999907,13874.699999999953,16325.899999999907,20257.09999999986,25564.300000000047,30947.59999999986,34276.39999999991,36207.19999999995,38668.59999999986,43207.59999999986,47688.5,53854.89999999991,54796.80000000005]","0.5","0.8888888888888888","0","","","","","","","","","","","","","","","","","","","","","","","","","","","","",""
"1965","1751451853345","<p style='font-size:1.1em;line-height:1.25'>Thank you for your answers! Now we will ask you a few more questions relating to your feelings in the last 24 hours.<br></p><p style='font-size:1.1em;line-height:1.25'>Press the <strong>Next</strong> button to continue.</p>","0","custom-html-button-response","17","326788","0.0-7.0-6.0","46","1","2025-07-02 10:18:45","80fe4187154257d5fb01684ea91b68b9","89.154.153.225","Mozilla/5.0 (Macintosh; Intel Mac OS X 10_15_7) AppleWebKit/537.36 (KHTML, like Gecko) Chrome/138.0.0.0 Safari/537.36","Macintosh","Chrome","138.0.0.0","OS X","10_15_7","https://app.prolific.com/","pt-PT,pt;q=0.9,en-US;q=0.8,en;q=0.7,ca;q=0.6,fr;q=0.5,de;q=0.4","66db15814e7818d8b9593ad5","683db6dfa200031b80f2a654","686507774ac7943ff1a98779","66db15814e7818d8b9593ad5","2025-07-02T10:24:13.346Z","","","","","","","","","","","","","","","","","","","","","","","","","","","","","","","","","","","","","","","","","","","",""
"70821.8999999999","","","","survey-template","18","397615","0.0-7.0-7.0","46","1","2025-07-02 10:18:45","80fe4187154257d5fb01684ea91b68b9","89.154.153.225","Mozilla/5.0 (Macintosh; Intel Mac OS X 10_15_7) AppleWebKit/537.36 (KHTML, like Gecko) Chrome/138.0.0.0 Safari/537.36","Macintosh","Chrome","138.0.0.0","OS X","10_15_7","https://app.prolific.com/","pt-PT,pt;q=0.9,en-US;q=0.8,en;q=0.7,ca;q=0.6,fr;q=0.5,de;q=0.4","66db15814e7818d8b9593ad5","683db6dfa200031b80f2a654","686507774ac7943ff1a98779","66db15814e7818d8b9593ad5","2025-07-02T10:25:24.173Z","","","","","","drsp","{""Q01"":""1"",""Q02"":""2"",""Q03"":""0"",""Q04"":""2"",""Q05"":""0"",""Q06"":""2"",""Q07"":""0"",""Q08"":""0"",""Q09"":""1"",""Q10"":""2"",""Q11"":""2"",""Q12"":""3"",""Q13"":""3"",""Q14"":""0"",""Q15"":""2"",""Q16"":""4"",""Q17"":""4"",""Q18"":""1"",""Q19"":""1"",""Q20"":""2"",""Q21"":""2""}","[0,1,2,3,4,5,6,7,8,9,10,11,12,13,14,15,16,17,18,19,20]","[""Q01"",""Q02"",""Q03"",""Q04"",""Q05"",""Q06"",""Q07"",""Q08"",""Q09"",""Q10"",""Q11"",""Q12"",""Q13"",""Q14"",""Q15"",""Q16"",""Q16"",""Q17"",""Q18"",""Q19"",""Q19"",""Q20"",""Q21""]","[5749.899999999907,6667.399999999907,11112.899999999907,12270.699999999953,13576.199999999953,16163.899999999907,19248.699999999953,20129.5,22142,23589.300000000047,24897.899999999907,26811.399999999907,28912.899999999907,34078.5,38765.89999999991,41062.30000000005,42871.69999999995,44522,48055.80000000005,52351.30000000005,55403.19999999995,64761,69993.3999999999]","[]","[0,5749.899999999907,6667.399999999907,11112.899999999907,12270.699999999953,13576.199999999953,16163.899999999907,19248.699999999953,20129.5,22142,23589.300000000047,24897.899999999907,26811.399999999907,28912.899999999907,34078.5,38765.89999999991,41062.30000000005,42871.69999999995,44522,48055.80000000005,52351.30000000005,55403.19999999995,64761,69993.3999999999,70816.69999999995]","0.38095238095238093","0.25","0","","","","","","","","","","","","","","","","","","","","","","","","","","","","",""
"14707.800000000047","","","","survey-template","19","412325","0.0-7.0-8.0","46","1","2025-07-02 10:18:45","80fe4187154257d5fb01684ea91b68b9","89.154.153.225","Mozilla/5.0 (Macintosh; Intel Mac OS X 10_15_7) AppleWebKit/537.36 (KHTML, like Gecko) Chrome/138.0.0.0 Safari/537.36","Macintosh","Chrome","138.0.0.0","OS X","10_15_7","https://app.prolific.com/","pt-PT,pt;q=0.9,en-US;q=0.8,en;q=0.7,ca;q=0.6,fr;q=0.5,de;q=0.4","66db15814e7818d8b9593ad5","683db6dfa200031b80f2a654","686507774ac7943ff1a98779","66db15814e7818d8b9593ad5","2025-07-02T10:25:38.883Z","","","","","","stress","{""Q01"":""3"",""Q02"":""4"",""Q03"":""1""}","[0,1,2]","[""Q01"",""Q02"",""Q03""]","[6103.800000000047,8974.300000000047,13448.5]","[]","[6103.800000000047,8974.300000000047,13448.5,14706.600000000093]","0.6666666666666666","0","0","","","","","","","","","","","","","","","","","","","","","","","","","","","","",""
"96502","","","","instructions","20","508829","0.0-8.0-0.0","46","1","2025-07-02 10:18:45","80fe4187154257d5fb01684ea91b68b9","89.154.153.225","Mozilla/5.0 (Macintosh; Intel Mac OS X 10_15_7) AppleWebKit/537.36 (KHTML, like Gecko) Chrome/138.0.0.0 Safari/537.36","Macintosh","Chrome","138.0.0.0","OS X","10_15_7","https://app.prolific.com/","pt-PT,pt;q=0.9,en-US;q=0.8,en;q=0.7,ca;q=0.6,fr;q=0.5,de;q=0.4","66db15814e7818d8b9593ad5","683db6dfa200031b80f2a654","686507774ac7943ff1a98779","66db15814e7818d8b9593ad5","","[{""page_index"":0,""viewing_time"":39732},{""page_index"":1,""viewing_time"":20385},{""page_index"":2,""viewing_time"":7974},{""page_index"":3,""viewing_time"":28411}]","","","","","","","","","","","","","","","","","","","","","","","","","","","","","","","","","","","","","","","","","","",""
"","","","","ctl-task-cpt","21","538520","0.0-8.0-1.0","46","1","2025-07-02 10:18:45","80fe4187154257d5fb01684ea91b68b9","89.154.153.225","Mozilla/5.0 (Macintosh; Intel Mac OS X 10_15_7) AppleWebKit/537.36 (KHTML, like Gecko) Chrome/138.0.0.0 Safari/537.36","Macintosh","Chrome","138.0.0.0","OS X","10_15_7","https://app.prolific.com/","pt-PT,pt;q=0.9,en-US;q=0.8,en;q=0.7,ca;q=0.6,fr;q=0.5,de;q=0.4","66db15814e7818d8b9593ad5","683db6dfa200031b80f2a654","686507774ac7943ff1a98779","66db15814e7818d8b9593ad5","","","","","","","","","","","","","","","","","win-only","1","g1:NE,g2:SW","1","0","1","510738.4","4413.3","8416.4","26682","2","4","4","6","1","2","1","1","0","0.007575757575757576","1449.3","4000","1380","[""up"",""right""]","{""num_key_presses"":5,""num_perfect"":4,""num_errors"":1,""num_randdir"":0,""num_randdir_good_moves"":0,""num_whilered"":0,""num_whileblue"":0,""num_blue"":1,""num_good_moves"":4}","[731,731.796875,0.6,731,731.796875,103,731,731.796875,208.2,731,731.796875,312.8,731,731.796875,418.2,731,731.796875,523.3,731,731.796875,628.1,731,731.796875,732.7,761,703.796875,838.3,1131,357.796875,942.8,1377,129.796875,1042.8,1391,99.796875,1148.3,1393,85.796875,1252.3,1393,85.796875,1352.6,1393,85.796875,1453.3,1393,85.796875,1557.9,1393,85.796875,1658.2,1393,85.796875,1762.8,1393,85.796875,1862.8,1393,85.796875,1963.1,1393,85.796875,2063,1393,85.796875,2167.8,1393,85.796875,2273,1393,85.796875,2373,1393,85.796875,2473.3,1393,85.796875,2578,1393,85.796875,2682,1393,85.796875,2782.1,1393,85.796875,2882.5,1393,85.796875,2988.1,1393,85.796875,3092.3,1393,85.796875,3192.3,1393,85.796875,3292.7,1393,85.796875,3398,1393,85.796875,3503.5,1393,85.796875,3608.1,1393,85.796875,3708.2,1393,85.796875,3812.9,1393,85.796875,3913.2]","[471.3,471.2,1000,0.1,-528.8,""error"",""-"",""-"",""no_move"",4708.5,4237.1,2374.1,1475.4,859,""smooth"",""up"",""up"",""good_move"",8730.1,4020.9,3270.7,4709.3,750.1,""smooth"",""up"",""up"",""good_move"",15254.1,6523.7,2558,12145,551.1,""smooth"",""right"",""right"",""good_move"",18174.3,2919.7,2439.1,15254.6,480.6,""smooth"",""right"",""right"",""good_move""]","",""
"15033","","","","instructions","22","553555","0.0-8.0-2.0","46","1","2025-07-02 10:18:45","80fe4187154257d5fb01684ea91b68b9","89.154.153.225","Mozilla/5.0 (Macintosh; Intel Mac OS X 10_15_7) AppleWebKit/537.36 (KHTML, like Gecko) Chrome/138.0.0.0 Safari/537.36","Macintosh","Chrome","138.0.0.0","OS X","10_15_7","https://app.prolific.com/","pt-PT,pt;q=0.9,en-US;q=0.8,en;q=0.7,ca;q=0.6,fr;q=0.5,de;q=0.4","66db15814e7818d8b9593ad5","683db6dfa200031b80f2a654","686507774ac7943ff1a98779","66db15814e7818d8b9593ad5","","[{""page_index"":0,""viewing_time"":15033}]","","","","","","","","","","","","","","","","","","","","","","","","","","","","","","","","","","","","","","","","","","",""
"","","","","ctl-task-cpt","23","596154","0.0-8.0-3.0","46","1","2025-07-02 10:18:45","80fe4187154257d5fb01684ea91b68b9","89.154.153.225","Mozilla/5.0 (Macintosh; Intel Mac OS X 10_15_7) AppleWebKit/537.36 (KHTML, like Gecko) Chrome/138.0.0.0 Safari/537.36","Macintosh","Chrome","138.0.0.0","OS X","10_15_7","https://app.prolific.com/","pt-PT,pt;q=0.9,en-US;q=0.8,en;q=0.7,ca;q=0.6,fr;q=0.5,de;q=0.4","66db15814e7818d8b9593ad5","683db6dfa200031b80f2a654","686507774ac7943ff1a98779","66db15814e7818d8b9593ad5","","","","","","","","","","","","","","","","","win-only","1","g1:NE,g2:SW","0.35","0","3","555462.2","2073.3","6076.6","39591.1","2","4","8","6","2","-8","-9","0","0","0","1398.9","4000","-3005","[""down"",""left""]","{""num_key_presses"":10,""num_perfect"":4,""num_errors"":1,""num_randdir"":5,""num_randdir_good_moves"":2,""num_whilered"":0,""num_whileblue"":0,""num_blue"":1,""num_good_moves"":6}","[729,729.796875,0.2,729,729.796875,103.2,729,729.796875,203.2,729,729.796875,303.3,729,729.796875,407.8,729,729.796875,513.6,729,729.796875,613.6,587,877.796875,717.3,131,1401.796875,818,109,1435.796875,918.2,105,1433.796875,1022.2,127,1371.796875,1123.1,137,1351.796875,1227.7,137,1351.796875,1328.2,137,1351.796875,1432.9,137,1351.796875,1538.4,255,1337.796875,1644.2,987,1275.796875,1747.4,1109,1273.796875,1849.6,1109,1273.796875,1953.4,1109,1273.796875,2058.1,1109,1273.796875,2163.1,1109,1273.796875,2264.5,1109,1273.796875,2367.2,1109,1273.796875,2467.3,1109,1273.796875,2573,1109,1273.796875,2678,1109,1273.796875,2778.4,1109,1273.796875,2882.7,1109,1273.796875,2988.2,1109,1273.796875,3088.3,1109,1273.796875,3193.2,1109,1273.796875,3293.3,1109,1273.796875,3397.7,1109,1273.796875,3497.8,1109,1273.796875,3602.9,1109,1273.796875,3707.7,1109,1273.796875,3807.7,1109,1273.796875,3912.9]","[1366.9,1366.9,1000,0,366.9,""smooth"",""down"",""down"",""good_move"",3891,2523.8,2175.5,1367.4,348.2,""oops"",""left"",""down"",""good_move"",7013.7,3122.3,2627,3891.4,495.3,""oops"",""left"",""left"",""good_move"",13956.5,6942.6,1763.6,11819,373.9,""smooth"",""down"",""down"",""good_move"",16666.2,2709.4,2180.1,13956.8,529.3,""smooth"",""left"",""left"",""good_move"",19782.4,3115.9,2593.2,16666.5,522.7,""oops"",""left"",""right"",""bad_move"",22979.5,3196.7,2795.2,19782.8,401.5,""oops"",""left"",""up"",""bad_move"",26300.6,3320.7,2904.3,22979.9,416.4,""smooth"",""left"",""left"",""good_move"",29438.5,3137.6,2605.3,26300.9,532.3,""oops"",""left"",""up"",""bad_move"",29672.7,234,1717.4,29438.7,-1483.4,""error"",""-"",""-"",""no_move""]","",""
"38093","","","","instructions","24","634248","0.0-8.0-4.0","46","1","2025-07-02 10:18:45","80fe4187154257d5fb01684ea91b68b9","89.154.153.225","Mozilla/5.0 (Macintosh; Intel Mac OS X 10_15_7) AppleWebKit/537.36 (KHTML, like Gecko) Chrome/138.0.0.0 Safari/537.36","Macintosh","Chrome","138.0.0.0","OS X","10_15_7","https://app.prolific.com/","pt-PT,pt;q=0.9,en-US;q=0.8,en;q=0.7,ca;q=0.6,fr;q=0.5,de;q=0.4","66db15814e7818d8b9593ad5","683db6dfa200031b80f2a654","686507774ac7943ff1a98779","66db15814e7818d8b9593ad5","","[{""page_index"":0,""viewing_time"":9551},{""page_index"":1,""viewing_time"":28542}]","","","","","","","","","","","","","","","","","","","","","","","","","","","","","","","","","","","","","","","","","","",""
"14790","","","{""green_ball"":[""Ball sometimes shakes and moves in a random direction""]}","survey-multi-select","25","649042","0.0-8.0-5.0-0.0","46","1","2025-07-02 10:18:45","80fe4187154257d5fb01684ea91b68b9","89.154.153.225","Mozilla/5.0 (Macintosh; Intel Mac OS X 10_15_7) AppleWebKit/537.36 (KHTML, like Gecko) Chrome/138.0.0.0 Safari/537.36","Macintosh","Chrome","138.0.0.0","OS X","10_15_7","https://app.prolific.com/","pt-PT,pt;q=0.9,en-US;q=0.8,en;q=0.7,ca;q=0.6,fr;q=0.5,de;q=0.4","66db15814e7818d8b9593ad5","683db6dfa200031b80f2a654","686507774ac7943ff1a98779","66db15814e7818d8b9593ad5","","","[0]","","","","quiz","","","","","","","","","","","","","","","","","","","","","","","","","","","","","","","","","","","","","true",""
"1921","","<p align='center'><b>CORRECT!</b> Indeed, the green ball may sometimes shake and move in a random direction.</p>","0","html-button-response","26","650965","0.0-8.0-5.0-1.0","46","1","2025-07-02 10:18:45","80fe4187154257d5fb01684ea91b68b9","89.154.153.225","Mozilla/5.0 (Macintosh; Intel Mac OS X 10_15_7) AppleWebKit/537.36 (KHTML, like Gecko) Chrome/138.0.0.0 Safari/537.36","Macintosh","Chrome","138.0.0.0","OS X","10_15_7","https://app.prolific.com/","pt-PT,pt;q=0.9,en-US;q=0.8,en;q=0.7,ca;q=0.6,fr;q=0.5,de;q=0.4","66db15814e7818d8b9593ad5","683db6dfa200031b80f2a654","686507774ac7943ff1a98779","66db15814e7818d8b9593ad5","","","","","","","","","","","","","","","","","","","","","","","","","","","","","","","","","","","","","","","","","","","","",""
"6295","","","{""yellow_ball"":[""Ball doesn‘t move and I get -1 penalty point""]}","survey-multi-select","27","657263","0.0-8.0-6.0-0.0","46","1","2025-07-02 10:18:45","80fe4187154257d5fb01684ea91b68b9","89.154.153.225","Mozilla/5.0 (Macintosh; Intel Mac OS X 10_15_7) AppleWebKit/537.36 (KHTML, like Gecko) Chrome/138.0.0.0 Safari/537.36","Macintosh","Chrome","138.0.0.0","OS X","10_15_7","https://app.prolific.com/","pt-PT,pt;q=0.9,en-US;q=0.8,en;q=0.7,ca;q=0.6,fr;q=0.5,de;q=0.4","66db15814e7818d8b9593ad5","683db6dfa200031b80f2a654","686507774ac7943ff1a98779","66db15814e7818d8b9593ad5","","","[0]","","","","quiz","","","","","","","","","","","","","","","","","","","","","","","","","","","","","","","","","","","","","true",""
"1217","","<p align='center'><b>CORRECT!</b> Indeed, the yellow ball never moves and you receive a penalty.</p>","0","html-button-response","28","658481","0.0-8.0-6.0-1.0","46","1","2025-07-02 10:18:45","80fe4187154257d5fb01684ea91b68b9","89.154.153.225","Mozilla/5.0 (Macintosh; Intel Mac OS X 10_15_7) AppleWebKit/537.36 (KHTML, like Gecko) Chrome/138.0.0.0 Safari/537.36","Macintosh","Chrome","138.0.0.0","OS X","10_15_7","https://app.prolific.com/","pt-PT,pt;q=0.9,en-US;q=0.8,en;q=0.7,ca;q=0.6,fr;q=0.5,de;q=0.4","66db15814e7818d8b9593ad5","683db6dfa200031b80f2a654","686507774ac7943ff1a98779","66db15814e7818d8b9593ad5","","","","","","","","","","","","","","","","","","","","","","","","","","","","","","","","","","","","","","","","","","","","",""
"8465","","","{""blue_ball"":[""Ball always shakes and moves in a random direction""]}","survey-multi-select","29","666949","0.0-8.0-7.0-0.0","46","1","2025-07-02 10:18:45","80fe4187154257d5fb01684ea91b68b9","89.154.153.225","Mozilla/5.0 (Macintosh; Intel Mac OS X 10_15_7) AppleWebKit/537.36 (KHTML, like Gecko) Chrome/138.0.0.0 Safari/537.36","Macintosh","Chrome","138.0.0.0","OS X","10_15_7","https://app.prolific.com/","pt-PT,pt;q=0.9,en-US;q=0.8,en;q=0.7,ca;q=0.6,fr;q=0.5,de;q=0.4","66db15814e7818d8b9593ad5","683db6dfa200031b80f2a654","686507774ac7943ff1a98779","66db15814e7818d8b9593ad5","","","[0]","","","","quiz","","","","","","","","","","","","","","","","","","","","","","","","","","","","","","","","","","","","","true",""
"2542","","<p align='center'><b>CORRECT!</b> Indeed, the blue ball always shakes and moves in a random direction. Also there is a penalty of -1 point.</p>","0","html-button-response","30","669493","0.0-8.0-7.0-1.0","46","1","2025-07-02 10:18:45","80fe4187154257d5fb01684ea91b68b9","89.154.153.225","Mozilla/5.0 (Macintosh; Intel Mac OS X 10_15_7) AppleWebKit/537.36 (KHTML, like Gecko) Chrome/138.0.0.0 Safari/537.36","Macintosh","Chrome","138.0.0.0","OS X","10_15_7","https://app.prolific.com/","pt-PT,pt;q=0.9,en-US;q=0.8,en;q=0.7,ca;q=0.6,fr;q=0.5,de;q=0.4","66db15814e7818d8b9593ad5","683db6dfa200031b80f2a654","686507774ac7943ff1a98779","66db15814e7818d8b9593ad5","","","","","","","","","","","","","","","","","","","","","","","","","","","","","","","","","","","","","","","","","","","","",""
"3301","","","{""bonus"":[""When I reach 50% of points""]}","survey-multi-select","31","672796","0.0-8.0-8.0-0.0","46","1","2025-07-02 10:18:45","80fe4187154257d5fb01684ea91b68b9","89.154.153.225","Mozilla/5.0 (Macintosh; Intel Mac OS X 10_15_7) AppleWebKit/537.36 (KHTML, like Gecko) Chrome/138.0.0.0 Safari/537.36","Macintosh","Chrome","138.0.0.0","OS X","10_15_7","https://app.prolific.com/","pt-PT,pt;q=0.9,en-US;q=0.8,en;q=0.7,ca;q=0.6,fr;q=0.5,de;q=0.4","66db15814e7818d8b9593ad5","683db6dfa200031b80f2a654","686507774ac7943ff1a98779","66db15814e7818d8b9593ad5","","","[0]","","","","quiz","","","","","","","","","","","","","","","","","","","","","","","","","","","","","","","","","","","","","true",""
"1788","","<p align='center'><b>CORRECT!</b> Indeed, you receive 2 pounds extra when you reach 50% of points.</p>","0","html-button-response","32","674586","0.0-8.0-8.0-1.0","46","1","2025-07-02 10:18:45","80fe4187154257d5fb01684ea91b68b9","89.154.153.225","Mozilla/5.0 (Macintosh; Intel Mac OS X 10_15_7) AppleWebKit/537.36 (KHTML, like Gecko) Chrome/138.0.0.0 Safari/537.36","Macintosh","Chrome","138.0.0.0","OS X","10_15_7","https://app.prolific.com/","pt-PT,pt;q=0.9,en-US;q=0.8,en;q=0.7,ca;q=0.6,fr;q=0.5,de;q=0.4","66db15814e7818d8b9593ad5","683db6dfa200031b80f2a654","686507774ac7943ff1a98779","66db15814e7818d8b9593ad5","","","","","","","","","","","","","","","","","","","","","","","","","","","","","","","","","","","","","","","","","","","","",""
"2184","","","","instructions","33","676770","0.0-8.0-9.0","46","1","2025-07-02 10:18:45","80fe4187154257d5fb01684ea91b68b9","89.154.153.225","Mozilla/5.0 (Macintosh; Intel Mac OS X 10_15_7) AppleWebKit/537.36 (KHTML, like Gecko) Chrome/138.0.0.0 Safari/537.36","Macintosh","Chrome","138.0.0.0","OS X","10_15_7","https://app.prolific.com/","pt-PT,pt;q=0.9,en-US;q=0.8,en;q=0.7,ca;q=0.6,fr;q=0.5,de;q=0.4","66db15814e7818d8b9593ad5","683db6dfa200031b80f2a654","686507774ac7943ff1a98779","66db15814e7818d8b9593ad5","","[{""page_index"":0,""viewing_time"":2183}]","","","","","","","","","","","","","","","","","","","","","","","","","","","","","","","","","","","","","","","","","","",""
"8370","","<p>Before you start with this game please answer the following three questions yourself. </p>
  <p>Through this game, we measure several aspects of your cognitive performance, such as reaction times, multi-tasking capabilities </p>
  <p>and the ability to assess the situation you are in.</p>
  <p></p>
  <p><b>How good do you usually are in such tasks?</b></p>","60","html-slider-response","34","685142","0.0-9.0-0.0","46","1","2025-07-02 10:18:45","80fe4187154257d5fb01684ea91b68b9","89.154.153.225","Mozilla/5.0 (Macintosh; Intel Mac OS X 10_15_7) AppleWebKit/537.36 (KHTML, like Gecko) Chrome/138.0.0.0 Safari/537.36","Macintosh","Chrome","138.0.0.0","OS X","10_15_7","https://app.prolific.com/","pt-PT,pt;q=0.9,en-US;q=0.8,en;q=0.7,ca;q=0.6,fr;q=0.5,de;q=0.4","66db15814e7818d8b9593ad5","683db6dfa200031b80f2a654","686507774ac7943ff1a98779","66db15814e7818d8b9593ad5","2025-07-02T10:30:11.700Z","","","","","","PreSkillQ","","","","","","","","","","","","","","","","","","","","","","","","","","","","","","","","","","","","","","50"
"4957","","<div style=""width:500px;"">
  <p>How well do you think you will perform in this task compared to other participants?</p>
  </div>","41","html-slider-response","35","690100","0.0-9.0-1.0","46","1","2025-07-02 10:18:45","80fe4187154257d5fb01684ea91b68b9","89.154.153.225","Mozilla/5.0 (Macintosh; Intel Mac OS X 10_15_7) AppleWebKit/537.36 (KHTML, like Gecko) Chrome/138.0.0.0 Safari/537.36","Macintosh","Chrome","138.0.0.0","OS X","10_15_7","https://app.prolific.com/","pt-PT,pt;q=0.9,en-US;q=0.8,en;q=0.7,ca;q=0.6,fr;q=0.5,de;q=0.4","66db15814e7818d8b9593ad5","683db6dfa200031b80f2a654","686507774ac7943ff1a98779","66db15814e7818d8b9593ad5","2025-07-02T10:30:16.659Z","","","","","","PrePerfQ","","","","","","","","","","","","","","","","","","","","","","","","","","","","","","","","","","","","","","50"
"4294","","<div style=""width:500px;"">
  <p>What best describes how you currently feel?</p>
  </div>","39","html-slider-response","36","694396","0.0-9.0-2.0","46","1","2025-07-02 10:18:45","80fe4187154257d5fb01684ea91b68b9","89.154.153.225","Mozilla/5.0 (Macintosh; Intel Mac OS X 10_15_7) AppleWebKit/537.36 (KHTML, like Gecko) Chrome/138.0.0.0 Safari/537.36","Macintosh","Chrome","138.0.0.0","OS X","10_15_7","https://app.prolific.com/","pt-PT,pt;q=0.9,en-US;q=0.8,en;q=0.7,ca;q=0.6,fr;q=0.5,de;q=0.4","66db15814e7818d8b9593ad5","683db6dfa200031b80f2a654","686507774ac7943ff1a98779","66db15814e7818d8b9593ad5","2025-07-02T10:30:20.954Z","","","","","","PreMotivationQ","","","","","","","","","","","","","","","","","","","","","","","","","","","","","","","","","","","","","","50"
"","","","","ctl-task-cpt","37","728179","0.0-10.0-0.0","46","1","2025-07-02 10:18:45","80fe4187154257d5fb01684ea91b68b9","89.154.153.225","Mozilla/5.0 (Macintosh; Intel Mac OS X 10_15_7) AppleWebKit/537.36 (KHTML, like Gecko) Chrome/138.0.0.0 Safari/537.36","Macintosh","Chrome","138.0.0.0","OS X","10_15_7","https://app.prolific.com/","pt-PT,pt;q=0.9,en-US;q=0.8,en;q=0.7,ca;q=0.6,fr;q=0.5,de;q=0.4","66db15814e7818d8b9593ad5","683db6dfa200031b80f2a654","686507774ac7943ff1a98779","66db15814e7818d8b9593ad5","2025-07-02T10:30:54.737Z","","","","","","","","","","","","","","","","win-only","0","g1:NW,g2:SE","1","1","0","696304.8","2070.8","7071.6","30771.2","1","4","8","6","2","8","8","8","0","0.06060606060606061","2690","3000","450","[""down"",""right""]","{""num_key_presses"":6,""num_perfect"":6,""num_errors"":0,""num_randdir"":0,""num_randdir_good_moves"":0,""num_whilered"":0,""num_whileblue"":0,""num_blue"":2,""num_good_moves"":6}","[729,733.796875,0.3,729,733.796875,101,729,733.796875,204.9,729,733.796875,305.3,729,733.796875,410,729,733.796875,510.7,729,733.796875,614.7,729,733.796875,719.3,729,733.796875,820.5,729,733.796875,924.6,729,733.796875,1025.4,623,657.796875,1130.1,295,331.796875,1234.8,295,331.796875,1334.8,239,283.796875,1435.1,-11,105.796875,1535.5,-15,101.796875,1640.6,-15,101.796875,1745.3,95,139.796875,1845.7,133,157.796875,1950.1,133,157.796875,2050.3,199,199.796875,2155.4,1227,1325.796875,2259.6,1267,1365.796875,2360.7,1271,1367.796875,2465.7,1273,1365.796875,2569.8,1273,1365.796875,2669.9,1273,1365.796875,2769.9,1273,1365.796875,2870.6,1273,1365.796875,2975.6,1273,1365.796875,3080.4,1273,1365.796875,3184.6,1273,1365.796875,3284.9,1273,1365.796875,3390,1273,1365.796875,3490,1273,1365.796875,3590.4,1237,1251.796875,3694.7,1031,771.796875,3795.1,1021,757.796875,3895.1,1021,755.796875,3995.7,1021,755.796875,4100.3,1021,755.796875,4205.9,1021,755.796875,4309.7,1021,755.796875,4409.7,1021,755.796875,4510.6,1021,755.796875,4614.6,1021,755.796875,4714.6,1021,755.796875,4815.8,1021,755.796875,4919.8]","[4150.7,4150.7,1766.6,2005.8,378.3,""smooth"",""down"",""down"",""good_move"",7717.8,3566.8,3195.9,4151,370.9,""smooth"",""down"",""down"",""good_move"",10685.9,2967.8,2626.3,7718.1,341.5,""smooth"",""right"",""right"",""good_move"",17540.9,6854.7,2822.6,14254.5,463.8,""smooth"",""down"",""down"",""good_move"",19968,2426.8,1817.8,17541.2,609,""smooth"",""right"",""right"",""good_move"",23609.7,3641.5,3234.7,19968.2,406.8,""smooth"",""right"",""right"",""good_move""]","",""
"4281","","<div style=""width:500px;"">
  <p>What determined the result of this run?</p>
  </div>","90","html-slider-response","38","732461","0.0-10.0-1.0","46","1","2025-07-02 10:18:45","80fe4187154257d5fb01684ea91b68b9","89.154.153.225","Mozilla/5.0 (Macintosh; Intel Mac OS X 10_15_7) AppleWebKit/537.36 (KHTML, like Gecko) Chrome/138.0.0.0 Safari/537.36","Macintosh","Chrome","138.0.0.0","OS X","10_15_7","https://app.prolific.com/","pt-PT,pt;q=0.9,en-US;q=0.8,en;q=0.7,ca;q=0.6,fr;q=0.5,de;q=0.4","66db15814e7818d8b9593ad5","683db6dfa200031b80f2a654","686507774ac7943ff1a98779","66db15814e7818d8b9593ad5","2025-07-02T10:30:59.020Z","","","","","","AttribQ","","","","","","","","","","","","","","","","","","","","","","","","","","","","","","","","","","","","","","50"
"3188","","<div style=""width:500px;"">
  <p>How much control did you have over the ball?</p>
  </div>","100","html-slider-response","39","735650","0.0-10.0-2.0","46","1","2025-07-02 10:18:45","80fe4187154257d5fb01684ea91b68b9","89.154.153.225","Mozilla/5.0 (Macintosh; Intel Mac OS X 10_15_7) AppleWebKit/537.36 (KHTML, like Gecko) Chrome/138.0.0.0 Safari/537.36","Macintosh","Chrome","138.0.0.0","OS X","10_15_7","https://app.prolific.com/","pt-PT,pt;q=0.9,en-US;q=0.8,en;q=0.7,ca;q=0.6,fr;q=0.5,de;q=0.4","66db15814e7818d8b9593ad5","683db6dfa200031b80f2a654","686507774ac7943ff1a98779","66db15814e7818d8b9593ad5","2025-07-02T10:31:02.208Z","","","","","","ControlQ","","","","","","","","","","","","","","","","","","","","","","","","","","","","","","","","","","","","","","50"
"4939","","<div style=""width:500px;"">
  <p>How would you describe your current emotional state?</p>
  </div>","40","html-slider-response","40","740590","0.0-10.0-3.0","46","1","2025-07-02 10:18:45","80fe4187154257d5fb01684ea91b68b9","89.154.153.225","Mozilla/5.0 (Macintosh; Intel Mac OS X 10_15_7) AppleWebKit/537.36 (KHTML, like Gecko) Chrome/138.0.0.0 Safari/537.36","Macintosh","Chrome","138.0.0.0","OS X","10_15_7","https://app.prolific.com/","pt-PT,pt;q=0.9,en-US;q=0.8,en;q=0.7,ca;q=0.6,fr;q=0.5,de;q=0.4","66db15814e7818d8b9593ad5","683db6dfa200031b80f2a654","686507774ac7943ff1a98779","66db15814e7818d8b9593ad5","2025-07-02T10:31:07.148Z","","","","","","StressQ","","","","","","","","","","","","","","","","","","","","","","","","","","","","","","","","","","","","","","50"
"5312","","<div style=""width:500px;"">
  <p>What best describes how you currently feel?</p>
  </div>","46","html-slider-response","41","745903","0.0-10.0-4.0","46","1","2025-07-02 10:18:45","80fe4187154257d5fb01684ea91b68b9","89.154.153.225","Mozilla/5.0 (Macintosh; Intel Mac OS X 10_15_7) AppleWebKit/537.36 (KHTML, like Gecko) Chrome/138.0.0.0 Safari/537.36","Macintosh","Chrome","138.0.0.0","OS X","10_15_7","https://app.prolific.com/","pt-PT,pt;q=0.9,en-US;q=0.8,en;q=0.7,ca;q=0.6,fr;q=0.5,de;q=0.4","66db15814e7818d8b9593ad5","683db6dfa200031b80f2a654","686507774ac7943ff1a98779","66db15814e7818d8b9593ad5","2025-07-02T10:31:12.462Z","","","","","","MotivationQ","","","","","","","","","","","","","","","","","","","","","","","","","","","","","","","","","","","","","","50"
"","","","","ctl-task-cpt","42","783402","0.0-10.0-0.1","46","1","2025-07-02 10:18:45","80fe4187154257d5fb01684ea91b68b9","89.154.153.225","Mozilla/5.0 (Macintosh; Intel Mac OS X 10_15_7) AppleWebKit/537.36 (KHTML, like Gecko) Chrome/138.0.0.0 Safari/537.36","Macintosh","Chrome","138.0.0.0","OS X","10_15_7","https://app.prolific.com/","pt-PT,pt;q=0.9,en-US;q=0.8,en;q=0.7,ca;q=0.6,fr;q=0.5,de;q=0.4","66db15814e7818d8b9593ad5","683db6dfa200031b80f2a654","686507774ac7943ff1a98779","66db15814e7818d8b9593ad5","2025-07-02T10:31:49.960Z","","","","","","","","","","","","","","","","win-only","3","g1:SW,g2:NE","0.9","2","0","747812.2","1775.4","6781.6","34486.9","1","4","4","6","2","-4","-4","4","8","0.030303030303030304","2086.5","3000","-3000","[""up"",""right""]","{""num_key_presses"":6,""num_perfect"":5,""num_errors"":0,""num_randdir"":1,""num_randdir_good_moves"":0,""num_whilered"":0,""num_whileblue"":0,""num_blue"":3,""num_good_moves"":5}","[721,721.796875,0.2,721,721.796875,101.5,739,721.796875,205.5,1165,845.796875,306,1255,877.796875,406,1255,877.796875,506.2,1255,877.796875,610.3,1255,877.796875,715.8,1255,877.796875,821,1255,877.796875,926.7,1255,877.796875,1031,1255,877.796875,1136.2,1255,877.796875,1240.8,1255,877.796875,1341,1255,877.796875,1441.2,1229,779.796875,1541.3,1381,65.796875,1643.2,1395,17.796875,1743.6,1391,33.796875,1845.5,1343,165.796875,1951.4,1343,167.796875,2056.2,1343,167.796875,2161.2,1343,167.796875,2265.9,1343,167.796875,2371.8,1343,167.796875,2476,1343,167.796875,2580.1,1343,167.796875,2680.9,1343,167.796875,2785.6,1343,167.796875,2886.6,1343,167.796875,2990.7,1343,167.796875,3090.8,1343,167.796875,3191,1343,167.796875,3295.2,1343,167.796875,3395.8,1343,167.796875,3501.2,1343,167.796875,3605.9,1343,167.796875,3706,1343,167.796875,3806.2,1343,167.796875,3906.2,1343,167.796875,4012.2,1343,167.796875,4116.4,1343,167.796875,4216.4,1343,167.796875,4321,1343,167.796875,4425.7,1343,167.796875,4526,1343,167.796875,4630.5,1343,167.796875,4730.5,1343,167.796875,4830.5,1343,167.796875,4930.8]","[1508.5,1508.5,1000,0,508.6,""smooth"",""up"",""up"",""good_move"",11475.7,9966.8,2183.7,8824.5,467.5,""smooth"",""up"",""up"",""good_move"",13824.5,2348.7,1504.9,11475.9,843.8,""smooth"",""up"",""up"",""good_move"",16577.7,2753,2381,13824.7,372,""oops"",""right"",""left"",""bad_move"",19657.9,3079.8,2637.5,16578.1,442.3,""smooth"",""right"",""right"",""good_move"",25100.3,5442.1,1983,22738.6,378.7,""smooth"",""right"",""right"",""good_move""]","",""
"3817","","<div style=""width:500px;"">
  <p>What determined the result of this run?</p>
  </div>","22","html-slider-response","43","787221","0.0-10.0-1.1","46","1","2025-07-02 10:18:45","80fe4187154257d5fb01684ea91b68b9","89.154.153.225","Mozilla/5.0 (Macintosh; Intel Mac OS X 10_15_7) AppleWebKit/537.36 (KHTML, like Gecko) Chrome/138.0.0.0 Safari/537.36","Macintosh","Chrome","138.0.0.0","OS X","10_15_7","https://app.prolific.com/","pt-PT,pt;q=0.9,en-US;q=0.8,en;q=0.7,ca;q=0.6,fr;q=0.5,de;q=0.4","66db15814e7818d8b9593ad5","683db6dfa200031b80f2a654","686507774ac7943ff1a98779","66db15814e7818d8b9593ad5","2025-07-02T10:31:53.779Z","","","","","","AttribQ","","","","","","","","","","","","","","","","","","","","","","","","","","","","","","","","","","","","","","50"
"2723","","<div style=""width:500px;"">
  <p>How much control did you have over the ball?</p>
  </div>","29","html-slider-response","44","789945","0.0-10.0-2.1","46","1","2025-07-02 10:18:45","80fe4187154257d5fb01684ea91b68b9","89.154.153.225","Mozilla/5.0 (Macintosh; Intel Mac OS X 10_15_7) AppleWebKit/537.36 (KHTML, like Gecko) Chrome/138.0.0.0 Safari/537.36","Macintosh","Chrome","138.0.0.0","OS X","10_15_7","https://app.prolific.com/","pt-PT,pt;q=0.9,en-US;q=0.8,en;q=0.7,ca;q=0.6,fr;q=0.5,de;q=0.4","66db15814e7818d8b9593ad5","683db6dfa200031b80f2a654","686507774ac7943ff1a98779","66db15814e7818d8b9593ad5","2025-07-02T10:31:56.503Z","","","","","","ControlQ","","","","","","","","","","","","","","","","","","","","","","","","","","","","","","","","","","","","","","50"
"2789","","<div style=""width:500px;"">
  <p>How would you describe your current emotional state?</p>
  </div>","61","html-slider-response","45","792735","0.0-10.0-3.1","46","1","2025-07-02 10:18:45","80fe4187154257d5fb01684ea91b68b9","89.154.153.225","Mozilla/5.0 (Macintosh; Intel Mac OS X 10_15_7) AppleWebKit/537.36 (KHTML, like Gecko) Chrome/138.0.0.0 Safari/537.36","Macintosh","Chrome","138.0.0.0","OS X","10_15_7","https://app.prolific.com/","pt-PT,pt;q=0.9,en-US;q=0.8,en;q=0.7,ca;q=0.6,fr;q=0.5,de;q=0.4","66db15814e7818d8b9593ad5","683db6dfa200031b80f2a654","686507774ac7943ff1a98779","66db15814e7818d8b9593ad5","2025-07-02T10:31:59.293Z","","","","","","StressQ","","","","","","","","","","","","","","","","","","","","","","","","","","","","","","","","","","","","","","50"
"4359","","<div style=""width:500px;"">
  <p>What best describes how you currently feel?</p>
  </div>","46","html-slider-response","46","797094","0.0-10.0-4.1","46","1","2025-07-02 10:18:45","80fe4187154257d5fb01684ea91b68b9","89.154.153.225","Mozilla/5.0 (Macintosh; Intel Mac OS X 10_15_7) AppleWebKit/537.36 (KHTML, like Gecko) Chrome/138.0.0.0 Safari/537.36","Macintosh","Chrome","138.0.0.0","OS X","10_15_7","https://app.prolific.com/","pt-PT,pt;q=0.9,en-US;q=0.8,en;q=0.7,ca;q=0.6,fr;q=0.5,de;q=0.4","66db15814e7818d8b9593ad5","683db6dfa200031b80f2a654","686507774ac7943ff1a98779","66db15814e7818d8b9593ad5","2025-07-02T10:32:03.653Z","","","","","","MotivationQ","","","","","","","","","","","","","","","","","","","","","","","","","","","","","","","","","","","","","","50"
"","","","","ctl-task-cpt","47","823220","0.0-10.0-0.2","46","1","2025-07-02 10:18:45","80fe4187154257d5fb01684ea91b68b9","89.154.153.225","Mozilla/5.0 (Macintosh; Intel Mac OS X 10_15_7) AppleWebKit/537.36 (KHTML, like Gecko) Chrome/138.0.0.0 Safari/537.36","Macintosh","Chrome","138.0.0.0","OS X","10_15_7","https://app.prolific.com/","pt-PT,pt;q=0.9,en-US;q=0.8,en;q=0.7,ca;q=0.6,fr;q=0.5,de;q=0.4","66db15814e7818d8b9593ad5","683db6dfa200031b80f2a654","686507774ac7943ff1a98779","66db15814e7818d8b9593ad5","2025-07-02T10:32:29.779Z","","","","","","","","","","","","","","","","win-only","2","g1:SE,g2:NW","0.8","3","0","799002.3","2066.4","7066.7","23116.2","1","4","8","6","1","1","1","5","4","0.03787878787878788","1939.3","3000","1315","[""down"",""right""]","{""num_key_presses"":4,""num_perfect"":3,""num_errors"":0,""num_randdir"":1,""num_randdir_good_moves"":1,""num_whilered"":0,""num_whileblue"":0,""num_blue"":2,""num_good_moves"":4}","[725,717.796875,0.1,725,717.796875,104.7,725,717.796875,205.1,801,731.796875,309.8,1033,775.796875,409.9,1067,781.796875,514.3,1069,781.796875,615,1069,781.796875,715.8,1069,781.796875,819.8,1067,781.796875,924,1075,987.796875,1024.7,1243,1241.796875,1125.1,1241,1239.796875,1225.2,1241,1239.796875,1329.5,1309,1293.796875,1430.1,1329,1317.796875,1530.1,1329,1317.796875,1634.5,1329,1317.796875,1734.7,1329,1317.796875,1835,1329,1317.796875,1935.1,1329,1317.796875,2036.3,1329,1235.796875,2139.8,1365,637.796875,2244.9,1365,637.796875,2345.2,1365,637.796875,2450.8,1365,637.796875,2554.4,1365,637.796875,2654.8,1365,637.796875,2757,1365,637.796875,2860.9,1365,637.796875,2965.4,1365,637.796875,3069.7,1365,637.796875,3170.3,1365,637.796875,3275.4,1365,637.796875,3375.5,1365,637.796875,3479.5,1365,637.796875,3579.7,1365,637.796875,3679.7,1365,637.796875,3780.1,1365,637.796875,3880.3,1365,637.796875,3985,1365,637.796875,4090.6,1365,637.796875,4195.1,1365,637.796875,4295.4,1365,637.796875,4400.3,1365,637.796875,4505.9,1365,637.796875,4609.9,1365,637.796875,4710.2,1365,637.796875,4814.2,1365,637.796875,4914.4]","[1325.6,1325.6,1000,0,325.6,""smooth"",""down"",""down"",""good_move"",10499.4,9173.4,1903.5,8179.6,416.3,""smooth"",""right"",""right"",""good_move"",13157.2,2657.4,2116.7,10499.8,540.7,""oops"",""right"",""down"",""good_move"",15957.4,2799.7,2376.4,13157.7,423.3,""smooth"",""right"",""right"",""good_move""]","",""
"4462","","<div style=""width:500px;"">
  <p>What determined the result of this run?</p>
  </div>","67","html-slider-response","48","827684","0.0-10.0-1.2","46","1","2025-07-02 10:18:45","80fe4187154257d5fb01684ea91b68b9","89.154.153.225","Mozilla/5.0 (Macintosh; Intel Mac OS X 10_15_7) AppleWebKit/537.36 (KHTML, like Gecko) Chrome/138.0.0.0 Safari/537.36","Macintosh","Chrome","138.0.0.0","OS X","10_15_7","https://app.prolific.com/","pt-PT,pt;q=0.9,en-US;q=0.8,en;q=0.7,ca;q=0.6,fr;q=0.5,de;q=0.4","66db15814e7818d8b9593ad5","683db6dfa200031b80f2a654","686507774ac7943ff1a98779","66db15814e7818d8b9593ad5","2025-07-02T10:32:34.242Z","","","","","","AttribQ","","","","","","","","","","","","","","","","","","","","","","","","","","","","","","","","","","","","","","50"
"3672","","<div style=""width:500px;"">
  <p>How much control did you have over the ball?</p>
  </div>","44","html-slider-response","49","831358","0.0-10.0-2.2","46","1","2025-07-02 10:18:45","80fe4187154257d5fb01684ea91b68b9","89.154.153.225","Mozilla/5.0 (Macintosh; Intel Mac OS X 10_15_7) AppleWebKit/537.36 (KHTML, like Gecko) Chrome/138.0.0.0 Safari/537.36","Macintosh","Chrome","138.0.0.0","OS X","10_15_7","https://app.prolific.com/","pt-PT,pt;q=0.9,en-US;q=0.8,en;q=0.7,ca;q=0.6,fr;q=0.5,de;q=0.4","66db15814e7818d8b9593ad5","683db6dfa200031b80f2a654","686507774ac7943ff1a98779","66db15814e7818d8b9593ad5","2025-07-02T10:32:37.916Z","","","","","","ControlQ","","","","","","","","","","","","","","","","","","","","","","","","","","","","","","","","","","","","","","50"
"7745","","<div style=""width:500px;"">
  <p>How would you describe your current emotional state?</p>
  </div>","55","html-slider-response","50","839104","0.0-10.0-3.2","46","1","2025-07-02 10:18:45","80fe4187154257d5fb01684ea91b68b9","89.154.153.225","Mozilla/5.0 (Macintosh; Intel Mac OS X 10_15_7) AppleWebKit/537.36 (KHTML, like Gecko) Chrome/138.0.0.0 Safari/537.36","Macintosh","Chrome","138.0.0.0","OS X","10_15_7","https://app.prolific.com/","pt-PT,pt;q=0.9,en-US;q=0.8,en;q=0.7,ca;q=0.6,fr;q=0.5,de;q=0.4","66db15814e7818d8b9593ad5","683db6dfa200031b80f2a654","686507774ac7943ff1a98779","66db15814e7818d8b9593ad5","2025-07-02T10:32:45.662Z","","","","","","StressQ","","","","","","","","","","","","","","","","","","","","","","","","","","","","","","","","","","","","","","50"
"4802","","<div style=""width:500px;"">
  <p>What best describes how you currently feel?</p>
  </div>","45","html-slider-response","51","843907","0.0-10.0-4.2","46","1","2025-07-02 10:18:45","80fe4187154257d5fb01684ea91b68b9","89.154.153.225","Mozilla/5.0 (Macintosh; Intel Mac OS X 10_15_7) AppleWebKit/537.36 (KHTML, like Gecko) Chrome/138.0.0.0 Safari/537.36","Macintosh","Chrome","138.0.0.0","OS X","10_15_7","https://app.prolific.com/","pt-PT,pt;q=0.9,en-US;q=0.8,en;q=0.7,ca;q=0.6,fr;q=0.5,de;q=0.4","66db15814e7818d8b9593ad5","683db6dfa200031b80f2a654","686507774ac7943ff1a98779","66db15814e7818d8b9593ad5","2025-07-02T10:32:50.465Z","","","","","","MotivationQ","","","","","","","","","","","","","","","","","","","","","","","","","","","","","","","","","","","","","","50"
"","","","","ctl-task-cpt","52","888423","0.0-10.0-0.3","46","1","2025-07-02 10:18:45","80fe4187154257d5fb01684ea91b68b9","89.154.153.225","Mozilla/5.0 (Macintosh; Intel Mac OS X 10_15_7) AppleWebKit/537.36 (KHTML, like Gecko) Chrome/138.0.0.0 Safari/537.36","Macintosh","Chrome","138.0.0.0","OS X","10_15_7","https://app.prolific.com/","pt-PT,pt;q=0.9,en-US;q=0.8,en;q=0.7,ca;q=0.6,fr;q=0.5,de;q=0.4","66db15814e7818d8b9593ad5","683db6dfa200031b80f2a654","686507774ac7943ff1a98779","66db15814e7818d8b9593ad5","2025-07-02T10:33:34.981Z","","","","","","","","","","","","","","","","win-only","2","g1:SE,g2:NW","0.7","4","0","845814.3","1411.5","6416.3","41540.6","1","4","4","6","2","4","4","9","5","0.06818181818181818","1497.5","3000","745","[""left"",""up""]","{""num_key_presses"":6,""num_perfect"":5,""num_errors"":0,""num_randdir"":1,""num_randdir_good_moves"":1,""num_whilered"":0,""num_whileblue"":0,""num_blue"":5,""num_good_moves"":6}","[725,733.796875,0.1,725,733.796875,103.9,725,733.796875,204.5,853,749.796875,309.4,1093,787.796875,414.7,1117,789.796875,519.5,1117,789.796875,619.8,1117,789.796875,724.4,1117,789.796875,824.4,1089,783.796875,929.1,187,141.796875,1033.7,109,83.796875,1133.8,147,101.796875,1233.9,149,103.796875,1334.5,149,103.796875,1439.2,149,103.796875,1544.1,149,103.796875,1645,195,123.796875,1748.8,989,579.796875,1849.6,1147,683.796875,1949.6,1147,683.796875,2049.6,1147,683.796875,2149.6,1147,683.796875,2249.6,1147,683.796875,2349.8,1147,683.796875,2453.8,1147,683.796875,2554.5,1147,683.796875,2654.7,1147,683.796875,2754.7,1147,683.796875,2859.1,1147,683.796875,2959.1,1147,683.796875,3064.3,1147,683.796875,3168.9,1147,683.796875,3269,1147,683.796875,3369.7,1147,683.796875,3474.5,1147,683.796875,3574.7,1147,683.796875,3679,1147,683.796875,3779.1,1147,683.796875,3883.7,1147,683.796875,3983.7,1147,683.796875,4083.9,1147,683.796875,4189.5,1147,683.796875,4294.4,1147,683.796875,4399.7,1147,683.796875,4499.9,1147,683.796875,4604.4,1147,683.796875,4704.5,1147,683.796875,4809.2,1147,683.796875,4913.9]","[1340.4,1340.4,1000,0,340.4,""smooth"",""up"",""up"",""good_move"",8376.7,7036,2766.4,5254.1,356.3,""smooth"",""up"",""up"",""good_move"",19294.1,10917.2,2267.1,16604.8,422.2,""smooth"",""left"",""left"",""good_move"",25375.9,6081.4,2508.7,22368.9,498.3,""smooth"",""left"",""left"",""good_move"",28470.9,3094.9,2749.5,25376,345.4,""oops"",""left"",""left"",""good_move"",35037.4,6566.3,2642.9,32054.1,340.4,""smooth"",""up"",""up"",""good_move""]","",""
"3172","","<div style=""width:500px;"">
  <p>What determined the result of this run?</p>
  </div>","73","html-slider-response","53","891593","0.0-10.0-1.3","46","1","2025-07-02 10:18:45","80fe4187154257d5fb01684ea91b68b9","89.154.153.225","Mozilla/5.0 (Macintosh; Intel Mac OS X 10_15_7) AppleWebKit/537.36 (KHTML, like Gecko) Chrome/138.0.0.0 Safari/537.36","Macintosh","Chrome","138.0.0.0","OS X","10_15_7","https://app.prolific.com/","pt-PT,pt;q=0.9,en-US;q=0.8,en;q=0.7,ca;q=0.6,fr;q=0.5,de;q=0.4","66db15814e7818d8b9593ad5","683db6dfa200031b80f2a654","686507774ac7943ff1a98779","66db15814e7818d8b9593ad5","2025-07-02T10:33:38.151Z","","","","","","AttribQ","","","","","","","","","","","","","","","","","","","","","","","","","","","","","","","","","","","","","","50"
"5097","","<div style=""width:500px;"">
  <p>How much control did you have over the ball?</p>
  </div>","67","html-slider-response","54","896688","0.0-10.0-2.3","46","1","2025-07-02 10:18:45","80fe4187154257d5fb01684ea91b68b9","89.154.153.225","Mozilla/5.0 (Macintosh; Intel Mac OS X 10_15_7) AppleWebKit/537.36 (KHTML, like Gecko) Chrome/138.0.0.0 Safari/537.36","Macintosh","Chrome","138.0.0.0","OS X","10_15_7","https://app.prolific.com/","pt-PT,pt;q=0.9,en-US;q=0.8,en;q=0.7,ca;q=0.6,fr;q=0.5,de;q=0.4","66db15814e7818d8b9593ad5","683db6dfa200031b80f2a654","686507774ac7943ff1a98779","66db15814e7818d8b9593ad5","2025-07-02T10:33:43.246Z","","","","","","ControlQ","","","","","","","","","","","","","","","","","","","","","","","","","","","","","","","","","","","","","","50"
"2690","","<div style=""width:500px;"">
  <p>How would you describe your current emotional state?</p>
  </div>","56","html-slider-response","55","899378","0.0-10.0-3.3","46","1","2025-07-02 10:18:45","80fe4187154257d5fb01684ea91b68b9","89.154.153.225","Mozilla/5.0 (Macintosh; Intel Mac OS X 10_15_7) AppleWebKit/537.36 (KHTML, like Gecko) Chrome/138.0.0.0 Safari/537.36","Macintosh","Chrome","138.0.0.0","OS X","10_15_7","https://app.prolific.com/","pt-PT,pt;q=0.9,en-US;q=0.8,en;q=0.7,ca;q=0.6,fr;q=0.5,de;q=0.4","66db15814e7818d8b9593ad5","683db6dfa200031b80f2a654","686507774ac7943ff1a98779","66db15814e7818d8b9593ad5","2025-07-02T10:33:45.936Z","","","","","","StressQ","","","","","","","","","","","","","","","","","","","","","","","","","","","","","","","","","","","","","","50"
"2044","","<div style=""width:500px;"">
  <p>What best describes how you currently feel?</p>
  </div>","53","html-slider-response","56","901422","0.0-10.0-4.3","46","1","2025-07-02 10:18:45","80fe4187154257d5fb01684ea91b68b9","89.154.153.225","Mozilla/5.0 (Macintosh; Intel Mac OS X 10_15_7) AppleWebKit/537.36 (KHTML, like Gecko) Chrome/138.0.0.0 Safari/537.36","Macintosh","Chrome","138.0.0.0","OS X","10_15_7","https://app.prolific.com/","pt-PT,pt;q=0.9,en-US;q=0.8,en;q=0.7,ca;q=0.6,fr;q=0.5,de;q=0.4","66db15814e7818d8b9593ad5","683db6dfa200031b80f2a654","686507774ac7943ff1a98779","66db15814e7818d8b9593ad5","2025-07-02T10:33:47.980Z","","","","","","MotivationQ","","","","","","","","","","","","","","","","","","","","","","","","","","","","","","","","","","","","","","50"
"","","","","ctl-task-cpt","57","937148","0.0-10.0-0.4","46","1","2025-07-02 10:18:45","80fe4187154257d5fb01684ea91b68b9","89.154.153.225","Mozilla/5.0 (Macintosh; Intel Mac OS X 10_15_7) AppleWebKit/537.36 (KHTML, like Gecko) Chrome/138.0.0.0 Safari/537.36","Macintosh","Chrome","138.0.0.0","OS X","10_15_7","https://app.prolific.com/","pt-PT,pt;q=0.9,en-US;q=0.8,en;q=0.7,ca;q=0.6,fr;q=0.5,de;q=0.4","66db15814e7818d8b9593ad5","683db6dfa200031b80f2a654","686507774ac7943ff1a98779","66db15814e7818d8b9593ad5","2025-07-02T10:34:23.706Z","","","","","","","","","","","","","","","","win-only","0","g1:NW,g2:SE","0.6","5","0","903372.3","1260.6","6262.4","32721.4","1","4","8","6","1","1","1","10","9","0.07575757575757576","1639.8","3000","695","[""left"",""up""]","{""num_key_presses"":6,""num_perfect"":5,""num_errors"":0,""num_randdir"":1,""num_randdir_good_moves"":1,""num_whilered"":0,""num_whileblue"":0,""num_blue"":3,""num_good_moves"":5}","[727,717.796875,0.2,727,717.796875,100.6,727,717.796875,200.9,927,721.796875,305.3,1089,727.796875,405.7,1089,727.796875,511.5,1089,727.796875,616.4,1089,727.796875,721.3,1089,727.796875,826.3,1089,727.796875,926.4,1089,727.796875,1030.5,1089,727.796875,1130.6,475,481.796875,1230.8,129,209.796875,1335.8,119,187.796875,1441.4,119,185.796875,1545.8,119,185.796875,1650,119,185.796875,1750.9,119,185.796875,1856.4,211,223.796875,1962.1,615,345.796875,2065,655,361.796875,2165.7,655,361.796875,2265.9,655,361.796875,2371.2,655,361.796875,2471.4,655,361.796875,2576.1,655,361.796875,2680.8,655,361.796875,2781.6,655,361.796875,2885.7,655,361.796875,2990.4,655,361.796875,3091,655,361.796875,3191.3,655,361.796875,3295.4,655,361.796875,3396.1,655,361.796875,3496.1,655,361.796875,3600.9,655,361.796875,3705.9,655,361.796875,3806,655,361.796875,3910.4,655,361.796875,4011.3,655,361.796875,4115.9,655,361.796875,4220.5,655,361.796875,4320.6,655,361.796875,4421.3,655,361.796875,4521.4,655,361.796875,4626.1,655,361.796875,4731.2,655,361.796875,4835.7,655,361.796875,4936.1]","[4483.7,4483.7,2087.2,2009.7,386.8,""smooth"",""down"",""down"",""bad_move"",7108.6,2624.6,2162.8,4484,461.8,""smooth"",""left"",""left"",""good_move"",10053.1,2944,2525.2,7109.1,418.8,""oops"",""left"",""left"",""good_move"",16920.4,6867.1,2712.3,13859.4,348.7,""smooth"",""up"",""up"",""good_move"",20157.2,3236.7,2838.3,16920.6,398.4,""smooth"",""up"",""up"",""good_move"",26371.8,6214.3,1908.5,24135.8,327.5,""smooth"",""up"",""up"",""good_move""]","",""
"4630","","<div style=""width:500px;"">
  <p>What determined the result of this run?</p>
  </div>","42","html-slider-response","58","941778","0.0-10.0-1.4","46","1","2025-07-02 10:18:45","80fe4187154257d5fb01684ea91b68b9","89.154.153.225","Mozilla/5.0 (Macintosh; Intel Mac OS X 10_15_7) AppleWebKit/537.36 (KHTML, like Gecko) Chrome/138.0.0.0 Safari/537.36","Macintosh","Chrome","138.0.0.0","OS X","10_15_7","https://app.prolific.com/","pt-PT,pt;q=0.9,en-US;q=0.8,en;q=0.7,ca;q=0.6,fr;q=0.5,de;q=0.4","66db15814e7818d8b9593ad5","683db6dfa200031b80f2a654","686507774ac7943ff1a98779","66db15814e7818d8b9593ad5","2025-07-02T10:34:28.336Z","","","","","","AttribQ","","","","","","","","","","","","","","","","","","","","","","","","","","","","","","","","","","","","","","50"
"4842","","<div style=""width:500px;"">
  <p>How much control did you have over the ball?</p>
  </div>","56","html-slider-response","59","946621","0.0-10.0-2.4","46","1","2025-07-02 10:18:45","80fe4187154257d5fb01684ea91b68b9","89.154.153.225","Mozilla/5.0 (Macintosh; Intel Mac OS X 10_15_7) AppleWebKit/537.36 (KHTML, like Gecko) Chrome/138.0.0.0 Safari/537.36","Macintosh","Chrome","138.0.0.0","OS X","10_15_7","https://app.prolific.com/","pt-PT,pt;q=0.9,en-US;q=0.8,en;q=0.7,ca;q=0.6,fr;q=0.5,de;q=0.4","66db15814e7818d8b9593ad5","683db6dfa200031b80f2a654","686507774ac7943ff1a98779","66db15814e7818d8b9593ad5","2025-07-02T10:34:33.179Z","","","","","","ControlQ","","","","","","","","","","","","","","","","","","","","","","","","","","","","","","","","","","","","","","50"
"2674","","<div style=""width:500px;"">
  <p>How would you describe your current emotional state?</p>
  </div>","56","html-slider-response","60","949296","0.0-10.0-3.4","46","1","2025-07-02 10:18:45","80fe4187154257d5fb01684ea91b68b9","89.154.153.225","Mozilla/5.0 (Macintosh; Intel Mac OS X 10_15_7) AppleWebKit/537.36 (KHTML, like Gecko) Chrome/138.0.0.0 Safari/537.36","Macintosh","Chrome","138.0.0.0","OS X","10_15_7","https://app.prolific.com/","pt-PT,pt;q=0.9,en-US;q=0.8,en;q=0.7,ca;q=0.6,fr;q=0.5,de;q=0.4","66db15814e7818d8b9593ad5","683db6dfa200031b80f2a654","686507774ac7943ff1a98779","66db15814e7818d8b9593ad5","2025-07-02T10:34:35.854Z","","","","","","StressQ","","","","","","","","","","","","","","","","","","","","","","","","","","","","","","","","","","","","","","50"
"2118","","<div style=""width:500px;"">
  <p>What best describes how you currently feel?</p>
  </div>","56","html-slider-response","61","951414","0.0-10.0-4.4","46","1","2025-07-02 10:18:45","80fe4187154257d5fb01684ea91b68b9","89.154.153.225","Mozilla/5.0 (Macintosh; Intel Mac OS X 10_15_7) AppleWebKit/537.36 (KHTML, like Gecko) Chrome/138.0.0.0 Safari/537.36","Macintosh","Chrome","138.0.0.0","OS X","10_15_7","https://app.prolific.com/","pt-PT,pt;q=0.9,en-US;q=0.8,en;q=0.7,ca;q=0.6,fr;q=0.5,de;q=0.4","66db15814e7818d8b9593ad5","683db6dfa200031b80f2a654","686507774ac7943ff1a98779","66db15814e7818d8b9593ad5","2025-07-02T10:34:37.972Z","","","","","","MotivationQ","","","","","","","","","","","","","","","","","","","","","","","","","","","","","","","","","","","","","","50"
"","","","","ctl-task-cpt","62","982870","0.0-10.0-0.5","46","1","2025-07-02 10:18:45","80fe4187154257d5fb01684ea91b68b9","89.154.153.225","Mozilla/5.0 (Macintosh; Intel Mac OS X 10_15_7) AppleWebKit/537.36 (KHTML, like Gecko) Chrome/138.0.0.0 Safari/537.36","Macintosh","Chrome","138.0.0.0","OS X","10_15_7","https://app.prolific.com/","pt-PT,pt;q=0.9,en-US;q=0.8,en;q=0.7,ca;q=0.6,fr;q=0.5,de;q=0.4","66db15814e7818d8b9593ad5","683db6dfa200031b80f2a654","686507774ac7943ff1a98779","66db15814e7818d8b9593ad5","2025-07-02T10:35:09.428Z","","","","","","","","","","","","","","","","win-only","2","g1:SE,g2:NW","0.5","6","0","953369.8","1146.6","6150.3","28445.6","1","4","4","6","2","4","4","14","10","0.10606060606060606","2105.9","3000","5","[""left"",""up""]","{""num_key_presses"":8,""num_perfect"":4,""num_errors"":0,""num_randdir"":4,""num_randdir_good_moves"":3,""num_whilered"":0,""num_whileblue"":0,""num_blue"":0,""num_good_moves"":7}","[725,729.796875,0.1,725,729.796875,103.9,819,743.796875,209.3,1265,877.796875,309.5,1265,877.796875,414,1265,877.796875,514.2,1265,877.796875,619.1,1265,877.796875,719.5,1265,877.796875,823.9,1265,877.796875,924.2,1265,877.796875,1024.3,1265,877.796875,1128.9,1241,875.796875,1229.3,623,561.796875,1329.5,431,329.796875,1433.5,431,329.796875,1534.5,297,197.796875,1639,217,165.796875,1744.4,171,145.796875,1848.8,165,145.796875,1949.2,165,145.796875,2049.2,165,145.796875,2154.1,165,145.796875,2254.1,165,145.796875,2358.9,549,423.796875,2463.7,929,761.796875,2564.5,929,761.796875,2664.6,929,761.796875,2769,929,761.796875,2874.2,929,761.796875,2978.8,929,761.796875,3078.9,929,761.796875,3179.3,929,761.796875,3284.6,929,761.796875,3389.1,929,761.796875,3489.3,929,761.796875,3593.9,929,761.796875,3694.1,929,761.796875,3794.5,929,761.796875,3898.9,929,761.796875,3998.9,929,761.796875,4099.2,929,761.796875,4204.3,929,761.796875,4310.6,929,761.796875,4413.8,929,761.796875,4515.1,929,761.796875,4618.9,929,761.796875,4719.2,929,761.796875,4819.4,929,761.796875,4919.6]","[1363.5,1363.5,1000,0,363.5,""smooth"",""up"",""up"",""good_move"",4480,3116.2,2706.9,1363.8,409.3,""smooth"",""up"",""up"",""good_move"",6986.9,2506.7,2119.3,4480.2,387.4,""oops"",""left"",""up"",""good_move"",10140.4,3153.3,2772.2,6987.1,381.1,""oops"",""left"",""left"",""good_move"",13882.3,3741.7,3389.9,10140.6,351.8,""oops"",""left"",""down"",""bad_move"",16648,2765.3,2332.8,13882.7,432.5,""oops"",""left"",""up"",""good_move"",19498.1,2849.8,2498.8,16648.3,351,""smooth"",""left"",""left"",""good_move"",22208.7,2710.3,2354.2,19498.4,356.1,""smooth"",""left"",""left"",""good_move""]","",""
"3699","","<div style=""width:500px;"">
  <p>What determined the result of this run?</p>
  </div>","45","html-slider-response","63","986570","0.0-10.0-1.5","46","1","2025-07-02 10:18:45","80fe4187154257d5fb01684ea91b68b9","89.154.153.225","Mozilla/5.0 (Macintosh; Intel Mac OS X 10_15_7) AppleWebKit/537.36 (KHTML, like Gecko) Chrome/138.0.0.0 Safari/537.36","Macintosh","Chrome","138.0.0.0","OS X","10_15_7","https://app.prolific.com/","pt-PT,pt;q=0.9,en-US;q=0.8,en;q=0.7,ca;q=0.6,fr;q=0.5,de;q=0.4","66db15814e7818d8b9593ad5","683db6dfa200031b80f2a654","686507774ac7943ff1a98779","66db15814e7818d8b9593ad5","2025-07-02T10:35:13.128Z","","","","","","AttribQ","","","","","","","","","","","","","","","","","","","","","","","","","","","","","","","","","","","","","","50"
"3091","","<div style=""width:500px;"">
  <p>How much control did you have over the ball?</p>
  </div>","42","html-slider-response","64","989662","0.0-10.0-2.5","46","1","2025-07-02 10:18:45","80fe4187154257d5fb01684ea91b68b9","89.154.153.225","Mozilla/5.0 (Macintosh; Intel Mac OS X 10_15_7) AppleWebKit/537.36 (KHTML, like Gecko) Chrome/138.0.0.0 Safari/537.36","Macintosh","Chrome","138.0.0.0","OS X","10_15_7","https://app.prolific.com/","pt-PT,pt;q=0.9,en-US;q=0.8,en;q=0.7,ca;q=0.6,fr;q=0.5,de;q=0.4","66db15814e7818d8b9593ad5","683db6dfa200031b80f2a654","686507774ac7943ff1a98779","66db15814e7818d8b9593ad5","2025-07-02T10:35:16.220Z","","","","","","ControlQ","","","","","","","","","","","","","","","","","","","","","","","","","","","","","","","","","","","","","","50"
"2388","","<div style=""width:500px;"">
  <p>How would you describe your current emotional state?</p>
  </div>","54","html-slider-response","65","992051","0.0-10.0-3.5","46","1","2025-07-02 10:18:45","80fe4187154257d5fb01684ea91b68b9","89.154.153.225","Mozilla/5.0 (Macintosh; Intel Mac OS X 10_15_7) AppleWebKit/537.36 (KHTML, like Gecko) Chrome/138.0.0.0 Safari/537.36","Macintosh","Chrome","138.0.0.0","OS X","10_15_7","https://app.prolific.com/","pt-PT,pt;q=0.9,en-US;q=0.8,en;q=0.7,ca;q=0.6,fr;q=0.5,de;q=0.4","66db15814e7818d8b9593ad5","683db6dfa200031b80f2a654","686507774ac7943ff1a98779","66db15814e7818d8b9593ad5","2025-07-02T10:35:18.609Z","","","","","","StressQ","","","","","","","","","","","","","","","","","","","","","","","","","","","","","","","","","","","","","","50"
"3189","","<div style=""width:500px;"">
  <p>What best describes how you currently feel?</p>
  </div>","56","html-slider-response","66","995241","0.0-10.0-4.5","46","1","2025-07-02 10:18:45","80fe4187154257d5fb01684ea91b68b9","89.154.153.225","Mozilla/5.0 (Macintosh; Intel Mac OS X 10_15_7) AppleWebKit/537.36 (KHTML, like Gecko) Chrome/138.0.0.0 Safari/537.36","Macintosh","Chrome","138.0.0.0","OS X","10_15_7","https://app.prolific.com/","pt-PT,pt;q=0.9,en-US;q=0.8,en;q=0.7,ca;q=0.6,fr;q=0.5,de;q=0.4","66db15814e7818d8b9593ad5","683db6dfa200031b80f2a654","686507774ac7943ff1a98779","66db15814e7818d8b9593ad5","2025-07-02T10:35:21.799Z","","","","","","MotivationQ","","","","","","","","","","","","","","","","","","","","","","","","","","","","","","","","","","","","","","50"
"","","","","ctl-task-cpt","67","1037981","0.0-10.0-0.6","46","1","2025-07-02 10:18:45","80fe4187154257d5fb01684ea91b68b9","89.154.153.225","Mozilla/5.0 (Macintosh; Intel Mac OS X 10_15_7) AppleWebKit/537.36 (KHTML, like Gecko) Chrome/138.0.0.0 Safari/537.36","Macintosh","Chrome","138.0.0.0","OS X","10_15_7","https://app.prolific.com/","pt-PT,pt;q=0.9,en-US;q=0.8,en;q=0.7,ca;q=0.6,fr;q=0.5,de;q=0.4","66db15814e7818d8b9593ad5","683db6dfa200031b80f2a654","686507774ac7943ff1a98779","66db15814e7818d8b9593ad5","2025-07-02T10:36:04.540Z","","","","","","","","","","","","","","","","win-only","1","g1:NE,g2:SW","0.4","7","0","997197.1","1527.4","6530.9","39730.3","1","4","4","6","2","-4","-4","10","14","0.07575757575757576","1693.1","3000","-3005","[""down"",""left""]","{""num_key_presses"":7,""num_perfect"":3,""num_errors"":0,""num_randdir"":4,""num_randdir_good_moves"":3,""num_whilered"":0,""num_whileblue"":0,""num_blue"":3,""num_good_moves"":6}","[725,733.796875,0.2,725,733.796875,103.4,725,733.796875,208.1,811,733.796875,313.8,1007,755.796875,418.8,1013,757.796875,523.5,1013,757.796875,627.9,1013,757.796875,728.4,1013,757.796875,828.8,957,785.796875,932.7,345,1171.796875,1032.7,155,1283.796875,1133.7,155,1283.796875,1233.8,145,1309.796875,1338.3,145,1323.796875,1442.8,151,1327.796875,1543.8,151,1327.796875,1648.1,151,1327.796875,1748.5,151,1327.796875,1853.2,151,1327.796875,1953.8,151,1327.796875,2053.8,151,1327.796875,2158.2,151,1327.796875,2258.4,151,1327.796875,2358.6,151,1327.796875,2462.8,151,1327.796875,2563.3,151,1327.796875,2668.3,151,1327.796875,2768.4,151,1327.796875,2872.8,151,1327.796875,2973.4,151,1327.796875,3073.7,151,1327.796875,3178.5,151,1327.796875,3278.6,151,1327.796875,3383.7,151,1327.796875,3487.8,151,1327.796875,3588.6,151,1327.796875,3688.7,151,1327.796875,3788.9,151,1327.796875,3893.4,151,1327.796875,3993.8,151,1327.796875,4093.9,151,1327.796875,4198,151,1327.796875,4298.2,151,1327.796875,4404.1,151,1327.796875,4508.8,151,1327.796875,4613.1,151,1327.796875,4718.4,151,1327.796875,4818.7,151,1327.796875,4918.7]","[1350,1350,1000,0,350,""oops"",""down"",""up"",""bad_move"",4074.5,2724.2,2201.4,1350.3,522.8,""smooth"",""down"",""down"",""good_move"",7727.3,3652.6,3262.2,4074.7,390.4,""oops"",""left"",""down"",""good_move"",10757,3029.5,2612,7727.5,417.5,""oops"",""left"",""down"",""good_move"",17709.3,6952.1,2181.3,15094.5,433.5,""smooth"",""left"",""left"",""good_move"",27357.5,9648,2141.5,24755.1,460.9,""oops"",""left"",""left"",""good_move"",30631.8,3274,2880.2,27357.8,393.8,""smooth"",""left"",""left"",""good_move""]","",""
"2477","","<div style=""width:500px;"">
  <p>What determined the result of this run?</p>
  </div>","29","html-slider-response","68","1040459","0.0-10.0-1.6","46","1","2025-07-02 10:18:45","80fe4187154257d5fb01684ea91b68b9","89.154.153.225","Mozilla/5.0 (Macintosh; Intel Mac OS X 10_15_7) AppleWebKit/537.36 (KHTML, like Gecko) Chrome/138.0.0.0 Safari/537.36","Macintosh","Chrome","138.0.0.0","OS X","10_15_7","https://app.prolific.com/","pt-PT,pt;q=0.9,en-US;q=0.8,en;q=0.7,ca;q=0.6,fr;q=0.5,de;q=0.4","66db15814e7818d8b9593ad5","683db6dfa200031b80f2a654","686507774ac7943ff1a98779","66db15814e7818d8b9593ad5","2025-07-02T10:36:07.017Z","","","","","","AttribQ","","","","","","","","","","","","","","","","","","","","","","","","","","","","","","","","","","","","","","50"
"3076","","<div style=""width:500px;"">
  <p>How much control did you have over the ball?</p>
  </div>","34","html-slider-response","69","1043536","0.0-10.0-2.6","46","1","2025-07-02 10:18:45","80fe4187154257d5fb01684ea91b68b9","89.154.153.225","Mozilla/5.0 (Macintosh; Intel Mac OS X 10_15_7) AppleWebKit/537.36 (KHTML, like Gecko) Chrome/138.0.0.0 Safari/537.36","Macintosh","Chrome","138.0.0.0","OS X","10_15_7","https://app.prolific.com/","pt-PT,pt;q=0.9,en-US;q=0.8,en;q=0.7,ca;q=0.6,fr;q=0.5,de;q=0.4","66db15814e7818d8b9593ad5","683db6dfa200031b80f2a654","686507774ac7943ff1a98779","66db15814e7818d8b9593ad5","2025-07-02T10:36:10.094Z","","","","","","ControlQ","","","","","","","","","","","","","","","","","","","","","","","","","","","","","","","","","","","","","","50"
"2273","","<div style=""width:500px;"">
  <p>How would you describe your current emotional state?</p>
  </div>","72","html-slider-response","70","1045809","0.0-10.0-3.6","46","1","2025-07-02 10:18:45","80fe4187154257d5fb01684ea91b68b9","89.154.153.225","Mozilla/5.0 (Macintosh; Intel Mac OS X 10_15_7) AppleWebKit/537.36 (KHTML, like Gecko) Chrome/138.0.0.0 Safari/537.36","Macintosh","Chrome","138.0.0.0","OS X","10_15_7","https://app.prolific.com/","pt-PT,pt;q=0.9,en-US;q=0.8,en;q=0.7,ca;q=0.6,fr;q=0.5,de;q=0.4","66db15814e7818d8b9593ad5","683db6dfa200031b80f2a654","686507774ac7943ff1a98779","66db15814e7818d8b9593ad5","2025-07-02T10:36:12.367Z","","","","","","StressQ","","","","","","","","","","","","","","","","","","","","","","","","","","","","","","","","","","","","","","50"
"2560","","<div style=""width:500px;"">
  <p>What best describes how you currently feel?</p>
  </div>","61","html-slider-response","71","1048370","0.0-10.0-4.6","46","1","2025-07-02 10:18:45","80fe4187154257d5fb01684ea91b68b9","89.154.153.225","Mozilla/5.0 (Macintosh; Intel Mac OS X 10_15_7) AppleWebKit/537.36 (KHTML, like Gecko) Chrome/138.0.0.0 Safari/537.36","Macintosh","Chrome","138.0.0.0","OS X","10_15_7","https://app.prolific.com/","pt-PT,pt;q=0.9,en-US;q=0.8,en;q=0.7,ca;q=0.6,fr;q=0.5,de;q=0.4","66db15814e7818d8b9593ad5","683db6dfa200031b80f2a654","686507774ac7943ff1a98779","66db15814e7818d8b9593ad5","2025-07-02T10:36:14.928Z","","","","","","MotivationQ","","","","","","","","","","","","","","","","","","","","","","","","","","","","","","","","","","","","","","50"
"","","","","ctl-task-cpt","72","1090576","0.0-10.0-0.7","46","1","2025-07-02 10:18:45","80fe4187154257d5fb01684ea91b68b9","89.154.153.225","Mozilla/5.0 (Macintosh; Intel Mac OS X 10_15_7) AppleWebKit/537.36 (KHTML, like Gecko) Chrome/138.0.0.0 Safari/537.36","Macintosh","Chrome","138.0.0.0","OS X","10_15_7","https://app.prolific.com/","pt-PT,pt;q=0.9,en-US;q=0.8,en;q=0.7,ca;q=0.6,fr;q=0.5,de;q=0.4","66db15814e7818d8b9593ad5","683db6dfa200031b80f2a654","686507774ac7943ff1a98779","66db15814e7818d8b9593ad5","2025-07-02T10:36:57.134Z","","","","","","","","","","","","","","","","win-only","1","g1:NE,g2:SW","0.3","8","0","1050326.4","1216.6","6220.6","39196.1","1","4","8","6","2","-8","-9","1","10","0.007575757575757576","1672.5","3000","-3005","[""down"",""left""]","{""num_key_presses"":9,""num_perfect"":2,""num_errors"":1,""num_randdir"":6,""num_randdir_good_moves"":3,""num_whilered"":0,""num_whileblue"":0,""num_blue"":2,""num_good_moves"":5}","[727,727.796875,0.2,727,727.796875,103.8,859,727.796875,204,1377,809.796875,304.7,1399,821.796875,409.4,1399,821.796875,509.4,1399,821.796875,609.4,1399,821.796875,713.5,1399,821.796875,813.9,1103,973.796875,913.9,481,1247.796875,1014,385,1291.796875,1114,321,1321.796875,1214,253,1333.796875,1315.3,175,1321.796875,1419.4,169,1309.796875,1519.6,169,1309.796875,1624.2,169,1309.796875,1724.4,169,1309.796875,1824.6,169,1309.796875,1929.4,1017,1101.796875,2034,1145,1087.796875,2134.6,1145,1087.796875,2234.9,1145,1087.796875,2338.9,1145,1087.796875,2439,1145,1087.796875,2544.1,1145,1087.796875,2644.5,1145,1087.796875,2748.8,1145,1087.796875,2851,1145,1087.796875,2953.8,1145,1087.796875,3054,1145,1087.796875,3159.6,1145,1087.796875,3263.8,1145,1087.796875,3363.9,1145,1087.796875,3468.7,1145,1087.796875,3569.2,1145,1087.796875,3674.5,1145,1087.796875,3779.5,1145,1087.796875,3884.7,1145,1087.796875,3988.8,1145,1087.796875,4089,1145,1087.796875,4194.7,1145,1087.796875,4298.7,1145,1087.796875,4398.9,1145,1087.796875,4503.6,1145,1087.796875,4604.3,1145,1087.796875,4704.3,1145,1087.796875,4809.5,1145,1087.796875,4913.9]","[1288.7,1288.7,1000,0,288.7,""oops"",""down"",""right"",""bad_move"",4755.2,3466.1,3141.1,1289.1,325,""oops"",""left"",""down"",""good_move"",7420.9,2665.5,2313.4,4755.4,352.1,""oops"",""left"",""down"",""good_move"",10695.6,3274.5,2887.1,7421.1,387.4,""oops"",""left"",""right"",""bad_move"",12939.6,2243.7,1897.3,10695.9,346.4,""smooth"",""down"",""down"",""good_move"",15921.5,2981.7,2664.5,12939.8,317.2,""smooth"",""left"",""left"",""good_move"",16170.8,249.1,2442,15921.7,-2192.9,""error"",""-"",""-"",""no_move"",23555,7384.1,2202.6,20955.7,396.7,""oops"",""left"",""up"",""bad_move"",26163.5,2608.3,2218.3,23555.2,390,""oops"",""left"",""left"",""good_move""]","",""
"2635","","<div style=""width:500px;"">
  <p>What determined the result of this run?</p>
  </div>","26","html-slider-response","73","1093212","0.0-10.0-1.7","46","1","2025-07-02 10:18:45","80fe4187154257d5fb01684ea91b68b9","89.154.153.225","Mozilla/5.0 (Macintosh; Intel Mac OS X 10_15_7) AppleWebKit/537.36 (KHTML, like Gecko) Chrome/138.0.0.0 Safari/537.36","Macintosh","Chrome","138.0.0.0","OS X","10_15_7","https://app.prolific.com/","pt-PT,pt;q=0.9,en-US;q=0.8,en;q=0.7,ca;q=0.6,fr;q=0.5,de;q=0.4","66db15814e7818d8b9593ad5","683db6dfa200031b80f2a654","686507774ac7943ff1a98779","66db15814e7818d8b9593ad5","2025-07-02T10:36:59.770Z","","","","","","AttribQ","","","","","","","","","","","","","","","","","","","","","","","","","","","","","","","","","","","","","","50"
"3639","","<div style=""width:500px;"">
  <p>How much control did you have over the ball?</p>
  </div>","22","html-slider-response","74","1096851","0.0-10.0-2.7","46","1","2025-07-02 10:18:45","80fe4187154257d5fb01684ea91b68b9","89.154.153.225","Mozilla/5.0 (Macintosh; Intel Mac OS X 10_15_7) AppleWebKit/537.36 (KHTML, like Gecko) Chrome/138.0.0.0 Safari/537.36","Macintosh","Chrome","138.0.0.0","OS X","10_15_7","https://app.prolific.com/","pt-PT,pt;q=0.9,en-US;q=0.8,en;q=0.7,ca;q=0.6,fr;q=0.5,de;q=0.4","66db15814e7818d8b9593ad5","683db6dfa200031b80f2a654","686507774ac7943ff1a98779","66db15814e7818d8b9593ad5","2025-07-02T10:37:03.409Z","","","","","","ControlQ","","","","","","","","","","","","","","","","","","","","","","","","","","","","","","","","","","","","","","50"
"3304","","<div style=""width:500px;"">
  <p>How would you describe your current emotional state?</p>
  </div>","79","html-slider-response","75","1100156","0.0-10.0-3.7","46","1","2025-07-02 10:18:45","80fe4187154257d5fb01684ea91b68b9","89.154.153.225","Mozilla/5.0 (Macintosh; Intel Mac OS X 10_15_7) AppleWebKit/537.36 (KHTML, like Gecko) Chrome/138.0.0.0 Safari/537.36","Macintosh","Chrome","138.0.0.0","OS X","10_15_7","https://app.prolific.com/","pt-PT,pt;q=0.9,en-US;q=0.8,en;q=0.7,ca;q=0.6,fr;q=0.5,de;q=0.4","66db15814e7818d8b9593ad5","683db6dfa200031b80f2a654","686507774ac7943ff1a98779","66db15814e7818d8b9593ad5","2025-07-02T10:37:06.714Z","","","","","","StressQ","","","","","","","","","","","","","","","","","","","","","","","","","","","","","","","","","","","","","","50"
"2323","","<div style=""width:500px;"">
  <p>What best describes how you currently feel?</p>
  </div>","68","html-slider-response","76","1102480","0.0-10.0-4.7","46","1","2025-07-02 10:18:45","80fe4187154257d5fb01684ea91b68b9","89.154.153.225","Mozilla/5.0 (Macintosh; Intel Mac OS X 10_15_7) AppleWebKit/537.36 (KHTML, like Gecko) Chrome/138.0.0.0 Safari/537.36","Macintosh","Chrome","138.0.0.0","OS X","10_15_7","https://app.prolific.com/","pt-PT,pt;q=0.9,en-US;q=0.8,en;q=0.7,ca;q=0.6,fr;q=0.5,de;q=0.4","66db15814e7818d8b9593ad5","683db6dfa200031b80f2a654","686507774ac7943ff1a98779","66db15814e7818d8b9593ad5","2025-07-02T10:37:09.038Z","","","","","","MotivationQ","","","","","","","","","","","","","","","","","","","","","","","","","","","","","","","","","","","","","","50"
"","","","","ctl-task-cpt","77","1133550","0.0-10.0-0.8","46","1","2025-07-02 10:18:45","80fe4187154257d5fb01684ea91b68b9","89.154.153.225","Mozilla/5.0 (Macintosh; Intel Mac OS X 10_15_7) AppleWebKit/537.36 (KHTML, like Gecko) Chrome/138.0.0.0 Safari/537.36","Macintosh","Chrome","138.0.0.0","OS X","10_15_7","https://app.prolific.com/","pt-PT,pt;q=0.9,en-US;q=0.8,en;q=0.7,ca;q=0.6,fr;q=0.5,de;q=0.4","66db15814e7818d8b9593ad5","683db6dfa200031b80f2a654","686507774ac7943ff1a98779","66db15814e7818d8b9593ad5","2025-07-02T10:37:40.108Z","","","","","","","","","","","","","","","","win-only","0","g1:NW,g2:SE","0.4","9","0","1104436.9","1239.6","6241.1","28061.1","1","4","8","6","2","-8","-8","0","1","0","2544.6","3000","-3000","[""down"",""right""]","{""num_key_presses"":7,""num_perfect"":3,""num_errors"":0,""num_randdir"":4,""num_randdir_good_moves"":2,""num_whilered"":0,""num_whileblue"":0,""num_blue"":0,""num_good_moves"":5}","[741,725.796875,0,741,725.796875,100.6,741,725.796875,201.4,741,725.796875,306.3,741,725.796875,410.6,741,725.796875,511.5,741,725.796875,615.9,741,725.796875,721.2,741,725.796875,826.6,741,725.796875,930.8,741,725.796875,1031.6,493,539.796875,1136.1,413,433.796875,1241.1,413,433.796875,1341.2,413,433.796875,1441.4,403,433.796875,1546.1,673,655.796875,1651,769,737.796875,1755.6,343,289.796875,1855.6,259,163.796875,1955.6,885,859.796875,2056.4,1259,1257.796875,2161.2,1291,1297.796875,2261.4,1301,1313.796875,2366.1,1301,1313.796875,2471.2,1301,1313.796875,2575.8,1301,1313.796875,2675.9,1301,1313.796875,2780.6,1579,1367.796875,2880.6,1697,1409.796875,2980.6,1679,1393.796875,3080.8,1497,805.796875,3186.6,1467,721.796875,3291,1467,721.796875,3392,1467,721.796875,3495.8,1291,761.796875,3596.3,1283,763.796875,3696.3,1293,803.796875,3796.3,1381,951.796875,3901.5,1423,1003.796875,4001.5,1423,1003.796875,4105.8,1423,1003.796875,4211.3,1423,1003.796875,4311.6,1423,1003.796875,4411.6,1423,1003.796875,4516.3,1423,1003.796875,4616.3,1423,1003.796875,4721.2,1423,1003.796875,4826,1423,1003.796875,4926.6]","[1289.4,1289.4,1000,0,289.4,""oops"",""down"",""up"",""bad_move"",4245.1,2955.6,2569.1,1289.5,386.5,""oops"",""down"",""down"",""good_move"",7422.8,3177.4,2379.3,4245.4,798.1,""oops"",""down"",""right"",""good_move"",9679,2256,1892.2,7423,363.8,""smooth"",""down"",""down"",""good_move"",12592,2912.7,2561.3,9679.3,351.4,""oops"",""down"",""up"",""bad_move"",15704.9,3112.7,2774.3,12592.2,338.4,""smooth"",""right"",""right"",""good_move"",18606.3,2900.9,2587.1,15705.4,313.8,""smooth"",""right"",""right"",""good_move""]","",""
"5402","","<div style=""width:500px;"">
  <p>What determined the result of this run?</p>
  </div>","40","html-slider-response","78","1138953","0.0-10.0-1.8","46","1","2025-07-02 10:18:45","80fe4187154257d5fb01684ea91b68b9","89.154.153.225","Mozilla/5.0 (Macintosh; Intel Mac OS X 10_15_7) AppleWebKit/537.36 (KHTML, like Gecko) Chrome/138.0.0.0 Safari/537.36","Macintosh","Chrome","138.0.0.0","OS X","10_15_7","https://app.prolific.com/","pt-PT,pt;q=0.9,en-US;q=0.8,en;q=0.7,ca;q=0.6,fr;q=0.5,de;q=0.4","66db15814e7818d8b9593ad5","683db6dfa200031b80f2a654","686507774ac7943ff1a98779","66db15814e7818d8b9593ad5","2025-07-02T10:37:45.511Z","","","","","","AttribQ","","","","","","","","","","","","","","","","","","","","","","","","","","","","","","","","","","","","","","50"
"2706","","<div style=""width:500px;"">
  <p>How much control did you have over the ball?</p>
  </div>","27","html-slider-response","79","1141660","0.0-10.0-2.8","46","1","2025-07-02 10:18:45","80fe4187154257d5fb01684ea91b68b9","89.154.153.225","Mozilla/5.0 (Macintosh; Intel Mac OS X 10_15_7) AppleWebKit/537.36 (KHTML, like Gecko) Chrome/138.0.0.0 Safari/537.36","Macintosh","Chrome","138.0.0.0","OS X","10_15_7","https://app.prolific.com/","pt-PT,pt;q=0.9,en-US;q=0.8,en;q=0.7,ca;q=0.6,fr;q=0.5,de;q=0.4","66db15814e7818d8b9593ad5","683db6dfa200031b80f2a654","686507774ac7943ff1a98779","66db15814e7818d8b9593ad5","2025-07-02T10:37:48.218Z","","","","","","ControlQ","","","","","","","","","","","","","","","","","","","","","","","","","","","","","","","","","","","","","","50"
"7255","","<div style=""width:500px;"">
  <p>How would you describe your current emotional state?</p>
  </div>","84","html-slider-response","80","1148915","0.0-10.0-3.8","46","1","2025-07-02 10:18:45","80fe4187154257d5fb01684ea91b68b9","89.154.153.225","Mozilla/5.0 (Macintosh; Intel Mac OS X 10_15_7) AppleWebKit/537.36 (KHTML, like Gecko) Chrome/138.0.0.0 Safari/537.36","Macintosh","Chrome","138.0.0.0","OS X","10_15_7","https://app.prolific.com/","pt-PT,pt;q=0.9,en-US;q=0.8,en;q=0.7,ca;q=0.6,fr;q=0.5,de;q=0.4","66db15814e7818d8b9593ad5","683db6dfa200031b80f2a654","686507774ac7943ff1a98779","66db15814e7818d8b9593ad5","2025-07-02T10:37:55.473Z","","","","","","StressQ","","","","","","","","","","","","","","","","","","","","","","","","","","","","","","","","","","","","","","50"
"2272","","<div style=""width:500px;"">
  <p>What best describes how you currently feel?</p>
  </div>","65","html-slider-response","81","1151188","0.0-10.0-4.8","46","1","2025-07-02 10:18:45","80fe4187154257d5fb01684ea91b68b9","89.154.153.225","Mozilla/5.0 (Macintosh; Intel Mac OS X 10_15_7) AppleWebKit/537.36 (KHTML, like Gecko) Chrome/138.0.0.0 Safari/537.36","Macintosh","Chrome","138.0.0.0","OS X","10_15_7","https://app.prolific.com/","pt-PT,pt;q=0.9,en-US;q=0.8,en;q=0.7,ca;q=0.6,fr;q=0.5,de;q=0.4","66db15814e7818d8b9593ad5","683db6dfa200031b80f2a654","686507774ac7943ff1a98779","66db15814e7818d8b9593ad5","2025-07-02T10:37:57.747Z","","","","","","MotivationQ","","","","","","","","","","","","","","","","","","","","","","","","","","","","","","","","","","","","","","50"
"","","","","ctl-task-cpt","82","1188138","0.0-10.0-0.9","46","1","2025-07-02 10:18:45","80fe4187154257d5fb01684ea91b68b9","89.154.153.225","Mozilla/5.0 (Macintosh; Intel Mac OS X 10_15_7) AppleWebKit/537.36 (KHTML, like Gecko) Chrome/138.0.0.0 Safari/537.36","Macintosh","Chrome","138.0.0.0","OS X","10_15_7","https://app.prolific.com/","pt-PT,pt;q=0.9,en-US;q=0.8,en;q=0.7,ca;q=0.6,fr;q=0.5,de;q=0.4","66db15814e7818d8b9593ad5","683db6dfa200031b80f2a654","686507774ac7943ff1a98779","66db15814e7818d8b9593ad5","2025-07-02T10:38:34.696Z","","","","","","","","","","","","","","","","win-only","2","g1:SE,g2:NW","0.5","10","0","1153145.9","2075.8","7080.5","33940.9","1","4","4","6","1","1","0","0","0","0","2796.3","3000","10","[""down"",""right""]","{""num_key_presses"":10,""num_perfect"":4,""num_errors"":1,""num_randdir"":5,""num_randdir_good_moves"":3,""num_whilered"":0,""num_whileblue"":1,""num_blue"":1,""num_good_moves"":7}","[731,727.796875,0.1,731,727.796875,105.1,731,727.796875,209.2,731,727.796875,309.4,731,727.796875,409.7,731,727.796875,514.9,731,727.796875,615.2,731,727.796875,719.5,731,727.796875,820,731,727.796875,924.6,731,727.796875,1029.5,731,727.796875,1129.6,731,727.796875,1229.7,731,727.796875,1334.7,729,733.796875,1439.6,727,743.796875,1539.8,853,939.796875,1644.6,1129,1181.796875,1745.2,1129,1181.796875,1849.6,1111,1145.796875,1950.2,1131,1125.796875,2054.8,1523,1405.796875,2159.4,1543,1413.796875,2259.5,1543,1413.796875,2364.7,1543,1413.796875,2465.1,1473,1405.796875,2570.2,1407,1377.796875,2675,1407,1377.796875,2780.3,1407,1377.796875,2884.4,1407,1377.796875,2984.6,1407,1377.796875,3084.7,1407,1377.796875,3185,1407,1377.796875,3289.8,1407,1377.796875,3394.9,1407,1377.796875,3495.1,1407,1377.796875,3595.1,1407,1377.796875,3699.9,1407,1377.796875,3800.1,1407,1377.796875,3905.2,1407,1377.796875,4009.5,1407,1377.796875,4114.6,1407,1377.796875,4215.1,1407,1377.796875,4319.8,1407,1377.796875,4419.9,1407,1377.796875,4520.1,1407,1377.796875,4625,1407,1377.796875,4729.2,1407,1377.796875,4829.8,1407,1377.796875,4930.2]","[1324.7,1324.7,1000,0,324.7,""smooth"",""down"",""down"",""good_move"",4006.8,2681.9,2339.1,1324.9,342.8,""oops"",""right"",""left"",""bad_move"",6998.5,2991.4,2704,4007.1,287.4,""oops"",""down"",""up"",""bad_move"",10590.1,3591.3,3202.8,6998.8,388.5,""oops"",""down"",""right"",""good_move"",13925.2,3334.8,3029.9,10590.4,304.9,""oops"",""right"",""right"",""good_move"",16407.5,2482,2152.3,13925.5,329.7,""smooth"",""down"",""down"",""good_move"",19190.4,2782.7,2435.1,16407.7,347.6,""oops"",""right"",""down"",""good_move"",21283.8,2093.1,1773.9,19190.7,319.2,""while_blue"",""right"",""left"",""bad_move"",24050.8,2766.6,2430.6,21284.2,336,""smooth"",""right"",""right"",""good_move"",26774.5,2723.3,2344.9,24051.2,378.4,""smooth"",""right"",""right"",""good_move""]","",""
"4037","","<div style=""width:500px;"">
  <p>What determined the result of this run?</p>
  </div>","58","html-slider-response","83","1192176","0.0-10.0-1.9","46","1","2025-07-02 10:18:45","80fe4187154257d5fb01684ea91b68b9","89.154.153.225","Mozilla/5.0 (Macintosh; Intel Mac OS X 10_15_7) AppleWebKit/537.36 (KHTML, like Gecko) Chrome/138.0.0.0 Safari/537.36","Macintosh","Chrome","138.0.0.0","OS X","10_15_7","https://app.prolific.com/","pt-PT,pt;q=0.9,en-US;q=0.8,en;q=0.7,ca;q=0.6,fr;q=0.5,de;q=0.4","66db15814e7818d8b9593ad5","683db6dfa200031b80f2a654","686507774ac7943ff1a98779","66db15814e7818d8b9593ad5","2025-07-02T10:38:38.734Z","","","","","","AttribQ","","","","","","","","","","","","","","","","","","","","","","","","","","","","","","","","","","","","","","50"
"2649","","<div style=""width:500px;"">
  <p>How much control did you have over the ball?</p>
  </div>","37","html-slider-response","84","1194826","0.0-10.0-2.9","46","1","2025-07-02 10:18:45","80fe4187154257d5fb01684ea91b68b9","89.154.153.225","Mozilla/5.0 (Macintosh; Intel Mac OS X 10_15_7) AppleWebKit/537.36 (KHTML, like Gecko) Chrome/138.0.0.0 Safari/537.36","Macintosh","Chrome","138.0.0.0","OS X","10_15_7","https://app.prolific.com/","pt-PT,pt;q=0.9,en-US;q=0.8,en;q=0.7,ca;q=0.6,fr;q=0.5,de;q=0.4","66db15814e7818d8b9593ad5","683db6dfa200031b80f2a654","686507774ac7943ff1a98779","66db15814e7818d8b9593ad5","2025-07-02T10:38:41.384Z","","","","","","ControlQ","","","","","","","","","","","","","","","","","","","","","","","","","","","","","","","","","","","","","","50"
"2536","","<div style=""width:500px;"">
  <p>How would you describe your current emotional state?</p>
  </div>","62","html-slider-response","85","1197362","0.0-10.0-3.9","46","1","2025-07-02 10:18:45","80fe4187154257d5fb01684ea91b68b9","89.154.153.225","Mozilla/5.0 (Macintosh; Intel Mac OS X 10_15_7) AppleWebKit/537.36 (KHTML, like Gecko) Chrome/138.0.0.0 Safari/537.36","Macintosh","Chrome","138.0.0.0","OS X","10_15_7","https://app.prolific.com/","pt-PT,pt;q=0.9,en-US;q=0.8,en;q=0.7,ca;q=0.6,fr;q=0.5,de;q=0.4","66db15814e7818d8b9593ad5","683db6dfa200031b80f2a654","686507774ac7943ff1a98779","66db15814e7818d8b9593ad5","2025-07-02T10:38:43.920Z","","","","","","StressQ","","","","","","","","","","","","","","","","","","","","","","","","","","","","","","","","","","","","","","50"
"1962","","<div style=""width:500px;"">
  <p>What best describes how you currently feel?</p>
  </div>","62","html-slider-response","86","1199325","0.0-10.0-4.9","46","1","2025-07-02 10:18:45","80fe4187154257d5fb01684ea91b68b9","89.154.153.225","Mozilla/5.0 (Macintosh; Intel Mac OS X 10_15_7) AppleWebKit/537.36 (KHTML, like Gecko) Chrome/138.0.0.0 Safari/537.36","Macintosh","Chrome","138.0.0.0","OS X","10_15_7","https://app.prolific.com/","pt-PT,pt;q=0.9,en-US;q=0.8,en;q=0.7,ca;q=0.6,fr;q=0.5,de;q=0.4","66db15814e7818d8b9593ad5","683db6dfa200031b80f2a654","686507774ac7943ff1a98779","66db15814e7818d8b9593ad5","2025-07-02T10:38:45.883Z","","","","","","MotivationQ","","","","","","","","","","","","","","","","","","","","","","","","","","","","","","","","","","","","","","50"
"","","","","ctl-task-cpt","87","1240275","0.0-10.0-0.10","46","1","2025-07-02 10:18:45","80fe4187154257d5fb01684ea91b68b9","89.154.153.225","Mozilla/5.0 (Macintosh; Intel Mac OS X 10_15_7) AppleWebKit/537.36 (KHTML, like Gecko) Chrome/138.0.0.0 Safari/537.36","Macintosh","Chrome","138.0.0.0","OS X","10_15_7","https://app.prolific.com/","pt-PT,pt;q=0.9,en-US;q=0.8,en;q=0.7,ca;q=0.6,fr;q=0.5,de;q=0.4","66db15814e7818d8b9593ad5","683db6dfa200031b80f2a654","686507774ac7943ff1a98779","66db15814e7818d8b9593ad5","2025-07-02T10:39:26.833Z","","","","","","","","","","","","","","","","win-only","0","g1:NW,g2:SE","0.6","11","0","1201283","1225.5","6230.8","37940.8","1","4","4","6","2","-4","-5","0","0","0","1474.6","3000","-2995","[""down"",""right""]","{""num_key_presses"":8,""num_perfect"":3,""num_errors"":1,""num_randdir"":4,""num_randdir_good_moves"":2,""num_whilered"":0,""num_whileblue"":0,""num_blue"":2,""num_good_moves"":5}","[739,731.796875,0.1,739,731.796875,105.2,739,731.796875,210.2,739,731.796875,314.6,739,731.796875,414.8,739,731.796875,519.7,739,731.796875,620.3,739,731.796875,720.4,739,731.796875,820.6,739,731.796875,924.6,1195,1297.796875,1025.1,1343,1427.796875,1126,1335,1415.796875,1230.5,1315,1373.796875,1330.5,1315,1373.796875,1435.2,1315,1373.796875,1540.7,1315,1373.796875,1644.7,1303,1347.796875,1745.8,1113,999.796875,1850.2,1101,885.796875,1955.3,1101,885.796875,2060.2,1101,885.796875,2160.6,1101,885.796875,2261.3,1101,885.796875,2364.7,1101,885.796875,2465.3,1101,885.796875,2569.5,1101,885.796875,2670.4,1101,885.796875,2775.1,1101,885.796875,2880.2,1101,885.796875,2985.3,1101,885.796875,3089.8,1101,885.796875,3189.8,1101,885.796875,3289.9,1101,885.796875,3390.5,1101,885.796875,3495.5,1101,885.796875,3600.6,1101,885.796875,3705.5,1101,885.796875,3805.5,1101,885.796875,3910.2,1101,885.796875,4014.9,1101,885.796875,4115.3,1101,885.796875,4220.1,1101,885.796875,4325.5,1101,885.796875,4430.4,1101,885.796875,4534.8,1101,885.796875,4635.4,1101,885.796875,4740.5,1101,885.796875,4845,1101,885.796875,4945.3]","[363.1,363.2,1000,0,-636.8,""error"",""-"",""-"",""no_move"",3385.8,3022.4,1657.7,1364.3,363.8,""oops"",""down"",""down"",""good_move"",6295.5,2909.4,2512,3386.1,397.4,""smooth"",""down"",""down"",""good_move"",13145.7,6850.1,2857.7,9864.8,423.3,""oops"",""down"",""right"",""good_move"",15645.3,2499.2,2071.7,13146.1,427.5,""smooth"",""right"",""right"",""good_move"",18326.1,2680.7,2247.2,15645.5,433.5,""oops"",""down"",""left"",""bad_move"",21837.6,3511.1,3113.7,18326.5,397.4,""oops"",""down"",""left"",""bad_move"",28778.5,6940.8,3186.1,25184.9,407.5,""smooth"",""down"",""down"",""good_move""]","",""
"8122","","<div style=""width:500px;"">
  <p>What determined the result of this run?</p>
  </div>","29","html-slider-response","88","1248398","0.0-10.0-1.10","46","1","2025-07-02 10:18:45","80fe4187154257d5fb01684ea91b68b9","89.154.153.225","Mozilla/5.0 (Macintosh; Intel Mac OS X 10_15_7) AppleWebKit/537.36 (KHTML, like Gecko) Chrome/138.0.0.0 Safari/537.36","Macintosh","Chrome","138.0.0.0","OS X","10_15_7","https://app.prolific.com/","pt-PT,pt;q=0.9,en-US;q=0.8,en;q=0.7,ca;q=0.6,fr;q=0.5,de;q=0.4","66db15814e7818d8b9593ad5","683db6dfa200031b80f2a654","686507774ac7943ff1a98779","66db15814e7818d8b9593ad5","2025-07-02T10:39:34.957Z","","","","","","AttribQ","","","","","","","","","","","","","","","","","","","","","","","","","","","","","","","","","","","","","","50"
"6028","","<div style=""width:500px;"">
  <p>How much control did you have over the ball?</p>
  </div>","26","html-slider-response","89","1254427","0.0-10.0-2.10","46","1","2025-07-02 10:18:45","80fe4187154257d5fb01684ea91b68b9","89.154.153.225","Mozilla/5.0 (Macintosh; Intel Mac OS X 10_15_7) AppleWebKit/537.36 (KHTML, like Gecko) Chrome/138.0.0.0 Safari/537.36","Macintosh","Chrome","138.0.0.0","OS X","10_15_7","https://app.prolific.com/","pt-PT,pt;q=0.9,en-US;q=0.8,en;q=0.7,ca;q=0.6,fr;q=0.5,de;q=0.4","66db15814e7818d8b9593ad5","683db6dfa200031b80f2a654","686507774ac7943ff1a98779","66db15814e7818d8b9593ad5","2025-07-02T10:39:40.985Z","","","","","","ControlQ","","","","","","","","","","","","","","","","","","","","","","","","","","","","","","","","","","","","","","50"
"5455","","<div style=""width:500px;"">
  <p>How would you describe your current emotional state?</p>
  </div>","76","html-slider-response","90","1259882","0.0-10.0-3.10","46","1","2025-07-02 10:18:45","80fe4187154257d5fb01684ea91b68b9","89.154.153.225","Mozilla/5.0 (Macintosh; Intel Mac OS X 10_15_7) AppleWebKit/537.36 (KHTML, like Gecko) Chrome/138.0.0.0 Safari/537.36","Macintosh","Chrome","138.0.0.0","OS X","10_15_7","https://app.prolific.com/","pt-PT,pt;q=0.9,en-US;q=0.8,en;q=0.7,ca;q=0.6,fr;q=0.5,de;q=0.4","66db15814e7818d8b9593ad5","683db6dfa200031b80f2a654","686507774ac7943ff1a98779","66db15814e7818d8b9593ad5","2025-07-02T10:39:46.440Z","","","","","","StressQ","","","","","","","","","","","","","","","","","","","","","","","","","","","","","","","","","","","","","","50"
"1839","","<div style=""width:500px;"">
  <p>What best describes how you currently feel?</p>
  </div>","61","html-slider-response","91","1261722","0.0-10.0-4.10","46","1","2025-07-02 10:18:45","80fe4187154257d5fb01684ea91b68b9","89.154.153.225","Mozilla/5.0 (Macintosh; Intel Mac OS X 10_15_7) AppleWebKit/537.36 (KHTML, like Gecko) Chrome/138.0.0.0 Safari/537.36","Macintosh","Chrome","138.0.0.0","OS X","10_15_7","https://app.prolific.com/","pt-PT,pt;q=0.9,en-US;q=0.8,en;q=0.7,ca;q=0.6,fr;q=0.5,de;q=0.4","66db15814e7818d8b9593ad5","683db6dfa200031b80f2a654","686507774ac7943ff1a98779","66db15814e7818d8b9593ad5","2025-07-02T10:39:48.280Z","","","","","","MotivationQ","","","","","","","","","","","","","","","","","","","","","","","","","","","","","","","","","","","","","","50"
