"rt","response_timestamp","stimulus","response","trial_type","trial_index","time_elapsed","internal_node_id","run_id","condition","recorded_at","source_code_version","ip","user_agent","device","browser","browser_version","platform","platform_version","referer","accept_language","PROLIFIC_PID","STUDY_ID","SESSION_ID","prolific_id","realtime","view_history","question_order","consent","success","question_id","eventType","responses","item_order","radio_event_ids","radio_event_times","key_event_times","mouse_event_times","straightlining","zigzagging","honeypot","which_type","canvas_config","goals_layout","control_level","trial_number","tutorial_trial_number","trial_start_time","phase1_start_time","phase2_start_time","phase3_start_time","goal_1_value","goal_1_distance","goal_2_value","goal_2_distance","goal_selected","outcome","outcome_total","participant_final_score","participant_initial_score","participant_final_score_prop","goal_choice_rt","allocated_time","allocated_time_remaining","goal_direction","counts","mouse_movements","key_presses","correct","slider_start","sub_question"
"13771","1751451582125","<p style='font-size:40px;line-height:1.25'><strong>Welcome to the experiment!</strong></p><p style='font-size:1.1em;line-height:1.25'>Thank you for your interest in our experiment! Before you begin, it is important that we obtain your informed consent to participate in the study.</p><p style='font-size:1.1em;line-height:1.25'>On the next screen will be an <strong>information sheet</strong> for you to read. To participate in the study we need you to read this information sheet and the following consent form carefully. If you agree with all the statements, please click the <strong>I agree</strong> button.</p><p style='font-size:1.1em;line-height:1.25'>Press <strong>Next</strong> to read the information sheet.</p>","0","custom-html-button-response","0","13779","0.0-0.0","66","1","2025-07-02 10:18:59","80fe4187154257d5fb01684ea91b68b9","41.145.212.204","Mozilla/5.0 (Windows NT 10.0; Win64; x64) AppleWebKit/537.36 (KHTML, like Gecko) Chrome/136.0.0.0 Safari/537.36","WebKit","Chrome","136.0.0.0","Windows","10.0","https://app.prolific.com/","en-US,en;q=0.9","671b802adc0489faede54d81","683db6dfa200031b80f2a654","686507883556e53dd4d51da9","671b802adc0489faede54d81","2025-07-02T10:19:42.129Z","","","","","","","","","","","","","","","","","","","","","","","","","","","","","","","","","","","","","","","","","","","","",""
"120527","","","","instructions","1","134316","0.0-1.0","66","1","2025-07-02 10:18:59","80fe4187154257d5fb01684ea91b68b9","41.145.212.204","Mozilla/5.0 (Windows NT 10.0; Win64; x64) AppleWebKit/537.36 (KHTML, like Gecko) Chrome/136.0.0.0 Safari/537.36","WebKit","Chrome","136.0.0.0","Windows","10.0","https://app.prolific.com/","en-US,en;q=0.9","671b802adc0489faede54d81","683db6dfa200031b80f2a654","686507883556e53dd4d51da9","671b802adc0489faede54d81","","[{""page_index"":0,""viewing_time"":86080},{""page_index"":1,""viewing_time"":34446}]","","","","","","","","","","","","","","","","","","","","","","","","","","","","","","","","","","","","","","","","","","","",""
"33290","","","{""Q0"":"""",""Q1"":"""",""Q2"":"""",""Q3"":"""",""Q4"":"""",""Q5"":"""",""Q6"":""I agree""}","survey-multi-choice","2","167613","0.0-2.0","66","1","2025-07-02 10:18:59","80fe4187154257d5fb01684ea91b68b9","41.145.212.204","Mozilla/5.0 (Windows NT 10.0; Win64; x64) AppleWebKit/537.36 (KHTML, like Gecko) Chrome/136.0.0.0 Safari/537.36","WebKit","Chrome","136.0.0.0","Windows","10.0","https://app.prolific.com/","en-US,en;q=0.9","671b802adc0489faede54d81","683db6dfa200031b80f2a654","686507883556e53dd4d51da9","671b802adc0489faede54d81","","","[0,1,2,3,4,5,6]","true","","","","","","","","","","","","","","","","","","","","","","","","","","","","","","","","","","","","","","","","","",""
"13695","","","","fullscreen","3","182331","0.0-4.0","66","1","2025-07-02 10:18:59","80fe4187154257d5fb01684ea91b68b9","41.145.212.204","Mozilla/5.0 (Windows NT 10.0; Win64; x64) AppleWebKit/537.36 (KHTML, like Gecko) Chrome/136.0.0.0 Safari/537.36","WebKit","Chrome","136.0.0.0","Windows","10.0","https://app.prolific.com/","en-US,en;q=0.9","671b802adc0489faede54d81","683db6dfa200031b80f2a654","686507883556e53dd4d51da9","671b802adc0489faede54d81","","","","","true","","","","","","","","","","","","","","","","","","","","","","","","","","","","","","","","","","","","","","","","",""
"17893","1751451768576"," <p style='font-size:1.1em;line-height:1.25'>Thank you for completing the consent form and closing all other tabs.</p><p style='font-size:1.1em;line-height:1.25'>We will now invite you to fill in some demographic information and questionnaires, before starting the game.<br>This will take about 5 minutes.<br></p><p style='font-size:1.1em;line-height:1.25'>Press the <strong>Next</strong> button to continue.</p>","0","custom-html-button-response","4","200228","0.0-5.0","66","1","2025-07-02 10:18:59","80fe4187154257d5fb01684ea91b68b9","41.145.212.204","Mozilla/5.0 (Windows NT 10.0; Win64; x64) AppleWebKit/537.36 (KHTML, like Gecko) Chrome/136.0.0.0 Safari/537.36","WebKit","Chrome","136.0.0.0","Windows","10.0","https://app.prolific.com/","en-US,en;q=0.9","671b802adc0489faede54d81","683db6dfa200031b80f2a654","686507883556e53dd4d51da9","671b802adc0489faede54d81","2025-07-02T10:22:48.577Z","","","","","","","","","","","","","","","","","","","","","","","","","","","","","","","","","","","","","","","","","","","","",""
"3573","","","{""age"":""30""}","survey-text","5","203814","0.0-6.0-0.0","66","1","2025-07-02 10:18:59","80fe4187154257d5fb01684ea91b68b9","41.145.212.204","Mozilla/5.0 (Windows NT 10.0; Win64; x64) AppleWebKit/537.36 (KHTML, like Gecko) Chrome/136.0.0.0 Safari/537.36","WebKit","Chrome","136.0.0.0","Windows","10.0","https://app.prolific.com/","en-US,en;q=0.9","671b802adc0489faede54d81","683db6dfa200031b80f2a654","686507883556e53dd4d51da9","671b802adc0489faede54d81","","","","","","0","demographics","","","","","","","","","","","","","","","","","","","","","","","","","","","","","","","","","","","","","","",""
"3732","","","{""gender_identity"":""female/woman""}","survey-multi-choice","6","207552","0.0-6.0-1.0","66","1","2025-07-02 10:18:59","80fe4187154257d5fb01684ea91b68b9","41.145.212.204","Mozilla/5.0 (Windows NT 10.0; Win64; x64) AppleWebKit/537.36 (KHTML, like Gecko) Chrome/136.0.0.0 Safari/537.36","WebKit","Chrome","136.0.0.0","Windows","10.0","https://app.prolific.com/","en-US,en;q=0.9","671b802adc0489faede54d81","683db6dfa200031b80f2a654","686507883556e53dd4d51da9","671b802adc0489faede54d81","","","[0]","","","1","demographics","","","","","","","","","","","","","","","","","","","","","","","","","","","","","","","","","","","","","","",""
"6445","","","{""assigned_sex"":""female""}","survey-multi-choice","7","214000","0.0-6.0-2.0","66","1","2025-07-02 10:18:59","80fe4187154257d5fb01684ea91b68b9","41.145.212.204","Mozilla/5.0 (Windows NT 10.0; Win64; x64) AppleWebKit/537.36 (KHTML, like Gecko) Chrome/136.0.0.0 Safari/537.36","WebKit","Chrome","136.0.0.0","Windows","10.0","https://app.prolific.com/","en-US,en;q=0.9","671b802adc0489faede54d81","683db6dfa200031b80f2a654","686507883556e53dd4d51da9","671b802adc0489faede54d81","","","[0]","","","2","demographics","","","","","","","","","","","","","","","","","","","","","","","","","","","","","","","","","","","","","","",""
"6067","","","{""menstrual_cycle"":""Yes""}","survey-multi-choice","8","220070","0.0-6.0-3.0","66","1","2025-07-02 10:18:59","80fe4187154257d5fb01684ea91b68b9","41.145.212.204","Mozilla/5.0 (Windows NT 10.0; Win64; x64) AppleWebKit/537.36 (KHTML, like Gecko) Chrome/136.0.0.0 Safari/537.36","WebKit","Chrome","136.0.0.0","Windows","10.0","https://app.prolific.com/","en-US,en;q=0.9","671b802adc0489faede54d81","683db6dfa200031b80f2a654","686507883556e53dd4d51da9","671b802adc0489faede54d81","","","[0]","","","4","demographics","","","","","","","","","","","","","","","","","","","","","","","","","","","","","","","","","","","","","","",""
"6783","","","{""education"":""Bachelor's Degree (e.g., BA)""}","survey-multi-choice","9","226857","0.0-6.0-4.0","66","1","2025-07-02 10:18:59","80fe4187154257d5fb01684ea91b68b9","41.145.212.204","Mozilla/5.0 (Windows NT 10.0; Win64; x64) AppleWebKit/537.36 (KHTML, like Gecko) Chrome/136.0.0.0 Safari/537.36","WebKit","Chrome","136.0.0.0","Windows","10.0","https://app.prolific.com/","en-US,en;q=0.9","671b802adc0489faede54d81","683db6dfa200031b80f2a654","686507883556e53dd4d51da9","671b802adc0489faede54d81","","","[0]","","","5","demographics","","","","","","","","","","","","","","","","","","","","","","","","","","","","","","","","","","","","","","",""
"12217","","","{""education"":""Master's Degree (e.g., MSc)""}","survey-multi-choice","10","239081","0.0-6.0-5.0","66","1","2025-07-02 10:18:59","80fe4187154257d5fb01684ea91b68b9","41.145.212.204","Mozilla/5.0 (Windows NT 10.0; Win64; x64) AppleWebKit/537.36 (KHTML, like Gecko) Chrome/136.0.0.0 Safari/537.36","WebKit","Chrome","136.0.0.0","Windows","10.0","https://app.prolific.com/","en-US,en;q=0.9","671b802adc0489faede54d81","683db6dfa200031b80f2a654","686507883556e53dd4d51da9","671b802adc0489faede54d81","2025-07-02T10:23:27.430Z","","[0]","","","6","demographics","","","","","","","","","","","","","","","","","","","","","","","","","","","","","","","","","","","","","","",""
"40089","","","{""mental_health_condition"":""No i dont"",""mental_health_treatment"":""No I am not"",""psychiatric_medication"":""No, Im not""}","survey-text","11","279183","0.0-7.0-0.0","66","1","2025-07-02 10:18:59","80fe4187154257d5fb01684ea91b68b9","41.145.212.204","Mozilla/5.0 (Windows NT 10.0; Win64; x64) AppleWebKit/537.36 (KHTML, like Gecko) Chrome/136.0.0.0 Safari/537.36","WebKit","Chrome","136.0.0.0","Windows","10.0","https://app.prolific.com/","en-US,en;q=0.9","671b802adc0489faede54d81","683db6dfa200031b80f2a654","686507883556e53dd4d51da9","671b802adc0489faede54d81","2025-07-02T10:24:07.533Z","","","","","1","mental_health","","","","","","","","","","","","","","","","","","","","","","","","","","","","","","","","","","","","","","",""
"19179","","","{""depression_history"":[""Yes""]}","survey-multi-select","12","298374","0.0-7.0-1.0","66","1","2025-07-02 10:18:59","80fe4187154257d5fb01684ea91b68b9","41.145.212.204","Mozilla/5.0 (Windows NT 10.0; Win64; x64) AppleWebKit/537.36 (KHTML, like Gecko) Chrome/136.0.0.0 Safari/537.36","WebKit","Chrome","136.0.0.0","Windows","10.0","https://app.prolific.com/","en-US,en;q=0.9","671b802adc0489faede54d81","683db6dfa200031b80f2a654","686507883556e53dd4d51da9","671b802adc0489faede54d81","","","[0]","","","","mental_health","","","","","","","","","","","","","","","","","","","","","","","","","","","","","","","","","","","","","","",""
"32338","","","{""depression_episodes"":""more than 5"",""depression_recent"":""Within the past year""}","survey-multi-choice","13","330717","0.0-7.0-2.0-0.0","66","1","2025-07-02 10:18:59","80fe4187154257d5fb01684ea91b68b9","41.145.212.204","Mozilla/5.0 (Windows NT 10.0; Win64; x64) AppleWebKit/537.36 (KHTML, like Gecko) Chrome/136.0.0.0 Safari/537.36","WebKit","Chrome","136.0.0.0","Windows","10.0","https://app.prolific.com/","en-US,en;q=0.9","671b802adc0489faede54d81","683db6dfa200031b80f2a654","686507883556e53dd4d51da9","671b802adc0489faede54d81","2025-07-02T10:24:59.066Z","","[0,1]","","","3","mental_health","","","","","","","","","","","","","","","","","","","","","","","","","","","","","","","","","","","","","","",""
"144412.5","","","","survey-template","14","475142","0.0-7.0-3.0","66","1","2025-07-02 10:18:59","80fe4187154257d5fb01684ea91b68b9","41.145.212.204","Mozilla/5.0 (Windows NT 10.0; Win64; x64) AppleWebKit/537.36 (KHTML, like Gecko) Chrome/136.0.0.0 Safari/537.36","WebKit","Chrome","136.0.0.0","Windows","10.0","https://app.prolific.com/","en-US,en;q=0.9","671b802adc0489faede54d81","683db6dfa200031b80f2a654","686507883556e53dd4d51da9","671b802adc0489faede54d81","2025-07-02T10:27:23.491Z","","","","","","ius","{""Q01"":""2"",""Q02"":""3"",""Q03"":""2"",""Q04"":""4"",""Q05"":""3"",""Q06"":""2"",""Q07"":""3"",""Q08"":""0"",""Q09"":""3"",""Q10"":""2"",""Q11"":""3"",""Q12"":""3"",""Q13"":""3""}","[0,1,2,3,4,5,6,7,8,9,10,11,12]","[""Q01"",""Q01"",""Q02"",""Q03"",""Q04"",""Q05"",""Q05"",""Q06"",""Q07"",""Q08"",""Q09"",""Q10"",""Q11"",""Q12"",""Q13""]","[49983.59999996424,53367.89999997616,57023.299999952316,60524.299999952316,64264.09999996424,69133.39999997616,71931.5,83869.69999998808,90604.29999995232,95030.79999995232,121565.89999997616,125321.59999996424,130915.79999995232,133500.09999996424,135771]","[]","[49983.59999996424,53367.89999997616,57023.299999952316,60524.299999952316,64264.09999996424,69133.39999997616,71931.5,83869.69999998808,88654.59999996424,90604.29999995232,95030.79999995232,121565.89999997616,125321.59999996424,130915.79999995232,133500.09999996424,135771,144407]","0.5384615384615384","0.5833333333333334","0","","","","","","","","","","","","","","","","","","","","","","","","","","","","","",""
"8996","1751452052491","<p style='font-size:1.1em;line-height:1.25'>In the following, we will ask you a few questions relating to your experiences over the past month.<br></p><p style='font-size:1.1em;line-height:1.25'>Press the <strong>Next</strong> button to continue.</p>","0","custom-html-button-response","15","484143","0.0-7.0-4.0","66","1","2025-07-02 10:18:59","80fe4187154257d5fb01684ea91b68b9","41.145.212.204","Mozilla/5.0 (Windows NT 10.0; Win64; x64) AppleWebKit/537.36 (KHTML, like Gecko) Chrome/136.0.0.0 Safari/537.36","WebKit","Chrome","136.0.0.0","Windows","10.0","https://app.prolific.com/","en-US,en;q=0.9","671b802adc0489faede54d81","683db6dfa200031b80f2a654","686507883556e53dd4d51da9","671b802adc0489faede54d81","2025-07-02T10:27:32.492Z","","","","","","","","","","","","","","","","","","","","","","","","","","","","","","","","","","","","","","","","","","","","",""
"139187.60000002384","","","","survey-template","16","623339","0.0-7.0-5.0","66","1","2025-07-02 10:18:59","80fe4187154257d5fb01684ea91b68b9","41.145.212.204","Mozilla/5.0 (Windows NT 10.0; Win64; x64) AppleWebKit/537.36 (KHTML, like Gecko) Chrome/136.0.0.0 Safari/537.36","WebKit","Chrome","136.0.0.0","Windows","10.0","https://app.prolific.com/","en-US,en;q=0.9","671b802adc0489faede54d81","683db6dfa200031b80f2a654","686507883556e53dd4d51da9","671b802adc0489faede54d81","2025-07-02T10:29:51.688Z","","","","","","pss","{""Q01"":""3"",""Q02"":""2"",""Q03"":""3"",""Q04"":""0"",""Q05"":""2"",""Q06"":""3"",""Q07"":""2"",""Q08"":""2"",""Q09"":""3"",""Q10"":""2""}","[0,1,2,3,4,5,6,7,8,9]","[""Q01"",""Q02"",""Q03"",""Q03"",""Q04"",""Q05"",""Q05"",""Q05"",""Q06"",""Q07"",""Q08"",""Q09"",""Q10""]","[23272.400000035763,42772.10000002384,45484,49055.19999998808,79797.40000003576,84444.10000002384,88615,95301.90000003576,100856.40000003576,113002.80000001192,122586,130432.5,136985.90000003576]","[]","[0.10000002384185791,23272.400000035763,42772.10000002384,45484,49055.19999998808,79797.40000003576,84444.10000002384,88615,95301.90000003576,100856.40000003576,113002.80000001192,122586,130432.5,136985.90000003576,139182.90000003576]","0.5","0.7777777777777778","0","","","","","","","","","","","","","","","","","","","","","","","","","","","","","",""
"6497","1751452198187","<p style='font-size:1.1em;line-height:1.25'>Thank you for your answers! Now we will ask you a few more questions relating to your feelings in the last 24 hours.<br></p><p style='font-size:1.1em;line-height:1.25'>Press the <strong>Next</strong> button to continue.</p>","0","custom-html-button-response","17","629840","0.0-7.0-6.0","66","1","2025-07-02 10:18:59","80fe4187154257d5fb01684ea91b68b9","41.145.212.204","Mozilla/5.0 (Windows NT 10.0; Win64; x64) AppleWebKit/537.36 (KHTML, like Gecko) Chrome/136.0.0.0 Safari/537.36","WebKit","Chrome","136.0.0.0","Windows","10.0","https://app.prolific.com/","en-US,en;q=0.9","671b802adc0489faede54d81","683db6dfa200031b80f2a654","686507883556e53dd4d51da9","671b802adc0489faede54d81","2025-07-02T10:29:58.189Z","","","","","","","","","","","","","","","","","","","","","","","","","","","","","","","","","","","","","","","","","","","","",""
"181409.10000002384","","","","survey-template","18","811261","0.0-7.0-7.0","66","1","2025-07-02 10:18:59","80fe4187154257d5fb01684ea91b68b9","41.145.212.204","Mozilla/5.0 (Windows NT 10.0; Win64; x64) AppleWebKit/537.36 (KHTML, like Gecko) Chrome/136.0.0.0 Safari/537.36","WebKit","Chrome","136.0.0.0","Windows","10.0","https://app.prolific.com/","en-US,en;q=0.9","671b802adc0489faede54d81","683db6dfa200031b80f2a654","686507883556e53dd4d51da9","671b802adc0489faede54d81","2025-07-02T10:32:59.610Z","","","","","","drsp","{""Q01"":""0"",""Q02"":""0"",""Q03"":""0"",""Q04"":""1"",""Q05"":""0"",""Q06"":""0"",""Q07"":""0"",""Q08"":""0"",""Q09"":""1"",""Q10"":""1"",""Q11"":""1"",""Q12"":""0"",""Q13"":""2"",""Q14"":""0"",""Q15"":""0"",""Q16"":""1"",""Q17"":""0"",""Q18"":""0"",""Q19"":""0"",""Q20"":""0"",""Q21"":""0""}","[0,1,2,3,4,5,6,7,8,9,10,11,12,13,14,15,16,17,18,19,20]","[""Q01"",""Q01"",""Q02"",""Q03"",""Q04"",""Q05"",""Q05"",""Q06"",""Q07"",""Q08"",""Q09"",""Q09"",""Q10"",""Q11"",""Q12"",""Q12"",""Q13"",""Q14"",""Q15"",""Q16"",""Q18"",""Q17"",""Q19"",""Q20"",""Q21""]","[14568.5,23745,26965.5,30987.30000001192,34556.69999998808,38557.10000002384,41830.30000001192,45839.80000001192,49889.40000003576,52392.90000003576,62299.90000003576,63957,70123.19999998808,75862.5,79401.60000002384,86208.10000002384,104457.69999998808,114199.90000003576,129991.60000002384,133690.5,137285.30000001192,138745.80000001192,157288.69999998808,166097.10000002384,178562.60000002384]","[]","[0.10000002384185791,14568.5,23745,26965.5,30987.30000001192,34556.69999998808,38557.10000002384,41830.30000001192,45839.80000001192,48367.90000003576,49889.40000003576,52392.90000003576,62299.90000003576,63957,70123.19999998808,75862.5,79401.60000002384,86208.10000002384,104457.69999998808,114199.90000003576,129991.60000002384,133690.5,135102,137285.30000001192,138745.80000001192,157288.69999998808,166097.10000002384,178562.60000002384,181399.60000002384]","0.7142857142857143","0.3","0","","","","","","","","","","","","","","","","","","","","","","","","","","","","","",""
"38465","","","","survey-template","19","849731","0.0-7.0-8.0","66","1","2025-07-02 10:18:59","80fe4187154257d5fb01684ea91b68b9","41.145.212.204","Mozilla/5.0 (Windows NT 10.0; Win64; x64) AppleWebKit/537.36 (KHTML, like Gecko) Chrome/136.0.0.0 Safari/537.36","WebKit","Chrome","136.0.0.0","Windows","10.0","https://app.prolific.com/","en-US,en;q=0.9","671b802adc0489faede54d81","683db6dfa200031b80f2a654","686507883556e53dd4d51da9","671b802adc0489faede54d81","2025-07-02T10:33:38.080Z","","","","","","stress","{""Q01"":""1"",""Q02"":""4"",""Q03"":""0""}","[0,1,2]","[""Q01"",""Q02"",""Q03""]","[14268.100000023842,26431.900000035763,34019.19999998808]","[]","[14268.100000023842,26431.900000035763,34019.19999998808,36166.90000003576,38463]","0.6666666666666666","0.5","0","","","","","","","","","","","","","","","","","","","","","","","","","","","","","",""
"112415","","","","instructions","20","962149","0.0-8.0-0.0","66","1","2025-07-02 10:18:59","80fe4187154257d5fb01684ea91b68b9","41.145.212.204","Mozilla/5.0 (Windows NT 10.0; Win64; x64) AppleWebKit/537.36 (KHTML, like Gecko) Chrome/136.0.0.0 Safari/537.36","WebKit","Chrome","136.0.0.0","Windows","10.0","https://app.prolific.com/","en-US,en;q=0.9","671b802adc0489faede54d81","683db6dfa200031b80f2a654","686507883556e53dd4d51da9","671b802adc0489faede54d81","","[{""page_index"":0,""viewing_time"":51384},{""page_index"":1,""viewing_time"":724},{""page_index"":2,""viewing_time"":1607},{""page_index"":3,""viewing_time"":1560},{""page_index"":2,""viewing_time"":1226},{""page_index"":1,""viewing_time"":1939},{""page_index"":0,""viewing_time"":1350},{""page_index"":1,""viewing_time"":5087},{""page_index"":2,""viewing_time"":1191},{""page_index"":1,""viewing_time"":14335},{""page_index"":2,""viewing_time"":10885},{""page_index"":3,""viewing_time"":21125}]","","","","","","","","","","","","","","","","","","","","","","","","","","","","","","","","","","","","","","","","","","","",""
"","","","","ctl-task-cpt","21","1002667","0.0-8.0-1.0","66","1","2025-07-02 10:18:59","80fe4187154257d5fb01684ea91b68b9","41.145.212.204","Mozilla/5.0 (Windows NT 10.0; Win64; x64) AppleWebKit/537.36 (KHTML, like Gecko) Chrome/136.0.0.0 Safari/537.36","WebKit","Chrome","136.0.0.0","Windows","10.0","https://app.prolific.com/","en-US,en;q=0.9","671b802adc0489faede54d81","683db6dfa200031b80f2a654","686507883556e53dd4d51da9","671b802adc0489faede54d81","","","","","","","","","","","","","","","","","win-only","1","g1:NE,g2:SW","1","0","1","967823.1","5111.5","9120.6","37485.1","2","4","4","6","2","4","3","3","0","0.022727272727272728","4008.9","4000","360","[""down"",""left""]","{""num_key_presses"":8,""num_perfect"":6,""num_errors"":1,""num_randdir"":0,""num_randdir_good_moves"":0,""num_whilered"":1,""num_whileblue"":0,""num_blue"":2,""num_good_moves"":6}","[294.22232142857143,292.12857142857143,1.8,294.22232142857143,292.12857142857143,104.8,294.22232142857143,292.12857142857143,209.6,294.22232142857143,292.12857142857143,311.2,294.22232142857143,292.12857142857143,414.5,294.22232142857143,292.12857142857143,516.1,294.22232142857143,292.12857142857143,621.6,294.22232142857143,292.12857142857143,724.1,294.22232142857143,292.12857142857143,824.9,294.22232142857143,292.12857142857143,931.9,294.22232142857143,292.12857142857143,1035,294.22232142857143,292.12857142857143,1141.9,294.22232142857143,292.12857142857143,1244.7,294.22232142857143,292.12857142857143,1360.5,294.22232142857143,292.12857142857143,1466.7,294.22232142857143,292.12857142857143,1571.1,294.22232142857143,292.12857142857143,1671.2,294.22232142857143,292.12857142857143,1778.8,294.22232142857143,292.12857142857143,1880,294.22232142857143,292.12857142857143,1986.6,294.22232142857143,292.12857142857143,2091.4,294.22232142857143,292.12857142857143,2193.4,294.22232142857143,292.12857142857143,2303.3,294.22232142857143,292.12857142857143,2412,294.22232142857143,292.12857142857143,2513.9,294.22232142857143,292.12857142857143,2622.3,294.22232142857143,292.12857142857143,2724.1,294.22232142857143,292.12857142857143,2832.9,294.22232142857143,292.12857142857143,2943.1,294.22232142857143,292.12857142857143,3055.2,294.22232142857143,292.12857142857143,3160.1,294.22232142857143,292.12857142857143,3261.5,294.22232142857143,292.12857142857143,3369.8,294.22232142857143,292.12857142857143,3470.7,294.22232142857143,292.12857142857143,3575.3,294.22232142857143,292.12857142857143,3677,294.22232142857143,292.12857142857143,3781.9,294.22232142857143,292.12857142857143,3885,294.22232142857143,292.12857142857143,3988]","[2165,2164.6,1000,0.4,1164.6,""smooth"",""left"",""left"",""good_move"",2515.7,347.2,3437.1,2168.6,-3090,""error"",""-"",""-"",""no_move"",2934.5,415.6,3437.1,2168.6,-2671.2,""while_red"",""-"",""-"",""no_move"",7825.4,5306.5,3267.3,3522.5,1035.6,""smooth"",""left"",""left"",""good_move"",14781.9,6935.3,3016.9,11175.6,589.4,""smooth"",""left"",""left"",""good_move"",18669.6,3868.5,2755.7,14801.1,1112.9,""smooth"",""down"",""down"",""good_move"",21608.2,2911.6,2317.4,18696.7,594.2,""smooth"",""down"",""down"",""good_move"",28236.6,6617.9,2665.4,24970.7,600.5,""smooth"",""down"",""down"",""good_move""]","","",""
"1980","","","","instructions","22","1004648","0.0-8.0-2.0","66","1","2025-07-02 10:18:59","80fe4187154257d5fb01684ea91b68b9","41.145.212.204","Mozilla/5.0 (Windows NT 10.0; Win64; x64) AppleWebKit/537.36 (KHTML, like Gecko) Chrome/136.0.0.0 Safari/537.36","WebKit","Chrome","136.0.0.0","Windows","10.0","https://app.prolific.com/","en-US,en;q=0.9","671b802adc0489faede54d81","683db6dfa200031b80f2a654","686507883556e53dd4d51da9","671b802adc0489faede54d81","","[{""page_index"":0,""viewing_time"":1979}]","","","","","","","","","","","","","","","","","","","","","","","","","","","","","","","","","","","","","","","","","","","",""
"","","","","ctl-task-cpt","23","1068764","0.0-8.0-3.0","66","1","2025-07-02 10:18:59","80fe4187154257d5fb01684ea91b68b9","41.145.212.204","Mozilla/5.0 (Windows NT 10.0; Win64; x64) AppleWebKit/537.36 (KHTML, like Gecko) Chrome/136.0.0.0 Safari/537.36","WebKit","Chrome","136.0.0.0","Windows","10.0","https://app.prolific.com/","en-US,en;q=0.9","671b802adc0489faede54d81","683db6dfa200031b80f2a654","686507883556e53dd4d51da9","671b802adc0489faede54d81","","","","","","","","","","","","","","","","","win-only","1","g1:NE,g2:SW","0.35","0","3","1010311.8","2686.5","6709.2","61085","2","4","8","6","2","8","7","7","0","0.05303030303030303","4022.7","4000","420","[""down"",""left""]","{""num_key_presses"":16,""num_perfect"":5,""num_errors"":1,""num_randdir"":10,""num_randdir_good_moves"":6,""num_whilered"":0,""num_whileblue"":1,""num_blue"":3,""num_good_moves"":11}","[296.22232142857143,297.12857142857143,7.4,296.22232142857143,297.12857142857143,107.3,296.22232142857143,297.12857142857143,221.9,296.22232142857143,297.12857142857143,331.7,296.22232142857143,297.12857142857143,435.2,296.22232142857143,297.12857142857143,538.4,296.22232142857143,297.12857142857143,644.2,296.22232142857143,297.12857142857143,750.6,296.22232142857143,297.12857142857143,857.2,296.22232142857143,297.12857142857143,958.6,296.22232142857143,297.12857142857143,1059.3,298.22232142857143,297.12857142857143,1166.5,314.22232142857143,284.12857142857143,1277.4,345.22232142857143,256.12857142857143,1377.6,347.22232142857143,254.12857142857143,1481.4,348.22232142857143,253.12857142857143,1581.9,348.22232142857143,253.12857142857143,1691.3,348.22232142857143,253.12857142857143,1794.7,348.22232142857143,253.12857142857143,1900.7,348.22232142857143,253.12857142857143,2004,348.22232142857143,253.12857142857143,2108.8,348.22232142857143,253.12857142857143,2246.1,348.22232142857143,253.12857142857143,2355.4,348.22232142857143,253.12857142857143,2457.6,348.22232142857143,253.12857142857143,2562.5,348.22232142857143,253.12857142857143,2668.1,348.22232142857143,253.12857142857143,2771.2,348.22232142857143,253.12857142857143,2874.4,348.22232142857143,253.12857142857143,2981.9,348.22232142857143,253.12857142857143,3088.1,348.22232142857143,253.12857142857143,3189.3,348.22232142857143,253.12857142857143,3294,348.22232142857143,253.12857142857143,3402.1,348.22232142857143,253.12857142857143,3508.7,348.22232142857143,253.12857142857143,3612.4,348.22232142857143,253.12857142857143,3723.8,348.22232142857143,253.12857142857143,3824.3,348.22232142857143,253.12857142857143,3926.8]","[1594.4,1594.5,1000,0,594.5,""oops"",""up"",""up"",""bad_move"",4208.9,2606.8,1543.1,1602.1,1063.7,""smooth"",""left"",""left"",""good_move"",6927.2,2706.3,2228.8,4221,477.4,""smooth"",""left"",""left"",""good_move"",10080.9,3139.1,2501.7,6941.9,637.3,""oops"",""left"",""right"",""bad_move"",13114.7,3023.7,2634.4,10091.1,389.3,""oops"",""down"",""down"",""good_move"",15660.2,2535.1,2097,13125.2,438,""smooth"",""down"",""down"",""good_move"",18395.9,2712.9,2117.9,15683,595,""while_blue"",""left"",""right"",""bad_move"",21199.8,2784.4,2228.9,18415.4,555.5,""smooth"",""left"",""left"",""good_move"",24317.5,3096.3,2667.5,21221.2,428.8,""oops"",""left"",""up"",""bad_move"",31503.8,7172.9,2602.7,28523.4,377.8,""oops"",""down"",""down"",""good_move"",34341.1,2831.4,2364.8,31509.8,466.5,""oops"",""down"",""down"",""good_move"",37314.1,2953.8,2484.3,34360.3,469.5,""oops"",""down"",""left"",""good_move"",44485.6,7169.9,2874.2,41162.1,449.3,""oops"",""down"",""right"",""bad_move"",47270,2768.3,1954.7,44501.8,813.5,""smooth"",""left"",""left"",""good_move"",50513.6,3236.1,2750.5,47277.5,485.6,""oops"",""left"",""left"",""good_move"",54204.1,3689.1,3220.1,50515,469,""oops"",""down"",""down"",""good_move""]","","",""
"14756","","","","instructions","24","1083521","0.0-8.0-4.0","66","1","2025-07-02 10:18:59","80fe4187154257d5fb01684ea91b68b9","41.145.212.204","Mozilla/5.0 (Windows NT 10.0; Win64; x64) AppleWebKit/537.36 (KHTML, like Gecko) Chrome/136.0.0.0 Safari/537.36","WebKit","Chrome","136.0.0.0","Windows","10.0","https://app.prolific.com/","en-US,en;q=0.9","671b802adc0489faede54d81","683db6dfa200031b80f2a654","686507883556e53dd4d51da9","671b802adc0489faede54d81","","[{""page_index"":0,""viewing_time"":5346},{""page_index"":1,""viewing_time"":9409}]","","","","","","","","","","","","","","","","","","","","","","","","","","","","","","","","","","","","","","","","","","","",""
"25453","","","{""green_ball"":[""Ball sometimes shakes and moves in a random direction""]}","survey-multi-select","25","1108984","0.0-8.0-5.0-0.0","66","1","2025-07-02 10:18:59","80fe4187154257d5fb01684ea91b68b9","41.145.212.204","Mozilla/5.0 (Windows NT 10.0; Win64; x64) AppleWebKit/537.36 (KHTML, like Gecko) Chrome/136.0.0.0 Safari/537.36","WebKit","Chrome","136.0.0.0","Windows","10.0","https://app.prolific.com/","en-US,en;q=0.9","671b802adc0489faede54d81","683db6dfa200031b80f2a654","686507883556e53dd4d51da9","671b802adc0489faede54d81","","","[0]","","","","quiz","","","","","","","","","","","","","","","","","","","","","","","","","","","","","","","","","","","","","true","",""
"2529","","<p align='center'><b>CORRECT!</b> Indeed, the green ball may sometimes shake and move in a random direction.</p>","0","html-button-response","26","1111522","0.0-8.0-5.0-1.0","66","1","2025-07-02 10:18:59","80fe4187154257d5fb01684ea91b68b9","41.145.212.204","Mozilla/5.0 (Windows NT 10.0; Win64; x64) AppleWebKit/537.36 (KHTML, like Gecko) Chrome/136.0.0.0 Safari/537.36","WebKit","Chrome","136.0.0.0","Windows","10.0","https://app.prolific.com/","en-US,en;q=0.9","671b802adc0489faede54d81","683db6dfa200031b80f2a654","686507883556e53dd4d51da9","671b802adc0489faede54d81","","","","","","","","","","","","","","","","","","","","","","","","","","","","","","","","","","","","","","","","","","","","","",""
"11520","","","{""yellow_ball"":[""Ball doesn‘t move and I get -1 penalty point""]}","survey-multi-select","27","1123049","0.0-8.0-6.0-0.0","66","1","2025-07-02 10:18:59","80fe4187154257d5fb01684ea91b68b9","41.145.212.204","Mozilla/5.0 (Windows NT 10.0; Win64; x64) AppleWebKit/537.36 (KHTML, like Gecko) Chrome/136.0.0.0 Safari/537.36","WebKit","Chrome","136.0.0.0","Windows","10.0","https://app.prolific.com/","en-US,en;q=0.9","671b802adc0489faede54d81","683db6dfa200031b80f2a654","686507883556e53dd4d51da9","671b802adc0489faede54d81","","","[0]","","","","quiz","","","","","","","","","","","","","","","","","","","","","","","","","","","","","","","","","","","","","true","",""
"1799","","<p align='center'><b>CORRECT!</b> Indeed, the yellow ball never moves and you receive a penalty.</p>","0","html-button-response","28","1124852","0.0-8.0-6.0-1.0","66","1","2025-07-02 10:18:59","80fe4187154257d5fb01684ea91b68b9","41.145.212.204","Mozilla/5.0 (Windows NT 10.0; Win64; x64) AppleWebKit/537.36 (KHTML, like Gecko) Chrome/136.0.0.0 Safari/537.36","WebKit","Chrome","136.0.0.0","Windows","10.0","https://app.prolific.com/","en-US,en;q=0.9","671b802adc0489faede54d81","683db6dfa200031b80f2a654","686507883556e53dd4d51da9","671b802adc0489faede54d81","","","","","","","","","","","","","","","","","","","","","","","","","","","","","","","","","","","","","","","","","","","","","",""
"8475","","","{""blue_ball"":[""Ball always shakes and moves in a random direction""]}","survey-multi-select","29","1133333","0.0-8.0-7.0-0.0","66","1","2025-07-02 10:18:59","80fe4187154257d5fb01684ea91b68b9","41.145.212.204","Mozilla/5.0 (Windows NT 10.0; Win64; x64) AppleWebKit/537.36 (KHTML, like Gecko) Chrome/136.0.0.0 Safari/537.36","WebKit","Chrome","136.0.0.0","Windows","10.0","https://app.prolific.com/","en-US,en;q=0.9","671b802adc0489faede54d81","683db6dfa200031b80f2a654","686507883556e53dd4d51da9","671b802adc0489faede54d81","","","[0]","","","","quiz","","","","","","","","","","","","","","","","","","","","","","","","","","","","","","","","","","","","","true","",""
"2386","","<p align='center'><b>CORRECT!</b> Indeed, the blue ball always shakes and moves in a random direction. Also there is a penalty of -1 point.</p>","0","html-button-response","30","1135723","0.0-8.0-7.0-1.0","66","1","2025-07-02 10:18:59","80fe4187154257d5fb01684ea91b68b9","41.145.212.204","Mozilla/5.0 (Windows NT 10.0; Win64; x64) AppleWebKit/537.36 (KHTML, like Gecko) Chrome/136.0.0.0 Safari/537.36","WebKit","Chrome","136.0.0.0","Windows","10.0","https://app.prolific.com/","en-US,en;q=0.9","671b802adc0489faede54d81","683db6dfa200031b80f2a654","686507883556e53dd4d51da9","671b802adc0489faede54d81","","","","","","","","","","","","","","","","","","","","","","","","","","","","","","","","","","","","","","","","","","","","","",""
"12614","","","{""bonus"":[""When I reach 80% of points""]}","survey-multi-select","31","1148343","0.0-8.0-8.0-0.0","66","1","2025-07-02 10:18:59","80fe4187154257d5fb01684ea91b68b9","41.145.212.204","Mozilla/5.0 (Windows NT 10.0; Win64; x64) AppleWebKit/537.36 (KHTML, like Gecko) Chrome/136.0.0.0 Safari/537.36","WebKit","Chrome","136.0.0.0","Windows","10.0","https://app.prolific.com/","en-US,en;q=0.9","671b802adc0489faede54d81","683db6dfa200031b80f2a654","686507883556e53dd4d51da9","671b802adc0489faede54d81","","","[0]","","","","quiz","","","","","","","","","","","","","","","","","","","","","","","","","","","","","","","","","","","","","false","",""
"3039","","<p align='center'><b>INCORRECT.</b> You receive 2 pounds extra when you reach 50% of points </p>","0","html-button-response","32","1151386","0.0-8.0-8.0-1.0","66","1","2025-07-02 10:18:59","80fe4187154257d5fb01684ea91b68b9","41.145.212.204","Mozilla/5.0 (Windows NT 10.0; Win64; x64) AppleWebKit/537.36 (KHTML, like Gecko) Chrome/136.0.0.0 Safari/537.36","WebKit","Chrome","136.0.0.0","Windows","10.0","https://app.prolific.com/","en-US,en;q=0.9","671b802adc0489faede54d81","683db6dfa200031b80f2a654","686507883556e53dd4d51da9","671b802adc0489faede54d81","","","","","","","","","","","","","","","","","","","","","","","","","","","","","","","","","","","","","","","","","","","","","",""
"2548","","","{""bonus"":[""When I reach 50% of points""]}","survey-multi-select","33","1153940","0.0-8.0-8.1-0.1","66","1","2025-07-02 10:18:59","80fe4187154257d5fb01684ea91b68b9","41.145.212.204","Mozilla/5.0 (Windows NT 10.0; Win64; x64) AppleWebKit/537.36 (KHTML, like Gecko) Chrome/136.0.0.0 Safari/537.36","WebKit","Chrome","136.0.0.0","Windows","10.0","https://app.prolific.com/","en-US,en;q=0.9","671b802adc0489faede54d81","683db6dfa200031b80f2a654","686507883556e53dd4d51da9","671b802adc0489faede54d81","","","[0]","","","","quiz","","","","","","","","","","","","","","","","","","","","","","","","","","","","","","","","","","","","","true","",""
"1933","","<p align='center'><b>CORRECT!</b> Indeed, you receive 2 pounds extra when you reach 50% of points.</p>","0","html-button-response","34","1155876","0.0-8.0-8.1-1.1","66","1","2025-07-02 10:18:59","80fe4187154257d5fb01684ea91b68b9","41.145.212.204","Mozilla/5.0 (Windows NT 10.0; Win64; x64) AppleWebKit/537.36 (KHTML, like Gecko) Chrome/136.0.0.0 Safari/537.36","WebKit","Chrome","136.0.0.0","Windows","10.0","https://app.prolific.com/","en-US,en;q=0.9","671b802adc0489faede54d81","683db6dfa200031b80f2a654","686507883556e53dd4d51da9","671b802adc0489faede54d81","","","","","","","","","","","","","","","","","","","","","","","","","","","","","","","","","","","","","","","","","","","","","",""
"3925","","","","instructions","35","1159805","0.0-8.0-9.0","66","1","2025-07-02 10:18:59","80fe4187154257d5fb01684ea91b68b9","41.145.212.204","Mozilla/5.0 (Windows NT 10.0; Win64; x64) AppleWebKit/537.36 (KHTML, like Gecko) Chrome/136.0.0.0 Safari/537.36","WebKit","Chrome","136.0.0.0","Windows","10.0","https://app.prolific.com/","en-US,en;q=0.9","671b802adc0489faede54d81","683db6dfa200031b80f2a654","686507883556e53dd4d51da9","671b802adc0489faede54d81","","[{""page_index"":0,""viewing_time"":3924}]","","","","","","","","","","","","","","","","","","","","","","","","","","","","","","","","","","","","","","","","","","","",""
"27454","","<p>Before you start with this game please answer the following three questions yourself. </p>
  <p>Through this game, we measure several aspects of your cognitive performance, such as reaction times, multi-tasking capabilities </p>
  <p>and the ability to assess the situation you are in.</p>
  <p></p>
  <p><b>How good do you usually are in such tasks?</b></p>","74","html-slider-response","36","1187269","0.0-9.0-0.0","66","1","2025-07-02 10:18:59","80fe4187154257d5fb01684ea91b68b9","41.145.212.204","Mozilla/5.0 (Windows NT 10.0; Win64; x64) AppleWebKit/537.36 (KHTML, like Gecko) Chrome/136.0.0.0 Safari/537.36","WebKit","Chrome","136.0.0.0","Windows","10.0","https://app.prolific.com/","en-US,en;q=0.9","671b802adc0489faede54d81","683db6dfa200031b80f2a654","686507883556e53dd4d51da9","671b802adc0489faede54d81","2025-07-02T10:39:15.618Z","","","","","","PreSkillQ","","","","","","","","","","","","","","","","","","","","","","","","","","","","","","","","","","","","","","50",""
"7456","","<div style=""width:500px;"">
  <p>How well do you think you will perform in this task compared to other participants?</p>
  </div>","76","html-slider-response","37","1194730","0.0-9.0-1.0","66","1","2025-07-02 10:18:59","80fe4187154257d5fb01684ea91b68b9","41.145.212.204","Mozilla/5.0 (Windows NT 10.0; Win64; x64) AppleWebKit/537.36 (KHTML, like Gecko) Chrome/136.0.0.0 Safari/537.36","WebKit","Chrome","136.0.0.0","Windows","10.0","https://app.prolific.com/","en-US,en;q=0.9","671b802adc0489faede54d81","683db6dfa200031b80f2a654","686507883556e53dd4d51da9","671b802adc0489faede54d81","2025-07-02T10:39:23.079Z","","","","","","PrePerfQ","","","","","","","","","","","","","","","","","","","","","","","","","","","","","","","","","","","","","","50",""
"5421","","<div style=""width:500px;"">
  <p>What best describes how you currently feel?</p>
  </div>","99","html-slider-response","38","1200154","0.0-9.0-2.0","66","1","2025-07-02 10:18:59","80fe4187154257d5fb01684ea91b68b9","41.145.212.204","Mozilla/5.0 (Windows NT 10.0; Win64; x64) AppleWebKit/537.36 (KHTML, like Gecko) Chrome/136.0.0.0 Safari/537.36","WebKit","Chrome","136.0.0.0","Windows","10.0","https://app.prolific.com/","en-US,en;q=0.9","671b802adc0489faede54d81","683db6dfa200031b80f2a654","686507883556e53dd4d51da9","671b802adc0489faede54d81","2025-07-02T10:39:28.504Z","","","","","","PreMotivationQ","","","","","","","","","","","","","","","","","","","","","","","","","","","","","","","","","","","","","","50",""
"","","","","ctl-task-cpt","39","1231934","0.0-10.0-0.0","66","1","2025-07-02 10:18:59","80fe4187154257d5fb01684ea91b68b9","41.145.212.204","Mozilla/5.0 (Windows NT 10.0; Win64; x64) AppleWebKit/537.36 (KHTML, like Gecko) Chrome/136.0.0.0 Safari/537.36","WebKit","Chrome","136.0.0.0","Windows","10.0","https://app.prolific.com/","en-US,en;q=0.9","671b802adc0489faede54d81","683db6dfa200031b80f2a654","686507883556e53dd4d51da9","671b802adc0489faede54d81","2025-07-02T10:40:00.283Z","","","","","","","","","","","","","","","","win-only","2","g1:SE,g2:NW","1","1","0","1205824.4","2371.1","7384.7","28746","1","4","8","6","1","1","1","1","0","0.007575757575757576","5013.6","3000","2010","[""down"",""right""]","{""num_key_presses"":6,""num_perfect"":6,""num_errors"":0,""num_randdir"":0,""num_randdir_good_moves"":0,""num_whilered"":0,""num_whileblue"":0,""num_blue"":1,""num_good_moves"":5}","[295.22232142857143,300.12857142857143,1.1,295.22232142857143,300.12857142857143,106.8,295.22232142857143,300.12857142857143,206.9,295.22232142857143,300.12857142857143,311,295.22232142857143,300.12857142857143,423,295.22232142857143,300.12857142857143,536,295.22232142857143,300.12857142857143,653.1,295.22232142857143,300.12857142857143,758.7,295.22232142857143,300.12857142857143,863.5,295.22232142857143,300.12857142857143,964.2,295.22232142857143,300.12857142857143,1067.4,295.22232142857143,300.12857142857143,1173.5,295.22232142857143,300.12857142857143,1278.4,295.22232142857143,300.12857142857143,1382.9,295.22232142857143,300.12857142857143,1494.4,295.22232142857143,300.12857142857143,1614.2,295.22232142857143,300.12857142857143,1730.7,295.22232142857143,300.12857142857143,1834.4,295.22232142857143,300.12857142857143,1936.8,295.22232142857143,300.12857142857143,2055.8,295.22232142857143,300.12857142857143,2161.1,295.22232142857143,300.12857142857143,2268.2,295.22232142857143,300.12857142857143,2375.4,295.22232142857143,300.12857142857143,2488.3,295.22232142857143,300.12857142857143,2590.5,295.22232142857143,300.12857142857143,2699,295.22232142857143,300.12857142857143,2810.9,295.22232142857143,300.12857142857143,2916.5,295.22232142857143,300.12857142857143,3024.2,295.22232142857143,300.12857142857143,3128.7,295.22232142857143,300.12857142857143,3233.3,295.22232142857143,300.12857142857143,3336.4,295.22232142857143,300.12857142857143,3445.7,295.22232142857143,300.12857142857143,3557.9,295.22232142857143,300.12857142857143,3662.4,295.22232142857143,300.12857142857143,3763.2,295.22232142857143,300.12857142857143,3868.6,295.22232142857143,300.12857142857143,3974.1,295.22232142857143,300.12857142857143,4084.9,295.22232142857143,300.12857142857143,4194.6,295.22232142857143,300.12857142857143,4304.1,295.22232142857143,300.12857142857143,4405.2,295.22232142857143,300.12857142857143,4512.8,295.22232142857143,300.12857142857143,4618.6,295.22232142857143,300.12857142857143,4718.6,295.22232142857143,300.12857142857143,4819.8,295.22232142857143,300.12857142857143,4921.3]","[1491.4,1491.5,1000,0,491.5,""smooth"",""left"",""left"",""bad_move"",5022.1,3517.3,3078.2,1504.8,439.1,""smooth"",""right"",""right"",""good_move"",8081.9,3039.4,2615.1,5042.6,424.3,""smooth"",""right"",""right"",""good_move"",11554.9,3461.1,3042,8093.8,419.1,""smooth"",""right"",""right"",""good_move"",14634,3069.2,2650.7,11564.9,418.5,""smooth"",""down"",""down"",""good_move"",21115.4,6479.5,1908.3,18731,476.1,""smooth"",""down"",""down"",""good_move""]","","",""
"7588","","<div style=""width:500px;"">
  <p>What determined the result of this run?</p>
  </div>","97","html-slider-response","40","1239525","0.0-10.0-1.0","66","1","2025-07-02 10:18:59","80fe4187154257d5fb01684ea91b68b9","41.145.212.204","Mozilla/5.0 (Windows NT 10.0; Win64; x64) AppleWebKit/537.36 (KHTML, like Gecko) Chrome/136.0.0.0 Safari/537.36","WebKit","Chrome","136.0.0.0","Windows","10.0","https://app.prolific.com/","en-US,en;q=0.9","671b802adc0489faede54d81","683db6dfa200031b80f2a654","686507883556e53dd4d51da9","671b802adc0489faede54d81","2025-07-02T10:40:07.874Z","","","","","","AttribQ","","","","","","","","","","","","","","","","","","","","","","","","","","","","","","","","","","","","","","50",""
"3751","","<div style=""width:500px;"">
  <p>How much control did you have over the ball?</p>
  </div>","100","html-slider-response","41","1243281","0.0-10.0-2.0","66","1","2025-07-02 10:18:59","80fe4187154257d5fb01684ea91b68b9","41.145.212.204","Mozilla/5.0 (Windows NT 10.0; Win64; x64) AppleWebKit/537.36 (KHTML, like Gecko) Chrome/136.0.0.0 Safari/537.36","WebKit","Chrome","136.0.0.0","Windows","10.0","https://app.prolific.com/","en-US,en;q=0.9","671b802adc0489faede54d81","683db6dfa200031b80f2a654","686507883556e53dd4d51da9","671b802adc0489faede54d81","2025-07-02T10:40:11.630Z","","","","","","ControlQ","","","","","","","","","","","","","","","","","","","","","","","","","","","","","","","","","","","","","","50",""
"6875","","<div style=""width:500px;"">
  <p>How would you describe your current emotional state?</p>
  </div>","0","html-slider-response","42","1250160","0.0-10.0-3.0","66","1","2025-07-02 10:18:59","80fe4187154257d5fb01684ea91b68b9","41.145.212.204","Mozilla/5.0 (Windows NT 10.0; Win64; x64) AppleWebKit/537.36 (KHTML, like Gecko) Chrome/136.0.0.0 Safari/537.36","WebKit","Chrome","136.0.0.0","Windows","10.0","https://app.prolific.com/","en-US,en;q=0.9","671b802adc0489faede54d81","683db6dfa200031b80f2a654","686507883556e53dd4d51da9","671b802adc0489faede54d81","2025-07-02T10:40:18.509Z","","","","","","StressQ","","","","","","","","","","","","","","","","","","","","","","","","","","","","","","","","","","","","","","50",""
"5275","","<div style=""width:500px;"">
  <p>What best describes how you currently feel?</p>
  </div>","100","html-slider-response","43","1255438","0.0-10.0-4.0","66","1","2025-07-02 10:18:59","80fe4187154257d5fb01684ea91b68b9","41.145.212.204","Mozilla/5.0 (Windows NT 10.0; Win64; x64) AppleWebKit/537.36 (KHTML, like Gecko) Chrome/136.0.0.0 Safari/537.36","WebKit","Chrome","136.0.0.0","Windows","10.0","https://app.prolific.com/","en-US,en;q=0.9","671b802adc0489faede54d81","683db6dfa200031b80f2a654","686507883556e53dd4d51da9","671b802adc0489faede54d81","2025-07-02T10:40:23.788Z","","","","","","MotivationQ","","","","","","","","","","","","","","","","","","","","","","","","","","","","","","","","","","","","","","50",""
"","","","","ctl-task-cpt","44","1286252","0.0-10.0-0.1","66","1","2025-07-02 10:18:59","80fe4187154257d5fb01684ea91b68b9","41.145.212.204","Mozilla/5.0 (Windows NT 10.0; Win64; x64) AppleWebKit/537.36 (KHTML, like Gecko) Chrome/136.0.0.0 Safari/537.36","WebKit","Chrome","136.0.0.0","Windows","10.0","https://app.prolific.com/","en-US,en;q=0.9","671b802adc0489faede54d81","683db6dfa200031b80f2a654","686507883556e53dd4d51da9","671b802adc0489faede54d81","2025-07-02T10:40:54.602Z","","","","","","","","","","","","","","","","win-only","1","g1:NE,g2:SW","0.9","2","0","1261108","2297.8","7299.9","27787.1","1","4","4","6","1","1","0","1","1","0.007575757575757576","5002.1","3000","2370","[""up"",""right""]","{""num_key_presses"":5,""num_perfect"":4,""num_errors"":1,""num_randdir"":0,""num_randdir_good_moves"":0,""num_whilered"":0,""num_whileblue"":0,""num_blue"":2,""num_good_moves"":4}","[297.22232142857143,292.12857142857143,5.9,297.22232142857143,292.12857142857143,118.6,297.22232142857143,292.12857142857143,224.3,297.22232142857143,292.12857142857143,328,297.22232142857143,292.12857142857143,432.7,297.22232142857143,292.12857142857143,538.9,297.22232142857143,292.12857142857143,650.7,297.22232142857143,292.12857142857143,751.5,297.22232142857143,292.12857142857143,865.6,297.22232142857143,292.12857142857143,980.8,297.22232142857143,292.12857142857143,1087.2,297.22232142857143,292.12857142857143,1193.5,297.22232142857143,292.12857142857143,1310.1,297.22232142857143,292.12857142857143,1412.4,297.22232142857143,292.12857142857143,1521.5,297.22232142857143,292.12857142857143,1626.1,297.22232142857143,292.12857142857143,1735.2,297.22232142857143,292.12857142857143,1836.4,297.22232142857143,292.12857142857143,1950.3,297.22232142857143,292.12857142857143,2058.1,297.22232142857143,292.12857142857143,2169.4,297.22232142857143,292.12857142857143,2284,297.22232142857143,292.12857142857143,2395.8,297.22232142857143,292.12857142857143,2499.6,297.22232142857143,292.12857142857143,2616.7,297.22232142857143,292.12857142857143,2722.3,297.22232142857143,292.12857142857143,2823.6,297.22232142857143,292.12857142857143,2929.7,297.22232142857143,292.12857142857143,3037.4,297.22232142857143,292.12857142857143,3167,297.22232142857143,292.12857142857143,3270,297.22232142857143,292.12857142857143,3372.4,297.22232142857143,292.12857142857143,3479,297.22232142857143,292.12857142857143,3586.7,297.22232142857143,292.12857142857143,3693.7,297.22232142857143,292.12857142857143,3800,297.22232142857143,292.12857142857143,3903.8,297.22232142857143,292.12857142857143,4016.3,297.22232142857143,292.12857142857143,4128.5,297.22232142857143,292.12857142857143,4237.6,297.22232142857143,292.12857142857143,4347.6,297.22232142857143,292.12857142857143,4448.8,297.22232142857143,292.12857142857143,4550.6,297.22232142857143,292.12857142857143,4661.1,297.22232142857143,292.12857142857143,4764.1,297.22232142857143,292.12857142857143,4873.6,297.22232142857143,292.12857142857143,4978.5]","[348,348,1000,0,-652,""error"",""-"",""-"",""no_move"",7662,7312.7,2602.9,4684.5,374.6,""smooth"",""up"",""up"",""good_move"",14021.9,6346,2467.3,11126.5,428.2,""smooth"",""up"",""up"",""good_move"",17449.7,3420.9,2682.7,14028.8,738.2,""smooth"",""right"",""right"",""good_move"",20167,2699.9,2250,17467.1,449.9,""smooth"",""right"",""right"",""good_move""]","","",""
"6096","","<div style=""width:500px;"">
  <p>What determined the result of this run?</p>
  </div>","100","html-slider-response","45","1292352","0.0-10.0-1.1","66","1","2025-07-02 10:18:59","80fe4187154257d5fb01684ea91b68b9","41.145.212.204","Mozilla/5.0 (Windows NT 10.0; Win64; x64) AppleWebKit/537.36 (KHTML, like Gecko) Chrome/136.0.0.0 Safari/537.36","WebKit","Chrome","136.0.0.0","Windows","10.0","https://app.prolific.com/","en-US,en;q=0.9","671b802adc0489faede54d81","683db6dfa200031b80f2a654","686507883556e53dd4d51da9","671b802adc0489faede54d81","2025-07-02T10:41:00.702Z","","","","","","AttribQ","","","","","","","","","","","","","","","","","","","","","","","","","","","","","","","","","","","","","","50",""
"5415","","<div style=""width:500px;"">
  <p>How much control did you have over the ball?</p>
  </div>","77","html-slider-response","46","1297771","0.0-10.0-2.1","66","1","2025-07-02 10:18:59","80fe4187154257d5fb01684ea91b68b9","41.145.212.204","Mozilla/5.0 (Windows NT 10.0; Win64; x64) AppleWebKit/537.36 (KHTML, like Gecko) Chrome/136.0.0.0 Safari/537.36","WebKit","Chrome","136.0.0.0","Windows","10.0","https://app.prolific.com/","en-US,en;q=0.9","671b802adc0489faede54d81","683db6dfa200031b80f2a654","686507883556e53dd4d51da9","671b802adc0489faede54d81","2025-07-02T10:41:06.120Z","","","","","","ControlQ","","","","","","","","","","","","","","","","","","","","","","","","","","","","","","","","","","","","","","50",""
"9375","","<div style=""width:500px;"">
  <p>How would you describe your current emotional state?</p>
  </div>","10","html-slider-response","47","1307149","0.0-10.0-3.1","66","1","2025-07-02 10:18:59","80fe4187154257d5fb01684ea91b68b9","41.145.212.204","Mozilla/5.0 (Windows NT 10.0; Win64; x64) AppleWebKit/537.36 (KHTML, like Gecko) Chrome/136.0.0.0 Safari/537.36","WebKit","Chrome","136.0.0.0","Windows","10.0","https://app.prolific.com/","en-US,en;q=0.9","671b802adc0489faede54d81","683db6dfa200031b80f2a654","686507883556e53dd4d51da9","671b802adc0489faede54d81","2025-07-02T10:41:15.498Z","","","","","","StressQ","","","","","","","","","","","","","","","","","","","","","","","","","","","","","","","","","","","","","","50",""
"6300","","<div style=""width:500px;"">
  <p>What best describes how you currently feel?</p>
  </div>","100","html-slider-response","48","1313452","0.0-10.0-4.1","66","1","2025-07-02 10:18:59","80fe4187154257d5fb01684ea91b68b9","41.145.212.204","Mozilla/5.0 (Windows NT 10.0; Win64; x64) AppleWebKit/537.36 (KHTML, like Gecko) Chrome/136.0.0.0 Safari/537.36","WebKit","Chrome","136.0.0.0","Windows","10.0","https://app.prolific.com/","en-US,en;q=0.9","671b802adc0489faede54d81","683db6dfa200031b80f2a654","686507883556e53dd4d51da9","671b802adc0489faede54d81","2025-07-02T10:41:21.801Z","","","","","","MotivationQ","","","","","","","","","","","","","","","","","","","","","","","","","","","","","","","","","","","","","","50",""
"","","","","ctl-task-cpt","49","1350383","0.0-10.0-0.2","66","1","2025-07-02 10:18:59","80fe4187154257d5fb01684ea91b68b9","41.145.212.204","Mozilla/5.0 (Windows NT 10.0; Win64; x64) AppleWebKit/537.36 (KHTML, like Gecko) Chrome/136.0.0.0 Safari/537.36","WebKit","Chrome","136.0.0.0","Windows","10.0","https://app.prolific.com/","en-US,en;q=0.9","671b802adc0489faede54d81","683db6dfa200031b80f2a654","686507883556e53dd4d51da9","671b802adc0489faede54d81","2025-07-02T10:41:58.732Z","","","","","","","","","","","","","","","","win-only","0","g1:NW,g2:SE","0.8","3","0","1319119.3","9735.8","14758.2","33904.9","1","4","8","6","1","1","1","2","1","0.015151515151515152","5022.4","3000","2415","[""left"",""up""]","{""num_key_presses"":4,""num_perfect"":4,""num_errors"":0,""num_randdir"":0,""num_randdir_good_moves"":0,""num_whilered"":0,""num_whileblue"":0,""num_blue"":2,""num_good_moves"":4}","[295.22232142857143,290.12857142857143,9.2,295.22232142857143,290.12857142857143,101.3,295.22232142857143,290.12857142857143,212.5,295.22232142857143,290.12857142857143,314.9,295.22232142857143,290.12857142857143,426.1,295.22232142857143,290.12857142857143,529.5,295.22232142857143,290.12857142857143,642.7,295.22232142857143,290.12857142857143,750.7,295.22232142857143,290.12857142857143,859.2,295.22232142857143,290.12857142857143,985.4,295.22232142857143,290.12857142857143,1089.7,295.22232142857143,290.12857142857143,1191.7,295.22232142857143,290.12857142857143,1301.7,295.22232142857143,290.12857142857143,1409.4,295.22232142857143,290.12857142857143,1518.1,295.22232142857143,290.12857142857143,1621.7,295.22232142857143,290.12857142857143,1737.4,295.22232142857143,290.12857142857143,1842.4,295.22232142857143,290.12857142857143,1958.5,295.22232142857143,290.12857142857143,2063.9,295.22232142857143,290.12857142857143,2167.6,295.22232142857143,290.12857142857143,2285.8,295.22232142857143,290.12857142857143,2386.3,295.22232142857143,290.12857142857143,2487.3,295.22232142857143,290.12857142857143,2602.7,295.22232142857143,290.12857142857143,2720.8,295.22232142857143,290.12857142857143,2829.3,295.22232142857143,290.12857142857143,2948.6,295.22232142857143,290.12857142857143,3054.5,295.22232142857143,290.12857142857143,3165.1,295.22232142857143,290.12857142857143,3269.6,295.22232142857143,290.12857142857143,3388,295.22232142857143,290.12857142857143,3505.7,295.22232142857143,290.12857142857143,3607,295.22232142857143,290.12857142857143,3720.4,295.22232142857143,290.12857142857143,3828.4,295.22232142857143,290.12857142857143,3948.2,295.22232142857143,290.12857142857143,4056.7,295.22232142857143,290.12857142857143,4168.4,295.22232142857143,290.12857142857143,4274.9,295.22232142857143,290.12857142857143,4381.8,295.22232142857143,290.12857142857143,4491.8,295.22232142857143,290.12857142857143,4618.7,295.22232142857143,290.12857142857143,4737.3,295.22232142857143,290.12857142857143,4840.2,295.22232142857143,290.12857142857143,4943.1]","[1610,1610,1000,0,610,""smooth"",""up"",""up"",""good_move"",5269.6,3657.5,2667.3,1612.1,990.2,""smooth"",""up"",""up"",""good_move"",8643.8,3365.2,2651.1,5278.7,714,""smooth"",""left"",""left"",""good_move"",18820.7,10165.5,2157.4,16189.2,474.2,""smooth"",""left"",""left"",""good_move""]","","",""
"7636","","<div style=""width:500px;"">
  <p>What determined the result of this run?</p>
  </div>","100","html-slider-response","50","1358021","0.0-10.0-1.2","66","1","2025-07-02 10:18:59","80fe4187154257d5fb01684ea91b68b9","41.145.212.204","Mozilla/5.0 (Windows NT 10.0; Win64; x64) AppleWebKit/537.36 (KHTML, like Gecko) Chrome/136.0.0.0 Safari/537.36","WebKit","Chrome","136.0.0.0","Windows","10.0","https://app.prolific.com/","en-US,en;q=0.9","671b802adc0489faede54d81","683db6dfa200031b80f2a654","686507883556e53dd4d51da9","671b802adc0489faede54d81","2025-07-02T10:42:06.371Z","","","","","","AttribQ","","","","","","","","","","","","","","","","","","","","","","","","","","","","","","","","","","","","","","50",""
"3444","","<div style=""width:500px;"">
  <p>How much control did you have over the ball?</p>
  </div>","100","html-slider-response","51","1361469","0.0-10.0-2.2","66","1","2025-07-02 10:18:59","80fe4187154257d5fb01684ea91b68b9","41.145.212.204","Mozilla/5.0 (Windows NT 10.0; Win64; x64) AppleWebKit/537.36 (KHTML, like Gecko) Chrome/136.0.0.0 Safari/537.36","WebKit","Chrome","136.0.0.0","Windows","10.0","https://app.prolific.com/","en-US,en;q=0.9","671b802adc0489faede54d81","683db6dfa200031b80f2a654","686507883556e53dd4d51da9","671b802adc0489faede54d81","2025-07-02T10:42:09.818Z","","","","","","ControlQ","","","","","","","","","","","","","","","","","","","","","","","","","","","","","","","","","","","","","","50",""
"3064","","<div style=""width:500px;"">
  <p>How would you describe your current emotional state?</p>
  </div>","0","html-slider-response","52","1364536","0.0-10.0-3.2","66","1","2025-07-02 10:18:59","80fe4187154257d5fb01684ea91b68b9","41.145.212.204","Mozilla/5.0 (Windows NT 10.0; Win64; x64) AppleWebKit/537.36 (KHTML, like Gecko) Chrome/136.0.0.0 Safari/537.36","WebKit","Chrome","136.0.0.0","Windows","10.0","https://app.prolific.com/","en-US,en;q=0.9","671b802adc0489faede54d81","683db6dfa200031b80f2a654","686507883556e53dd4d51da9","671b802adc0489faede54d81","2025-07-02T10:42:12.885Z","","","","","","StressQ","","","","","","","","","","","","","","","","","","","","","","","","","","","","","","","","","","","","","","50",""
"3567","","<div style=""width:500px;"">
  <p>What best describes how you currently feel?</p>
  </div>","100","html-slider-response","53","1368106","0.0-10.0-4.2","66","1","2025-07-02 10:18:59","80fe4187154257d5fb01684ea91b68b9","41.145.212.204","Mozilla/5.0 (Windows NT 10.0; Win64; x64) AppleWebKit/537.36 (KHTML, like Gecko) Chrome/136.0.0.0 Safari/537.36","WebKit","Chrome","136.0.0.0","Windows","10.0","https://app.prolific.com/","en-US,en;q=0.9","671b802adc0489faede54d81","683db6dfa200031b80f2a654","686507883556e53dd4d51da9","671b802adc0489faede54d81","2025-07-02T10:42:16.455Z","","","","","","MotivationQ","","","","","","","","","","","","","","","","","","","","","","","","","","","","","","","","","","","","","","50",""
"","","","","ctl-task-cpt","54","1407507","0.0-10.0-0.3","66","1","2025-07-02 10:18:59","80fe4187154257d5fb01684ea91b68b9","41.145.212.204","Mozilla/5.0 (Windows NT 10.0; Win64; x64) AppleWebKit/537.36 (KHTML, like Gecko) Chrome/136.0.0.0 Safari/537.36","WebKit","Chrome","136.0.0.0","Windows","10.0","https://app.prolific.com/","en-US,en;q=0.9","671b802adc0489faede54d81","683db6dfa200031b80f2a654","686507883556e53dd4d51da9","671b802adc0489faede54d81","2025-07-02T10:42:55.857Z","","","","","","","","","","","","","","","","win-only","0","g1:NW,g2:SE","0.7","4","0","1373773.5","2661.4","7678.6","36367.7","1","4","4","6","2","4","4","6","2","0.045454545454545456","3036.6","3000","1945","[""down"",""right""]","{""num_key_presses"":8,""num_perfect"":7,""num_errors"":0,""num_randdir"":1,""num_randdir_good_moves"":0,""num_whilered"":0,""num_whileblue"":0,""num_blue"":1,""num_good_moves"":7}","[295.22232142857143,297.12857142857143,15.7,295.22232142857143,297.12857142857143,120.3,295.22232142857143,297.12857142857143,223.1,295.22232142857143,297.12857142857143,330.8,295.22232142857143,297.12857142857143,432.3,295.22232142857143,297.12857142857143,542.5,295.22232142857143,297.12857142857143,643.5,295.22232142857143,297.12857142857143,743.7,295.22232142857143,297.12857142857143,851.1,295.22232142857143,297.12857142857143,966.4,295.22232142857143,297.12857142857143,1069,295.22232142857143,297.12857142857143,1176.1,295.22232142857143,297.12857142857143,1284.3,295.22232142857143,297.12857142857143,1385,295.22232142857143,297.12857142857143,1501.3,295.22232142857143,297.12857142857143,1609.5,295.22232142857143,297.12857142857143,1734.7,295.22232142857143,297.12857142857143,1849.4,295.22232142857143,297.12857142857143,1949.8,295.22232142857143,297.12857142857143,2076.8,295.22232142857143,297.12857142857143,2203.1,295.22232142857143,297.12857142857143,2315.1,295.22232142857143,297.12857142857143,2429.7,335.22232142857143,331.12857142857143,2545.5,515.2223214285714,547.1285714285714,2655.6,548.2223214285714,575.1285714285714,2771.4,551.2223214285714,577.1285714285714,2895.5,551.2223214285714,577.1285714285714,3021.6,551.2223214285714,577.1285714285714,3131.7,551.2223214285714,577.1285714285714,3234.7,551.2223214285714,577.1285714285714,3346.2,551.2223214285714,577.1285714285714,3452.6,551.2223214285714,577.1285714285714,3580.2,551.2223214285714,577.1285714285714,3681.6,551.2223214285714,577.1285714285714,3801.1,551.2223214285714,577.1285714285714,3910.1,551.2223214285714,577.1285714285714,4011.7,551.2223214285714,577.1285714285714,4129.1,551.2223214285714,577.1285714285714,4250.9,551.2223214285714,577.1285714285714,4373.3,551.2223214285714,577.1285714285714,4476.1,551.2223214285714,577.1285714285714,4596.8,551.2223214285714,577.1285714285714,4709.3,551.2223214285714,577.1285714285714,4810.7,551.2223214285714,577.1285714285714,4933.8]","[1798.4,1798.4,1000,0,798.4,""smooth"",""right"",""right"",""good_move"",4586.4,2764.9,2145.6,1821.5,619.3,""smooth"",""right"",""right"",""good_move"",7872.4,3279.6,2843.6,4592.8,436,""oops"",""right"",""left"",""bad_move"",11903.4,4029.6,1611.6,7873.9,2418,""smooth"",""right"",""right"",""good_move"",14975.9,3066.3,2614.3,11909.7,451.9,""smooth"",""down"",""down"",""good_move"",18524.8,3542.2,3000.8,14982.6,541.4,""smooth"",""down"",""down"",""good_move"",20795.4,2268.1,1498.8,18527.4,769.2,""smooth"",""down"",""down"",""good_move"",28318.6,7521.7,2584.2,25238,496.4,""smooth"",""right"",""right"",""good_move""]","","",""
"4365","","<div style=""width:500px;"">
  <p>What determined the result of this run?</p>
  </div>","100","html-slider-response","55","1411876","0.0-10.0-1.3","66","1","2025-07-02 10:18:59","80fe4187154257d5fb01684ea91b68b9","41.145.212.204","Mozilla/5.0 (Windows NT 10.0; Win64; x64) AppleWebKit/537.36 (KHTML, like Gecko) Chrome/136.0.0.0 Safari/537.36","WebKit","Chrome","136.0.0.0","Windows","10.0","https://app.prolific.com/","en-US,en;q=0.9","671b802adc0489faede54d81","683db6dfa200031b80f2a654","686507883556e53dd4d51da9","671b802adc0489faede54d81","2025-07-02T10:43:00.225Z","","","","","","AttribQ","","","","","","","","","","","","","","","","","","","","","","","","","","","","","","","","","","","","","","50",""
"4786","","<div style=""width:500px;"">
  <p>How much control did you have over the ball?</p>
  </div>","100","html-slider-response","56","1416666","0.0-10.0-2.3","66","1","2025-07-02 10:18:59","80fe4187154257d5fb01684ea91b68b9","41.145.212.204","Mozilla/5.0 (Windows NT 10.0; Win64; x64) AppleWebKit/537.36 (KHTML, like Gecko) Chrome/136.0.0.0 Safari/537.36","WebKit","Chrome","136.0.0.0","Windows","10.0","https://app.prolific.com/","en-US,en;q=0.9","671b802adc0489faede54d81","683db6dfa200031b80f2a654","686507883556e53dd4d51da9","671b802adc0489faede54d81","2025-07-02T10:43:05.015Z","","","","","","ControlQ","","","","","","","","","","","","","","","","","","","","","","","","","","","","","","","","","","","","","","50",""
"3986","","<div style=""width:500px;"">
  <p>How would you describe your current emotional state?</p>
  </div>","0","html-slider-response","57","1420655","0.0-10.0-3.3","66","1","2025-07-02 10:18:59","80fe4187154257d5fb01684ea91b68b9","41.145.212.204","Mozilla/5.0 (Windows NT 10.0; Win64; x64) AppleWebKit/537.36 (KHTML, like Gecko) Chrome/136.0.0.0 Safari/537.36","WebKit","Chrome","136.0.0.0","Windows","10.0","https://app.prolific.com/","en-US,en;q=0.9","671b802adc0489faede54d81","683db6dfa200031b80f2a654","686507883556e53dd4d51da9","671b802adc0489faede54d81","2025-07-02T10:43:09.005Z","","","","","","StressQ","","","","","","","","","","","","","","","","","","","","","","","","","","","","","","","","","","","","","","50",""
"4743","","<div style=""width:500px;"">
  <p>What best describes how you currently feel?</p>
  </div>","100","html-slider-response","58","1425402","0.0-10.0-4.3","66","1","2025-07-02 10:18:59","80fe4187154257d5fb01684ea91b68b9","41.145.212.204","Mozilla/5.0 (Windows NT 10.0; Win64; x64) AppleWebKit/537.36 (KHTML, like Gecko) Chrome/136.0.0.0 Safari/537.36","WebKit","Chrome","136.0.0.0","Windows","10.0","https://app.prolific.com/","en-US,en;q=0.9","671b802adc0489faede54d81","683db6dfa200031b80f2a654","686507883556e53dd4d51da9","671b802adc0489faede54d81","2025-07-02T10:43:13.751Z","","","","","","MotivationQ","","","","","","","","","","","","","","","","","","","","","","","","","","","","","","","","","","","","","","50",""
"","","","","ctl-task-cpt","59","1453829","0.0-10.0-0.4","66","1","2025-07-02 10:18:59","80fe4187154257d5fb01684ea91b68b9","41.145.212.204","Mozilla/5.0 (Windows NT 10.0; Win64; x64) AppleWebKit/537.36 (KHTML, like Gecko) Chrome/136.0.0.0 Safari/537.36","WebKit","Chrome","136.0.0.0","Windows","10.0","https://app.prolific.com/","en-US,en;q=0.9","671b802adc0489faede54d81","683db6dfa200031b80f2a654","686507883556e53dd4d51da9","671b802adc0489faede54d81","2025-07-02T10:43:42.178Z","","","","","","","","","","","","","","","","win-only","0","g1:NW,g2:SE","0.6","5","0","1431069.3","2299.4","7303","25390","1","4","8","6","2","8","8","14","6","0.10606060606060606","4527.7","3000","2210","[""down"",""right""]","{""num_key_presses"":6,""num_perfect"":5,""num_errors"":0,""num_randdir"":1,""num_randdir_good_moves"":1,""num_whilered"":0,""num_whileblue"":0,""num_blue"":0,""num_good_moves"":6}","[298.22232142857143,293.12857142857143,1.6,298.22232142857143,293.12857142857143,116.6,298.22232142857143,293.12857142857143,233.5,298.22232142857143,293.12857142857143,348.7,298.22232142857143,293.12857142857143,460.7,298.22232142857143,293.12857142857143,581.9,298.22232142857143,293.12857142857143,701.1,298.22232142857143,293.12857142857143,823.5,298.22232142857143,293.12857142857143,934.9,298.22232142857143,293.12857142857143,1060,298.22232142857143,293.12857142857143,1170.1,298.22232142857143,293.12857142857143,1288.2,298.22232142857143,293.12857142857143,1398.8,298.22232142857143,293.12857142857143,1530.3,298.22232142857143,293.12857142857143,1647.3,298.22232142857143,293.12857142857143,1767.5,298.22232142857143,293.12857142857143,1879,298.22232142857143,293.12857142857143,1995.3,298.22232142857143,293.12857142857143,2113.3,298.22232142857143,293.12857142857143,2226,298.22232142857143,293.12857142857143,2334.1,298.22232142857143,293.12857142857143,2457,298.22232142857143,293.12857142857143,2569.3,298.22232142857143,293.12857142857143,2696.2,298.22232142857143,293.12857142857143,2812.8,298.22232142857143,293.12857142857143,2931.3,298.22232142857143,293.12857142857143,3059.1,298.22232142857143,293.12857142857143,3181.5,298.22232142857143,293.12857142857143,3301.1,298.22232142857143,293.12857142857143,3420.2,298.22232142857143,293.12857142857143,3540.4,316.22232142857143,286.12857142857143,3669.2,428.22232142857143,290.12857142857143,3770.7,451.22232142857143,391.12857142857143,3878.5,437.22232142857143,438.12857142857143,3988.2,437.22232142857143,438.12857142857143,4105.4,501.22232142857143,480.12857142857143,4213.9,529.2223214285714,503.12857142857143,4336.4,529.2223214285714,503.12857142857143,4452.9,529.2223214285714,503.12857142857143,4568.4,529.2223214285714,503.12857142857143,4671.9,529.2223214285714,503.12857142857143,4794.3,529.2223214285714,503.12857142857143,4900.9]","[2289.2,2289.2,1000,0,1289.2,""smooth"",""right"",""right"",""good_move"",5264.1,2966.1,2175.4,2298.1,790.6,""oops"",""right"",""right"",""good_move"",7983.1,2711.2,2225.8,5271.9,485.4,""smooth"",""down"",""down"",""good_move"",11197.6,3211.9,2736.4,7985.7,475.5,""smooth"",""down"",""down"",""good_move"",14427.5,3228.2,2763.6,11199.3,464.6,""smooth"",""down"",""down"",""good_move"",17629.1,3195,2762.8,14434.1,432.2,""smooth"",""right"",""right"",""good_move""]","","",""
"5514","","<div style=""width:500px;"">
  <p>What determined the result of this run?</p>
  </div>","100","html-slider-response","60","1459347","0.0-10.0-1.4","66","1","2025-07-02 10:18:59","80fe4187154257d5fb01684ea91b68b9","41.145.212.204","Mozilla/5.0 (Windows NT 10.0; Win64; x64) AppleWebKit/537.36 (KHTML, like Gecko) Chrome/136.0.0.0 Safari/537.36","WebKit","Chrome","136.0.0.0","Windows","10.0","https://app.prolific.com/","en-US,en;q=0.9","671b802adc0489faede54d81","683db6dfa200031b80f2a654","686507883556e53dd4d51da9","671b802adc0489faede54d81","2025-07-02T10:43:47.696Z","","","","","","AttribQ","","","","","","","","","","","","","","","","","","","","","","","","","","","","","","","","","","","","","","50",""
"5163","","<div style=""width:500px;"">
  <p>How much control did you have over the ball?</p>
  </div>","100","html-slider-response","61","1464514","0.0-10.0-2.4","66","1","2025-07-02 10:18:59","80fe4187154257d5fb01684ea91b68b9","41.145.212.204","Mozilla/5.0 (Windows NT 10.0; Win64; x64) AppleWebKit/537.36 (KHTML, like Gecko) Chrome/136.0.0.0 Safari/537.36","WebKit","Chrome","136.0.0.0","Windows","10.0","https://app.prolific.com/","en-US,en;q=0.9","671b802adc0489faede54d81","683db6dfa200031b80f2a654","686507883556e53dd4d51da9","671b802adc0489faede54d81","2025-07-02T10:43:52.864Z","","","","","","ControlQ","","","","","","","","","","","","","","","","","","","","","","","","","","","","","","","","","","","","","","50",""
"5237","","<div style=""width:500px;"">
  <p>How would you describe your current emotional state?</p>
  </div>","0","html-slider-response","62","1469755","0.0-10.0-3.4","66","1","2025-07-02 10:18:59","80fe4187154257d5fb01684ea91b68b9","41.145.212.204","Mozilla/5.0 (Windows NT 10.0; Win64; x64) AppleWebKit/537.36 (KHTML, like Gecko) Chrome/136.0.0.0 Safari/537.36","WebKit","Chrome","136.0.0.0","Windows","10.0","https://app.prolific.com/","en-US,en;q=0.9","671b802adc0489faede54d81","683db6dfa200031b80f2a654","686507883556e53dd4d51da9","671b802adc0489faede54d81","2025-07-02T10:43:58.104Z","","","","","","StressQ","","","","","","","","","","","","","","","","","","","","","","","","","","","","","","","","","","","","","","50",""
"4735","","<div style=""width:500px;"">
  <p>What best describes how you currently feel?</p>
  </div>","100","html-slider-response","63","1474493","0.0-10.0-4.4","66","1","2025-07-02 10:18:59","80fe4187154257d5fb01684ea91b68b9","41.145.212.204","Mozilla/5.0 (Windows NT 10.0; Win64; x64) AppleWebKit/537.36 (KHTML, like Gecko) Chrome/136.0.0.0 Safari/537.36","WebKit","Chrome","136.0.0.0","Windows","10.0","https://app.prolific.com/","en-US,en;q=0.9","671b802adc0489faede54d81","683db6dfa200031b80f2a654","686507883556e53dd4d51da9","671b802adc0489faede54d81","2025-07-02T10:44:02.843Z","","","","","","MotivationQ","","","","","","","","","","","","","","","","","","","","","","","","","","","","","","","","","","","","","","50",""
"","","","","ctl-task-cpt","64","1554048","0.0-10.0-0.5","66","1","2025-07-02 10:18:59","80fe4187154257d5fb01684ea91b68b9","41.145.212.204","Mozilla/5.0 (Windows NT 10.0; Win64; x64) AppleWebKit/537.36 (KHTML, like Gecko) Chrome/136.0.0.0 Safari/537.36","WebKit","Chrome","136.0.0.0","Windows","10.0","https://app.prolific.com/","en-US,en;q=0.9","671b802adc0489faede54d81","683db6dfa200031b80f2a654","686507883556e53dd4d51da9","671b802adc0489faede54d81","2025-07-02T10:45:22.397Z","","","","","","","","","","","","","","","","win-only","2","g1:SE,g2:NW","0.5","6","0","1480160.7","2208.8","7240.3","76505.7","1","4","4","6","2","4","3","17","14","0.12878787878787878","2144.5","3000","1735","[""left"",""up""]","{""num_key_presses"":14,""num_perfect"":7,""num_errors"":1,""num_randdir"":6,""num_randdir_good_moves"":3,""num_whilered"":0,""num_whileblue"":1,""num_blue"":4,""num_good_moves"":10}","[299.22232142857143,299.12857142857143,5,299.22232142857143,299.12857142857143,126.8,299.22232142857143,299.12857142857143,235.3,299.22232142857143,299.12857142857143,356.2,299.22232142857143,299.12857142857143,460.6,299.22232142857143,299.12857142857143,570.6,299.22232142857143,299.12857142857143,671.7,299.22232142857143,299.12857142857143,775.8,299.22232142857143,299.12857142857143,881.3,297.22232142857143,292.12857142857143,992.2,371.22232142857143,297.12857142857143,1109.9,398.22232142857143,351.12857142857143,1220.1,339.22232142857143,291.12857142857143,1332.3,162.22232142857143,145.12857142857143,1434.1,114.22232142857143,71.12857142857143,1545.7,114.22232142857143,71.12857142857143,1648.4,114.22232142857143,71.12857142857143,1773.2,53.222321428571426,48.128571428571426,1891.4,50.222321428571426,44.128571428571426,1998.9,50.222321428571426,44.128571428571426,2127.1,50.222321428571426,44.128571428571426,2252.9,50.222321428571426,44.128571428571426,2368.1,50.222321428571426,44.128571428571426,2474.8,50.222321428571426,44.128571428571426,2583.6,50.222321428571426,44.128571428571426,2687.1,50.222321428571426,44.128571428571426,2788.5,50.222321428571426,44.128571428571426,2898.9,50.222321428571426,44.128571428571426,3001.8,50.222321428571426,44.128571428571426,3106.6,50.222321428571426,44.128571428571426,3225.8,50.222321428571426,44.128571428571426,3330.5,50.222321428571426,44.128571428571426,3453.2,50.222321428571426,44.128571428571426,3571.4,50.222321428571426,44.128571428571426,3697.7,50.222321428571426,44.128571428571426,3802.8,50.222321428571426,44.128571428571426,3910.6,50.222321428571426,44.128571428571426,4016.5,50.222321428571426,44.128571428571426,4129,50.222321428571426,44.128571428571426,4249.4,50.222321428571426,44.128571428571426,4349.9,50.222321428571426,44.128571428571426,4475.6,50.222321428571426,44.128571428571426,4595.2,50.222321428571426,44.128571428571426,4717.2,50.222321428571426,44.128571428571426,4838.4,50.222321428571426,44.128571428571426,4967]","[1411.3,1411.3,1000,0,411.3,""smooth"",""up"",""up"",""good_move"",6153.6,4740.6,1947.2,1413,2793.4,""smooth"",""up"",""up"",""good_move"",10988.6,4833.4,2223.8,6155.4,2609.4,""smooth"",""left"",""left"",""good_move"",15718.1,4728,1690,10990.1,3038,""oops"",""left"",""down"",""bad_move"",22366.5,6646.6,3134.3,18811.8,420.5,""while_blue"",""left"",""down"",""bad_move"",30138.1,7770,3063,26651.4,423.7,""smooth"",""up"",""up"",""good_move"",38361.7,8221.6,2267.2,35474.4,620.1,""oops"",""up"",""right"",""bad_move"",41458.7,3095.6,2428.3,38363.1,667.3,""smooth"",""left"",""left"",""good_move"",46314.9,4853.1,2346.5,41461.8,2506.6,""oops"",""left"",""left"",""good_move"",51178.8,4858.5,2247,46320.3,2611.5,""oops"",""up"",""left"",""good_move"",55893.1,4701.4,2959.7,51191.7,1741.7,""oops"",""up"",""down"",""bad_move"",59336.5,3441.6,2570.1,55894.9,871.5,""oops"",""up"",""up"",""good_move"",64045.2,4702.4,2793.4,59342.8,1909,""smooth"",""up"",""up"",""good_move"",68815.3,4766.2,3561.9,64049.1,1204.3,""smooth"",""up"",""up"",""good_move""]","","",""
"6175","","<div style=""width:500px;"">
  <p>What determined the result of this run?</p>
  </div>","100","html-slider-response","65","1560229","0.0-10.0-1.5","66","1","2025-07-02 10:18:59","80fe4187154257d5fb01684ea91b68b9","41.145.212.204","Mozilla/5.0 (Windows NT 10.0; Win64; x64) AppleWebKit/537.36 (KHTML, like Gecko) Chrome/136.0.0.0 Safari/537.36","WebKit","Chrome","136.0.0.0","Windows","10.0","https://app.prolific.com/","en-US,en;q=0.9","671b802adc0489faede54d81","683db6dfa200031b80f2a654","686507883556e53dd4d51da9","671b802adc0489faede54d81","2025-07-02T10:45:28.579Z","","","","","","AttribQ","","","","","","","","","","","","","","","","","","","","","","","","","","","","","","","","","","","","","","50",""
"3777","","<div style=""width:500px;"">
  <p>How much control did you have over the ball?</p>
  </div>","100","html-slider-response","66","1564009","0.0-10.0-2.5","66","1","2025-07-02 10:18:59","80fe4187154257d5fb01684ea91b68b9","41.145.212.204","Mozilla/5.0 (Windows NT 10.0; Win64; x64) AppleWebKit/537.36 (KHTML, like Gecko) Chrome/136.0.0.0 Safari/537.36","WebKit","Chrome","136.0.0.0","Windows","10.0","https://app.prolific.com/","en-US,en;q=0.9","671b802adc0489faede54d81","683db6dfa200031b80f2a654","686507883556e53dd4d51da9","671b802adc0489faede54d81","2025-07-02T10:45:32.359Z","","","","","","ControlQ","","","","","","","","","","","","","","","","","","","","","","","","","","","","","","","","","","","","","","50",""
"3936","","<div style=""width:500px;"">
  <p>How would you describe your current emotional state?</p>
  </div>","0","html-slider-response","67","1567949","0.0-10.0-3.5","66","1","2025-07-02 10:18:59","80fe4187154257d5fb01684ea91b68b9","41.145.212.204","Mozilla/5.0 (Windows NT 10.0; Win64; x64) AppleWebKit/537.36 (KHTML, like Gecko) Chrome/136.0.0.0 Safari/537.36","WebKit","Chrome","136.0.0.0","Windows","10.0","https://app.prolific.com/","en-US,en;q=0.9","671b802adc0489faede54d81","683db6dfa200031b80f2a654","686507883556e53dd4d51da9","671b802adc0489faede54d81","2025-07-02T10:45:36.299Z","","","","","","StressQ","","","","","","","","","","","","","","","","","","","","","","","","","","","","","","","","","","","","","","50",""
"5305","","<div style=""width:500px;"">
  <p>What best describes how you currently feel?</p>
  </div>","100","html-slider-response","68","1573258","0.0-10.0-4.5","66","1","2025-07-02 10:18:59","80fe4187154257d5fb01684ea91b68b9","41.145.212.204","Mozilla/5.0 (Windows NT 10.0; Win64; x64) AppleWebKit/537.36 (KHTML, like Gecko) Chrome/136.0.0.0 Safari/537.36","WebKit","Chrome","136.0.0.0","Windows","10.0","https://app.prolific.com/","en-US,en;q=0.9","671b802adc0489faede54d81","683db6dfa200031b80f2a654","686507883556e53dd4d51da9","671b802adc0489faede54d81","2025-07-02T10:45:41.608Z","","","","","","MotivationQ","","","","","","","","","","","","","","","","","","","","","","","","","","","","","","","","","","","","","","50",""
"","","","","ctl-task-cpt","69","1645088","0.0-10.0-0.6","66","1","2025-07-02 10:18:59","80fe4187154257d5fb01684ea91b68b9","41.145.212.204","Mozilla/5.0 (Windows NT 10.0; Win64; x64) AppleWebKit/537.36 (KHTML, like Gecko) Chrome/136.0.0.0 Safari/537.36","WebKit","Chrome","136.0.0.0","Windows","10.0","https://app.prolific.com/","en-US,en;q=0.9","671b802adc0489faede54d81","683db6dfa200031b80f2a654","686507883556e53dd4d51da9","671b802adc0489faede54d81","2025-07-02T10:46:53.438Z","","","","","","","","","","","","","","","","win-only","3","g1:SW,g2:NE","0.4","7","0","1578925.7","2812","7816.4","68792.7","1","4","4","6","2","4","4","21","17","0.1590909090909091","1472.5","3000","1905","[""up"",""right""]","{""num_key_presses"":10,""num_perfect"":4,""num_errors"":0,""num_randdir"":6,""num_randdir_good_moves"":4,""num_whilered"":0,""num_whileblue"":0,""num_blue"":6,""num_good_moves"":8}","[294.22232142857143,287.12857142857143,1.5,294.22232142857143,287.12857142857143,114.8,294.22232142857143,287.12857142857143,225.4,294.22232142857143,287.12857142857143,339.3,294.22232142857143,287.12857142857143,472.8,309.22232142857143,271.12857142857143,592.8,481.22232142857143,133.12857142857143,725.1,535.2223214285714,107.12857142857143,851.4,535.2223214285714,107.12857142857143,964.4,536.2223214285714,89.12857142857143,1088.4,538.2223214285714,68.12857142857143,1212.8,538.2223214285714,69.12857142857143,1324.5,538.2223214285714,69.12857142857143,1436.4,538.2223214285714,69.12857142857143,1550.8,538.2223214285714,69.12857142857143,1677.5,538.2223214285714,69.12857142857143,1799.4,538.2223214285714,69.12857142857143,1921.8,538.2223214285714,69.12857142857143,2029.4,538.2223214285714,69.12857142857143,2156,538.2223214285714,69.12857142857143,2269.8,538.2223214285714,69.12857142857143,2384.1,538.2223214285714,69.12857142857143,2492.7,538.2223214285714,69.12857142857143,2606.2,538.2223214285714,69.12857142857143,2720.4,538.2223214285714,69.12857142857143,2841.9,538.2223214285714,69.12857142857143,2976.2,538.2223214285714,69.12857142857143,3086,538.2223214285714,69.12857142857143,3187.7,538.2223214285714,69.12857142857143,3295.7,538.2223214285714,69.12857142857143,3400.7,538.2223214285714,69.12857142857143,3511,538.2223214285714,69.12857142857143,3618.9,538.2223214285714,69.12857142857143,3730.8,538.2223214285714,69.12857142857143,3841.5,538.2223214285714,69.12857142857143,3954.4,538.2223214285714,69.12857142857143,4061.7,538.2223214285714,69.12857142857143,4172.6,538.2223214285714,69.12857142857143,4276.9,538.2223214285714,69.12857142857143,4389.1,538.2223214285714,69.12857142857143,4496.1,538.2223214285714,69.12857142857143,4600.6,538.2223214285714,69.12857142857143,4707.5,538.2223214285714,69.12857142857143,4820.5,538.2223214285714,69.12857142857143,4923.7]","[2042,2042.1,1000,0,1042.1,""smooth"",""right"",""right"",""good_move"",4120.9,2075.8,1528.8,2045.2,547,""smooth"",""up"",""up"",""good_move"",13131.6,9008.7,2638.6,9932.4,560.6,""oops"",""up"",""up"",""good_move"",18606.9,5474.3,2578.6,13132.7,2895.6,""oops"",""up"",""right"",""good_move"",28135.9,9517.2,2419.5,25260.3,456.1,""oops"",""up"",""down"",""bad_move"",31994.1,3842.1,3028.3,28152.1,813.7,""oops"",""up"",""up"",""good_move"",40360.9,8365.3,2060.6,37724,576.4,""oops"",""up"",""right"",""good_move"",46438.9,6061.1,1677.2,44205.7,556,""oops"",""up"",""left"",""bad_move"",51799.8,5359.3,2497.2,46440.6,2862,""smooth"",""up"",""up"",""good_move"",60379.3,8578.6,2234.3,57623.4,521.6,""smooth"",""right"",""right"",""good_move""]","","",""
"4537","","<div style=""width:500px;"">
  <p>What determined the result of this run?</p>
  </div>","100","html-slider-response","70","1649630","0.0-10.0-1.6","66","1","2025-07-02 10:18:59","80fe4187154257d5fb01684ea91b68b9","41.145.212.204","Mozilla/5.0 (Windows NT 10.0; Win64; x64) AppleWebKit/537.36 (KHTML, like Gecko) Chrome/136.0.0.0 Safari/537.36","WebKit","Chrome","136.0.0.0","Windows","10.0","https://app.prolific.com/","en-US,en;q=0.9","671b802adc0489faede54d81","683db6dfa200031b80f2a654","686507883556e53dd4d51da9","671b802adc0489faede54d81","2025-07-02T10:46:57.979Z","","","","","","AttribQ","","","","","","","","","","","","","","","","","","","","","","","","","","","","","","","","","","","","","","50",""
"3434","","<div style=""width:500px;"">
  <p>How much control did you have over the ball?</p>
  </div>","100","html-slider-response","71","1653067","0.0-10.0-2.6","66","1","2025-07-02 10:18:59","80fe4187154257d5fb01684ea91b68b9","41.145.212.204","Mozilla/5.0 (Windows NT 10.0; Win64; x64) AppleWebKit/537.36 (KHTML, like Gecko) Chrome/136.0.0.0 Safari/537.36","WebKit","Chrome","136.0.0.0","Windows","10.0","https://app.prolific.com/","en-US,en;q=0.9","671b802adc0489faede54d81","683db6dfa200031b80f2a654","686507883556e53dd4d51da9","671b802adc0489faede54d81","2025-07-02T10:47:01.416Z","","","","","","ControlQ","","","","","","","","","","","","","","","","","","","","","","","","","","","","","","","","","","","","","","50",""
"3739","","<div style=""width:500px;"">
  <p>How would you describe your current emotional state?</p>
  </div>","0","html-slider-response","72","1656810","0.0-10.0-3.6","66","1","2025-07-02 10:18:59","80fe4187154257d5fb01684ea91b68b9","41.145.212.204","Mozilla/5.0 (Windows NT 10.0; Win64; x64) AppleWebKit/537.36 (KHTML, like Gecko) Chrome/136.0.0.0 Safari/537.36","WebKit","Chrome","136.0.0.0","Windows","10.0","https://app.prolific.com/","en-US,en;q=0.9","671b802adc0489faede54d81","683db6dfa200031b80f2a654","686507883556e53dd4d51da9","671b802adc0489faede54d81","2025-07-02T10:47:05.159Z","","","","","","StressQ","","","","","","","","","","","","","","","","","","","","","","","","","","","","","","","","","","","","","","50",""
"3896","","<div style=""width:500px;"">
  <p>What best describes how you currently feel?</p>
  </div>","100","html-slider-response","73","1660711","0.0-10.0-4.6","66","1","2025-07-02 10:18:59","80fe4187154257d5fb01684ea91b68b9","41.145.212.204","Mozilla/5.0 (Windows NT 10.0; Win64; x64) AppleWebKit/537.36 (KHTML, like Gecko) Chrome/136.0.0.0 Safari/537.36","WebKit","Chrome","136.0.0.0","Windows","10.0","https://app.prolific.com/","en-US,en;q=0.9","671b802adc0489faede54d81","683db6dfa200031b80f2a654","686507883556e53dd4d51da9","671b802adc0489faede54d81","2025-07-02T10:47:09.060Z","","","","","","MotivationQ","","","","","","","","","","","","","","","","","","","","","","","","","","","","","","","","","","","","","","50",""
"","","","","ctl-task-cpt","74","1797547","0.0-10.0-0.7","66","1","2025-07-02 10:18:59","80fe4187154257d5fb01684ea91b68b9","41.145.212.204","Mozilla/5.0 (Windows NT 10.0; Win64; x64) AppleWebKit/537.36 (KHTML, like Gecko) Chrome/136.0.0.0 Safari/537.36","WebKit","Chrome","136.0.0.0","Windows","10.0","https://app.prolific.com/","en-US,en;q=0.9","671b802adc0489faede54d81","683db6dfa200031b80f2a654","686507883556e53dd4d51da9","671b802adc0489faede54d81","2025-07-02T10:49:25.896Z","","","","","","","","","","","","","","","","win-only","0","g1:NW,g2:SE","0.3","8","0","1666377.9","1838","6841.7","133799.6","1","4","8","6","2","8","7","28","21","0.21212121212121213","1828.2","3000","50","[""down"",""right""]","{""num_key_presses"":24,""num_perfect"":7,""num_errors"":1,""num_randdir"":16,""num_randdir_good_moves"":7,""num_whilered"":0,""num_whileblue"":1,""num_blue"":8,""num_good_moves"":15}","[299.22232142857143,288.12857142857143,1.9,299.22232142857143,288.12857142857143,125.7,299.22232142857143,288.12857142857143,226.9,299.22232142857143,288.12857142857143,349.5,299.22232142857143,288.12857142857143,469.6,299.22232142857143,288.12857142857143,603,342.22232142857143,301.12857142857143,705.2,497.22232142857143,457.12857142857143,811,497.22232142857143,457.12857142857143,925.5,497.22232142857143,457.12857142857143,1045.7,497.22232142857143,457.12857142857143,1170.2,505.22232142857143,477.12857142857143,1275,510.22232142857143,492.12857142857143,1378.2,518.2223214285714,512.1285714285714,1485.9,521.2223214285714,520.1285714285714,1589.2,522.2223214285714,521.1285714285714,1693.9,522.2223214285714,521.1285714285714,1819.8,522.2223214285714,521.1285714285714,1946.4,522.2223214285714,521.1285714285714,2076,522.2223214285714,521.1285714285714,2208.9,522.2223214285714,521.1285714285714,2329,522.2223214285714,521.1285714285714,2459.9,522.2223214285714,521.1285714285714,2584.8,522.2223214285714,521.1285714285714,2718,522.2223214285714,521.1285714285714,2829.2,522.2223214285714,521.1285714285714,2940.5,522.2223214285714,521.1285714285714,3058.7,522.2223214285714,521.1285714285714,3160.8,522.2223214285714,521.1285714285714,3277.2,522.2223214285714,521.1285714285714,3392,522.2223214285714,521.1285714285714,3513.8,522.2223214285714,521.1285714285714,3632.5,522.2223214285714,521.1285714285714,3750.6,522.2223214285714,521.1285714285714,3871.3,522.2223214285714,521.1285714285714,3985.3,522.2223214285714,521.1285714285714,4127.8,522.2223214285714,521.1285714285714,4255.4,522.2223214285714,521.1285714285714,4375.6,522.2223214285714,521.1285714285714,4494.2,522.2223214285714,521.1285714285714,4617,522.2223214285714,521.1285714285714,4736,522.2223214285714,521.1285714285714,4848.7,522.2223214285714,521.1285714285714,4974.5]","[5010.7,5010.7,2506.1,2042.4,462.2,""smooth"",""down"",""down"",""good_move"",8298.9,3284.2,2699.2,5014.8,584.9,""smooth"",""down"",""down"",""good_move"",11125.7,2814.3,2274.3,8311.4,540,""oops"",""down"",""down"",""good_move"",13995.2,2868,2383.3,11127.3,484.6,""oops"",""right"",""up"",""bad_move"",19659,5661.7,5181.7,13997.3,480,""while_blue"",""right"",""right"",""good_move"",22918.9,3252.9,2342.7,19666,910.3,""oops"",""right"",""left"",""bad_move"",35191.4,12271.3,1978.2,32618.6,594.6,""oops"",""right"",""up"",""bad_move"",40879.5,5687.2,2648.9,35192.4,3038.2,""smooth"",""down"",""down"",""good_move"",45106.8,4225.9,3240.5,40880.9,985.4,""oops"",""down"",""right"",""good_move"",48715.5,3607.2,2730.4,45108.4,876.8,""oops"",""down"",""up"",""bad_move"",54257,5539.8,3001.3,48717.4,2538.3,""oops"",""down"",""up"",""bad_move"",59793.2,5535.1,2799.1,54258.1,2736,""oops"",""right"",""down"",""good_move"",68080.7,8280.5,2436.9,59800.2,5843.6,""oops"",""right"",""left"",""bad_move"",73668.3,5569.6,1995.3,68098.9,3574.2,""oops"",""right"",""up"",""bad_move"",79291,5620.4,3233.2,73670.6,2387.2,""oops"",""down"",""up"",""bad_move"",84976.4,5676.5,2907.9,79299.9,2768.6,""oops"",""down"",""down"",""good_move"",95739.3,10761.3,2875.7,92423.2,440.4,""smooth"",""down"",""down"",""good_move"",98534.5,2794.2,2066.3,95740.4,727.8,""smooth"",""right"",""right"",""good_move"",106187.8,7651.5,3071.3,102446.9,669.6,""oops"",""right"",""down"",""good_move"",108264.8,2075.7,1435.2,106189.1,640.5,""smooth"",""right"",""right"",""good_move"",114990.2,6722.1,2917,111600.6,472.6,""oops"",""right"",""left"",""bad_move"",120502.4,5511,2770.7,114991.5,2740.3,""oops"",""down"",""right"",""good_move"",123701.6,3194.7,2545.4,120506.9,649.3,""oops"",""down"",""down"",""good_move"",126334.3,2630.6,2009.2,123703.8,621.4,""smooth"",""right"",""right"",""good_move""]","","",""
"3523","","<div style=""width:500px;"">
  <p>What determined the result of this run?</p>
  </div>","100","html-slider-response","75","1801073","0.0-10.0-1.7","66","1","2025-07-02 10:18:59","80fe4187154257d5fb01684ea91b68b9","41.145.212.204","Mozilla/5.0 (Windows NT 10.0; Win64; x64) AppleWebKit/537.36 (KHTML, like Gecko) Chrome/136.0.0.0 Safari/537.36","WebKit","Chrome","136.0.0.0","Windows","10.0","https://app.prolific.com/","en-US,en;q=0.9","671b802adc0489faede54d81","683db6dfa200031b80f2a654","686507883556e53dd4d51da9","671b802adc0489faede54d81","2025-07-02T10:49:29.422Z","","","","","","AttribQ","","","","","","","","","","","","","","","","","","","","","","","","","","","","","","","","","","","","","","50",""
"4660","","<div style=""width:500px;"">
  <p>How much control did you have over the ball?</p>
  </div>","100","html-slider-response","76","1805736","0.0-10.0-2.7","66","1","2025-07-02 10:18:59","80fe4187154257d5fb01684ea91b68b9","41.145.212.204","Mozilla/5.0 (Windows NT 10.0; Win64; x64) AppleWebKit/537.36 (KHTML, like Gecko) Chrome/136.0.0.0 Safari/537.36","WebKit","Chrome","136.0.0.0","Windows","10.0","https://app.prolific.com/","en-US,en;q=0.9","671b802adc0489faede54d81","683db6dfa200031b80f2a654","686507883556e53dd4d51da9","671b802adc0489faede54d81","2025-07-02T10:49:34.085Z","","","","","","ControlQ","","","","","","","","","","","","","","","","","","","","","","","","","","","","","","","","","","","","","","50",""
"4625","","<div style=""width:500px;"">
  <p>How would you describe your current emotional state?</p>
  </div>","0","html-slider-response","77","1810364","0.0-10.0-3.7","66","1","2025-07-02 10:18:59","80fe4187154257d5fb01684ea91b68b9","41.145.212.204","Mozilla/5.0 (Windows NT 10.0; Win64; x64) AppleWebKit/537.36 (KHTML, like Gecko) Chrome/136.0.0.0 Safari/537.36","WebKit","Chrome","136.0.0.0","Windows","10.0","https://app.prolific.com/","en-US,en;q=0.9","671b802adc0489faede54d81","683db6dfa200031b80f2a654","686507883556e53dd4d51da9","671b802adc0489faede54d81","2025-07-02T10:49:38.713Z","","","","","","StressQ","","","","","","","","","","","","","","","","","","","","","","","","","","","","","","","","","","","","","","50",""
"3087","","<div style=""width:500px;"">
  <p>What best describes how you currently feel?</p>
  </div>","100","html-slider-response","78","1813455","0.0-10.0-4.7","66","1","2025-07-02 10:18:59","80fe4187154257d5fb01684ea91b68b9","41.145.212.204","Mozilla/5.0 (Windows NT 10.0; Win64; x64) AppleWebKit/537.36 (KHTML, like Gecko) Chrome/136.0.0.0 Safari/537.36","WebKit","Chrome","136.0.0.0","Windows","10.0","https://app.prolific.com/","en-US,en;q=0.9","671b802adc0489faede54d81","683db6dfa200031b80f2a654","686507883556e53dd4d51da9","671b802adc0489faede54d81","2025-07-02T10:49:41.804Z","","","","","","MotivationQ","","","","","","","","","","","","","","","","","","","","","","","","","","","","","","","","","","","","","","50",""
"","","","","ctl-task-cpt","79","2022128","0.0-10.0-0.8","66","1","2025-07-02 10:18:59","80fe4187154257d5fb01684ea91b68b9","41.145.212.204","Mozilla/5.0 (Windows NT 10.0; Win64; x64) AppleWebKit/537.36 (KHTML, like Gecko) Chrome/136.0.0.0 Safari/537.36","WebKit","Chrome","136.0.0.0","Windows","10.0","https://app.prolific.com/","en-US,en;q=0.9","671b802adc0489faede54d81","683db6dfa200031b80f2a654","686507883556e53dd4d51da9","671b802adc0489faede54d81","2025-07-02T10:53:10.477Z","","","","","","","","","","","","","","","","win-only","2","g1:SE,g2:NW","0.4","9","0","1819122.2","1495.1","6535.9","205624.9","1","4","4","6","2","-4","-5","23","28","0.17424242424242425","1753.6","3000","-465","[""left"",""up""]","{""num_key_presses"":35,""num_perfect"":13,""num_errors"":1,""num_randdir"":21,""num_randdir_good_moves"":7,""num_whilered"":0,""num_whileblue"":1,""num_blue"":8,""num_good_moves"":20}","[296.22232142857143,299.12857142857143,1.2,296.22232142857143,299.12857142857143,134.1,296.22232142857143,299.12857142857143,241.4,296.22232142857143,299.12857142857143,363.5,296.22232142857143,299.12857142857143,482.6,296.22232142857143,299.12857142857143,595.5,296.22232142857143,299.12857142857143,735.2,172.22232142857143,181.12857142857143,845.2,109.22232142857143,153.12857142857143,953.7,106.22232142857143,153.12857142857143,1075.3,106.22232142857143,153.12857142857143,1203.5,85.22232142857143,99.12857142857143,1321.1,74.22232142857143,60.128571428571426,1426.3,70.22232142857143,52.128571428571426,1530,70.22232142857143,52.128571428571426,1657.7,70.22232142857143,52.128571428571426,1760,70.22232142857143,52.128571428571426,1874.3,70.22232142857143,52.128571428571426,2006.2,70.22232142857143,52.128571428571426,2108.2,70.22232142857143,52.128571428571426,2240,70.22232142857143,52.128571428571426,2372.5,70.22232142857143,52.128571428571426,2504.8,70.22232142857143,52.128571428571426,2632.1,70.22232142857143,52.128571428571426,2759.8,70.22232142857143,52.128571428571426,2891.7,70.22232142857143,52.128571428571426,3019.6,70.22232142857143,52.128571428571426,3136.6,70.22232142857143,52.128571428571426,3237.1,70.22232142857143,52.128571428571426,3337.9,70.22232142857143,52.128571428571426,3462.1,70.22232142857143,52.128571428571426,3570.3,70.22232142857143,52.128571428571426,3671.7,70.22232142857143,52.128571428571426,3805.4,70.22232142857143,52.128571428571426,3908.6,70.22232142857143,52.128571428571426,4013.8,70.22232142857143,52.128571428571426,4131.3,70.22232142857143,52.128571428571426,4240.7,70.22232142857143,52.128571428571426,4340.9,70.22232142857143,52.128571428571426,4443.4,70.22232142857143,52.128571428571426,4545.3,70.22232142857143,52.128571428571426,4678.4,70.22232142857143,52.128571428571426,4787.8,70.22232142857143,52.128571428571426,4894]","[1746,1746,1000,0,746,""smooth"",""left"",""left"",""good_move"",8083.5,6332.1,2172.6,1751.5,4159.5,""smooth"",""left"",""left"",""good_move"",14433.5,6348.8,3105.4,8084.7,3243.5,""oops"",""left"",""down"",""bad_move"",18205.5,3766.2,3225.1,14439.3,541.1,""oops"",""up"",""up"",""good_move"",24406.7,6199.3,1717.8,18207.5,4481.4,""oops"",""up"",""down"",""bad_move"",28185.2,3777.3,3186.6,24407.9,590.7,""oops"",""up"",""down"",""bad_move"",31355.4,3153.9,2633.2,28201.8,520.4,""while_blue"",""up"",""right"",""bad_move"",38080.3,6723.1,2529,35030.6,520.7,""oops"",""up"",""right"",""bad_move"",40864.3,2769,2193.9,38095.3,575.1,""oops"",""left"",""left"",""good_move"",46943.3,6077,2027.5,40866.4,4049.5,""smooth"",""left"",""left"",""good_move"",53088,6143.7,2232.4,46944.3,3911.3,""smooth"",""left"",""left"",""good_move"",59106.8,6017.1,2518.3,53089.7,3498.8,""smooth"",""left"",""up"",""good_move"",65357.8,6249.6,2643.5,59108.2,3606.1,""oops"",""left"",""up"",""good_move"",71510.6,6151.5,2342.9,65359.1,3808.6,""smooth"",""left"",""up"",""good_move"",77624.3,6111.5,2753.7,71512.9,3357.8,""oops"",""left"",""down"",""bad_move"",83655.4,6029.6,2091.9,81039,524.6,""smooth"",""left"",""up"",""good_move"",89758.3,6101.8,2436.7,83656.5,3665.1,""oops"",""left"",""right"",""bad_move"",93279.6,3519.8,2854.6,89759.8,665.2,""smooth"",""left"",""left"",""good_move"",99500.7,6217.6,2297.1,93283.2,3920.5,""oops"",""left"",""right"",""bad_move"",102589.3,3080.6,2479.1,99508.7,601.5,""oops"",""up"",""down"",""bad_move"",105873.7,3283,2774.5,102590.7,508.5,""oops"",""left"",""right"",""bad_move"",108495.5,2619.4,1870.9,105876.1,748.5,""oops"",""up"",""down"",""bad_move"",113665.2,5159.3,1682.3,111341.1,641.8,""oops"",""left"",""up"",""good_move"",123578.8,9911.2,2853.9,120261.5,463.4,""oops"",""left"",""down"",""bad_move"",130250.1,6670.4,2693,126877.8,679.4,""smooth"",""left"",""left"",""good_move"",136505.6,6254.3,2528.7,130251.4,3725.6,""oops"",""left"",""left"",""good_move"",147096.2,10588.8,3456.8,143115.6,523.9,""smooth"",""up"",""up"",""good_move"",153524.7,6416.5,2468.5,147108.3,3948,""smooth"",""up"",""up"",""good_move"",160351.5,6825.5,2482.7,153526,4342.8,""smooth"",""up"",""up"",""good_move"",166358.7,5997.7,2561.1,160361.2,3436.5,""oops"",""up"",""down"",""bad_move"",170104.3,3744.1,2932.1,166360.3,811.9,""oops"",""up"",""right"",""bad_move"",173786.3,3680,3001.4,170106.3,678.6,""oops"",""up"",""left"",""good_move"",182974.7,9185.1,2038.5,180411.1,525.1,""oops"",""up"",""right"",""bad_move"",187059.3,4083.4,3492,182976,591.3,""smooth"",""up"",""up"",""good_move"",193273.6,6209,2365.5,187064.6,3843.5,""oops"",""up"",""left"",""good_move""]","","",""
"8912","","<div style=""width:500px;"">
  <p>What determined the result of this run?</p>
  </div>","86","html-slider-response","80","2031044","0.0-10.0-1.8","66","1","2025-07-02 10:18:59","80fe4187154257d5fb01684ea91b68b9","41.145.212.204","Mozilla/5.0 (Windows NT 10.0; Win64; x64) AppleWebKit/537.36 (KHTML, like Gecko) Chrome/136.0.0.0 Safari/537.36","WebKit","Chrome","136.0.0.0","Windows","10.0","https://app.prolific.com/","en-US,en;q=0.9","671b802adc0489faede54d81","683db6dfa200031b80f2a654","686507883556e53dd4d51da9","671b802adc0489faede54d81","2025-07-02T10:53:19.393Z","","","","","","AttribQ","","","","","","","","","","","","","","","","","","","","","","","","","","","","","","","","","","","","","","50",""
"1995","","<div style=""width:500px;"">
  <p>How much control did you have over the ball?</p>
  </div>","66","html-slider-response","81","2033044","0.0-10.0-2.8","66","1","2025-07-02 10:18:59","80fe4187154257d5fb01684ea91b68b9","41.145.212.204","Mozilla/5.0 (Windows NT 10.0; Win64; x64) AppleWebKit/537.36 (KHTML, like Gecko) Chrome/136.0.0.0 Safari/537.36","WebKit","Chrome","136.0.0.0","Windows","10.0","https://app.prolific.com/","en-US,en;q=0.9","671b802adc0489faede54d81","683db6dfa200031b80f2a654","686507883556e53dd4d51da9","671b802adc0489faede54d81","2025-07-02T10:53:21.393Z","","","","","","ControlQ","","","","","","","","","","","","","","","","","","","","","","","","","","","","","","","","","","","","","","50",""
"4916","","<div style=""width:500px;"">
  <p>How would you describe your current emotional state?</p>
  </div>","0","html-slider-response","82","2037963","0.0-10.0-3.8","66","1","2025-07-02 10:18:59","80fe4187154257d5fb01684ea91b68b9","41.145.212.204","Mozilla/5.0 (Windows NT 10.0; Win64; x64) AppleWebKit/537.36 (KHTML, like Gecko) Chrome/136.0.0.0 Safari/537.36","WebKit","Chrome","136.0.0.0","Windows","10.0","https://app.prolific.com/","en-US,en;q=0.9","671b802adc0489faede54d81","683db6dfa200031b80f2a654","686507883556e53dd4d51da9","671b802adc0489faede54d81","2025-07-02T10:53:26.313Z","","","","","","StressQ","","","","","","","","","","","","","","","","","","","","","","","","","","","","","","","","","","","","","","50",""
"4356","","<div style=""width:500px;"">
  <p>What best describes how you currently feel?</p>
  </div>","100","html-slider-response","83","2042323","0.0-10.0-4.8","66","1","2025-07-02 10:18:59","80fe4187154257d5fb01684ea91b68b9","41.145.212.204","Mozilla/5.0 (Windows NT 10.0; Win64; x64) AppleWebKit/537.36 (KHTML, like Gecko) Chrome/136.0.0.0 Safari/537.36","WebKit","Chrome","136.0.0.0","Windows","10.0","https://app.prolific.com/","en-US,en;q=0.9","671b802adc0489faede54d81","683db6dfa200031b80f2a654","686507883556e53dd4d51da9","671b802adc0489faede54d81","2025-07-02T10:53:30.673Z","","","","","","MotivationQ","","","","","","","","","","","","","","","","","","","","","","","","","","","","","","","","","","","","","","50",""
