"rt","response_timestamp","stimulus","response","trial_type","trial_index","time_elapsed","internal_node_id","run_id","condition","recorded_at","source_code_version","ip","user_agent","device","browser","browser_version","platform","platform_version","referer","accept_language","PROLIFIC_PID","STUDY_ID","SESSION_ID","prolific_id","realtime","view_history","question_order","consent","success","question_id","eventType","responses","item_order","radio_event_ids","radio_event_times","key_event_times","mouse_event_times","straightlining","zigzagging","honeypot","which_type","canvas_config","goals_layout","control_level","trial_number","tutorial_trial_number","trial_start_time","phase1_start_time","phase2_start_time","phase3_start_time","goal_1_value","goal_1_distance","goal_2_value","goal_2_distance","goal_selected","outcome","outcome_total","participant_final_score","participant_initial_score","participant_final_score_prop","goal_choice_rt","allocated_time","allocated_time_remaining","goal_direction","counts","mouse_movements","key_presses","correct","slider_start"
"25541","1751451819503","<p style='font-size:40px;line-height:1.25'><strong>Welcome to the experiment!</strong></p><p style='font-size:1.1em;line-height:1.25'>Thank you for your interest in our experiment! Before you begin, it is important that we obtain your informed consent to participate in the study.</p><p style='font-size:1.1em;line-height:1.25'>On the next screen will be an <strong>information sheet</strong> for you to read. To participate in the study we need you to read this information sheet and the following consent form carefully. If you agree with all the statements, please click the <strong>I agree</strong> button.</p><p style='font-size:1.1em;line-height:1.25'>Press <strong>Next</strong> to read the information sheet.</p>","0","custom-html-button-response","0","25551","0.0-0.0","171","1","2025-07-02 10:23:07","80fe4187154257d5fb01684ea91b68b9","197.184.91.93","Mozilla/5.0 (Windows NT 10.0; Win64; x64) AppleWebKit/537.36 (KHTML, like Gecko) Chrome/138.0.0.0 Safari/537.36","WebKit","Chrome","138.0.0.0","Windows","10.0","https://app.prolific.com/","en-GB,en-US;q=0.9,en;q=0.8","67215aa0a8e88c6751efc410","683db6dfa200031b80f2a654","6865078da54d2d0b55f4de66","67215aa0a8e88c6751efc410","2025-07-02T10:23:39.508Z","","","","","","","","","","","","","","","","","","","","","","","","","","","","","","","","","","","","","","","","","","","",""
"183016","","","","instructions","1","208571","0.0-1.0","171","1","2025-07-02 10:23:07","80fe4187154257d5fb01684ea91b68b9","197.184.91.93","Mozilla/5.0 (Windows NT 10.0; Win64; x64) AppleWebKit/537.36 (KHTML, like Gecko) Chrome/138.0.0.0 Safari/537.36","WebKit","Chrome","138.0.0.0","Windows","10.0","https://app.prolific.com/","en-GB,en-US;q=0.9,en;q=0.8","67215aa0a8e88c6751efc410","683db6dfa200031b80f2a654","6865078da54d2d0b55f4de66","67215aa0a8e88c6751efc410","","[{""page_index"":0,""viewing_time"":139864},{""page_index"":1,""viewing_time"":43151}]","","","","","","","","","","","","","","","","","","","","","","","","","","","","","","","","","","","","","","","","","","",""
"23915","","","{""Q0"":"""",""Q1"":"""",""Q2"":"""",""Q3"":"""",""Q4"":"""",""Q5"":"""",""Q6"":""I agree""}","survey-multi-choice","2","232498","0.0-2.0","171","1","2025-07-02 10:23:07","80fe4187154257d5fb01684ea91b68b9","197.184.91.93","Mozilla/5.0 (Windows NT 10.0; Win64; x64) AppleWebKit/537.36 (KHTML, like Gecko) Chrome/138.0.0.0 Safari/537.36","WebKit","Chrome","138.0.0.0","Windows","10.0","https://app.prolific.com/","en-GB,en-US;q=0.9,en;q=0.8","67215aa0a8e88c6751efc410","683db6dfa200031b80f2a654","6865078da54d2d0b55f4de66","67215aa0a8e88c6751efc410","","","[0,1,2,3,4,5,6]","true","","","","","","","","","","","","","","","","","","","","","","","","","","","","","","","","","","","","","","","","",""
"38101","","","","fullscreen","3","271611","0.0-4.0","171","1","2025-07-02 10:23:07","80fe4187154257d5fb01684ea91b68b9","197.184.91.93","Mozilla/5.0 (Windows NT 10.0; Win64; x64) AppleWebKit/537.36 (KHTML, like Gecko) Chrome/138.0.0.0 Safari/537.36","WebKit","Chrome","138.0.0.0","Windows","10.0","https://app.prolific.com/","en-GB,en-US;q=0.9,en;q=0.8","67215aa0a8e88c6751efc410","683db6dfa200031b80f2a654","6865078da54d2d0b55f4de66","67215aa0a8e88c6751efc410","","","","","true","","","","","","","","","","","","","","","","","","","","","","","","","","","","","","","","","","","","","","","",""
"13915","1751452079486"," <p style='font-size:1.1em;line-height:1.25'>Thank you for completing the consent form and closing all other tabs.</p><p style='font-size:1.1em;line-height:1.25'>We will now invite you to fill in some demographic information and questionnaires, before starting the game.<br>This will take about 5 minutes.<br></p><p style='font-size:1.1em;line-height:1.25'>Press the <strong>Next</strong> button to continue.</p>","0","custom-html-button-response","4","285530","0.0-5.0","171","1","2025-07-02 10:23:07","80fe4187154257d5fb01684ea91b68b9","197.184.91.93","Mozilla/5.0 (Windows NT 10.0; Win64; x64) AppleWebKit/537.36 (KHTML, like Gecko) Chrome/138.0.0.0 Safari/537.36","WebKit","Chrome","138.0.0.0","Windows","10.0","https://app.prolific.com/","en-GB,en-US;q=0.9,en;q=0.8","67215aa0a8e88c6751efc410","683db6dfa200031b80f2a654","6865078da54d2d0b55f4de66","67215aa0a8e88c6751efc410","2025-07-02T10:27:59.487Z","","","","","","","","","","","","","","","","","","","","","","","","","","","","","","","","","","","","","","","","","","","",""
"4710","","","{""age"":""27""}","survey-text","5","290255","0.0-6.0-0.0","171","1","2025-07-02 10:23:07","80fe4187154257d5fb01684ea91b68b9","197.184.91.93","Mozilla/5.0 (Windows NT 10.0; Win64; x64) AppleWebKit/537.36 (KHTML, like Gecko) Chrome/138.0.0.0 Safari/537.36","WebKit","Chrome","138.0.0.0","Windows","10.0","https://app.prolific.com/","en-GB,en-US;q=0.9,en;q=0.8","67215aa0a8e88c6751efc410","683db6dfa200031b80f2a654","6865078da54d2d0b55f4de66","67215aa0a8e88c6751efc410","","","","","","0","demographics","","","","","","","","","","","","","","","","","","","","","","","","","","","","","","","","","","","","","",""
"2992","","","{""gender_identity"":""female/woman""}","survey-multi-choice","6","293251","0.0-6.0-1.0","171","1","2025-07-02 10:23:07","80fe4187154257d5fb01684ea91b68b9","197.184.91.93","Mozilla/5.0 (Windows NT 10.0; Win64; x64) AppleWebKit/537.36 (KHTML, like Gecko) Chrome/138.0.0.0 Safari/537.36","WebKit","Chrome","138.0.0.0","Windows","10.0","https://app.prolific.com/","en-GB,en-US;q=0.9,en;q=0.8","67215aa0a8e88c6751efc410","683db6dfa200031b80f2a654","6865078da54d2d0b55f4de66","67215aa0a8e88c6751efc410","","","[0]","","","1","demographics","","","","","","","","","","","","","","","","","","","","","","","","","","","","","","","","","","","","","",""
"3205","","","{""assigned_sex"":""female""}","survey-multi-choice","7","296459","0.0-6.0-2.0","171","1","2025-07-02 10:23:07","80fe4187154257d5fb01684ea91b68b9","197.184.91.93","Mozilla/5.0 (Windows NT 10.0; Win64; x64) AppleWebKit/537.36 (KHTML, like Gecko) Chrome/138.0.0.0 Safari/537.36","WebKit","Chrome","138.0.0.0","Windows","10.0","https://app.prolific.com/","en-GB,en-US;q=0.9,en;q=0.8","67215aa0a8e88c6751efc410","683db6dfa200031b80f2a654","6865078da54d2d0b55f4de66","67215aa0a8e88c6751efc410","","","[0]","","","2","demographics","","","","","","","","","","","","","","","","","","","","","","","","","","","","","","","","","","","","","",""
"5829","","","{""menstrual_cycle"":""Yes""}","survey-multi-choice","8","302291","0.0-6.0-3.0","171","1","2025-07-02 10:23:07","80fe4187154257d5fb01684ea91b68b9","197.184.91.93","Mozilla/5.0 (Windows NT 10.0; Win64; x64) AppleWebKit/537.36 (KHTML, like Gecko) Chrome/138.0.0.0 Safari/537.36","WebKit","Chrome","138.0.0.0","Windows","10.0","https://app.prolific.com/","en-GB,en-US;q=0.9,en;q=0.8","67215aa0a8e88c6751efc410","683db6dfa200031b80f2a654","6865078da54d2d0b55f4de66","67215aa0a8e88c6751efc410","","","[0]","","","4","demographics","","","","","","","","","","","","","","","","","","","","","","","","","","","","","","","","","","","","","",""
"4980","","","{""education"":""Bachelor's Degree (e.g., BA)""}","survey-multi-choice","9","307275","0.0-6.0-4.0","171","1","2025-07-02 10:23:07","80fe4187154257d5fb01684ea91b68b9","197.184.91.93","Mozilla/5.0 (Windows NT 10.0; Win64; x64) AppleWebKit/537.36 (KHTML, like Gecko) Chrome/138.0.0.0 Safari/537.36","WebKit","Chrome","138.0.0.0","Windows","10.0","https://app.prolific.com/","en-GB,en-US;q=0.9,en;q=0.8","67215aa0a8e88c6751efc410","683db6dfa200031b80f2a654","6865078da54d2d0b55f4de66","67215aa0a8e88c6751efc410","","","[0]","","","5","demographics","","","","","","","","","","","","","","","","","","","","","","","","","","","","","","","","","","","","","",""
"22301","","","{""education"":""Higher National Diploma""}","survey-multi-choice","10","329580","0.0-6.0-5.0","171","1","2025-07-02 10:23:07","80fe4187154257d5fb01684ea91b68b9","197.184.91.93","Mozilla/5.0 (Windows NT 10.0; Win64; x64) AppleWebKit/537.36 (KHTML, like Gecko) Chrome/138.0.0.0 Safari/537.36","WebKit","Chrome","138.0.0.0","Windows","10.0","https://app.prolific.com/","en-GB,en-US;q=0.9,en;q=0.8","67215aa0a8e88c6751efc410","683db6dfa200031b80f2a654","6865078da54d2d0b55f4de66","67215aa0a8e88c6751efc410","2025-07-02T10:28:43.538Z","","[0]","","","6","demographics","","","","","","","","","","","","","","","","","","","","","","","","","","","","","","","","","","","","","",""
"30418","","","{""mental_health_condition"":""None"",""mental_health_treatment"":""No"",""psychiatric_medication"":""N/A""}","survey-text","11","360019","0.0-7.0-0.0","171","1","2025-07-02 10:23:07","80fe4187154257d5fb01684ea91b68b9","197.184.91.93","Mozilla/5.0 (Windows NT 10.0; Win64; x64) AppleWebKit/537.36 (KHTML, like Gecko) Chrome/138.0.0.0 Safari/537.36","WebKit","Chrome","138.0.0.0","Windows","10.0","https://app.prolific.com/","en-GB,en-US;q=0.9,en;q=0.8","67215aa0a8e88c6751efc410","683db6dfa200031b80f2a654","6865078da54d2d0b55f4de66","67215aa0a8e88c6751efc410","2025-07-02T10:29:13.976Z","","","","","1","mental_health","","","","","","","","","","","","","","","","","","","","","","","","","","","","","","","","","","","","","",""
"12352","","","{""depression_history"":[""No""]}","survey-multi-select","12","372401","0.0-7.0-1.0","171","1","2025-07-02 10:23:07","80fe4187154257d5fb01684ea91b68b9","197.184.91.93","Mozilla/5.0 (Windows NT 10.0; Win64; x64) AppleWebKit/537.36 (KHTML, like Gecko) Chrome/138.0.0.0 Safari/537.36","WebKit","Chrome","138.0.0.0","Windows","10.0","https://app.prolific.com/","en-GB,en-US;q=0.9,en;q=0.8","67215aa0a8e88c6751efc410","683db6dfa200031b80f2a654","6865078da54d2d0b55f4de66","67215aa0a8e88c6751efc410","","","[0]","","","","mental_health","","","","","","","","","","","","","","","","","","","","","","","","","","","","","","","","","","","","","",""
"99814.5","","","","survey-template","13","472231","0.0-7.0-3.0","171","1","2025-07-02 10:23:07","80fe4187154257d5fb01684ea91b68b9","197.184.91.93","Mozilla/5.0 (Windows NT 10.0; Win64; x64) AppleWebKit/537.36 (KHTML, like Gecko) Chrome/138.0.0.0 Safari/537.36","WebKit","Chrome","138.0.0.0","Windows","10.0","https://app.prolific.com/","en-GB,en-US;q=0.9,en;q=0.8","67215aa0a8e88c6751efc410","683db6dfa200031b80f2a654","6865078da54d2d0b55f4de66","67215aa0a8e88c6751efc410","2025-07-02T10:31:06.188Z","","","","","","ius","{""Q01"":""3"",""Q02"":""3"",""Q03"":""3"",""Q04"":""3"",""Q05"":""2"",""Q06"":""2"",""Q07"":""1"",""Q08"":""0"",""Q09"":""3"",""Q10"":""2"",""Q11"":""2"",""Q12"":""2"",""Q13"":""1""}","[0,1,2,3,4,5,6,7,8,9,10,11,12]","[""Q01"",""Q02"",""Q03"",""Q04"",""Q05"",""Q06"",""Q07"",""Q08"",""Q09"",""Q10"",""Q10"",""Q11"",""Q12"",""Q12"",""Q13"",""Q13"",""Q13""]","[9213.70000000298,13823.5,18168.70000000298,24172.39999999851,31725.89999999851,39935.89999999851,45231.20000000298,50370.70000000298,55439,59814.10000000149,61715.5,65683.80000000447,74167.60000000149,76242.89999999851,83824.5,89048.10000000149,91832.39999999851]","[]","[9213.70000000298,13823.5,18168.70000000298,24172.39999999851,31725.89999999851,39935.89999999851,45231.20000000298,50370.70000000298,55439,59814.10000000149,61715.5,65683.80000000447,74167.60000000149,76242.89999999851,83824.5,89048.10000000149,91832.39999999851,99808]","0.38461538461538464","0.4166666666666667","0","","","","","","","","","","","","","","","","","","","","","","","","","","","","",""
"3945","1751452270135","<p style='font-size:1.1em;line-height:1.25'>In the following, we will ask you a few questions relating to your experiences over the past month.<br></p><p style='font-size:1.1em;line-height:1.25'>Press the <strong>Next</strong> button to continue.</p>","0","custom-html-button-response","14","476179","0.0-7.0-4.0","171","1","2025-07-02 10:23:07","80fe4187154257d5fb01684ea91b68b9","197.184.91.93","Mozilla/5.0 (Windows NT 10.0; Win64; x64) AppleWebKit/537.36 (KHTML, like Gecko) Chrome/138.0.0.0 Safari/537.36","WebKit","Chrome","138.0.0.0","Windows","10.0","https://app.prolific.com/","en-GB,en-US;q=0.9,en;q=0.8","67215aa0a8e88c6751efc410","683db6dfa200031b80f2a654","6865078da54d2d0b55f4de66","67215aa0a8e88c6751efc410","2025-07-02T10:31:10.136Z","","","","","","","","","","","","","","","","","","","","","","","","","","","","","","","","","","","","","","","","","","","",""
"88454.80000000447","","","","survey-template","15","564641","0.0-7.0-5.0","171","1","2025-07-02 10:23:07","80fe4187154257d5fb01684ea91b68b9","197.184.91.93","Mozilla/5.0 (Windows NT 10.0; Win64; x64) AppleWebKit/537.36 (KHTML, like Gecko) Chrome/138.0.0.0 Safari/537.36","WebKit","Chrome","138.0.0.0","Windows","10.0","https://app.prolific.com/","en-GB,en-US;q=0.9,en;q=0.8","67215aa0a8e88c6751efc410","683db6dfa200031b80f2a654","6865078da54d2d0b55f4de66","67215aa0a8e88c6751efc410","2025-07-02T10:32:38.599Z","","","","","","pss","{""Q01"":""3"",""Q02"":""2"",""Q03"":""2"",""Q04"":""2"",""Q05"":""2"",""Q06"":""2"",""Q07"":""2"",""Q08"":""2"",""Q09"":""2"",""Q10"":""2""}","[0,1,2,3,4,5,6,7,8,9]","[""Q01"",""Q02"",""Q03"",""Q04"",""Q05"",""Q06"",""Q07"",""Q08"",""Q09"",""Q10""]","[11912.20000000298,22244.60000000149,26063.20000000298,38014.40000000596,44040.5,51356.80000000447,55936.10000000149,60361.10000000149,69408.60000000149,82007.20000000298]","[]","[0.4000000059604645,11912.20000000298,22244.60000000149,26063.20000000298,38014.40000000596,44040.5,51356.80000000447,55936.10000000149,60361.10000000149,69408.60000000149,82007.20000000298,88450.80000000447]","0.9","0.1111111111111111","0","","","","","","","","","","","","","","","","","","","","","","","","","","","","",""
"5991","1751452364592","<p style='font-size:1.1em;line-height:1.25'>Thank you for your answers! Now we will ask you a few more questions relating to your feelings in the last 24 hours.<br></p><p style='font-size:1.1em;line-height:1.25'>Press the <strong>Next</strong> button to continue.</p>","0","custom-html-button-response","16","570636","0.0-7.0-6.0","171","1","2025-07-02 10:23:07","80fe4187154257d5fb01684ea91b68b9","197.184.91.93","Mozilla/5.0 (Windows NT 10.0; Win64; x64) AppleWebKit/537.36 (KHTML, like Gecko) Chrome/138.0.0.0 Safari/537.36","WebKit","Chrome","138.0.0.0","Windows","10.0","https://app.prolific.com/","en-GB,en-US;q=0.9,en;q=0.8","67215aa0a8e88c6751efc410","683db6dfa200031b80f2a654","6865078da54d2d0b55f4de66","67215aa0a8e88c6751efc410","2025-07-02T10:32:44.593Z","","","","","","","","","","","","","","","","","","","","","","","","","","","","","","","","","","","","","","","","","","","",""
"104904.70000000298","","","","survey-template","17","675554","0.0-7.0-7.0","171","1","2025-07-02 10:23:07","80fe4187154257d5fb01684ea91b68b9","197.184.91.93","Mozilla/5.0 (Windows NT 10.0; Win64; x64) AppleWebKit/537.36 (KHTML, like Gecko) Chrome/138.0.0.0 Safari/537.36","WebKit","Chrome","138.0.0.0","Windows","10.0","https://app.prolific.com/","en-GB,en-US;q=0.9,en;q=0.8","67215aa0a8e88c6751efc410","683db6dfa200031b80f2a654","6865078da54d2d0b55f4de66","67215aa0a8e88c6751efc410","2025-07-02T10:34:29.511Z","","","","","","drsp","{""Q01"":""4"",""Q02"":""1"",""Q03"":""1"",""Q04"":""4"",""Q05"":""2"",""Q06"":""4"",""Q07"":""2"",""Q08"":""0"",""Q09"":""3"",""Q10"":""3"",""Q11"":""3"",""Q12"":""0"",""Q13"":""0"",""Q14"":""0"",""Q15"":""3"",""Q16"":""4"",""Q17"":""2"",""Q18"":""2"",""Q19"":""2"",""Q20"":""3"",""Q21"":""3""}","[0,1,2,3,4,5,6,7,8,9,10,11,12,13,14,15,16,17,18,19,20]","[""Q01"",""Q02"",""Q03"",""Q04"",""Q05"",""Q06"",""Q07"",""Q08"",""Q09"",""Q10"",""Q11"",""Q12"",""Q13"",""Q14"",""Q15"",""Q16"",""Q17"",""Q18"",""Q18"",""Q19"",""Q20"",""Q21""]","[4042,8631.89999999851,13399.5,17347.30000000447,22553.5,26998.10000000149,31192.39999999851,36675.89999999851,39320.89999999851,42681,47063.5,49467.60000000149,50648.20000000298,57886.5,61758.10000000149,64060,67130.5,71988.5,76532.89999999851,86689.80000000447,93469.80000000447,102686.5]","[]","[0.5,4042,8631.89999999851,13399.5,17347.30000000447,22553.5,26998.10000000149,31192.39999999851,36675.89999999851,39320.89999999851,42681,47063.5,49467.60000000149,50648.20000000298,57886.5,61758.10000000149,64060,67130.5,71988.5,76532.89999999851,86689.80000000447,93469.80000000447,102686.5,104895.5]","0.2857142857142857","0.1","0","","","","","","","","","","","","","","","","","","","","","","","","","","","","",""
"23072.10000000149","","","","survey-template","18","698630","0.0-7.0-8.0","171","1","2025-07-02 10:23:07","80fe4187154257d5fb01684ea91b68b9","197.184.91.93","Mozilla/5.0 (Windows NT 10.0; Win64; x64) AppleWebKit/537.36 (KHTML, like Gecko) Chrome/138.0.0.0 Safari/537.36","WebKit","Chrome","138.0.0.0","Windows","10.0","https://app.prolific.com/","en-GB,en-US;q=0.9,en;q=0.8","67215aa0a8e88c6751efc410","683db6dfa200031b80f2a654","6865078da54d2d0b55f4de66","67215aa0a8e88c6751efc410","2025-07-02T10:34:52.587Z","","","","","","stress","{""Q01"":""4"",""Q02"":""4"",""Q03"":""2""}","[0,1,2]","[""Q01"",""Q02"",""Q03""]","[8806.30000000447,16163.10000000149,21411.70000000298]","[]","[8806.30000000447,16163.10000000149,21411.70000000298,23070.40000000596]","0.3333333333333333","0.5","0","","","","","","","","","","","","","","","","","","","","","","","","","","","","",""
"154842","","","","instructions","19","853476","0.0-8.0-0.0","171","1","2025-07-02 10:23:07","80fe4187154257d5fb01684ea91b68b9","197.184.91.93","Mozilla/5.0 (Windows NT 10.0; Win64; x64) AppleWebKit/537.36 (KHTML, like Gecko) Chrome/138.0.0.0 Safari/537.36","WebKit","Chrome","138.0.0.0","Windows","10.0","https://app.prolific.com/","en-GB,en-US;q=0.9,en;q=0.8","67215aa0a8e88c6751efc410","683db6dfa200031b80f2a654","6865078da54d2d0b55f4de66","67215aa0a8e88c6751efc410","","[{""page_index"":0,""viewing_time"":35464},{""page_index"":1,""viewing_time"":51953},{""page_index"":2,""viewing_time"":26903},{""page_index"":3,""viewing_time"":40521}]","","","","","","","","","","","","","","","","","","","","","","","","","","","","","","","","","","","","","","","","","","",""
"","","","","ctl-task-cpt","20","890196","0.0-8.0-1.0","171","1","2025-07-02 10:23:07","80fe4187154257d5fb01684ea91b68b9","197.184.91.93","Mozilla/5.0 (Windows NT 10.0; Win64; x64) AppleWebKit/537.36 (KHTML, like Gecko) Chrome/138.0.0.0 Safari/537.36","WebKit","Chrome","138.0.0.0","Windows","10.0","https://app.prolific.com/","en-GB,en-US;q=0.9,en;q=0.8","67215aa0a8e88c6751efc410","683db6dfa200031b80f2a654","6865078da54d2d0b55f4de66","67215aa0a8e88c6751efc410","","","","","","","","","","","","","","","","","win-only","2","g1:SE,g2:NW","1","0","1","860389.8","6901.4","10918.7","33697.8","2","4","4","6","1","2","-3","0","0","0","4017.2","4000","75","[""down"",""right""]","{""num_key_presses"":10,""num_perfect"":4,""num_errors"":5,""num_randdir"":0,""num_randdir_good_moves"":0,""num_whilered"":1,""num_whileblue"":0,""num_blue"":1,""num_good_moves"":4}","[296.22232142857143,295.12857142857143,6.4,296.22232142857143,295.12857142857143,103.8,296.22232142857143,295.12857142857143,206.1,296.22232142857143,295.12857142857143,320.1,296.22232142857143,295.12857142857143,420.9,296.22232142857143,295.12857142857143,520.9,310.22232142857143,308.12857142857143,629.9,327.22232142857143,322.12857142857143,731,341.22232142857143,336.12857142857143,832,341.22232142857143,336.12857142857143,937.9,341.22232142857143,336.12857142857143,1042.5,345.22232142857143,347.12857142857143,1151.4,345.22232142857143,347.12857142857143,1252.1,345.22232142857143,347.12857142857143,1354.4,345.22232142857143,347.12857142857143,1455.3,345.22232142857143,347.12857142857143,1562.9,345.22232142857143,347.12857142857143,1666.1,345.22232142857143,347.12857142857143,1771.9,345.22232142857143,347.12857142857143,1873.1,345.22232142857143,347.12857142857143,1975.4,345.22232142857143,347.12857142857143,2079,345.22232142857143,347.12857142857143,2179.6,345.22232142857143,347.12857142857143,2283.7,345.22232142857143,347.12857142857143,2392.5,345.22232142857143,347.12857142857143,2499.5,345.22232142857143,347.12857142857143,2609.2,345.22232142857143,347.12857142857143,2709.5,345.22232142857143,347.12857142857143,2812.2,345.22232142857143,347.12857142857143,2920.2,345.22232142857143,347.12857142857143,3021.9,345.22232142857143,347.12857142857143,3125,345.22232142857143,347.12857142857143,3237.2,345.22232142857143,347.12857142857143,3341.2,345.22232142857143,347.12857142857143,3449.3,345.22232142857143,347.12857142857143,3549.5,345.22232142857143,347.12857142857143,3650.3,345.22232142857143,347.12857142857143,3750.6,345.22232142857143,347.12857142857143,3851.7,345.22232142857143,347.12857142857143,3954.5]","[3430.3,3430.4,1000,0,2430.4,""smooth"",""right"",""right"",""good_move"",3952.7,519.3,2566.2,3433.5,-2047,""error"",""-"",""-"",""no_move"",4502.4,548.2,2566.2,3433.5,-1497.3,""while_red"",""-"",""-"",""no_move"",5550.2,1596,2453.5,4958,-1861.3,""error"",""-"",""-"",""no_move"",9981,4429.4,2867.6,6552.1,561.3,""smooth"",""down"",""down"",""good_move"",10362.4,380.1,2843.3,9982.3,-2463.2,""error"",""-"",""-"",""no_move"",18664.6,8295.8,2540.7,15722.3,401.6,""smooth"",""down"",""down"",""good_move"",18981.4,315.1,2573.6,18666.4,-2258.6,""error"",""-"",""-"",""no_move"",22650,3667.5,1542,19988.5,1119.5,""smooth"",""right"",""right"",""good_move"",22698.7,47.3,2207.4,22651.5,-2160.2,""error"",""-"",""-"",""no_move""]","",""
"28849","","","","instructions","21","919046","0.0-8.0-2.0","171","1","2025-07-02 10:23:07","80fe4187154257d5fb01684ea91b68b9","197.184.91.93","Mozilla/5.0 (Windows NT 10.0; Win64; x64) AppleWebKit/537.36 (KHTML, like Gecko) Chrome/138.0.0.0 Safari/537.36","WebKit","Chrome","138.0.0.0","Windows","10.0","https://app.prolific.com/","en-GB,en-US;q=0.9,en;q=0.8","67215aa0a8e88c6751efc410","683db6dfa200031b80f2a654","6865078da54d2d0b55f4de66","67215aa0a8e88c6751efc410","","[{""page_index"":0,""viewing_time"":28848}]","","","","","","","","","","","","","","","","","","","","","","","","","","","","","","","","","","","","","","","","","","",""
"","","","","ctl-task-cpt","22","963174","0.0-8.0-3.0","171","1","2025-07-02 10:23:07","80fe4187154257d5fb01684ea91b68b9","197.184.91.93","Mozilla/5.0 (Windows NT 10.0; Win64; x64) AppleWebKit/537.36 (KHTML, like Gecko) Chrome/138.0.0.0 Safari/537.36","WebKit","Chrome","138.0.0.0","Windows","10.0","https://app.prolific.com/","en-GB,en-US;q=0.9,en;q=0.8","67215aa0a8e88c6751efc410","683db6dfa200031b80f2a654","6865078da54d2d0b55f4de66","67215aa0a8e88c6751efc410","","","","","","","","","","","","","","","","","win-only","2","g1:SE,g2:NW","0.35","0","3","925947.4","3655.7","7661","41111.8","2","4","8","6","2","8","8","8","0","0.06060606060606061","4005.3","4000","1170","[""left"",""up""]","{""num_key_presses"":8,""num_perfect"":4,""num_errors"":0,""num_randdir"":4,""num_randdir_good_moves"":3,""num_whilered"":0,""num_whileblue"":0,""num_blue"":3,""num_good_moves"":7}","[296.22232142857143,294.12857142857143,3.2,296.22232142857143,294.12857142857143,113.9,296.22232142857143,294.12857142857143,221.4,296.22232142857143,294.12857142857143,326.2,296.22232142857143,294.12857142857143,437.7,296.22232142857143,294.12857142857143,537.7,351.22232142857143,328.12857142857143,641.1,356.22232142857143,330.12857142857143,751.4,359.22232142857143,332.12857142857143,856.2,356.22232142857143,341.12857142857143,965.9,355.22232142857143,344.12857142857143,1077.5,355.22232142857143,344.12857142857143,1186.8,355.22232142857143,344.12857142857143,1293,355.22232142857143,344.12857142857143,1402.5,355.22232142857143,344.12857142857143,1506.6,355.22232142857143,344.12857142857143,1610.9,355.22232142857143,344.12857142857143,1715.7,355.22232142857143,344.12857142857143,1815.7,355.22232142857143,344.12857142857143,1925.1,355.22232142857143,344.12857142857143,2039.9,355.22232142857143,344.12857142857143,2141.1,355.22232142857143,344.12857142857143,2241.3,355.22232142857143,344.12857142857143,2341.3,355.22232142857143,344.12857142857143,2442,355.22232142857143,344.12857142857143,2553.3,355.22232142857143,344.12857142857143,2659.3,355.22232142857143,344.12857142857143,2760.4,355.22232142857143,344.12857142857143,2868.4,355.22232142857143,344.12857142857143,2973.1,355.22232142857143,344.12857142857143,3076.6,355.22232142857143,344.12857142857143,3176.7,355.22232142857143,344.12857142857143,3288.4,355.22232142857143,344.12857142857143,3389.4,355.22232142857143,344.12857142857143,3490.5,355.22232142857143,344.12857142857143,3591.7,355.22232142857143,344.12857142857143,3703.7,355.22232142857143,344.12857142857143,3804.8,355.22232142857143,344.12857142857143,3906.9]","[1419.6,1419.6,1000,0,419.6,""oops"",""up"",""up"",""good_move"",5217.5,3792.6,3250.8,1424.9,541.8,""smooth"",""left"",""left"",""good_move"",7661.2,2441.6,1963.8,5219.7,477.7,""smooth"",""up"",""up"",""good_move"",13912.5,6248.8,2562,10979.8,370.7,""oops"",""left"",""down"",""bad_move"",20311.7,6398,2650.3,17258.3,403.1,""oops"",""up"",""left"",""good_move"",23642.8,3328.8,2705.2,20314,623.6,""smooth"",""left"",""left"",""good_move"",30359.8,6712.4,2526.6,27457.3,376,""smooth"",""up"",""up"",""good_move"",33332.9,2972.2,2546.2,30360.9,425.8,""oops"",""up"",""up"",""good_move""]","",""
"70400","","","","instructions","23","1033575","0.0-8.0-4.0","171","1","2025-07-02 10:23:07","80fe4187154257d5fb01684ea91b68b9","197.184.91.93","Mozilla/5.0 (Windows NT 10.0; Win64; x64) AppleWebKit/537.36 (KHTML, like Gecko) Chrome/138.0.0.0 Safari/537.36","WebKit","Chrome","138.0.0.0","Windows","10.0","https://app.prolific.com/","en-GB,en-US;q=0.9,en;q=0.8","67215aa0a8e88c6751efc410","683db6dfa200031b80f2a654","6865078da54d2d0b55f4de66","67215aa0a8e88c6751efc410","","[{""page_index"":0,""viewing_time"":17799},{""page_index"":1,""viewing_time"":52599}]","","","","","","","","","","","","","","","","","","","","","","","","","","","","","","","","","","","","","","","","","","",""
"27616","","","{""green_ball"":[""Ball always moves in the direction I press"",""Ball sometimes shakes and moves in a random direction""]}","survey-multi-select","24","1061205","0.0-8.0-5.0-0.0","171","1","2025-07-02 10:23:07","80fe4187154257d5fb01684ea91b68b9","197.184.91.93","Mozilla/5.0 (Windows NT 10.0; Win64; x64) AppleWebKit/537.36 (KHTML, like Gecko) Chrome/138.0.0.0 Safari/537.36","WebKit","Chrome","138.0.0.0","Windows","10.0","https://app.prolific.com/","en-GB,en-US;q=0.9,en;q=0.8","67215aa0a8e88c6751efc410","683db6dfa200031b80f2a654","6865078da54d2d0b55f4de66","67215aa0a8e88c6751efc410","","","[0]","","","","quiz","","","","","","","","","","","","","","","","","","","","","","","","","","","","","","","","","","","","","false",""
"5306","","<p align='center'><b>INCORRECT.</b> Usually the green ball moves in the indicated direction, but sometimes it shakes and moves randomly. </p>","0","html-button-response","25","1066519","0.0-8.0-5.0-1.0","171","1","2025-07-02 10:23:07","80fe4187154257d5fb01684ea91b68b9","197.184.91.93","Mozilla/5.0 (Windows NT 10.0; Win64; x64) AppleWebKit/537.36 (KHTML, like Gecko) Chrome/138.0.0.0 Safari/537.36","WebKit","Chrome","138.0.0.0","Windows","10.0","https://app.prolific.com/","en-GB,en-US;q=0.9,en;q=0.8","67215aa0a8e88c6751efc410","683db6dfa200031b80f2a654","6865078da54d2d0b55f4de66","67215aa0a8e88c6751efc410","","","","","","","","","","","","","","","","","","","","","","","","","","","","","","","","","","","","","","","","","","","","",""
"27041","","","{""green_ball"":[""Ball always shakes and moves in a random direction"",""Ball always moves in the direction I press""]}","survey-multi-select","26","1093568","0.0-8.0-5.1-0.1","171","1","2025-07-02 10:23:07","80fe4187154257d5fb01684ea91b68b9","197.184.91.93","Mozilla/5.0 (Windows NT 10.0; Win64; x64) AppleWebKit/537.36 (KHTML, like Gecko) Chrome/138.0.0.0 Safari/537.36","WebKit","Chrome","138.0.0.0","Windows","10.0","https://app.prolific.com/","en-GB,en-US;q=0.9,en;q=0.8","67215aa0a8e88c6751efc410","683db6dfa200031b80f2a654","6865078da54d2d0b55f4de66","67215aa0a8e88c6751efc410","","","[0]","","","","quiz","","","","","","","","","","","","","","","","","","","","","","","","","","","","","","","","","","","","","false",""
"8624","","<p align='center'><b>INCORRECT.</b> Usually the green ball moves in the indicated direction, but sometimes it shakes and moves randomly. </p>","0","html-button-response","27","1102198","0.0-8.0-5.1-1.1","171","1","2025-07-02 10:23:07","80fe4187154257d5fb01684ea91b68b9","197.184.91.93","Mozilla/5.0 (Windows NT 10.0; Win64; x64) AppleWebKit/537.36 (KHTML, like Gecko) Chrome/138.0.0.0 Safari/537.36","WebKit","Chrome","138.0.0.0","Windows","10.0","https://app.prolific.com/","en-GB,en-US;q=0.9,en;q=0.8","67215aa0a8e88c6751efc410","683db6dfa200031b80f2a654","6865078da54d2d0b55f4de66","67215aa0a8e88c6751efc410","","","","","","","","","","","","","","","","","","","","","","","","","","","","","","","","","","","","","","","","","","","","",""
"8427","","","{""green_ball"":[""Ball always shakes and moves in a random direction"",""Ball always moves in the direction I press"",""Ball sometimes shakes and moves in a random direction""]}","survey-multi-select","28","1110630","0.0-8.0-5.2-0.2","171","1","2025-07-02 10:23:07","80fe4187154257d5fb01684ea91b68b9","197.184.91.93","Mozilla/5.0 (Windows NT 10.0; Win64; x64) AppleWebKit/537.36 (KHTML, like Gecko) Chrome/138.0.0.0 Safari/537.36","WebKit","Chrome","138.0.0.0","Windows","10.0","https://app.prolific.com/","en-GB,en-US;q=0.9,en;q=0.8","67215aa0a8e88c6751efc410","683db6dfa200031b80f2a654","6865078da54d2d0b55f4de66","67215aa0a8e88c6751efc410","","","[0]","","","","quiz","","","","","","","","","","","","","","","","","","","","","","","","","","","","","","","","","","","","","false",""
"2565","","<p align='center'><b>INCORRECT.</b> Usually the green ball moves in the indicated direction, but sometimes it shakes and moves randomly. </p>","0","html-button-response","29","1113199","0.0-8.0-5.2-1.2","171","1","2025-07-02 10:23:07","80fe4187154257d5fb01684ea91b68b9","197.184.91.93","Mozilla/5.0 (Windows NT 10.0; Win64; x64) AppleWebKit/537.36 (KHTML, like Gecko) Chrome/138.0.0.0 Safari/537.36","WebKit","Chrome","138.0.0.0","Windows","10.0","https://app.prolific.com/","en-GB,en-US;q=0.9,en;q=0.8","67215aa0a8e88c6751efc410","683db6dfa200031b80f2a654","6865078da54d2d0b55f4de66","67215aa0a8e88c6751efc410","","","","","","","","","","","","","","","","","","","","","","","","","","","","","","","","","","","","","","","","","","","","",""
"6408","","","{""green_ball"":[""Ball sometimes shakes and moves in a random direction""]}","survey-multi-select","30","1119613","0.0-8.0-5.3-0.3","171","1","2025-07-02 10:23:07","80fe4187154257d5fb01684ea91b68b9","197.184.91.93","Mozilla/5.0 (Windows NT 10.0; Win64; x64) AppleWebKit/537.36 (KHTML, like Gecko) Chrome/138.0.0.0 Safari/537.36","WebKit","Chrome","138.0.0.0","Windows","10.0","https://app.prolific.com/","en-GB,en-US;q=0.9,en;q=0.8","67215aa0a8e88c6751efc410","683db6dfa200031b80f2a654","6865078da54d2d0b55f4de66","67215aa0a8e88c6751efc410","","","[0]","","","","quiz","","","","","","","","","","","","","","","","","","","","","","","","","","","","","","","","","","","","","true",""
"8303","","<p align='center'><b>CORRECT!</b> Indeed, the green ball may sometimes shake and move in a random direction.</p>","0","html-button-response","31","1127919","0.0-8.0-5.3-1.3","171","1","2025-07-02 10:23:07","80fe4187154257d5fb01684ea91b68b9","197.184.91.93","Mozilla/5.0 (Windows NT 10.0; Win64; x64) AppleWebKit/537.36 (KHTML, like Gecko) Chrome/138.0.0.0 Safari/537.36","WebKit","Chrome","138.0.0.0","Windows","10.0","https://app.prolific.com/","en-GB,en-US;q=0.9,en;q=0.8","67215aa0a8e88c6751efc410","683db6dfa200031b80f2a654","6865078da54d2d0b55f4de66","67215aa0a8e88c6751efc410","","","","","","","","","","","","","","","","","","","","","","","","","","","","","","","","","","","","","","","","","","","","",""
"31304","","","{""yellow_ball"":[""Ball doesn‘t move and I get -1 penalty point""]}","survey-multi-select","32","1159230","0.0-8.0-6.0-0.0","171","1","2025-07-02 10:23:07","80fe4187154257d5fb01684ea91b68b9","197.184.91.93","Mozilla/5.0 (Windows NT 10.0; Win64; x64) AppleWebKit/537.36 (KHTML, like Gecko) Chrome/138.0.0.0 Safari/537.36","WebKit","Chrome","138.0.0.0","Windows","10.0","https://app.prolific.com/","en-GB,en-US;q=0.9,en;q=0.8","67215aa0a8e88c6751efc410","683db6dfa200031b80f2a654","6865078da54d2d0b55f4de66","67215aa0a8e88c6751efc410","","","[0]","","","","quiz","","","","","","","","","","","","","","","","","","","","","","","","","","","","","","","","","","","","","true",""
"7253","","<p align='center'><b>CORRECT!</b> Indeed, the yellow ball never moves and you receive a penalty.</p>","0","html-button-response","33","1166486","0.0-8.0-6.0-1.0","171","1","2025-07-02 10:23:07","80fe4187154257d5fb01684ea91b68b9","197.184.91.93","Mozilla/5.0 (Windows NT 10.0; Win64; x64) AppleWebKit/537.36 (KHTML, like Gecko) Chrome/138.0.0.0 Safari/537.36","WebKit","Chrome","138.0.0.0","Windows","10.0","https://app.prolific.com/","en-GB,en-US;q=0.9,en;q=0.8","67215aa0a8e88c6751efc410","683db6dfa200031b80f2a654","6865078da54d2d0b55f4de66","67215aa0a8e88c6751efc410","","","","","","","","","","","","","","","","","","","","","","","","","","","","","","","","","","","","","","","","","","","","",""
"14981","","","{""blue_ball"":[""Ball doesn‘t move and I get -1 penalty point""]}","survey-multi-select","34","1181471","0.0-8.0-7.0-0.0","171","1","2025-07-02 10:23:07","80fe4187154257d5fb01684ea91b68b9","197.184.91.93","Mozilla/5.0 (Windows NT 10.0; Win64; x64) AppleWebKit/537.36 (KHTML, like Gecko) Chrome/138.0.0.0 Safari/537.36","WebKit","Chrome","138.0.0.0","Windows","10.0","https://app.prolific.com/","en-GB,en-US;q=0.9,en;q=0.8","67215aa0a8e88c6751efc410","683db6dfa200031b80f2a654","6865078da54d2d0b55f4de66","67215aa0a8e88c6751efc410","","","[0]","","","","quiz","","","","","","","","","","","","","","","","","","","","","","","","","","","","","","","","","","","","","false",""
"2642","","<p align='center'><b>INCORRECT.</b> The blue ball always shakes and moves randomly.</p>","0","html-button-response","35","1184117","0.0-8.0-7.0-1.0","171","1","2025-07-02 10:23:07","80fe4187154257d5fb01684ea91b68b9","197.184.91.93","Mozilla/5.0 (Windows NT 10.0; Win64; x64) AppleWebKit/537.36 (KHTML, like Gecko) Chrome/138.0.0.0 Safari/537.36","WebKit","Chrome","138.0.0.0","Windows","10.0","https://app.prolific.com/","en-GB,en-US;q=0.9,en;q=0.8","67215aa0a8e88c6751efc410","683db6dfa200031b80f2a654","6865078da54d2d0b55f4de66","67215aa0a8e88c6751efc410","","","","","","","","","","","","","","","","","","","","","","","","","","","","","","","","","","","","","","","","","","","","",""
"6729","","","{""blue_ball"":[""Ball always shakes and moves in a random direction""]}","survey-multi-select","36","1190851","0.0-8.0-7.1-0.1","171","1","2025-07-02 10:23:07","80fe4187154257d5fb01684ea91b68b9","197.184.91.93","Mozilla/5.0 (Windows NT 10.0; Win64; x64) AppleWebKit/537.36 (KHTML, like Gecko) Chrome/138.0.0.0 Safari/537.36","WebKit","Chrome","138.0.0.0","Windows","10.0","https://app.prolific.com/","en-GB,en-US;q=0.9,en;q=0.8","67215aa0a8e88c6751efc410","683db6dfa200031b80f2a654","6865078da54d2d0b55f4de66","67215aa0a8e88c6751efc410","","","[0]","","","","quiz","","","","","","","","","","","","","","","","","","","","","","","","","","","","","","","","","","","","","true",""
"7167","","<p align='center'><b>CORRECT!</b> Indeed, the blue ball always shakes and moves in a random direction. Also there is a penalty of -1 point.</p>","0","html-button-response","37","1198021","0.0-8.0-7.1-1.1","171","1","2025-07-02 10:23:07","80fe4187154257d5fb01684ea91b68b9","197.184.91.93","Mozilla/5.0 (Windows NT 10.0; Win64; x64) AppleWebKit/537.36 (KHTML, like Gecko) Chrome/138.0.0.0 Safari/537.36","WebKit","Chrome","138.0.0.0","Windows","10.0","https://app.prolific.com/","en-GB,en-US;q=0.9,en;q=0.8","67215aa0a8e88c6751efc410","683db6dfa200031b80f2a654","6865078da54d2d0b55f4de66","67215aa0a8e88c6751efc410","","","","","","","","","","","","","","","","","","","","","","","","","","","","","","","","","","","","","","","","","","","","",""
"9009","","","{""bonus"":[""When I reach 50% of points""]}","survey-multi-select","38","1207036","0.0-8.0-8.0-0.0","171","1","2025-07-02 10:23:07","80fe4187154257d5fb01684ea91b68b9","197.184.91.93","Mozilla/5.0 (Windows NT 10.0; Win64; x64) AppleWebKit/537.36 (KHTML, like Gecko) Chrome/138.0.0.0 Safari/537.36","WebKit","Chrome","138.0.0.0","Windows","10.0","https://app.prolific.com/","en-GB,en-US;q=0.9,en;q=0.8","67215aa0a8e88c6751efc410","683db6dfa200031b80f2a654","6865078da54d2d0b55f4de66","67215aa0a8e88c6751efc410","","","[0]","","","","quiz","","","","","","","","","","","","","","","","","","","","","","","","","","","","","","","","","","","","","true",""
"3196","","<p align='center'><b>CORRECT!</b> Indeed, you receive 2 pounds extra when you reach 50% of points.</p>","0","html-button-response","39","1210240","0.0-8.0-8.0-1.0","171","1","2025-07-02 10:23:07","80fe4187154257d5fb01684ea91b68b9","197.184.91.93","Mozilla/5.0 (Windows NT 10.0; Win64; x64) AppleWebKit/537.36 (KHTML, like Gecko) Chrome/138.0.0.0 Safari/537.36","WebKit","Chrome","138.0.0.0","Windows","10.0","https://app.prolific.com/","en-GB,en-US;q=0.9,en;q=0.8","67215aa0a8e88c6751efc410","683db6dfa200031b80f2a654","6865078da54d2d0b55f4de66","67215aa0a8e88c6751efc410","","","","","","","","","","","","","","","","","","","","","","","","","","","","","","","","","","","","","","","","","","","","",""
"4915","","","","instructions","40","1215157","0.0-8.0-9.0","171","1","2025-07-02 10:23:07","80fe4187154257d5fb01684ea91b68b9","197.184.91.93","Mozilla/5.0 (Windows NT 10.0; Win64; x64) AppleWebKit/537.36 (KHTML, like Gecko) Chrome/138.0.0.0 Safari/537.36","WebKit","Chrome","138.0.0.0","Windows","10.0","https://app.prolific.com/","en-GB,en-US;q=0.9,en;q=0.8","67215aa0a8e88c6751efc410","683db6dfa200031b80f2a654","6865078da54d2d0b55f4de66","67215aa0a8e88c6751efc410","","[{""page_index"":0,""viewing_time"":4915}]","","","","","","","","","","","","","","","","","","","","","","","","","","","","","","","","","","","","","","","","","","",""
"32800","","<p>Before you start with this game please answer the following three questions yourself. </p>
  <p>Through this game, we measure several aspects of your cognitive performance, such as reaction times, multi-tasking capabilities </p>
  <p>and the ability to assess the situation you are in.</p>
  <p></p>
  <p><b>How good do you usually are in such tasks?</b></p>","84","html-slider-response","41","1247972","0.0-9.0-0.0","171","1","2025-07-02 10:23:07","80fe4187154257d5fb01684ea91b68b9","197.184.91.93","Mozilla/5.0 (Windows NT 10.0; Win64; x64) AppleWebKit/537.36 (KHTML, like Gecko) Chrome/138.0.0.0 Safari/537.36","WebKit","Chrome","138.0.0.0","Windows","10.0","https://app.prolific.com/","en-GB,en-US;q=0.9,en;q=0.8","67215aa0a8e88c6751efc410","683db6dfa200031b80f2a654","6865078da54d2d0b55f4de66","67215aa0a8e88c6751efc410","2025-07-02T10:44:01.929Z","","","","","","PreSkillQ","","","","","","","","","","","","","","","","","","","","","","","","","","","","","","","","","","","","","","50"
"9880","","<div style=""width:500px;"">
  <p>How well do you think you will perform in this task compared to other participants?</p>
  </div>","79","html-slider-response","42","1257856","0.0-9.0-1.0","171","1","2025-07-02 10:23:07","80fe4187154257d5fb01684ea91b68b9","197.184.91.93","Mozilla/5.0 (Windows NT 10.0; Win64; x64) AppleWebKit/537.36 (KHTML, like Gecko) Chrome/138.0.0.0 Safari/537.36","WebKit","Chrome","138.0.0.0","Windows","10.0","https://app.prolific.com/","en-GB,en-US;q=0.9,en;q=0.8","67215aa0a8e88c6751efc410","683db6dfa200031b80f2a654","6865078da54d2d0b55f4de66","67215aa0a8e88c6751efc410","2025-07-02T10:44:11.814Z","","","","","","PrePerfQ","","","","","","","","","","","","","","","","","","","","","","","","","","","","","","","","","","","","","","50"
"15394","","<div style=""width:500px;"">
  <p>What best describes how you currently feel?</p>
  </div>","51","html-slider-response","43","1273254","0.0-9.0-2.0","171","1","2025-07-02 10:23:07","80fe4187154257d5fb01684ea91b68b9","197.184.91.93","Mozilla/5.0 (Windows NT 10.0; Win64; x64) AppleWebKit/537.36 (KHTML, like Gecko) Chrome/138.0.0.0 Safari/537.36","WebKit","Chrome","138.0.0.0","Windows","10.0","https://app.prolific.com/","en-GB,en-US;q=0.9,en;q=0.8","67215aa0a8e88c6751efc410","683db6dfa200031b80f2a654","6865078da54d2d0b55f4de66","67215aa0a8e88c6751efc410","2025-07-02T10:44:27.212Z","","","","","","PreMotivationQ","","","","","","","","","","","","","","","","","","","","","","","","","","","","","","","","","","","","","","50"
"","","","","ctl-task-cpt","44","1305963","0.0-10.0-0.0","171","1","2025-07-02 10:23:07","80fe4187154257d5fb01684ea91b68b9","197.184.91.93","Mozilla/5.0 (Windows NT 10.0; Win64; x64) AppleWebKit/537.36 (KHTML, like Gecko) Chrome/138.0.0.0 Safari/537.36","WebKit","Chrome","138.0.0.0","Windows","10.0","https://app.prolific.com/","en-GB,en-US;q=0.9,en;q=0.8","67215aa0a8e88c6751efc410","683db6dfa200031b80f2a654","6865078da54d2d0b55f4de66","67215aa0a8e88c6751efc410","2025-07-02T10:44:59.920Z","","","","","","","","","","","","","","","","win-only","2","g1:SE,g2:NW","1","1","0","1280155.8","4581.9","9585.1","29693.2","1","4","8","6","2","8","8","8","0","0.06060606060606061","5003.2","3000","1410","[""left"",""up""]","{""num_key_presses"":6,""num_perfect"":6,""num_errors"":0,""num_randdir"":0,""num_randdir_good_moves"":0,""num_whilered"":0,""num_whileblue"":0,""num_blue"":1,""num_good_moves"":6}","[299.22232142857143,295.12857142857143,1.2,299.22232142857143,295.12857142857143,100.5,299.22232142857143,295.12857142857143,203.1,299.22232142857143,295.12857142857143,305.1,299.22232142857143,295.12857142857143,405.9,299.22232142857143,295.12857142857143,511.1,299.22232142857143,295.12857142857143,620.1,299.22232142857143,295.12857142857143,720.6,299.22232142857143,295.12857142857143,826.8,299.22232142857143,295.12857142857143,930.1,299.22232142857143,295.12857142857143,1032.4,299.22232142857143,295.12857142857143,1134,299.22232142857143,295.12857142857143,1235.5,299.22232142857143,295.12857142857143,1335.9,299.22232142857143,295.12857142857143,1445.6,299.22232142857143,295.12857142857143,1551,299.22232142857143,295.12857142857143,1652,299.22232142857143,295.12857142857143,1754.8,299.22232142857143,295.12857142857143,1855.4,299.22232142857143,295.12857142857143,1955.5,299.22232142857143,295.12857142857143,2056.4,299.22232142857143,295.12857142857143,2161.1,299.22232142857143,295.12857142857143,2262,299.22232142857143,295.12857142857143,2371.7,299.22232142857143,295.12857142857143,2478.2,299.22232142857143,295.12857142857143,2581.1,299.22232142857143,295.12857142857143,2695.2,299.22232142857143,295.12857142857143,2795.5,299.22232142857143,295.12857142857143,2897.4,299.22232142857143,295.12857142857143,3001,299.22232142857143,295.12857142857143,3101.2,299.22232142857143,295.12857142857143,3204.7,299.22232142857143,295.12857142857143,3314.3,299.22232142857143,295.12857142857143,3416.7,299.22232142857143,295.12857142857143,3523.7,299.22232142857143,295.12857142857143,3623.8,299.22232142857143,295.12857142857143,3735.7,299.22232142857143,295.12857142857143,3844.2,299.22232142857143,295.12857142857143,3950.8,299.22232142857143,295.12857142857143,4050.8,299.22232142857143,295.12857142857143,4161.1,299.22232142857143,295.12857142857143,4262.4,299.22232142857143,295.12857142857143,4366.5,299.22232142857143,295.12857142857143,4480.4,299.22232142857143,295.12857142857143,4588.7,299.22232142857143,295.12857142857143,4690.1,299.22232142857143,295.12857142857143,4804.4,299.22232142857143,295.12857142857143,4915.4]","[1397.8,1397.8,1000,0,397.8,""smooth"",""left"",""left"",""good_move"",4586.8,3177.7,2643.3,1409.1,534.4,""smooth"",""up"",""up"",""good_move"",7770.4,3177.4,2786.5,4593,390.9,""smooth"",""left"",""left"",""good_move"",10617.4,2840,2506.1,7777.5,333.8,""smooth"",""up"",""up"",""good_move"",14202.2,3583.5,3261.4,10618.9,321.9,""smooth"",""up"",""up"",""good_move"",19968.9,5762.8,2379.1,17236.6,353.2,""smooth"",""left"",""left"",""good_move""]","",""
"6983","","<div style=""width:500px;"">
  <p>What determined the result of this run?</p>
  </div>","100","html-slider-response","45","1312952","0.0-10.0-1.0","171","1","2025-07-02 10:23:07","80fe4187154257d5fb01684ea91b68b9","197.184.91.93","Mozilla/5.0 (Windows NT 10.0; Win64; x64) AppleWebKit/537.36 (KHTML, like Gecko) Chrome/138.0.0.0 Safari/537.36","WebKit","Chrome","138.0.0.0","Windows","10.0","https://app.prolific.com/","en-GB,en-US;q=0.9,en;q=0.8","67215aa0a8e88c6751efc410","683db6dfa200031b80f2a654","6865078da54d2d0b55f4de66","67215aa0a8e88c6751efc410","2025-07-02T10:45:06.909Z","","","","","","AttribQ","","","","","","","","","","","","","","","","","","","","","","","","","","","","","","","","","","","","","","50"
"7536","","<div style=""width:500px;"">
  <p>How much control did you have over the ball?</p>
  </div>","100","html-slider-response","46","1320491","0.0-10.0-2.0","171","1","2025-07-02 10:23:07","80fe4187154257d5fb01684ea91b68b9","197.184.91.93","Mozilla/5.0 (Windows NT 10.0; Win64; x64) AppleWebKit/537.36 (KHTML, like Gecko) Chrome/138.0.0.0 Safari/537.36","WebKit","Chrome","138.0.0.0","Windows","10.0","https://app.prolific.com/","en-GB,en-US;q=0.9,en;q=0.8","67215aa0a8e88c6751efc410","683db6dfa200031b80f2a654","6865078da54d2d0b55f4de66","67215aa0a8e88c6751efc410","2025-07-02T10:45:14.448Z","","","","","","ControlQ","","","","","","","","","","","","","","","","","","","","","","","","","","","","","","","","","","","","","","50"
"8898","","<div style=""width:500px;"">
  <p>How would you describe your current emotional state?</p>
  </div>","38","html-slider-response","47","1329393","0.0-10.0-3.0","171","1","2025-07-02 10:23:07","80fe4187154257d5fb01684ea91b68b9","197.184.91.93","Mozilla/5.0 (Windows NT 10.0; Win64; x64) AppleWebKit/537.36 (KHTML, like Gecko) Chrome/138.0.0.0 Safari/537.36","WebKit","Chrome","138.0.0.0","Windows","10.0","https://app.prolific.com/","en-GB,en-US;q=0.9,en;q=0.8","67215aa0a8e88c6751efc410","683db6dfa200031b80f2a654","6865078da54d2d0b55f4de66","67215aa0a8e88c6751efc410","2025-07-02T10:45:23.351Z","","","","","","StressQ","","","","","","","","","","","","","","","","","","","","","","","","","","","","","","","","","","","","","","50"
"10145","","<div style=""width:500px;"">
  <p>What best describes how you currently feel?</p>
  </div>","54","html-slider-response","48","1339543","0.0-10.0-4.0","171","1","2025-07-02 10:23:07","80fe4187154257d5fb01684ea91b68b9","197.184.91.93","Mozilla/5.0 (Windows NT 10.0; Win64; x64) AppleWebKit/537.36 (KHTML, like Gecko) Chrome/138.0.0.0 Safari/537.36","WebKit","Chrome","138.0.0.0","Windows","10.0","https://app.prolific.com/","en-GB,en-US;q=0.9,en;q=0.8","67215aa0a8e88c6751efc410","683db6dfa200031b80f2a654","6865078da54d2d0b55f4de66","67215aa0a8e88c6751efc410","2025-07-02T10:45:33.500Z","","","","","","MotivationQ","","","","","","","","","","","","","","","","","","","","","","","","","","","","","","","","","","","","","","50"
"","","","","ctl-task-cpt","49","1371290","0.0-10.0-0.1","171","1","2025-07-02 10:23:07","80fe4187154257d5fb01684ea91b68b9","197.184.91.93","Mozilla/5.0 (Windows NT 10.0; Win64; x64) AppleWebKit/537.36 (KHTML, like Gecko) Chrome/138.0.0.0 Safari/537.36","WebKit","Chrome","138.0.0.0","Windows","10.0","https://app.prolific.com/","en-GB,en-US;q=0.9,en;q=0.8","67215aa0a8e88c6751efc410","683db6dfa200031b80f2a654","6865078da54d2d0b55f4de66","67215aa0a8e88c6751efc410","2025-07-02T10:46:05.247Z","","","","","","","","","","","","","","","","win-only","1","g1:NE,g2:SW","0.9","2","0","1346444.1","2332.2","7334.9","28725.2","1","4","4","6","2","4","3","11","8","0.08333333333333333","5002.7","3000","825","[""down"",""left""]","{""num_key_presses"":8,""num_perfect"":7,""num_errors"":1,""num_randdir"":0,""num_randdir_good_moves"":0,""num_whilered"":0,""num_whileblue"":1,""num_blue"":1,""num_good_moves"":7}","[294.22232142857143,302.12857142857143,1.4,294.22232142857143,302.12857142857143,106.7,294.22232142857143,302.12857142857143,210.4,294.22232142857143,302.12857142857143,314.6,294.22232142857143,302.12857142857143,421.3,294.22232142857143,302.12857142857143,526.4,294.22232142857143,302.12857142857143,630.6,294.22232142857143,302.12857142857143,737.1,294.22232142857143,302.12857142857143,845,294.22232142857143,302.12857142857143,945.1,294.22232142857143,302.12857142857143,1051.5,294.22232142857143,302.12857142857143,1158.8,294.22232142857143,302.12857142857143,1264.4,294.22232142857143,302.12857142857143,1377.4,294.22232142857143,302.12857142857143,1478.5,294.22232142857143,302.12857142857143,1580.8,294.22232142857143,302.12857142857143,1689,294.22232142857143,302.12857142857143,1794.4,294.22232142857143,302.12857142857143,1898.5,294.22232142857143,302.12857142857143,2010.7,294.22232142857143,302.12857142857143,2114.2,294.22232142857143,302.12857142857143,2220.4,294.22232142857143,302.12857142857143,2321.6,294.22232142857143,302.12857142857143,2422.1,294.22232142857143,302.12857142857143,2530.6,294.22232142857143,302.12857142857143,2638.7,294.22232142857143,302.12857142857143,2744.2,294.22232142857143,302.12857142857143,2847,294.22232142857143,302.12857142857143,2954.3,294.22232142857143,302.12857142857143,3057.1,294.22232142857143,302.12857142857143,3172.7,294.22232142857143,302.12857142857143,3277.2,294.22232142857143,302.12857142857143,3380.5,294.22232142857143,302.12857142857143,3488.1,294.22232142857143,302.12857142857143,3588.7,294.22232142857143,302.12857142857143,3694.7,294.22232142857143,302.12857142857143,3797.3,294.22232142857143,302.12857142857143,3897.9,294.22232142857143,302.12857142857143,4003.9,294.22232142857143,302.12857142857143,4109.1,294.22232142857143,302.12857142857143,4210.7,294.22232142857143,302.12857142857143,4321.2,294.22232142857143,302.12857142857143,4427,294.22232142857143,302.12857142857143,4533.8,294.22232142857143,302.12857142857143,4644.1,294.22232142857143,302.12857142857143,4748,294.22232142857143,302.12857142857143,4853.3,294.22232142857143,302.12857142857143,4953.8]","[1525.7,1525.7,1000,0,525.7,""smooth"",""down"",""down"",""good_move"",3874.1,2346.7,1652,1527.5,694.7,""smooth"",""left"",""left"",""good_move"",7002.7,3114,2342.1,3888.7,771.9,""smooth"",""down"",""down"",""good_move"",10077,3072,2702.4,7005,369.6,""smooth"",""left"",""left"",""good_move"",13205.3,3124.1,2749.9,10081.2,374.2,""smooth"",""left"",""left"",""good_move"",15643.8,2434,2123.7,13209.8,310.3,""while_blue"",""down"",""up"",""bad_move"",18277.9,2627.9,2060.5,15650.1,567.4,""smooth"",""down"",""down"",""good_move"",21240.3,2953.4,2460,18286.9,493.4,""smooth"",""down"",""down"",""good_move""]","",""
"7946","","<div style=""width:500px;"">
  <p>What determined the result of this run?</p>
  </div>","100","html-slider-response","50","1379241","0.0-10.0-1.1","171","1","2025-07-02 10:23:07","80fe4187154257d5fb01684ea91b68b9","197.184.91.93","Mozilla/5.0 (Windows NT 10.0; Win64; x64) AppleWebKit/537.36 (KHTML, like Gecko) Chrome/138.0.0.0 Safari/537.36","WebKit","Chrome","138.0.0.0","Windows","10.0","https://app.prolific.com/","en-GB,en-US;q=0.9,en;q=0.8","67215aa0a8e88c6751efc410","683db6dfa200031b80f2a654","6865078da54d2d0b55f4de66","67215aa0a8e88c6751efc410","2025-07-02T10:46:13.199Z","","","","","","AttribQ","","","","","","","","","","","","","","","","","","","","","","","","","","","","","","","","","","","","","","50"
"7176","","<div style=""width:500px;"">
  <p>How much control did you have over the ball?</p>
  </div>","100","html-slider-response","51","1386421","0.0-10.0-2.1","171","1","2025-07-02 10:23:07","80fe4187154257d5fb01684ea91b68b9","197.184.91.93","Mozilla/5.0 (Windows NT 10.0; Win64; x64) AppleWebKit/537.36 (KHTML, like Gecko) Chrome/138.0.0.0 Safari/537.36","WebKit","Chrome","138.0.0.0","Windows","10.0","https://app.prolific.com/","en-GB,en-US;q=0.9,en;q=0.8","67215aa0a8e88c6751efc410","683db6dfa200031b80f2a654","6865078da54d2d0b55f4de66","67215aa0a8e88c6751efc410","2025-07-02T10:46:20.379Z","","","","","","ControlQ","","","","","","","","","","","","","","","","","","","","","","","","","","","","","","","","","","","","","","50"
"9241","","<div style=""width:500px;"">
  <p>How would you describe your current emotional state?</p>
  </div>","45","html-slider-response","52","1395665","0.0-10.0-3.1","171","1","2025-07-02 10:23:07","80fe4187154257d5fb01684ea91b68b9","197.184.91.93","Mozilla/5.0 (Windows NT 10.0; Win64; x64) AppleWebKit/537.36 (KHTML, like Gecko) Chrome/138.0.0.0 Safari/537.36","WebKit","Chrome","138.0.0.0","Windows","10.0","https://app.prolific.com/","en-GB,en-US;q=0.9,en;q=0.8","67215aa0a8e88c6751efc410","683db6dfa200031b80f2a654","6865078da54d2d0b55f4de66","67215aa0a8e88c6751efc410","2025-07-02T10:46:29.623Z","","","","","","StressQ","","","","","","","","","","","","","","","","","","","","","","","","","","","","","","","","","","","","","","50"
"6266","","<div style=""width:500px;"">
  <p>What best describes how you currently feel?</p>
  </div>","52","html-slider-response","53","1401935","0.0-10.0-4.1","171","1","2025-07-02 10:23:07","80fe4187154257d5fb01684ea91b68b9","197.184.91.93","Mozilla/5.0 (Windows NT 10.0; Win64; x64) AppleWebKit/537.36 (KHTML, like Gecko) Chrome/138.0.0.0 Safari/537.36","WebKit","Chrome","138.0.0.0","Windows","10.0","https://app.prolific.com/","en-GB,en-US;q=0.9,en;q=0.8","67215aa0a8e88c6751efc410","683db6dfa200031b80f2a654","6865078da54d2d0b55f4de66","67215aa0a8e88c6751efc410","2025-07-02T10:46:35.892Z","","","","","","MotivationQ","","","","","","","","","","","","","","","","","","","","","","","","","","","","","","","","","","","","","","50"
"","","","","ctl-task-cpt","54","1429088","0.0-10.0-0.2","171","1","2025-07-02 10:23:07","80fe4187154257d5fb01684ea91b68b9","197.184.91.93","Mozilla/5.0 (Windows NT 10.0; Win64; x64) AppleWebKit/537.36 (KHTML, like Gecko) Chrome/138.0.0.0 Safari/537.36","WebKit","Chrome","138.0.0.0","Windows","10.0","https://app.prolific.com/","en-GB,en-US;q=0.9,en;q=0.8","67215aa0a8e88c6751efc410","683db6dfa200031b80f2a654","6865078da54d2d0b55f4de66","67215aa0a8e88c6751efc410","2025-07-02T10:47:03.045Z","","","","","","","","","","","","","","","","win-only","0","g1:NW,g2:SE","0.8","3","0","1408833","5134.6","10148.8","24131.8","1","4","8","6","1","1","1","12","11","0.09090909090909091","5014.2","3000","2170","[""left"",""up""]","{""num_key_presses"":4,""num_perfect"":3,""num_errors"":0,""num_randdir"":1,""num_randdir_good_moves"":1,""num_whilered"":0,""num_whileblue"":0,""num_blue"":1,""num_good_moves"":4}","[298.22232142857143,297.12857142857143,10.6,298.22232142857143,297.12857142857143,103.3,298.22232142857143,297.12857142857143,203.4,298.22232142857143,297.12857142857143,308.4,298.22232142857143,297.12857142857143,415.7,298.22232142857143,297.12857142857143,528.9,299.22232142857143,301.12857142857143,643.7,482.22232142857143,429.12857142857143,748.7,522.2223214285714,483.12857142857143,863.2,529.2223214285714,498.12857142857143,967.9,541.2223214285714,525.1285714285714,1068.9,542.2223214285714,533.1285714285714,1169.7,542.2223214285714,533.1285714285714,1277.6,542.2223214285714,533.1285714285714,1378.5,542.2223214285714,533.1285714285714,1484.3,542.2223214285714,533.1285714285714,1585.4,542.2223214285714,533.1285714285714,1691.5,542.2223214285714,533.1285714285714,1800.1,542.2223214285714,533.1285714285714,1911.6,542.2223214285714,533.1285714285714,2020.5,542.2223214285714,533.1285714285714,2125,542.2223214285714,533.1285714285714,2228.2,542.2223214285714,533.1285714285714,2344.7,542.2223214285714,533.1285714285714,2446.6,542.2223214285714,533.1285714285714,2553.2,542.2223214285714,533.1285714285714,2664,542.2223214285714,533.1285714285714,2766.4,542.2223214285714,533.1285714285714,2869.8,542.2223214285714,533.1285714285714,2978.7,542.2223214285714,533.1285714285714,3083.2,542.2223214285714,533.1285714285714,3195.6,542.2223214285714,533.1285714285714,3307.6,542.2223214285714,533.1285714285714,3407.6,542.2223214285714,533.1285714285714,3509.8,542.2223214285714,533.1285714285714,3612.6,542.2223214285714,533.1285714285714,3714.9,542.2223214285714,533.1285714285714,3820.4,542.2223214285714,533.1285714285714,3930.2,542.2223214285714,533.1285714285714,4045.8,542.2223214285714,533.1285714285714,4150.5,542.2223214285714,533.1285714285714,4262.7,542.2223214285714,533.1285714285714,4368.1,542.2223214285714,533.1285714285714,4468.3,542.2223214285714,533.1285714285714,4582.6,542.2223214285714,533.1285714285714,4684.4,542.2223214285714,533.1285714285714,4796,542.2223214285714,533.1285714285714,4898.2]","[1497.4,1497.4,1000,0,497.4,""smooth"",""up"",""up"",""good_move"",8416.3,6915.7,2795.1,5215.8,405.4,""smooth"",""left"",""left"",""good_move"",11330.7,2889.5,2349.9,8441.4,539.5,""smooth"",""up"",""up"",""good_move"",13759.8,2427.1,1930.6,11332.8,496.5,""oops"",""left"",""left"",""good_move""]","",""
"8899","","<div style=""width:500px;"">
  <p>What determined the result of this run?</p>
  </div>","94","html-slider-response","55","1437991","0.0-10.0-1.2","171","1","2025-07-02 10:23:07","80fe4187154257d5fb01684ea91b68b9","197.184.91.93","Mozilla/5.0 (Windows NT 10.0; Win64; x64) AppleWebKit/537.36 (KHTML, like Gecko) Chrome/138.0.0.0 Safari/537.36","WebKit","Chrome","138.0.0.0","Windows","10.0","https://app.prolific.com/","en-GB,en-US;q=0.9,en;q=0.8","67215aa0a8e88c6751efc410","683db6dfa200031b80f2a654","6865078da54d2d0b55f4de66","67215aa0a8e88c6751efc410","2025-07-02T10:47:11.948Z","","","","","","AttribQ","","","","","","","","","","","","","","","","","","","","","","","","","","","","","","","","","","","","","","50"
"11182","","<div style=""width:500px;"">
  <p>How much control did you have over the ball?</p>
  </div>","93","html-slider-response","56","1449179","0.0-10.0-2.2","171","1","2025-07-02 10:23:07","80fe4187154257d5fb01684ea91b68b9","197.184.91.93","Mozilla/5.0 (Windows NT 10.0; Win64; x64) AppleWebKit/537.36 (KHTML, like Gecko) Chrome/138.0.0.0 Safari/537.36","WebKit","Chrome","138.0.0.0","Windows","10.0","https://app.prolific.com/","en-GB,en-US;q=0.9,en;q=0.8","67215aa0a8e88c6751efc410","683db6dfa200031b80f2a654","6865078da54d2d0b55f4de66","67215aa0a8e88c6751efc410","2025-07-02T10:47:23.136Z","","","","","","ControlQ","","","","","","","","","","","","","","","","","","","","","","","","","","","","","","","","","","","","","","50"
"5174","","<div style=""width:500px;"">
  <p>How would you describe your current emotional state?</p>
  </div>","45","html-slider-response","57","1454361","0.0-10.0-3.2","171","1","2025-07-02 10:23:07","80fe4187154257d5fb01684ea91b68b9","197.184.91.93","Mozilla/5.0 (Windows NT 10.0; Win64; x64) AppleWebKit/537.36 (KHTML, like Gecko) Chrome/138.0.0.0 Safari/537.36","WebKit","Chrome","138.0.0.0","Windows","10.0","https://app.prolific.com/","en-GB,en-US;q=0.9,en;q=0.8","67215aa0a8e88c6751efc410","683db6dfa200031b80f2a654","6865078da54d2d0b55f4de66","67215aa0a8e88c6751efc410","2025-07-02T10:47:28.318Z","","","","","","StressQ","","","","","","","","","","","","","","","","","","","","","","","","","","","","","","","","","","","","","","50"
"10346","","<div style=""width:500px;"">
  <p>What best describes how you currently feel?</p>
  </div>","61","html-slider-response","58","1464712","0.0-10.0-4.2","171","1","2025-07-02 10:23:07","80fe4187154257d5fb01684ea91b68b9","197.184.91.93","Mozilla/5.0 (Windows NT 10.0; Win64; x64) AppleWebKit/537.36 (KHTML, like Gecko) Chrome/138.0.0.0 Safari/537.36","WebKit","Chrome","138.0.0.0","Windows","10.0","https://app.prolific.com/","en-GB,en-US;q=0.9,en;q=0.8","67215aa0a8e88c6751efc410","683db6dfa200031b80f2a654","6865078da54d2d0b55f4de66","67215aa0a8e88c6751efc410","2025-07-02T10:47:38.669Z","","","","","","MotivationQ","","","","","","","","","","","","","","","","","","","","","","","","","","","","","","","","","","","","","","50"
"","","","","ctl-task-cpt","59","1513666","0.0-10.0-0.3","171","1","2025-07-02 10:23:07","80fe4187154257d5fb01684ea91b68b9","197.184.91.93","Mozilla/5.0 (Windows NT 10.0; Win64; x64) AppleWebKit/537.36 (KHTML, like Gecko) Chrome/138.0.0.0 Safari/537.36","WebKit","Chrome","138.0.0.0","Windows","10.0","https://app.prolific.com/","en-GB,en-US;q=0.9,en;q=0.8","67215aa0a8e88c6751efc410","683db6dfa200031b80f2a654","6865078da54d2d0b55f4de66","67215aa0a8e88c6751efc410","2025-07-02T10:48:27.623Z","","","","","","","","","","","","","","","","win-only","0","g1:NW,g2:SE","0.7","4","0","1471613.3","1714.6","6718.5","45912.2","1","4","4","6","2","4","4","16","12","0.12121212121212122","3650.9","3000","1335","[""down"",""right""]","{""num_key_presses"":10,""num_perfect"":7,""num_errors"":0,""num_randdir"":3,""num_randdir_good_moves"":1,""num_whilered"":0,""num_whileblue"":0,""num_blue"":2,""num_good_moves"":8}","[297.22232142857143,298.12857142857143,1.1,297.22232142857143,298.12857142857143,104.4,297.22232142857143,298.12857142857143,210.4,297.22232142857143,298.12857142857143,314.4,297.22232142857143,298.12857142857143,430.2,297.22232142857143,298.12857142857143,539.2,297.22232142857143,298.12857142857143,644.1,297.22232142857143,298.12857142857143,749.8,297.22232142857143,298.12857142857143,851.3,399.22232142857143,349.12857142857143,954.8,497.22232142857143,451.12857142857143,1063.8,541.2223214285714,534.1285714285714,1173.3,545.2223214285714,577.1285714285714,1280.1,545.2223214285714,579.1285714285714,1383.2,547.2223214285714,571.1285714285714,1487.4,549.2223214285714,564.1285714285714,1598.1,550.2223214285714,563.1285714285714,1702.9,550.2223214285714,562.1285714285714,1814,550.2223214285714,562.1285714285714,1920.6,550.2223214285714,562.1285714285714,2031.5,550.2223214285714,562.1285714285714,2135.8,550.2223214285714,562.1285714285714,2246.7,550.2223214285714,554.1285714285714,2348.8,550.2223214285714,554.1285714285714,2452.9,579.2223214285714,525.1285714285714,2565.8,707.2223214285714,453.12857142857143,2671.4,712.2223214285714,444.12857142857143,2780,712.2223214285714,443.12857142857143,2884.8,712.2223214285714,443.12857142857143,2998.9,608.2223214285714,458.12857142857143,3112.7,549.2223214285714,479.12857142857143,3223.4,530.2223214285714,506.12857142857143,3338.6,530.2223214285714,510.12857142857143,3447.7,530.2223214285714,514.1285714285714,3553.5,530.2223214285714,514.1285714285714,3671.7,530.2223214285714,514.1285714285714,3773.4,530.2223214285714,514.1285714285714,3888.2,530.2223214285714,514.1285714285714,3989.6,530.2223214285714,514.1285714285714,4098,530.2223214285714,514.1285714285714,4204.8,531.2223214285714,518.1285714285714,4312,532.2223214285714,521.1285714285714,4414,532.2223214285714,522.1285714285714,4528.9,532.2223214285714,522.1285714285714,4638.6,532.2223214285714,524.1285714285714,4750.1,534.2223214285714,526.1285714285714,4850.8,534.2223214285714,527.1285714285714,4959.4]","[1411.8,1411.8,1000,0,411.8,""smooth"",""down"",""down"",""good_move"",4678.8,3264.5,2794.4,1414.3,470.1,""oops"",""right"",""down"",""good_move"",8325.9,3644.9,3177.6,4681,467.3,""smooth"",""right"",""right"",""good_move"",11379,3051.2,1540.8,8327.8,1510.4,""smooth"",""right"",""right"",""good_move"",14549.2,3168.6,2686.9,11380.6,481.7,""oops"",""down"",""up"",""bad_move"",17830.1,3274,2717.3,14556.1,556.7,""oops"",""down"",""left"",""bad_move"",22107.4,4273.9,3856,17833.5,417.9,""smooth"",""down"",""down"",""good_move"",32536.9,10427,3071.8,29010,455.1,""smooth"",""right"",""right"",""good_move"",36010.3,3471,2909.6,32539.4,561.3,""smooth"",""down"",""down"",""good_move"",38848.3,2832.9,2412.1,36015.4,420.8,""smooth"",""right"",""right"",""good_move""]","",""
"6861","","<div style=""width:500px;"">
  <p>What determined the result of this run?</p>
  </div>","95","html-slider-response","60","1520530","0.0-10.0-1.3","171","1","2025-07-02 10:23:07","80fe4187154257d5fb01684ea91b68b9","197.184.91.93","Mozilla/5.0 (Windows NT 10.0; Win64; x64) AppleWebKit/537.36 (KHTML, like Gecko) Chrome/138.0.0.0 Safari/537.36","WebKit","Chrome","138.0.0.0","Windows","10.0","https://app.prolific.com/","en-GB,en-US;q=0.9,en;q=0.8","67215aa0a8e88c6751efc410","683db6dfa200031b80f2a654","6865078da54d2d0b55f4de66","67215aa0a8e88c6751efc410","2025-07-02T10:48:34.488Z","","","","","","AttribQ","","","","","","","","","","","","","","","","","","","","","","","","","","","","","","","","","","","","","","50"
"8338","","<div style=""width:500px;"">
  <p>How much control did you have over the ball?</p>
  </div>","69","html-slider-response","61","1528873","0.0-10.0-2.3","171","1","2025-07-02 10:23:07","80fe4187154257d5fb01684ea91b68b9","197.184.91.93","Mozilla/5.0 (Windows NT 10.0; Win64; x64) AppleWebKit/537.36 (KHTML, like Gecko) Chrome/138.0.0.0 Safari/537.36","WebKit","Chrome","138.0.0.0","Windows","10.0","https://app.prolific.com/","en-GB,en-US;q=0.9,en;q=0.8","67215aa0a8e88c6751efc410","683db6dfa200031b80f2a654","6865078da54d2d0b55f4de66","67215aa0a8e88c6751efc410","2025-07-02T10:48:42.830Z","","","","","","ControlQ","","","","","","","","","","","","","","","","","","","","","","","","","","","","","","","","","","","","","","50"
"4498","","<div style=""width:500px;"">
  <p>How would you describe your current emotional state?</p>
  </div>","32","html-slider-response","62","1533375","0.0-10.0-3.3","171","1","2025-07-02 10:23:07","80fe4187154257d5fb01684ea91b68b9","197.184.91.93","Mozilla/5.0 (Windows NT 10.0; Win64; x64) AppleWebKit/537.36 (KHTML, like Gecko) Chrome/138.0.0.0 Safari/537.36","WebKit","Chrome","138.0.0.0","Windows","10.0","https://app.prolific.com/","en-GB,en-US;q=0.9,en;q=0.8","67215aa0a8e88c6751efc410","683db6dfa200031b80f2a654","6865078da54d2d0b55f4de66","67215aa0a8e88c6751efc410","2025-07-02T10:48:47.332Z","","","","","","StressQ","","","","","","","","","","","","","","","","","","","","","","","","","","","","","","","","","","","","","","50"
"4337","","<div style=""width:500px;"">
  <p>What best describes how you currently feel?</p>
  </div>","66","html-slider-response","63","1537716","0.0-10.0-4.3","171","1","2025-07-02 10:23:07","80fe4187154257d5fb01684ea91b68b9","197.184.91.93","Mozilla/5.0 (Windows NT 10.0; Win64; x64) AppleWebKit/537.36 (KHTML, like Gecko) Chrome/138.0.0.0 Safari/537.36","WebKit","Chrome","138.0.0.0","Windows","10.0","https://app.prolific.com/","en-GB,en-US;q=0.9,en;q=0.8","67215aa0a8e88c6751efc410","683db6dfa200031b80f2a654","6865078da54d2d0b55f4de66","67215aa0a8e88c6751efc410","2025-07-02T10:48:51.673Z","","","","","","MotivationQ","","","","","","","","","","","","","","","","","","","","","","","","","","","","","","","","","","","","","","50"
"","","","","ctl-task-cpt","64","1594659","0.0-10.0-0.4","171","1","2025-07-02 10:23:07","80fe4187154257d5fb01684ea91b68b9","197.184.91.93","Mozilla/5.0 (Windows NT 10.0; Win64; x64) AppleWebKit/537.36 (KHTML, like Gecko) Chrome/138.0.0.0 Safari/537.36","WebKit","Chrome","138.0.0.0","Windows","10.0","https://app.prolific.com/","en-GB,en-US;q=0.9,en;q=0.8","67215aa0a8e88c6751efc410","683db6dfa200031b80f2a654","6865078da54d2d0b55f4de66","67215aa0a8e88c6751efc410","2025-07-02T10:49:48.616Z","","","","","","","","","","","","","","","","win-only","1","g1:NE,g2:SW","0.6","5","0","1544618.5","1987.7","7000.4","53903.6","1","4","8","6","2","8","8","24","16","0.18181818181818182","1216.4","3000","1380","[""down"",""left""]","{""num_key_presses"":12,""num_perfect"":7,""num_errors"":0,""num_randdir"":5,""num_randdir_good_moves"":2,""num_whilered"":0,""num_whileblue"":0,""num_blue"":3,""num_good_moves"":9}","[304.22232142857143,301.12857142857143,1,304.22232142857143,301.12857142857143,106.7,304.22232142857143,301.12857142857143,207.4,304.22232142857143,301.12857142857143,314.8,304.22232142857143,301.12857142857143,424,258.22232142857143,334.12857142857143,532,211.22232142857143,412.12857142857143,632.8,186.22232142857143,466.12857142857143,733.8,152.22232142857143,507.12857142857143,846.4,99.22232142857143,527.1285714285714,949.6,70.22232142857143,537.1285714285714,1093.8,63.222321428571426,539.1285714285714,1201.5,63.222321428571426,539.1285714285714,1302.4,63.222321428571426,539.1285714285714,1415.4,63.222321428571426,539.1285714285714,1521.1,63.222321428571426,539.1285714285714,1622.2,68.22232142857143,539.1285714285714,1729.3,69.22232142857143,539.1285714285714,1836.1,69.22232142857143,539.1285714285714,1949.7,69.22232142857143,539.1285714285714,2053.5,69.22232142857143,539.1285714285714,2156.8,69.22232142857143,539.1285714285714,2277.5,69.22232142857143,539.1285714285714,2379.8,69.22232142857143,539.1285714285714,2484.1,69.22232142857143,539.1285714285714,2600,69.22232142857143,539.1285714285714,2703.4,69.22232142857143,539.1285714285714,2813.6,69.22232142857143,539.1285714285714,2915.2,69.22232142857143,539.1285714285714,3020.3,69.22232142857143,539.1285714285714,3134.9,69.22232142857143,539.1285714285714,3248.3,69.22232142857143,539.1285714285714,3353.2,69.22232142857143,539.1285714285714,3454.3,69.22232142857143,539.1285714285714,3556.1,69.22232142857143,539.1285714285714,3666.1,69.22232142857143,539.1285714285714,3767.4,69.22232142857143,539.1285714285714,3877.4,69.22232142857143,539.1285714285714,3981.9,69.22232142857143,539.1285714285714,4081.9,69.22232142857143,539.1285714285714,4194.1,69.22232142857143,539.1285714285714,4296.9,69.22232142857143,539.1285714285714,4405.9,69.22232142857143,539.1285714285714,4519.7,69.22232142857143,539.1285714285714,4624.7,69.22232142857143,539.1285714285714,4724.7,69.22232142857143,539.1285714285714,4835.6,69.22232142857143,539.1285714285714,4945.3]","[1409.3,1409.3,1000,0,409.3,""oops"",""down"",""up"",""bad_move"",4757.3,3330.2,2869.9,1427.2,460.2,""smooth"",""down"",""down"",""good_move"",10642.3,5881.1,2079.1,8083.8,479.4,""smooth"",""down"",""down"",""good_move"",17482.3,6838.8,2655.8,14427.5,399.1,""smooth"",""down"",""down"",""good_move"",20217.4,2733.3,2073.3,17484.2,659.9,""smooth"",""left"",""left"",""good_move"",24572,4351.7,1406.6,20220.3,2945.1,""oops"",""left"",""up"",""bad_move"",27949.6,3365.2,1615.9,24584.4,1749.3,""oops"",""left"",""up"",""bad_move"",31309.5,3358.1,2563.2,27951.6,794.7,""oops"",""left"",""left"",""good_move"",37683.4,6369.1,2053.8,35203.7,426,""smooth"",""left"",""left"",""good_move"",40953.3,3265.5,2288.4,37687.8,977.1,""smooth"",""down"",""down"",""good_move"",44036.2,3079.5,2645.3,40956.7,434.2,""smooth"",""down"",""down"",""good_move"",46597.7,2559.7,2126.1,44038,433.6,""oops"",""down"",""down"",""good_move""]","",""
"5525","","<div style=""width:500px;"">
  <p>What determined the result of this run?</p>
  </div>","93","html-slider-response","65","1600187","0.0-10.0-1.4","171","1","2025-07-02 10:23:07","80fe4187154257d5fb01684ea91b68b9","197.184.91.93","Mozilla/5.0 (Windows NT 10.0; Win64; x64) AppleWebKit/537.36 (KHTML, like Gecko) Chrome/138.0.0.0 Safari/537.36","WebKit","Chrome","138.0.0.0","Windows","10.0","https://app.prolific.com/","en-GB,en-US;q=0.9,en;q=0.8","67215aa0a8e88c6751efc410","683db6dfa200031b80f2a654","6865078da54d2d0b55f4de66","67215aa0a8e88c6751efc410","2025-07-02T10:49:54.144Z","","","","","","AttribQ","","","","","","","","","","","","","","","","","","","","","","","","","","","","","","","","","","","","","","50"
"8420","","<div style=""width:500px;"">
  <p>How much control did you have over the ball?</p>
  </div>","61","html-slider-response","66","1608612","0.0-10.0-2.4","171","1","2025-07-02 10:23:07","80fe4187154257d5fb01684ea91b68b9","197.184.91.93","Mozilla/5.0 (Windows NT 10.0; Win64; x64) AppleWebKit/537.36 (KHTML, like Gecko) Chrome/138.0.0.0 Safari/537.36","WebKit","Chrome","138.0.0.0","Windows","10.0","https://app.prolific.com/","en-GB,en-US;q=0.9,en;q=0.8","67215aa0a8e88c6751efc410","683db6dfa200031b80f2a654","6865078da54d2d0b55f4de66","67215aa0a8e88c6751efc410","2025-07-02T10:50:02.570Z","","","","","","ControlQ","","","","","","","","","","","","","","","","","","","","","","","","","","","","","","","","","","","","","","50"
"4311","","<div style=""width:500px;"">
  <p>How would you describe your current emotional state?</p>
  </div>","29","html-slider-response","67","1612928","0.0-10.0-3.4","171","1","2025-07-02 10:23:07","80fe4187154257d5fb01684ea91b68b9","197.184.91.93","Mozilla/5.0 (Windows NT 10.0; Win64; x64) AppleWebKit/537.36 (KHTML, like Gecko) Chrome/138.0.0.0 Safari/537.36","WebKit","Chrome","138.0.0.0","Windows","10.0","https://app.prolific.com/","en-GB,en-US;q=0.9,en;q=0.8","67215aa0a8e88c6751efc410","683db6dfa200031b80f2a654","6865078da54d2d0b55f4de66","67215aa0a8e88c6751efc410","2025-07-02T10:50:06.885Z","","","","","","StressQ","","","","","","","","","","","","","","","","","","","","","","","","","","","","","","","","","","","","","","50"
"4727","","<div style=""width:500px;"">
  <p>What best describes how you currently feel?</p>
  </div>","69","html-slider-response","68","1617659","0.0-10.0-4.4","171","1","2025-07-02 10:23:07","80fe4187154257d5fb01684ea91b68b9","197.184.91.93","Mozilla/5.0 (Windows NT 10.0; Win64; x64) AppleWebKit/537.36 (KHTML, like Gecko) Chrome/138.0.0.0 Safari/537.36","WebKit","Chrome","138.0.0.0","Windows","10.0","https://app.prolific.com/","en-GB,en-US;q=0.9,en;q=0.8","67215aa0a8e88c6751efc410","683db6dfa200031b80f2a654","6865078da54d2d0b55f4de66","67215aa0a8e88c6751efc410","2025-07-02T10:50:11.616Z","","","","","","MotivationQ","","","","","","","","","","","","","","","","","","","","","","","","","","","","","","","","","","","","","","50"
"","","","","ctl-task-cpt","69","1678660","0.0-10.0-0.5","171","1","2025-07-02 10:23:07","80fe4187154257d5fb01684ea91b68b9","197.184.91.93","Mozilla/5.0 (Windows NT 10.0; Win64; x64) AppleWebKit/537.36 (KHTML, like Gecko) Chrome/138.0.0.0 Safari/537.36","WebKit","Chrome","138.0.0.0","Windows","10.0","https://app.prolific.com/","en-GB,en-US;q=0.9,en;q=0.8","67215aa0a8e88c6751efc410","683db6dfa200031b80f2a654","6865078da54d2d0b55f4de66","67215aa0a8e88c6751efc410","2025-07-02T10:51:12.617Z","","","","","","","","","","","","","","","","win-only","2","g1:SE,g2:NW","0.5","6","0","1624558.2","1641.4","6647.7","57956.3","1","4","4","6","2","4","4","28","24","0.21212121212121213","1319.7","3000","1390","[""left"",""up""]","{""num_key_presses"":14,""num_perfect"":8,""num_errors"":0,""num_randdir"":6,""num_randdir_good_moves"":2,""num_whilered"":0,""num_whileblue"":0,""num_blue"":1,""num_good_moves"":10}","[295.22232142857143,301.12857142857143,1.9,295.22232142857143,301.12857142857143,115.2,295.22232142857143,301.12857142857143,221.5,295.22232142857143,301.12857142857143,332.8,295.22232142857143,301.12857142857143,442.2,295.22232142857143,301.12857142857143,554.9,270.22232142857143,272.12857142857143,669.3,182.22232142857143,179.12857142857143,787.4,106.22232142857143,111.12857142857143,902,111.22232142857143,98.12857142857143,1003.6,95.22232142857143,82.12857142857143,1109,79.22232142857143,76.12857142857143,1216.2,79.22232142857143,76.12857142857143,1342.6,79.22232142857143,76.12857142857143,1453.3,79.22232142857143,76.12857142857143,1565.9,79.22232142857143,76.12857142857143,1669.3,79.22232142857143,76.12857142857143,1776.3,79.22232142857143,76.12857142857143,1891.6,79.22232142857143,76.12857142857143,1997.7,79.22232142857143,76.12857142857143,2105.6,79.22232142857143,76.12857142857143,2222.7,79.22232142857143,76.12857142857143,2331.8,79.22232142857143,76.12857142857143,2451.8,79.22232142857143,76.12857142857143,2554.8,79.22232142857143,76.12857142857143,2664.2,79.22232142857143,76.12857142857143,2766.9,79.22232142857143,76.12857142857143,2884.5,79.22232142857143,76.12857142857143,2986.9,79.22232142857143,76.12857142857143,3087.1,79.22232142857143,76.12857142857143,3196.8,79.22232142857143,76.12857142857143,3299.2,79.22232142857143,76.12857142857143,3402.6,79.22232142857143,76.12857142857143,3505.2,79.22232142857143,76.12857142857143,3610.4,79.22232142857143,76.12857142857143,3715.8,79.22232142857143,76.12857142857143,3816.9,79.22232142857143,76.12857142857143,3931.8,79.22232142857143,76.12857142857143,4036,79.22232142857143,76.12857142857143,4140.5,79.22232142857143,76.12857142857143,4252.6,79.22232142857143,76.12857142857143,4366.9,79.22232142857143,76.12857142857143,4472,79.22232142857143,76.12857142857143,4584.2,79.22232142857143,76.12857142857143,4700.2,79.22232142857143,76.12857142857143,4807.5,79.22232142857143,76.12857142857143,4918.2]","[1497.2,1497.2,1000,0,497.2,""oops"",""up"",""right"",""bad_move"",4561,3051.1,2453.7,1509.9,597.4,""smooth"",""up"",""up"",""good_move"",8028,3464.5,2427.4,4563.5,1037.1,""smooth"",""up"",""up"",""good_move"",11829.9,3799.7,2385,8030.2,1414.7,""smooth"",""up"",""up"",""good_move"",15581.8,3750.3,2538,11831.5,1212.3,""oops"",""left"",""down"",""bad_move"",18829.4,3240.4,2862.3,15589,378.1,""smooth"",""left"",""left"",""good_move"",22046.3,3214.7,2864.4,18831.8,350.2,""oops"",""left"",""up"",""good_move"",25159.1,3097.7,2335.1,22061.4,762.6,""oops"",""left"",""right"",""bad_move"",28411.1,3248.7,2759.7,25162.4,489,""oops"",""left"",""right"",""bad_move"",31695.2,3281.8,2829.8,28413.4,452,""smooth"",""left"",""left"",""good_move"",35173.1,3474.2,2772,31698.9,702.3,""oops"",""left"",""left"",""good_move"",38793.3,3616.4,1685.1,35176.9,1931.3,""smooth"",""left"",""left"",""good_move"",45923.4,7125,2107.1,43401.7,414.6,""smooth"",""left"",""left"",""good_move"",50863.9,4924,3213.5,45939.9,1710.5,""smooth"",""left"",""left"",""good_move""]","",""
"7862","","<div style=""width:500px;"">
  <p>What determined the result of this run?</p>
  </div>","96","html-slider-response","70","1686525","0.0-10.0-1.5","171","1","2025-07-02 10:23:07","80fe4187154257d5fb01684ea91b68b9","197.184.91.93","Mozilla/5.0 (Windows NT 10.0; Win64; x64) AppleWebKit/537.36 (KHTML, like Gecko) Chrome/138.0.0.0 Safari/537.36","WebKit","Chrome","138.0.0.0","Windows","10.0","https://app.prolific.com/","en-GB,en-US;q=0.9,en;q=0.8","67215aa0a8e88c6751efc410","683db6dfa200031b80f2a654","6865078da54d2d0b55f4de66","67215aa0a8e88c6751efc410","2025-07-02T10:51:20.482Z","","","","","","AttribQ","","","","","","","","","","","","","","","","","","","","","","","","","","","","","","","","","","","","","","50"
"9519","","<div style=""width:500px;"">
  <p>How much control did you have over the ball?</p>
  </div>","61","html-slider-response","71","1696049","0.0-10.0-2.5","171","1","2025-07-02 10:23:07","80fe4187154257d5fb01684ea91b68b9","197.184.91.93","Mozilla/5.0 (Windows NT 10.0; Win64; x64) AppleWebKit/537.36 (KHTML, like Gecko) Chrome/138.0.0.0 Safari/537.36","WebKit","Chrome","138.0.0.0","Windows","10.0","https://app.prolific.com/","en-GB,en-US;q=0.9,en;q=0.8","67215aa0a8e88c6751efc410","683db6dfa200031b80f2a654","6865078da54d2d0b55f4de66","67215aa0a8e88c6751efc410","2025-07-02T10:51:30.006Z","","","","","","ControlQ","","","","","","","","","","","","","","","","","","","","","","","","","","","","","","","","","","","","","","50"
"6238","","<div style=""width:500px;"">
  <p>How would you describe your current emotional state?</p>
  </div>","30","html-slider-response","72","1702291","0.0-10.0-3.5","171","1","2025-07-02 10:23:07","80fe4187154257d5fb01684ea91b68b9","197.184.91.93","Mozilla/5.0 (Windows NT 10.0; Win64; x64) AppleWebKit/537.36 (KHTML, like Gecko) Chrome/138.0.0.0 Safari/537.36","WebKit","Chrome","138.0.0.0","Windows","10.0","https://app.prolific.com/","en-GB,en-US;q=0.9,en;q=0.8","67215aa0a8e88c6751efc410","683db6dfa200031b80f2a654","6865078da54d2d0b55f4de66","67215aa0a8e88c6751efc410","2025-07-02T10:51:36.248Z","","","","","","StressQ","","","","","","","","","","","","","","","","","","","","","","","","","","","","","","","","","","","","","","50"
"4441","","<div style=""width:500px;"">
  <p>What best describes how you currently feel?</p>
  </div>","66","html-slider-response","73","1706737","0.0-10.0-4.5","171","1","2025-07-02 10:23:07","80fe4187154257d5fb01684ea91b68b9","197.184.91.93","Mozilla/5.0 (Windows NT 10.0; Win64; x64) AppleWebKit/537.36 (KHTML, like Gecko) Chrome/138.0.0.0 Safari/537.36","WebKit","Chrome","138.0.0.0","Windows","10.0","https://app.prolific.com/","en-GB,en-US;q=0.9,en;q=0.8","67215aa0a8e88c6751efc410","683db6dfa200031b80f2a654","6865078da54d2d0b55f4de66","67215aa0a8e88c6751efc410","2025-07-02T10:51:40.694Z","","","","","","MotivationQ","","","","","","","","","","","","","","","","","","","","","","","","","","","","","","","","","","","","","","50"
"","","","","ctl-task-cpt","74","1790720","0.0-10.0-0.6","171","1","2025-07-02 10:23:07","80fe4187154257d5fb01684ea91b68b9","197.184.91.93","Mozilla/5.0 (Windows NT 10.0; Win64; x64) AppleWebKit/537.36 (KHTML, like Gecko) Chrome/138.0.0.0 Safari/537.36","WebKit","Chrome","138.0.0.0","Windows","10.0","https://app.prolific.com/","en-GB,en-US;q=0.9,en;q=0.8","67215aa0a8e88c6751efc410","683db6dfa200031b80f2a654","6865078da54d2d0b55f4de66","67215aa0a8e88c6751efc410","2025-07-02T10:53:04.677Z","","","","","","","","","","","","","","","","win-only","0","g1:NW,g2:SE","0.4","7","0","1713636.4","4090.9","9108.6","80954.5","1","4","8","6","2","8","8","36","28","0.2727272727272727","1232.2","3000","1395","[""down"",""right""]","{""num_key_presses"":12,""num_perfect"":6,""num_errors"":0,""num_randdir"":6,""num_randdir_good_moves"":3,""num_whilered"":0,""num_whileblue"":0,""num_blue"":9,""num_good_moves"":9}","[292.22232142857143,297.12857142857143,2,292.22232142857143,297.12857142857143,105.1,292.22232142857143,297.12857142857143,208.7,292.22232142857143,297.12857142857143,309.2,292.22232142857143,297.12857142857143,423,317.22232142857143,320.12857142857143,535.8,416.22232142857143,418.12857142857143,653.1,452.22232142857143,467.12857142857143,772.7,491.22232142857143,523.1285714285714,891.5,491.22232142857143,523.1285714285714,1000.6,530.2223214285714,521.1285714285714,1108.8,530.2223214285714,521.1285714285714,1209.6,530.2223214285714,521.1285714285714,1318,530.2223214285714,521.1285714285714,1429.9,530.2223214285714,521.1285714285714,1539.9,533.2223214285714,505.12857142857143,1663.7,536.2223214285714,504.12857142857143,1775.2,544.2223214285714,495.12857142857143,1883.2,545.2223214285714,495.12857142857143,1988,554.2223214285714,512.1285714285714,2103,571.2223214285714,538.1285714285714,2222.4,571.2223214285714,538.1285714285714,2338.2,571.2223214285714,538.1285714285714,2457.9,580.2223214285714,548.1285714285714,2573.5,580.2223214285714,549.1285714285714,2685.6,580.2223214285714,549.1285714285714,2804.8,580.2223214285714,549.1285714285714,2919.9,580.2223214285714,549.1285714285714,3020.2,580.2223214285714,549.1285714285714,3151.5,560.2223214285714,563.1285714285714,3281,554.2223214285714,567.1285714285714,3398.4,554.2223214285714,567.1285714285714,3508.8,554.2223214285714,567.1285714285714,3623.9,554.2223214285714,567.1285714285714,3738.7,554.2223214285714,567.1285714285714,3843.2,554.2223214285714,567.1285714285714,3958.1,554.2223214285714,567.1285714285714,4065.9,554.2223214285714,567.1285714285714,4183.5,554.2223214285714,567.1285714285714,4308.9,554.2223214285714,567.1285714285714,4419.5,554.2223214285714,567.1285714285714,4524.6,554.2223214285714,567.1285714285714,4633,554.2223214285714,567.1285714285714,4748.2,554.2223214285714,567.1285714285714,4858.6,554.2223214285714,567.1285714285714,4968.9]","[1546.9,1546.9,1000,0,547,""oops"",""right"",""up"",""bad_move"",5113,3553.2,3091.1,1559.8,462.6,""oops"",""right"",""left"",""bad_move"",8671.7,3555.2,2678.4,5116.5,876.8,""smooth"",""right"",""right"",""good_move"",19214.9,10530.1,2591.7,16154.7,468.5,""smooth"",""right"",""right"",""good_move"",22724.8,3493.5,2479,19231.3,1014.6,""oops"",""right"",""down"",""good_move"",25251.9,2501.4,1846.4,22750.5,655,""oops"",""right"",""right"",""good_move"",46493.3,21239.2,2417.9,43561.2,514.2,""smooth"",""right"",""right"",""good_move"",49722.6,3226.2,2497.4,46496.4,728.8,""oops"",""down"",""down"",""good_move"",53268.8,3540.9,2959.3,49727.9,581.6,""oops"",""down"",""up"",""bad_move"",58201.6,4930.5,2965.3,53271.1,1965.2,""smooth"",""down"",""down"",""good_move"",65334.4,7129.8,3143.4,61747.3,443.7,""smooth"",""down"",""down"",""good_move"",71449.7,6113.8,2488.4,68529.3,432,""smooth"",""down"",""down"",""good_move""]","",""
"5399","","<div style=""width:500px;"">
  <p>What determined the result of this run?</p>
  </div>","98","html-slider-response","75","1796121","0.0-10.0-1.6","171","1","2025-07-02 10:23:07","80fe4187154257d5fb01684ea91b68b9","197.184.91.93","Mozilla/5.0 (Windows NT 10.0; Win64; x64) AppleWebKit/537.36 (KHTML, like Gecko) Chrome/138.0.0.0 Safari/537.36","WebKit","Chrome","138.0.0.0","Windows","10.0","https://app.prolific.com/","en-GB,en-US;q=0.9,en;q=0.8","67215aa0a8e88c6751efc410","683db6dfa200031b80f2a654","6865078da54d2d0b55f4de66","67215aa0a8e88c6751efc410","2025-07-02T10:53:10.079Z","","","","","","AttribQ","","","","","","","","","","","","","","","","","","","","","","","","","","","","","","","","","","","","","","50"
"6357","","<div style=""width:500px;"">
  <p>How much control did you have over the ball?</p>
  </div>","61","html-slider-response","76","1802484","0.0-10.0-2.6","171","1","2025-07-02 10:23:07","80fe4187154257d5fb01684ea91b68b9","197.184.91.93","Mozilla/5.0 (Windows NT 10.0; Win64; x64) AppleWebKit/537.36 (KHTML, like Gecko) Chrome/138.0.0.0 Safari/537.36","WebKit","Chrome","138.0.0.0","Windows","10.0","https://app.prolific.com/","en-GB,en-US;q=0.9,en;q=0.8","67215aa0a8e88c6751efc410","683db6dfa200031b80f2a654","6865078da54d2d0b55f4de66","67215aa0a8e88c6751efc410","2025-07-02T10:53:16.441Z","","","","","","ControlQ","","","","","","","","","","","","","","","","","","","","","","","","","","","","","","","","","","","","","","50"
"4250","","<div style=""width:500px;"">
  <p>How would you describe your current emotional state?</p>
  </div>","27","html-slider-response","77","1806739","0.0-10.0-3.6","171","1","2025-07-02 10:23:07","80fe4187154257d5fb01684ea91b68b9","197.184.91.93","Mozilla/5.0 (Windows NT 10.0; Win64; x64) AppleWebKit/537.36 (KHTML, like Gecko) Chrome/138.0.0.0 Safari/537.36","WebKit","Chrome","138.0.0.0","Windows","10.0","https://app.prolific.com/","en-GB,en-US;q=0.9,en;q=0.8","67215aa0a8e88c6751efc410","683db6dfa200031b80f2a654","6865078da54d2d0b55f4de66","67215aa0a8e88c6751efc410","2025-07-02T10:53:20.696Z","","","","","","StressQ","","","","","","","","","","","","","","","","","","","","","","","","","","","","","","","","","","","","","","50"
"6888","","<div style=""width:500px;"">
  <p>What best describes how you currently feel?</p>
  </div>","68","html-slider-response","78","1813634","0.0-10.0-4.6","171","1","2025-07-02 10:23:07","80fe4187154257d5fb01684ea91b68b9","197.184.91.93","Mozilla/5.0 (Windows NT 10.0; Win64; x64) AppleWebKit/537.36 (KHTML, like Gecko) Chrome/138.0.0.0 Safari/537.36","WebKit","Chrome","138.0.0.0","Windows","10.0","https://app.prolific.com/","en-GB,en-US;q=0.9,en;q=0.8","67215aa0a8e88c6751efc410","683db6dfa200031b80f2a654","6865078da54d2d0b55f4de66","67215aa0a8e88c6751efc410","2025-07-02T10:53:27.591Z","","","","","","MotivationQ","","","","","","","","","","","","","","","","","","","","","","","","","","","","","","","","","","","","","","50"
"","","","","ctl-task-cpt","79","1955259","0.0-10.0-0.7","171","1","2025-07-02 10:23:07","80fe4187154257d5fb01684ea91b68b9","197.184.91.93","Mozilla/5.0 (Windows NT 10.0; Win64; x64) AppleWebKit/537.36 (KHTML, like Gecko) Chrome/138.0.0.0 Safari/537.36","WebKit","Chrome","138.0.0.0","Windows","10.0","https://app.prolific.com/","en-GB,en-US;q=0.9,en;q=0.8","67215aa0a8e88c6751efc410","683db6dfa200031b80f2a654","6865078da54d2d0b55f4de66","67215aa0a8e88c6751efc410","2025-07-02T10:55:49.216Z","","","","","","","","","","","","","","","","win-only","3","g1:SW,g2:NE","0.3","8","0","1820531.5","3661.4","8682.1","138586.1","1","4","4","6","2","4","4","40","36","0.30303030303030304","1178.9","3000","645","[""up"",""right""]","{""num_key_presses"":22,""num_perfect"":6,""num_errors"":0,""num_randdir"":16,""num_randdir_good_moves"":8,""num_whilered"":0,""num_whileblue"":0,""num_blue"":13,""num_good_moves"":14}","[298.22232142857143,291.12857142857143,15.6,298.22232142857143,291.12857142857143,127.9,298.22232142857143,291.12857142857143,242.2,298.22232142857143,291.12857142857143,347.2,298.22232142857143,291.12857142857143,447.5,298.22232142857143,291.12857142857143,556.3,378.22232142857143,237.12857142857143,656.3,506.22232142857143,47.128571428571426,770.1,510.22232142857143,22.128571428571426,880.1,518.2223214285714,31.128571428571426,988,573.2223214285714,64.12857142857143,1100.7,573.2223214285714,64.12857142857143,1206.2,573.2223214285714,64.12857142857143,1313.4,573.2223214285714,64.12857142857143,1419.9,573.2223214285714,64.12857142857143,1535.8,573.2223214285714,64.12857142857143,1659.4,573.2223214285714,64.12857142857143,1795.4,573.2223214285714,64.12857142857143,1919.4,573.2223214285714,64.12857142857143,2039.6,573.2223214285714,64.12857142857143,2155.2,573.2223214285714,64.12857142857143,2261.4,573.2223214285714,64.12857142857143,2365.7,573.2223214285714,64.12857142857143,2483.2,573.2223214285714,64.12857142857143,2598.5,573.2223214285714,64.12857142857143,2700.1,573.2223214285714,64.12857142857143,2815.4,573.2223214285714,64.12857142857143,2932,573.2223214285714,64.12857142857143,3043.9,573.2223214285714,64.12857142857143,3165.2,573.2223214285714,64.12857142857143,3278.3,573.2223214285714,64.12857142857143,3400.4,573.2223214285714,64.12857142857143,3516.1,573.2223214285714,64.12857142857143,3621.7,573.2223214285714,64.12857142857143,3742.2,573.2223214285714,64.12857142857143,3849.3,573.2223214285714,64.12857142857143,3979.5,573.2223214285714,64.12857142857143,4092.7,573.2223214285714,64.12857142857143,4195.3,573.2223214285714,64.12857142857143,4306.2,573.2223214285714,64.12857142857143,4413.1,573.2223214285714,64.12857142857143,4530.2,573.2223214285714,64.12857142857143,4642,573.2223214285714,64.12857142857143,4743.2,573.2223214285714,64.12857142857143,4855.6,573.2223214285714,64.12857142857143,4973.2]","[1511.2,1511.2,1000,0,511.3,""oops"",""up"",""down"",""bad_move"",11307.7,9793.2,2074.7,8767.2,465.8,""smooth"",""up"",""up"",""good_move"",16932.1,5622.8,3371.6,11309.3,2251.2,""oops"",""up"",""right"",""good_move"",19593.1,2658.5,1817.2,16934.6,841.3,""oops"",""up"",""right"",""good_move"",23180.3,3584.8,3077.1,19595.5,507.8,""oops"",""up"",""down"",""bad_move"",27061.2,3877,3296.3,23184.2,580.7,""smooth"",""up"",""up"",""good_move"",37118.2,10052.2,2983.1,33556.1,579.1,""oops"",""up"",""left"",""bad_move"",44112,6992.2,2630.4,37119.8,4361.8,""oops"",""up"",""right"",""good_move"",47246.4,3131.8,1825.9,44114.6,1305.9,""oops"",""up"",""right"",""good_move"",50112.4,2863.8,2266.2,47248.6,597.6,""smooth"",""up"",""up"",""good_move"",53625.7,3504.8,3022.7,50121,482.1,""oops"",""up"",""down"",""bad_move"",60251.5,6605.5,3238.6,56453.7,559.2,""oops"",""up"",""up"",""good_move"",72064.5,11810.2,2932.1,68650.9,481.5,""oops"",""up"",""left"",""bad_move"",75977,3896.5,3080.1,72080.5,816.4,""smooth"",""up"",""up"",""good_move"",83547.6,7567.9,2298.9,80777.9,470.8,""oops"",""right"",""up"",""good_move"",93921.3,10370.1,3136.5,90363.6,421.2,""oops"",""right"",""down"",""bad_move"",97141.4,3216.9,2509.3,93924.6,707.5,""smooth"",""right"",""right"",""good_move"",103784.5,6639.6,2495.6,100855.7,433.2,""oops"",""up"",""left"",""bad_move"",112019,8227.8,2921.6,108687.4,410,""oops"",""up"",""left"",""bad_move"",123248.4,11228.1,2197.8,120551.9,498.7,""smooth"",""up"",""up"",""good_move"",127080,3829.9,2261.2,123250.1,1568.7,""oops"",""right"",""right"",""good_move"",129334.4,2251.1,1771.3,127083.3,479.8,""oops"",""right"",""right"",""good_move""]","",""
"12762","","<div style=""width:500px;"">
  <p>What determined the result of this run?</p>
  </div>","68","html-slider-response","80","1968025","0.0-10.0-1.7","171","1","2025-07-02 10:23:07","80fe4187154257d5fb01684ea91b68b9","197.184.91.93","Mozilla/5.0 (Windows NT 10.0; Win64; x64) AppleWebKit/537.36 (KHTML, like Gecko) Chrome/138.0.0.0 Safari/537.36","WebKit","Chrome","138.0.0.0","Windows","10.0","https://app.prolific.com/","en-GB,en-US;q=0.9,en;q=0.8","67215aa0a8e88c6751efc410","683db6dfa200031b80f2a654","6865078da54d2d0b55f4de66","67215aa0a8e88c6751efc410","2025-07-02T10:56:01.982Z","","","","","","AttribQ","","","","","","","","","","","","","","","","","","","","","","","","","","","","","","","","","","","","","","50"
"5061","","<div style=""width:500px;"">
  <p>How much control did you have over the ball?</p>
  </div>","40","html-slider-response","81","1973090","0.0-10.0-2.7","171","1","2025-07-02 10:23:07","80fe4187154257d5fb01684ea91b68b9","197.184.91.93","Mozilla/5.0 (Windows NT 10.0; Win64; x64) AppleWebKit/537.36 (KHTML, like Gecko) Chrome/138.0.0.0 Safari/537.36","WebKit","Chrome","138.0.0.0","Windows","10.0","https://app.prolific.com/","en-GB,en-US;q=0.9,en;q=0.8","67215aa0a8e88c6751efc410","683db6dfa200031b80f2a654","6865078da54d2d0b55f4de66","67215aa0a8e88c6751efc410","2025-07-02T10:56:07.047Z","","","","","","ControlQ","","","","","","","","","","","","","","","","","","","","","","","","","","","","","","","","","","","","","","50"
"6730","","<div style=""width:500px;"">
  <p>How would you describe your current emotional state?</p>
  </div>","52","html-slider-response","82","1979825","0.0-10.0-3.7","171","1","2025-07-02 10:23:07","80fe4187154257d5fb01684ea91b68b9","197.184.91.93","Mozilla/5.0 (Windows NT 10.0; Win64; x64) AppleWebKit/537.36 (KHTML, like Gecko) Chrome/138.0.0.0 Safari/537.36","WebKit","Chrome","138.0.0.0","Windows","10.0","https://app.prolific.com/","en-GB,en-US;q=0.9,en;q=0.8","67215aa0a8e88c6751efc410","683db6dfa200031b80f2a654","6865078da54d2d0b55f4de66","67215aa0a8e88c6751efc410","2025-07-02T10:56:13.782Z","","","","","","StressQ","","","","","","","","","","","","","","","","","","","","","","","","","","","","","","","","","","","","","","50"
"4310","","<div style=""width:500px;"">
  <p>What best describes how you currently feel?</p>
  </div>","69","html-slider-response","83","1984140","0.0-10.0-4.7","171","1","2025-07-02 10:23:07","80fe4187154257d5fb01684ea91b68b9","197.184.91.93","Mozilla/5.0 (Windows NT 10.0; Win64; x64) AppleWebKit/537.36 (KHTML, like Gecko) Chrome/138.0.0.0 Safari/537.36","WebKit","Chrome","138.0.0.0","Windows","10.0","https://app.prolific.com/","en-GB,en-US;q=0.9,en;q=0.8","67215aa0a8e88c6751efc410","683db6dfa200031b80f2a654","6865078da54d2d0b55f4de66","67215aa0a8e88c6751efc410","2025-07-02T10:56:18.097Z","","","","","","MotivationQ","","","","","","","","","","","","","","","","","","","","","","","","","","","","","","","","","","","","","","50"
"","","","","ctl-task-cpt","84","2057993","0.0-10.0-0.8","171","1","2025-07-02 10:23:07","80fe4187154257d5fb01684ea91b68b9","197.184.91.93","Mozilla/5.0 (Windows NT 10.0; Win64; x64) AppleWebKit/537.36 (KHTML, like Gecko) Chrome/138.0.0.0 Safari/537.36","WebKit","Chrome","138.0.0.0","Windows","10.0","https://app.prolific.com/","en-GB,en-US;q=0.9,en;q=0.8","67215aa0a8e88c6751efc410","683db6dfa200031b80f2a654","6865078da54d2d0b55f4de66","67215aa0a8e88c6751efc410","2025-07-02T10:57:31.951Z","","","","","","","","","","","","","","","","win-only","3","g1:SW,g2:NE","0.4","9","0","1991040.2","1609.8","6626.7","70791.7","1","4","4","6","2","4","4","44","40","0.3333333333333333","1235.2","3000","1580","[""up"",""right""]","{""num_key_presses"":14,""num_perfect"":6,""num_errors"":0,""num_randdir"":8,""num_randdir_good_moves"":4,""num_whilered"":0,""num_whileblue"":0,""num_blue"":3,""num_good_moves"":10}","[299.22232142857143,299.12857142857143,1.1,299.22232142857143,299.12857142857143,111.9,299.22232142857143,299.12857142857143,213,299.22232142857143,299.12857142857143,313.1,299.22232142857143,299.12857142857143,426.7,411.22232142857143,223.12857142857143,545.9,495.22232142857143,150.12857142857143,666.4,500.22232142857143,123.12857142857143,772.1,510.22232142857143,96.12857142857143,906.2,519.2223214285714,85.12857142857143,1014.9,519.2223214285714,85.12857142857143,1115.7,519.2223214285714,85.12857142857143,1219,519.2223214285714,85.12857142857143,1335.1,519.2223214285714,85.12857142857143,1452.2,519.2223214285714,85.12857142857143,1581,519.2223214285714,85.12857142857143,1688.7,519.2223214285714,85.12857142857143,1799.3,519.2223214285714,85.12857142857143,1910.3,519.2223214285714,85.12857142857143,2018.2,519.2223214285714,85.12857142857143,2136.9,519.2223214285714,85.12857142857143,2244.3,519.2223214285714,85.12857142857143,2351.5,519.2223214285714,85.12857142857143,2456.8,519.2223214285714,85.12857142857143,2558.5,519.2223214285714,85.12857142857143,2663.2,519.2223214285714,85.12857142857143,2764.3,519.2223214285714,85.12857142857143,2867.2,519.2223214285714,85.12857142857143,2970.7,519.2223214285714,85.12857142857143,3090.1,519.2223214285714,85.12857142857143,3190.1,519.2223214285714,85.12857142857143,3316,519.2223214285714,85.12857142857143,3428.1,519.2223214285714,85.12857142857143,3550,519.2223214285714,85.12857142857143,3670.6,519.2223214285714,85.12857142857143,3779.6,519.2223214285714,85.12857142857143,3881.7,519.2223214285714,85.12857142857143,3985.1,519.2223214285714,85.12857142857143,4104.6,519.2223214285714,85.12857142857143,4229.5,519.2223214285714,85.12857142857143,4353.9,519.2223214285714,85.12857142857143,4455,519.2223214285714,85.12857142857143,4567.6,519.2223214285714,85.12857142857143,4675.8,519.2223214285714,85.12857142857143,4784.6,519.2223214285714,85.12857142857143,4899.3]","[4463.8,4463.8,1775.5,2043.6,644.7,""smooth"",""up"",""up"",""good_move"",9649.6,5182,2492.6,4467.6,2689.4,""oops"",""up"",""down"",""bad_move"",12902.8,3238.7,2698.3,9664.2,540.3,""oops"",""up"",""up"",""good_move"",21303.2,8398.5,2627.8,18184.1,491.4,""oops"",""up"",""left"",""bad_move"",26199.3,4881.1,3016.8,21318.2,1864.3,""oops"",""up"",""left"",""bad_move"",31181.8,4978.8,2411.8,26203,2567,""smooth"",""up"",""up"",""good_move"",37073.5,5881.2,3416.6,31192.3,2464.6,""oops"",""up"",""up"",""good_move"",44556.1,7481.5,2764,41353.7,438.4,""smooth"",""right"",""right"",""good_move"",47225.5,2667.6,2108.9,44557.9,558.7,""oops"",""right"",""right"",""good_move"",50478,3249.9,2855.9,47228.1,394,""smooth"",""right"",""right"",""good_move"",53739.8,3257.1,2822.4,50482.7,434.7,""oops"",""right"",""left"",""bad_move"",58122.4,4380.6,2342.5,53741.8,2038.1,""oops"",""right"",""right"",""good_move"",61110.7,2969.9,2486.6,58140.8,483.3,""smooth"",""right"",""right"",""good_move"",63599.1,2486.4,1823.8,61112.7,662.6,""smooth"",""right"",""right"",""good_move""]","",""
"7928","","<div style=""width:500px;"">
  <p>What determined the result of this run?</p>
