"rt","response_timestamp","stimulus","response","trial_type","trial_index","time_elapsed","internal_node_id","run_id","condition","recorded_at","source_code_version","ip","user_agent","device","browser","browser_version","platform","platform_version","referer","accept_language","PROLIFIC_PID","STUDY_ID","SESSION_ID","prolific_id","realtime","view_history","question_order","consent","success","question_id","eventType","responses","item_order","radio_event_ids","radio_event_times","key_event_times","mouse_event_times","straightlining","zigzagging","honeypot","which_type","canvas_config","goals_layout","control_level","trial_number","tutorial_trial_number","trial_start_time","phase1_start_time","phase2_start_time","phase3_start_time","goal_1_value","goal_1_distance","goal_2_value","goal_2_distance","goal_selected","outcome","outcome_total","participant_final_score","participant_initial_score","participant_final_score_prop","goal_choice_rt","allocated_time","allocated_time_remaining","goal_direction","counts","mouse_movements","key_presses","correct","slider_start"
"13286","1751451650388","<p style='font-size:40px;line-height:1.25'><strong>Welcome to the experiment!</strong></p><p style='font-size:1.1em;line-height:1.25'>Thank you for your interest in our experiment! Before you begin, it is important that we obtain your informed consent to participate in the study.</p><p style='font-size:1.1em;line-height:1.25'>On the next screen will be an <strong>information sheet</strong> for you to read. To participate in the study we need you to read this information sheet and the following consent form carefully. If you agree with all the statements, please click the <strong>I agree</strong> button.</p><p style='font-size:1.1em;line-height:1.25'>Press <strong>Next</strong> to read the information sheet.</p>","0","custom-html-button-response","0","13290","0.0-0.0","132","1","2025-07-02 10:20:24","80fe4187154257d5fb01684ea91b68b9","41.122.14.58","Mozilla/5.0 (Windows NT 10.0; Win64; x64) AppleWebKit/537.36 (KHTML, like Gecko) Chrome/137.0.0.0 Safari/537.36 AVG/137.0.0.0","WebKit","Chrome","137.0.0.0","Windows","10.0","https://app.prolific.com/","en-GB,en-US;q=0.9,en;q=0.8","67292b38c60932d4ab0eeeb6","683db6dfa200031b80f2a654","68650789d888889537163e10","67292b38c60932d4ab0eeeb6","2025-07-02T10:20:50.390Z","","","","","","","","","","","","","","","","","","","","","","","","","","","","","","","","","","","","","","","","","","","",""
"42353","","","","instructions","1","55646","0.0-1.0","132","1","2025-07-02 10:20:24","80fe4187154257d5fb01684ea91b68b9","41.122.14.58","Mozilla/5.0 (Windows NT 10.0; Win64; x64) AppleWebKit/537.36 (KHTML, like Gecko) Chrome/137.0.0.0 Safari/537.36 AVG/137.0.0.0","WebKit","Chrome","137.0.0.0","Windows","10.0","https://app.prolific.com/","en-GB,en-US;q=0.9,en;q=0.8","67292b38c60932d4ab0eeeb6","683db6dfa200031b80f2a654","68650789d888889537163e10","67292b38c60932d4ab0eeeb6","","[{""page_index"":0,""viewing_time"":13752},{""page_index"":1,""viewing_time"":28600}]","","","","","","","","","","","","","","","","","","","","","","","","","","","","","","","","","","","","","","","","","","",""
"7932","","","{""Q0"":"""",""Q1"":"""",""Q2"":"""",""Q3"":"""",""Q4"":"""",""Q5"":"""",""Q6"":""I agree""}","survey-multi-choice","2","63582","0.0-2.0","132","1","2025-07-02 10:20:24","80fe4187154257d5fb01684ea91b68b9","41.122.14.58","Mozilla/5.0 (Windows NT 10.0; Win64; x64) AppleWebKit/537.36 (KHTML, like Gecko) Chrome/137.0.0.0 Safari/537.36 AVG/137.0.0.0","WebKit","Chrome","137.0.0.0","Windows","10.0","https://app.prolific.com/","en-GB,en-US;q=0.9,en;q=0.8","67292b38c60932d4ab0eeeb6","683db6dfa200031b80f2a654","68650789d888889537163e10","67292b38c60932d4ab0eeeb6","","","[0,1,2,3,4,5,6]","true","","","","","","","","","","","","","","","","","","","","","","","","","","","","","","","","","","","","","","","","",""
"59658","","","","fullscreen","3","124251","0.0-4.0","132","1","2025-07-02 10:20:24","80fe4187154257d5fb01684ea91b68b9","41.122.14.58","Mozilla/5.0 (Windows NT 10.0; Win64; x64) AppleWebKit/537.36 (KHTML, like Gecko) Chrome/137.0.0.0 Safari/537.36 AVG/137.0.0.0","WebKit","Chrome","137.0.0.0","Windows","10.0","https://app.prolific.com/","en-GB,en-US;q=0.9,en;q=0.8","67292b38c60932d4ab0eeeb6","683db6dfa200031b80f2a654","68650789d888889537163e10","67292b38c60932d4ab0eeeb6","","","","","true","","","","","","","","","","","","","","","","","","","","","","","","","","","","","","","","","","","","","","","",""
"21029","1751451782385"," <p style='font-size:1.1em;line-height:1.25'>Thank you for completing the consent form and closing all other tabs.</p><p style='font-size:1.1em;line-height:1.25'>We will now invite you to fill in some demographic information and questionnaires, before starting the game.<br>This will take about 5 minutes.<br></p><p style='font-size:1.1em;line-height:1.25'>Press the <strong>Next</strong> button to continue.</p>","0","custom-html-button-response","4","145289","0.0-5.0","132","1","2025-07-02 10:20:24","80fe4187154257d5fb01684ea91b68b9","41.122.14.58","Mozilla/5.0 (Windows NT 10.0; Win64; x64) AppleWebKit/537.36 (KHTML, like Gecko) Chrome/137.0.0.0 Safari/537.36 AVG/137.0.0.0","WebKit","Chrome","137.0.0.0","Windows","10.0","https://app.prolific.com/","en-GB,en-US;q=0.9,en;q=0.8","67292b38c60932d4ab0eeeb6","683db6dfa200031b80f2a654","68650789d888889537163e10","67292b38c60932d4ab0eeeb6","2025-07-02T10:23:02.389Z","","","","","","","","","","","","","","","","","","","","","","","","","","","","","","","","","","","","","","","","","","","",""
"5306","","","{""age"":""23""}","survey-text","5","150665","0.0-6.0-0.0","132","1","2025-07-02 10:20:24","80fe4187154257d5fb01684ea91b68b9","41.122.14.58","Mozilla/5.0 (Windows NT 10.0; Win64; x64) AppleWebKit/537.36 (KHTML, like Gecko) Chrome/137.0.0.0 Safari/537.36 AVG/137.0.0.0","WebKit","Chrome","137.0.0.0","Windows","10.0","https://app.prolific.com/","en-GB,en-US;q=0.9,en;q=0.8","67292b38c60932d4ab0eeeb6","683db6dfa200031b80f2a654","68650789d888889537163e10","67292b38c60932d4ab0eeeb6","","","","","","0","demographics","","","","","","","","","","","","","","","","","","","","","","","","","","","","","","","","","","","","","",""
"3105","","","{""gender_identity"":""female/woman""}","survey-multi-choice","6","153778","0.0-6.0-1.0","132","1","2025-07-02 10:20:24","80fe4187154257d5fb01684ea91b68b9","41.122.14.58","Mozilla/5.0 (Windows NT 10.0; Win64; x64) AppleWebKit/537.36 (KHTML, like Gecko) Chrome/137.0.0.0 Safari/537.36 AVG/137.0.0.0","WebKit","Chrome","137.0.0.0","Windows","10.0","https://app.prolific.com/","en-GB,en-US;q=0.9,en;q=0.8","67292b38c60932d4ab0eeeb6","683db6dfa200031b80f2a654","68650789d888889537163e10","67292b38c60932d4ab0eeeb6","","","[0]","","","1","demographics","","","","","","","","","","","","","","","","","","","","","","","","","","","","","","","","","","","","","",""
"3744","","","{""assigned_sex"":""female""}","survey-multi-choice","7","157530","0.0-6.0-2.0","132","1","2025-07-02 10:20:24","80fe4187154257d5fb01684ea91b68b9","41.122.14.58","Mozilla/5.0 (Windows NT 10.0; Win64; x64) AppleWebKit/537.36 (KHTML, like Gecko) Chrome/137.0.0.0 Safari/537.36 AVG/137.0.0.0","WebKit","Chrome","137.0.0.0","Windows","10.0","https://app.prolific.com/","en-GB,en-US;q=0.9,en;q=0.8","67292b38c60932d4ab0eeeb6","683db6dfa200031b80f2a654","68650789d888889537163e10","67292b38c60932d4ab0eeeb6","","","[0]","","","2","demographics","","","","","","","","","","","","","","","","","","","","","","","","","","","","","","","","","","","","","",""
"5095","","","{""menstrual_cycle"":""Yes""}","survey-multi-choice","8","162632","0.0-6.0-3.0","132","1","2025-07-02 10:20:24","80fe4187154257d5fb01684ea91b68b9","41.122.14.58","Mozilla/5.0 (Windows NT 10.0; Win64; x64) AppleWebKit/537.36 (KHTML, like Gecko) Chrome/137.0.0.0 Safari/537.36 AVG/137.0.0.0","WebKit","Chrome","137.0.0.0","Windows","10.0","https://app.prolific.com/","en-GB,en-US;q=0.9,en;q=0.8","67292b38c60932d4ab0eeeb6","683db6dfa200031b80f2a654","68650789d888889537163e10","67292b38c60932d4ab0eeeb6","","","[0]","","","4","demographics","","","","","","","","","","","","","","","","","","","","","","","","","","","","","","","","","","","","","",""
"5858","","","{""education"":""Bachelor's Degree (e.g., BA)""}","survey-multi-choice","9","168505","0.0-6.0-4.0","132","1","2025-07-02 10:20:24","80fe4187154257d5fb01684ea91b68b9","41.122.14.58","Mozilla/5.0 (Windows NT 10.0; Win64; x64) AppleWebKit/537.36 (KHTML, like Gecko) Chrome/137.0.0.0 Safari/537.36 AVG/137.0.0.0","WebKit","Chrome","137.0.0.0","Windows","10.0","https://app.prolific.com/","en-GB,en-US;q=0.9,en;q=0.8","67292b38c60932d4ab0eeeb6","683db6dfa200031b80f2a654","68650789d888889537163e10","67292b38c60932d4ab0eeeb6","","","[0]","","","5","demographics","","","","","","","","","","","","","","","","","","","","","","","","","","","","","","","","","","","","","",""
"19856","","","{""education"":""Higher National Diploma""}","survey-multi-choice","10","188368","0.0-6.0-5.0","132","1","2025-07-02 10:20:24","80fe4187154257d5fb01684ea91b68b9","41.122.14.58","Mozilla/5.0 (Windows NT 10.0; Win64; x64) AppleWebKit/537.36 (KHTML, like Gecko) Chrome/137.0.0.0 Safari/537.36 AVG/137.0.0.0","WebKit","Chrome","137.0.0.0","Windows","10.0","https://app.prolific.com/","en-GB,en-US;q=0.9,en;q=0.8","67292b38c60932d4ab0eeeb6","683db6dfa200031b80f2a654","68650789d888889537163e10","67292b38c60932d4ab0eeeb6","2025-07-02T10:23:45.469Z","","[0]","","","6","demographics","","","","","","","","","","","","","","","","","","","","","","","","","","","","","","","","","","","","","",""
"20613","","","{""mental_health_condition"":""N/A"",""mental_health_treatment"":""N/A"",""psychiatric_medication"":""N/A""}","survey-text","11","208998","0.0-7.0-0.0","132","1","2025-07-02 10:20:24","80fe4187154257d5fb01684ea91b68b9","41.122.14.58","Mozilla/5.0 (Windows NT 10.0; Win64; x64) AppleWebKit/537.36 (KHTML, like Gecko) Chrome/137.0.0.0 Safari/537.36 AVG/137.0.0.0","WebKit","Chrome","137.0.0.0","Windows","10.0","https://app.prolific.com/","en-GB,en-US;q=0.9,en;q=0.8","67292b38c60932d4ab0eeeb6","683db6dfa200031b80f2a654","68650789d888889537163e10","67292b38c60932d4ab0eeeb6","2025-07-02T10:24:06.099Z","","","","","1","mental_health","","","","","","","","","","","","","","","","","","","","","","","","","","","","","","","","","","","","","",""
"14394","","","{""depression_history"":[""No""]}","survey-multi-select","12","223418","0.0-7.0-1.0","132","1","2025-07-02 10:20:24","80fe4187154257d5fb01684ea91b68b9","41.122.14.58","Mozilla/5.0 (Windows NT 10.0; Win64; x64) AppleWebKit/537.36 (KHTML, like Gecko) Chrome/137.0.0.0 Safari/537.36 AVG/137.0.0.0","WebKit","Chrome","137.0.0.0","Windows","10.0","https://app.prolific.com/","en-GB,en-US;q=0.9,en;q=0.8","67292b38c60932d4ab0eeeb6","683db6dfa200031b80f2a654","68650789d888889537163e10","67292b38c60932d4ab0eeeb6","","","[0]","","","","mental_health","","","","","","","","","","","","","","","","","","","","","","","","","","","","","","","","","","","","","",""
"88415.30000001192","","","","survey-template","13","311898","0.0-7.0-3.0","132","1","2025-07-02 10:20:24","80fe4187154257d5fb01684ea91b68b9","41.122.14.58","Mozilla/5.0 (Windows NT 10.0; Win64; x64) AppleWebKit/537.36 (KHTML, like Gecko) Chrome/137.0.0.0 Safari/537.36 AVG/137.0.0.0","WebKit","Chrome","137.0.0.0","Windows","10.0","https://app.prolific.com/","en-GB,en-US;q=0.9,en;q=0.8","67292b38c60932d4ab0eeeb6","683db6dfa200031b80f2a654","68650789d888889537163e10","67292b38c60932d4ab0eeeb6","2025-07-02T10:25:48.999Z","","","","","","ius","{""Q01"":""1"",""Q02"":""3"",""Q03"":""0"",""Q04"":""2"",""Q05"":""0"",""Q06"":""0"",""Q07"":""0"",""Q08"":""0"",""Q09"":""1"",""Q10"":""1"",""Q11"":""0"",""Q12"":""2"",""Q13"":""1""}","[0,1,2,3,4,5,6,7,8,9,10,11,12]","[""Q01"",""Q02"",""Q03"",""Q04"",""Q05"",""Q06"",""Q07"",""Q08"",""Q09"",""Q10"",""Q11"",""Q12"",""Q13""]","[14082.70000000298,18363.80000001192,24878.20000000298,30552.30000001192,48395.30000001192,54225.5,57509.20000000298,60905.10000000894,65900.60000000894,70703.30000001192,76517,82803.60000000894,87112]","[]","[14082.70000000298,18363.80000001192,23112.80000001192,24878.20000000298,30552.30000001192,48395.30000001192,54225.5,57509.20000000298,60905.10000000894,65900.60000000894,69326.30000001192,70703.30000001192,76517,81781.5,82803.60000000894,87112,88407.80000001192]","0.46153846153846156","0.25","0","","","","","","","","","","","","","","","","","","","","","","","","","","","","",""
"3880","1751451952886","<p style='font-size:1.1em;line-height:1.25'>In the following, we will ask you a few questions relating to your experiences over the past month.<br></p><p style='font-size:1.1em;line-height:1.25'>Press the <strong>Next</strong> button to continue.</p>","0","custom-html-button-response","14","315793","0.0-7.0-4.0","132","1","2025-07-02 10:20:24","80fe4187154257d5fb01684ea91b68b9","41.122.14.58","Mozilla/5.0 (Windows NT 10.0; Win64; x64) AppleWebKit/537.36 (KHTML, like Gecko) Chrome/137.0.0.0 Safari/537.36 AVG/137.0.0.0","WebKit","Chrome","137.0.0.0","Windows","10.0","https://app.prolific.com/","en-GB,en-US;q=0.9,en;q=0.8","67292b38c60932d4ab0eeeb6","683db6dfa200031b80f2a654","68650789d888889537163e10","67292b38c60932d4ab0eeeb6","2025-07-02T10:25:52.893Z","","","","","","","","","","","","","","","","","","","","","","","","","","","","","","","","","","","","","","","","","","","",""
"58003.09999999404","","","","survey-template","15","373808","0.0-7.0-5.0","132","1","2025-07-02 10:20:24","80fe4187154257d5fb01684ea91b68b9","41.122.14.58","Mozilla/5.0 (Windows NT 10.0; Win64; x64) AppleWebKit/537.36 (KHTML, like Gecko) Chrome/137.0.0.0 Safari/537.36 AVG/137.0.0.0","WebKit","Chrome","137.0.0.0","Windows","10.0","https://app.prolific.com/","en-GB,en-US;q=0.9,en;q=0.8","67292b38c60932d4ab0eeeb6","683db6dfa200031b80f2a654","68650789d888889537163e10","67292b38c60932d4ab0eeeb6","2025-07-02T10:26:50.908Z","","","","","","pss","{""Q01"":""1"",""Q02"":""2"",""Q03"":""3"",""Q04"":""0"",""Q05"":""0"",""Q06"":""1"",""Q07"":""0"",""Q08"":""0"",""Q09"":""1"",""Q10"":""1""}","[0,1,2,3,4,5,6,7,8,9]","[""Q01"",""Q02"",""Q03"",""Q04"",""Q05"",""Q06"",""Q07"",""Q08"",""Q09"",""Q09"",""Q10""]","[6153.29999999702,12165,15133.59999999404,19433.79999999702,24728.5,30363.29999999702,37565.70000000298,42218.90000000596,48769.29999999702,49859.29999999702,56531.40000000596]","[]","[0,6153.29999999702,11020.59999999404,12165,15133.59999999404,19433.79999999702,24728.5,30363.29999999702,35274.79999999702,36113.70000000298,37565.70000000298,42218.90000000596,48769.29999999702,49859.29999999702,56531.40000000596,57996.90000000596]","0.4","0.3333333333333333","0","","","","","","","","","","","","","","","","","","","","","","","","","","","","",""
"4700","1751452015612","<p style='font-size:1.1em;line-height:1.25'>Thank you for your answers! Now we will ask you a few more questions relating to your feelings in the last 24 hours.<br></p><p style='font-size:1.1em;line-height:1.25'>Press the <strong>Next</strong> button to continue.</p>","0","custom-html-button-response","16","378515","0.0-7.0-6.0","132","1","2025-07-02 10:20:24","80fe4187154257d5fb01684ea91b68b9","41.122.14.58","Mozilla/5.0 (Windows NT 10.0; Win64; x64) AppleWebKit/537.36 (KHTML, like Gecko) Chrome/137.0.0.0 Safari/537.36 AVG/137.0.0.0","WebKit","Chrome","137.0.0.0","Windows","10.0","https://app.prolific.com/","en-GB,en-US;q=0.9,en;q=0.8","67292b38c60932d4ab0eeeb6","683db6dfa200031b80f2a654","68650789d888889537163e10","67292b38c60932d4ab0eeeb6","2025-07-02T10:26:55.615Z","","","","","","","","","","","","","","","","","","","","","","","","","","","","","","","","","","","","","","","","","","","",""
"62603.5","","","","survey-template","17","441144","0.0-7.0-7.0","132","1","2025-07-02 10:20:24","80fe4187154257d5fb01684ea91b68b9","41.122.14.58","Mozilla/5.0 (Windows NT 10.0; Win64; x64) AppleWebKit/537.36 (KHTML, like Gecko) Chrome/137.0.0.0 Safari/537.36 AVG/137.0.0.0","WebKit","Chrome","137.0.0.0","Windows","10.0","https://app.prolific.com/","en-GB,en-US;q=0.9,en;q=0.8","67292b38c60932d4ab0eeeb6","683db6dfa200031b80f2a654","68650789d888889537163e10","67292b38c60932d4ab0eeeb6","2025-07-02T10:27:58.244Z","","","","","","drsp","{""Q01"":""0"",""Q02"":""0"",""Q03"":""0"",""Q04"":""0"",""Q05"":""0"",""Q06"":""0"",""Q07"":""0"",""Q08"":""0"",""Q09"":""0"",""Q10"":""0"",""Q11"":""1"",""Q12"":""5"",""Q13"":""5"",""Q14"":""5"",""Q15"":""0"",""Q16"":""0"",""Q17"":""0"",""Q18"":""5"",""Q19"":""1"",""Q20"":""1"",""Q21"":""1""}","[0,1,2,3,4,5,6,7,8,9,10,11,12,13,14,15,16,17,18,19,20]","[""Q01"",""Q02"",""Q03"",""Q04"",""Q05"",""Q06"",""Q07"",""Q08"",""Q09"",""Q10"",""Q11"",""Q12"",""Q13"",""Q14"",""Q15"",""Q16"",""Q17"",""Q18"",""Q19"",""Q20"",""Q21""]","[2804.5,4269.29999999702,5876.0999999940395,7449.29999999702,9475,11910.09999999404,13503.89999999106,15440,17254.59999999404,18932.09999999404,21413.29999999702,24663.5,34931,36498.69999998808,39031.59999999404,41282.09999999404,42806.59999999404,45925.5,54093.19999998808,58184.09999999404,61329.39999999106]","[]","[0.09999999403953552,2804.5,4269.29999999702,5876.0999999940395,7449.29999999702,9475,11910.09999999404,13503.89999999106,15440,17254.59999999404,18932.09999999404,21413.29999999702,24663.5,26508.39999999106,29491.79999999702,34931,36498.69999998808,39031.59999999404,41282.09999999404,42806.59999999404,45925.5,54093.19999998808,58184.09999999404,61329.39999999106,62593]","0.6190476190476191","0.15","0","","","","","","","","","","","","","","","","","","","","","","","","","","","","",""
"17281.90000000596","","","","survey-template","18","458437","0.0-7.0-8.0","132","1","2025-07-02 10:20:24","80fe4187154257d5fb01684ea91b68b9","41.122.14.58","Mozilla/5.0 (Windows NT 10.0; Win64; x64) AppleWebKit/537.36 (KHTML, like Gecko) Chrome/137.0.0.0 Safari/537.36 AVG/137.0.0.0","WebKit","Chrome","137.0.0.0","Windows","10.0","https://app.prolific.com/","en-GB,en-US;q=0.9,en;q=0.8","67292b38c60932d4ab0eeeb6","683db6dfa200031b80f2a654","68650789d888889537163e10","67292b38c60932d4ab0eeeb6","2025-07-02T10:28:15.538Z","","","","","","stress","{""Q01"":""0"",""Q02"":""0"",""Q03"":""0""}","[0,1,2]","[""Q01"",""Q02"",""Q03""]","[6197.300000011921,9286.60000000894,15994.10000000894]","[]","[6197.300000011921,9286.60000000894,15994.10000000894,17276.40000000596]","0.6666666666666666","1","0","","","","","","","","","","","","","","","","","","","","","","","","","","","","",""
"106379","","","","instructions","19","564822","0.0-8.0-0.0","132","1","2025-07-02 10:20:24","80fe4187154257d5fb01684ea91b68b9","41.122.14.58","Mozilla/5.0 (Windows NT 10.0; Win64; x64) AppleWebKit/537.36 (KHTML, like Gecko) Chrome/137.0.0.0 Safari/537.36 AVG/137.0.0.0","WebKit","Chrome","137.0.0.0","Windows","10.0","https://app.prolific.com/","en-GB,en-US;q=0.9,en;q=0.8","67292b38c60932d4ab0eeeb6","683db6dfa200031b80f2a654","68650789d888889537163e10","67292b38c60932d4ab0eeeb6","","[{""page_index"":0,""viewing_time"":35125},{""page_index"":1,""viewing_time"":33027},{""page_index"":2,""viewing_time"":12295},{""page_index"":3,""viewing_time"":25931}]","","","","","","","","","","","","","","","","","","","","","","","","","","","","","","","","","","","","","","","","","","",""
"","","","","ctl-task-cpt","20","583774","0.0-8.0-1.0","132","1","2025-07-02 10:20:24","80fe4187154257d5fb01684ea91b68b9","41.122.14.58","Mozilla/5.0 (Windows NT 10.0; Win64; x64) AppleWebKit/537.36 (KHTML, like Gecko) Chrome/137.0.0.0 Safari/537.36 AVG/137.0.0.0","WebKit","Chrome","137.0.0.0","Windows","10.0","https://app.prolific.com/","en-GB,en-US;q=0.9,en;q=0.8","67292b38c60932d4ab0eeeb6","683db6dfa200031b80f2a654","68650789d888889537163e10","67292b38c60932d4ab0eeeb6","","","","","","","","","","","","","","","","","win-only","2","g1:SE,g2:NW","1","0","1","578006.8","2412.7","6419.9","15915.6","2","4","4","6","1","-2","-3","0","0","0","3867.2","4000","-2375","[""down"",""right""]","{""num_key_presses"":1,""num_perfect"":0,""num_errors"":1,""num_randdir"":0,""num_randdir_good_moves"":0,""num_whilered"":0,""num_whileblue"":0,""num_blue"":0,""num_good_moves"":0}","[297.22232142857143,292.12857142857143,2.1,297.22232142857143,292.12857142857143,287.8,297.22232142857143,292.12857142857143,389.6,297.22232142857143,292.12857142857143,489.6,297.22232142857143,292.12857142857143,598,297.22232142857143,292.12857142857143,698.4,297.22232142857143,292.12857142857143,800,297.22232142857143,292.12857142857143,908,297.22232142857143,292.12857142857143,1014.5,297.22232142857143,292.12857142857143,1115.9,297.22232142857143,292.12857142857143,1218.4,297.22232142857143,292.12857142857143,1324.3,297.22232142857143,292.12857142857143,1426,297.22232142857143,292.12857142857143,1529,297.22232142857143,292.12857142857143,1633.8,297.22232142857143,292.12857142857143,1738.3,297.22232142857143,292.12857142857143,1842.2,297.22232142857143,292.12857142857143,1970.8,297.22232142857143,292.12857142857143,2151.4,297.22232142857143,292.12857142857143,2294.1,297.22232142857143,292.12857142857143,2395.2,297.22232142857143,292.12857142857143,2500.5,297.22232142857143,292.12857142857143,2605.1,297.22232142857143,292.12857142857143,2708.1,297.22232142857143,292.12857142857143,2811.5,297.22232142857143,292.12857142857143,2912.9,297.22232142857143,292.12857142857143,3013.8,297.22232142857143,292.12857142857143,3124.8,297.22232142857143,292.12857142857143,3231.3,357.22232142857143,319.12857142857143,3331.3,542.2223214285714,452.12857142857143,3434,579.2223214285714,525.1285714285714,3535.6,584.2223214285714,527.1285714285714,3637.4,584.2223214285714,527.1285714285714,3743,584.2223214285714,527.1285714285714,3848.6,584.2223214285714,527.1285714285714,3950.4]","[464.9,464.9,1000,0,-535.1,""error"",""-"",""-"",""no_move""]","",""
"15581","","","","instructions","21","599357","0.0-8.0-2.0","132","1","2025-07-02 10:20:24","80fe4187154257d5fb01684ea91b68b9","41.122.14.58","Mozilla/5.0 (Windows NT 10.0; Win64; x64) AppleWebKit/537.36 (KHTML, like Gecko) Chrome/137.0.0.0 Safari/537.36 AVG/137.0.0.0","WebKit","Chrome","137.0.0.0","Windows","10.0","https://app.prolific.com/","en-GB,en-US;q=0.9,en;q=0.8","67292b38c60932d4ab0eeeb6","683db6dfa200031b80f2a654","68650789d888889537163e10","67292b38c60932d4ab0eeeb6","","[{""page_index"":0,""viewing_time"":15580}]","","","","","","","","","","","","","","","","","","","","","","","","","","","","","","","","","","","","","","","","","","",""
"","","","","ctl-task-cpt","22","638861","0.0-8.0-3.0","132","1","2025-07-02 10:20:24","80fe4187154257d5fb01684ea91b68b9","41.122.14.58","Mozilla/5.0 (Windows NT 10.0; Win64; x64) AppleWebKit/537.36 (KHTML, like Gecko) Chrome/137.0.0.0 Safari/537.36 AVG/137.0.0.0","WebKit","Chrome","137.0.0.0","Windows","10.0","https://app.prolific.com/","en-GB,en-US;q=0.9,en;q=0.8","67292b38c60932d4ab0eeeb6","683db6dfa200031b80f2a654","68650789d888889537163e10","67292b38c60932d4ab0eeeb6","","","","","","","","","","","","","","","","","win-only","2","g1:SE,g2:NW","0.35","0","3","612555.4","1806.6","5813.4","36447.3","2","4","8","6","1","2","-4","0","0","0","971.5","4000","960","[""down"",""right""]","{""num_key_presses"":16,""num_perfect"":3,""num_errors"":6,""num_randdir"":3,""num_randdir_good_moves"":2,""num_whilered"":4,""num_whileblue"":0,""num_blue"":1,""num_good_moves"":5}","[300.22232142857143,290.12857142857143,1.6,300.22232142857143,290.12857142857143,105.4,300.22232142857143,290.12857142857143,211.2,300.22232142857143,290.12857142857143,312.5,300.22232142857143,290.12857142857143,419.5,311.22232142857143,302.12857142857143,519.5,513.2223214285714,550.1285714285714,624.1,524.2223214285714,573.1285714285714,727.9,524.2223214285714,573.1285714285714,839.8,524.2223214285714,573.1285714285714,941.8,524.2223214285714,573.1285714285714,1043,524.2223214285714,573.1285714285714,1148.4,524.2223214285714,573.1285714285714,1251.7,524.2223214285714,573.1285714285714,1353.3,524.2223214285714,573.1285714285714,1460.3,524.2223214285714,573.1285714285714,1561.7,524.2223214285714,573.1285714285714,1670.8,524.2223214285714,573.1285714285714,1774.8,524.2223214285714,573.1285714285714,1882.8,524.2223214285714,573.1285714285714,1986.5,524.2223214285714,573.1285714285714,2095,524.2223214285714,573.1285714285714,2198.8,524.2223214285714,573.1285714285714,2301.4,524.2223214285714,573.1285714285714,2402.4,524.2223214285714,573.1285714285714,2507.7,524.2223214285714,573.1285714285714,2614.7,524.2223214285714,573.1285714285714,2715.2,524.2223214285714,573.1285714285714,2820.2,524.2223214285714,573.1285714285714,2925,524.2223214285714,573.1285714285714,3026.1,524.2223214285714,573.1285714285714,3131,524.2223214285714,573.1285714285714,3237.7,524.2223214285714,573.1285714285714,3340.1,524.2223214285714,573.1285714285714,3446,524.2223214285714,573.1285714285714,3551.7,524.2223214285714,573.1285714285714,3654,524.2223214285714,573.1285714285714,3755.6,524.2223214285714,573.1285714285714,3859.4,524.2223214285714,573.1285714285714,3971.8]","[2302.7,2302.7,1000,0.1,1302.7,""smooth"",""down"",""down"",""good_move"",2516.9,212.1,1657.3,2304.8,-1445.2,""error"",""-"",""-"",""no_move"",2819.7,301.8,1657.3,2304.8,-1142.4,""while_red"",""-"",""-"",""no_move"",2982.2,464.3,1657.3,2304.8,-979.9,""while_red"",""-"",""-"",""no_move"",3130.5,612.6,1657.3,2304.8,-831.6,""while_red"",""-"",""-"",""no_move"",7207.6,4689.7,2814,3520.5,873.1,""oops"",""right"",""right"",""good_move"",7496,286.6,3150.5,7209.4,-2863.9,""error"",""-"",""-"",""no_move"",7679.3,181.5,3150.5,7209.4,-2680.6,""while_red"",""-"",""-"",""no_move"",11895.5,4397.7,2805.8,8499.4,590.4,""oops"",""right"",""left"",""bad_move"",12594.8,695.1,2379,11899.8,-1684,""error"",""-"",""-"",""no_move"",16704.2,4106.8,2754.1,13604.3,345.8,""smooth"",""right"",""right"",""good_move"",19623,2915.8,2346.6,16707.2,569.2,""oops"",""down"",""down"",""good_move"",23740.9,4116.3,1972.7,23444,-1675.8,""error"",""-"",""-"",""no_move"",25108.5,1366.4,1913.6,24744,-1549.1,""error"",""-"",""-"",""no_move"",26474.8,1365.3,2756.1,26109.9,-2391.2,""error"",""-"",""-"",""no_move"",30525.9,4047.6,2487.7,27485.7,552.5,""smooth"",""right"",""right"",""good_move""]","",""
"51042","","","","instructions","23","689905","0.0-8.0-4.0","132","1","2025-07-02 10:20:24","80fe4187154257d5fb01684ea91b68b9","41.122.14.58","Mozilla/5.0 (Windows NT 10.0; Win64; x64) AppleWebKit/537.36 (KHTML, like Gecko) Chrome/137.0.0.0 Safari/537.36 AVG/137.0.0.0","WebKit","Chrome","137.0.0.0","Windows","10.0","https://app.prolific.com/","en-GB,en-US;q=0.9,en;q=0.8","67292b38c60932d4ab0eeeb6","683db6dfa200031b80f2a654","68650789d888889537163e10","67292b38c60932d4ab0eeeb6","","[{""page_index"":0,""viewing_time"":9047},{""page_index"":1,""viewing_time"":41993}]","","","","","","","","","","","","","","","","","","","","","","","","","","","","","","","","","","","","","","","","","","",""
"20355","","","{""green_ball"":[""Ball always moves in the direction I press"",""Ball sometimes shakes and moves in a random direction""]}","survey-multi-select","24","710310","0.0-8.0-5.0-0.0","132","1","2025-07-02 10:20:24","80fe4187154257d5fb01684ea91b68b9","41.122.14.58","Mozilla/5.0 (Windows NT 10.0; Win64; x64) AppleWebKit/537.36 (KHTML, like Gecko) Chrome/137.0.0.0 Safari/537.36 AVG/137.0.0.0","WebKit","Chrome","137.0.0.0","Windows","10.0","https://app.prolific.com/","en-GB,en-US;q=0.9,en;q=0.8","67292b38c60932d4ab0eeeb6","683db6dfa200031b80f2a654","68650789d888889537163e10","67292b38c60932d4ab0eeeb6","","","[0]","","","","quiz","","","","","","","","","","","","","","","","","","","","","","","","","","","","","","","","","","","","","false",""
"7516","","<p align='center'><b>INCORRECT.</b> Usually the green ball moves in the indicated direction, but sometimes it shakes and moves randomly. </p>","0","html-button-response","25","717879","0.0-8.0-5.0-1.0","132","1","2025-07-02 10:20:24","80fe4187154257d5fb01684ea91b68b9","41.122.14.58","Mozilla/5.0 (Windows NT 10.0; Win64; x64) AppleWebKit/537.36 (KHTML, like Gecko) Chrome/137.0.0.0 Safari/537.36 AVG/137.0.0.0","WebKit","Chrome","137.0.0.0","Windows","10.0","https://app.prolific.com/","en-GB,en-US;q=0.9,en;q=0.8","67292b38c60932d4ab0eeeb6","683db6dfa200031b80f2a654","68650789d888889537163e10","67292b38c60932d4ab0eeeb6","","","","","","","","","","","","","","","","","","","","","","","","","","","","","","","","","","","","","","","","","","","","",""
"15403","","","{""green_ball"":[""Ball sometimes shakes and moves in a random direction""]}","survey-multi-select","26","733290","0.0-8.0-5.1-0.1","132","1","2025-07-02 10:20:24","80fe4187154257d5fb01684ea91b68b9","41.122.14.58","Mozilla/5.0 (Windows NT 10.0; Win64; x64) AppleWebKit/537.36 (KHTML, like Gecko) Chrome/137.0.0.0 Safari/537.36 AVG/137.0.0.0","WebKit","Chrome","137.0.0.0","Windows","10.0","https://app.prolific.com/","en-GB,en-US;q=0.9,en;q=0.8","67292b38c60932d4ab0eeeb6","683db6dfa200031b80f2a654","68650789d888889537163e10","67292b38c60932d4ab0eeeb6","","","[0]","","","","quiz","","","","","","","","","","","","","","","","","","","","","","","","","","","","","","","","","","","","","true",""
"2305","","<p align='center'><b>CORRECT!</b> Indeed, the green ball may sometimes shake and move in a random direction.</p>","0","html-button-response","27","735599","0.0-8.0-5.1-1.1","132","1","2025-07-02 10:20:24","80fe4187154257d5fb01684ea91b68b9","41.122.14.58","Mozilla/5.0 (Windows NT 10.0; Win64; x64) AppleWebKit/537.36 (KHTML, like Gecko) Chrome/137.0.0.0 Safari/537.36 AVG/137.0.0.0","WebKit","Chrome","137.0.0.0","Windows","10.0","https://app.prolific.com/","en-GB,en-US;q=0.9,en;q=0.8","67292b38c60932d4ab0eeeb6","683db6dfa200031b80f2a654","68650789d888889537163e10","67292b38c60932d4ab0eeeb6","","","","","","","","","","","","","","","","","","","","","","","","","","","","","","","","","","","","","","","","","","","","",""
"8070","","","{""yellow_ball"":[""Ball doesn‘t move and I get -1 penalty point""]}","survey-multi-select","28","743674","0.0-8.0-6.0-0.0","132","1","2025-07-02 10:20:24","80fe4187154257d5fb01684ea91b68b9","41.122.14.58","Mozilla/5.0 (Windows NT 10.0; Win64; x64) AppleWebKit/537.36 (KHTML, like Gecko) Chrome/137.0.0.0 Safari/537.36 AVG/137.0.0.0","WebKit","Chrome","137.0.0.0","Windows","10.0","https://app.prolific.com/","en-GB,en-US;q=0.9,en;q=0.8","67292b38c60932d4ab0eeeb6","683db6dfa200031b80f2a654","68650789d888889537163e10","67292b38c60932d4ab0eeeb6","","","[0]","","","","quiz","","","","","","","","","","","","","","","","","","","","","","","","","","","","","","","","","","","","","true",""
"1612","","<p align='center'><b>CORRECT!</b> Indeed, the yellow ball never moves and you receive a penalty.</p>","0","html-button-response","29","745290","0.0-8.0-6.0-1.0","132","1","2025-07-02 10:20:24","80fe4187154257d5fb01684ea91b68b9","41.122.14.58","Mozilla/5.0 (Windows NT 10.0; Win64; x64) AppleWebKit/537.36 (KHTML, like Gecko) Chrome/137.0.0.0 Safari/537.36 AVG/137.0.0.0","WebKit","Chrome","137.0.0.0","Windows","10.0","https://app.prolific.com/","en-GB,en-US;q=0.9,en;q=0.8","67292b38c60932d4ab0eeeb6","683db6dfa200031b80f2a654","68650789d888889537163e10","67292b38c60932d4ab0eeeb6","","","","","","","","","","","","","","","","","","","","","","","","","","","","","","","","","","","","","","","","","","","","",""
"5225","","","{""blue_ball"":[""Ball always shakes and moves in a random direction""]}","survey-multi-select","30","750520","0.0-8.0-7.0-0.0","132","1","2025-07-02 10:20:24","80fe4187154257d5fb01684ea91b68b9","41.122.14.58","Mozilla/5.0 (Windows NT 10.0; Win64; x64) AppleWebKit/537.36 (KHTML, like Gecko) Chrome/137.0.0.0 Safari/537.36 AVG/137.0.0.0","WebKit","Chrome","137.0.0.0","Windows","10.0","https://app.prolific.com/","en-GB,en-US;q=0.9,en;q=0.8","67292b38c60932d4ab0eeeb6","683db6dfa200031b80f2a654","68650789d888889537163e10","67292b38c60932d4ab0eeeb6","","","[0]","","","","quiz","","","","","","","","","","","","","","","","","","","","","","","","","","","","","","","","","","","","","true",""
"1915","","<p align='center'><b>CORRECT!</b> Indeed, the blue ball always shakes and moves in a random direction. Also there is a penalty of -1 point.</p>","0","html-button-response","31","752439","0.0-8.0-7.0-1.0","132","1","2025-07-02 10:20:24","80fe4187154257d5fb01684ea91b68b9","41.122.14.58","Mozilla/5.0 (Windows NT 10.0; Win64; x64) AppleWebKit/537.36 (KHTML, like Gecko) Chrome/137.0.0.0 Safari/537.36 AVG/137.0.0.0","WebKit","Chrome","137.0.0.0","Windows","10.0","https://app.prolific.com/","en-GB,en-US;q=0.9,en;q=0.8","67292b38c60932d4ab0eeeb6","683db6dfa200031b80f2a654","68650789d888889537163e10","67292b38c60932d4ab0eeeb6","","","","","","","","","","","","","","","","","","","","","","","","","","","","","","","","","","","","","","","","","","","","",""
"5062","","","{""bonus"":[""When I reach 50% of points""]}","survey-multi-select","32","757509","0.0-8.0-8.0-0.0","132","1","2025-07-02 10:20:24","80fe4187154257d5fb01684ea91b68b9","41.122.14.58","Mozilla/5.0 (Windows NT 10.0; Win64; x64) AppleWebKit/537.36 (KHTML, like Gecko) Chrome/137.0.0.0 Safari/537.36 AVG/137.0.0.0","WebKit","Chrome","137.0.0.0","Windows","10.0","https://app.prolific.com/","en-GB,en-US;q=0.9,en;q=0.8","67292b38c60932d4ab0eeeb6","683db6dfa200031b80f2a654","68650789d888889537163e10","67292b38c60932d4ab0eeeb6","","","[0]","","","","quiz","","","","","","","","","","","","","","","","","","","","","","","","","","","","","","","","","","","","","true",""
"1901","","<p align='center'><b>CORRECT!</b> Indeed, you receive 2 pounds extra when you reach 50% of points.</p>","0","html-button-response","33","759414","0.0-8.0-8.0-1.0","132","1","2025-07-02 10:20:24","80fe4187154257d5fb01684ea91b68b9","41.122.14.58","Mozilla/5.0 (Windows NT 10.0; Win64; x64) AppleWebKit/537.36 (KHTML, like Gecko) Chrome/137.0.0.0 Safari/537.36 AVG/137.0.0.0","WebKit","Chrome","137.0.0.0","Windows","10.0","https://app.prolific.com/","en-GB,en-US;q=0.9,en;q=0.8","67292b38c60932d4ab0eeeb6","683db6dfa200031b80f2a654","68650789d888889537163e10","67292b38c60932d4ab0eeeb6","","","","","","","","","","","","","","","","","","","","","","","","","","","","","","","","","","","","","","","","","","","","",""
"9590","","","","instructions","34","769005","0.0-8.0-9.0","132","1","2025-07-02 10:20:24","80fe4187154257d5fb01684ea91b68b9","41.122.14.58","Mozilla/5.0 (Windows NT 10.0; Win64; x64) AppleWebKit/537.36 (KHTML, like Gecko) Chrome/137.0.0.0 Safari/537.36 AVG/137.0.0.0","WebKit","Chrome","137.0.0.0","Windows","10.0","https://app.prolific.com/","en-GB,en-US;q=0.9,en;q=0.8","67292b38c60932d4ab0eeeb6","683db6dfa200031b80f2a654","68650789d888889537163e10","67292b38c60932d4ab0eeeb6","","[{""page_index"":0,""viewing_time"":9589}]","","","","","","","","","","","","","","","","","","","","","","","","","","","","","","","","","","","","","","","","","","",""
"15513","","<p>Before you start with this game please answer the following three questions yourself. </p>
  <p>Through this game, we measure several aspects of your cognitive performance, such as reaction times, multi-tasking capabilities </p>
  <p>and the ability to assess the situation you are in.</p>
  <p></p>
  <p><b>How good do you usually are in such tasks?</b></p>","85","html-slider-response","35","784567","0.0-9.0-0.0","132","1","2025-07-02 10:20:24","80fe4187154257d5fb01684ea91b68b9","41.122.14.58","Mozilla/5.0 (Windows NT 10.0; Win64; x64) AppleWebKit/537.36 (KHTML, like Gecko) Chrome/137.0.0.0 Safari/537.36 AVG/137.0.0.0","WebKit","Chrome","137.0.0.0","Windows","10.0","https://app.prolific.com/","en-GB,en-US;q=0.9,en;q=0.8","67292b38c60932d4ab0eeeb6","683db6dfa200031b80f2a654","68650789d888889537163e10","67292b38c60932d4ab0eeeb6","2025-07-02T10:33:41.667Z","","","","","","PreSkillQ","","","","","","","","","","","","","","","","","","","","","","","","","","","","","","","","","","","","","","50"
"7437","","<div style=""width:500px;"">
  <p>How well do you think you will perform in this task compared to other participants?</p>
  </div>","81","html-slider-response","36","792014","0.0-9.0-1.0","132","1","2025-07-02 10:20:24","80fe4187154257d5fb01684ea91b68b9","41.122.14.58","Mozilla/5.0 (Windows NT 10.0; Win64; x64) AppleWebKit/537.36 (KHTML, like Gecko) Chrome/137.0.0.0 Safari/537.36 AVG/137.0.0.0","WebKit","Chrome","137.0.0.0","Windows","10.0","https://app.prolific.com/","en-GB,en-US;q=0.9,en;q=0.8","67292b38c60932d4ab0eeeb6","683db6dfa200031b80f2a654","68650789d888889537163e10","67292b38c60932d4ab0eeeb6","2025-07-02T10:33:49.114Z","","","","","","PrePerfQ","","","","","","","","","","","","","","","","","","","","","","","","","","","","","","","","","","","","","","50"
"5463","","<div style=""width:500px;"">
  <p>What best describes how you currently feel?</p>
  </div>","100","html-slider-response","37","797486","0.0-9.0-2.0","132","1","2025-07-02 10:20:24","80fe4187154257d5fb01684ea91b68b9","41.122.14.58","Mozilla/5.0 (Windows NT 10.0; Win64; x64) AppleWebKit/537.36 (KHTML, like Gecko) Chrome/137.0.0.0 Safari/537.36 AVG/137.0.0.0","WebKit","Chrome","137.0.0.0","Windows","10.0","https://app.prolific.com/","en-GB,en-US;q=0.9,en;q=0.8","67292b38c60932d4ab0eeeb6","683db6dfa200031b80f2a654","68650789d888889537163e10","67292b38c60932d4ab0eeeb6","2025-07-02T10:33:54.587Z","","","","","","PreMotivationQ","","","","","","","","","","","","","","","","","","","","","","","","","","","","","","","","","","","","","","50"
"","","","","ctl-task-cpt","38","831253","0.0-10.0-0.0","132","1","2025-07-02 10:20:24","80fe4187154257d5fb01684ea91b68b9","41.122.14.58","Mozilla/5.0 (Windows NT 10.0; Win64; x64) AppleWebKit/537.36 (KHTML, like Gecko) Chrome/137.0.0.0 Safari/537.36 AVG/137.0.0.0","WebKit","Chrome","137.0.0.0","Windows","10.0","https://app.prolific.com/","en-GB,en-US;q=0.9,en;q=0.8","67292b38c60932d4ab0eeeb6","683db6dfa200031b80f2a654","68650789d888889537163e10","67292b38c60932d4ab0eeeb6","2025-07-02T10:34:28.353Z","","","","","","","","","","","","","","","","win-only","0","g1:NW,g2:SE","1","1","0","810697.5","2635.2","7643.1","30692.2","1","4","8","6","2","8","8","8","0","0.06060606060606061","1279.1","3000","990","[""down"",""right""]","{""num_key_presses"":6,""num_perfect"":6,""num_errors"":0,""num_randdir"":0,""num_randdir_good_moves"":0,""num_whilered"":0,""num_whileblue"":0,""num_blue"":2,""num_good_moves"":6}","[294.22232142857143,295.12857142857143,0.8,294.22232142857143,295.12857142857143,101.8,294.22232142857143,295.12857142857143,211.6,294.22232142857143,295.12857142857143,318.5,294.22232142857143,295.12857142857143,422.8,294.22232142857143,295.12857142857143,527.4,294.22232142857143,295.12857142857143,630.7,294.22232142857143,295.12857142857143,737.5,438.22232142857143,414.12857142857143,843.1,517.2223214285714,534.1285714285714,945.9,536.2223214285714,564.1285714285714,1047.1,535.2223214285714,564.1285714285714,1156.6,535.2223214285714,564.1285714285714,1257.1,535.2223214285714,564.1285714285714,1361.1,535.2223214285714,564.1285714285714,1470.1,535.2223214285714,564.1285714285714,1570.7,535.2223214285714,564.1285714285714,1676.1,535.2223214285714,564.1285714285714,1786.4,535.2223214285714,564.1285714285714,1889.2,535.2223214285714,564.1285714285714,1995,535.2223214285714,564.1285714285714,2098,535.2223214285714,564.1285714285714,2203.2,535.2223214285714,564.1285714285714,2304,535.2223214285714,564.1285714285714,2410.9,535.2223214285714,564.1285714285714,2511.7,535.2223214285714,564.1285714285714,2611.7,535.2223214285714,564.1285714285714,2714.3,535.2223214285714,564.1285714285714,2825.3,535.2223214285714,564.1285714285714,2931.7,535.2223214285714,564.1285714285714,3037.7,535.2223214285714,564.1285714285714,3137.7,535.2223214285714,564.1285714285714,3241.5,535.2223214285714,564.1285714285714,3346.2,535.2223214285714,564.1285714285714,3448.3,535.2223214285714,564.1285714285714,3552.3,535.2223214285714,564.1285714285714,3653.4,535.2223214285714,564.1285714285714,3757,535.2223214285714,564.1285714285714,3858.4,535.2223214285714,564.1285714285714,3958.4,535.2223214285714,564.1285714285714,4059.6,535.2223214285714,564.1285714285714,4166.5,535.2223214285714,564.1285714285714,4268,535.2223214285714,564.1285714285714,4371.5,535.2223214285714,564.1285714285714,4477.3,535.2223214285714,564.1285714285714,4585.6,535.2223214285714,564.1285714285714,4685.7,535.2223214285714,564.1285714285714,4787.1,535.2223214285714,564.1285714285714,4890.1,535.2223214285714,564.1285714285714,4990.5]","[1570.6,1570.6,1000,0,570.6,""smooth"",""down"",""down"",""good_move"",4765,3189.8,2723.8,1575.3,466,""smooth"",""right"",""right"",""good_move"",7155.6,2388.2,1762.8,4767.4,625.4,""smooth"",""right"",""right"",""good_move"",13753.2,6596,2245.2,11057.5,450.5,""smooth"",""right"",""right"",""good_move"",20228.4,6474.4,3044.4,16803.7,380.3,""smooth"",""down"",""down"",""good_move"",22927.5,2698.3,2165.8,20229.2,532.5,""smooth"",""down"",""down"",""good_move""]","",""
"5611","","<div style=""width:500px;"">
  <p>What determined the result of this run?</p>
  </div>","100","html-slider-response","39","836867","0.0-10.0-1.0","132","1","2025-07-02 10:20:24","80fe4187154257d5fb01684ea91b68b9","41.122.14.58","Mozilla/5.0 (Windows NT 10.0; Win64; x64) AppleWebKit/537.36 (KHTML, like Gecko) Chrome/137.0.0.0 Safari/537.36 AVG/137.0.0.0","WebKit","Chrome","137.0.0.0","Windows","10.0","https://app.prolific.com/","en-GB,en-US;q=0.9,en;q=0.8","67292b38c60932d4ab0eeeb6","683db6dfa200031b80f2a654","68650789d888889537163e10","67292b38c60932d4ab0eeeb6","2025-07-02T10:34:33.967Z","","","","","","AttribQ","","","","","","","","","","","","","","","","","","","","","","","","","","","","","","","","","","","","","","50"
"5092","","<div style=""width:500px;"">
  <p>How much control did you have over the ball?</p>
  </div>","100","html-slider-response","40","841962","0.0-10.0-2.0","132","1","2025-07-02 10:20:24","80fe4187154257d5fb01684ea91b68b9","41.122.14.58","Mozilla/5.0 (Windows NT 10.0; Win64; x64) AppleWebKit/537.36 (KHTML, like Gecko) Chrome/137.0.0.0 Safari/537.36 AVG/137.0.0.0","WebKit","Chrome","137.0.0.0","Windows","10.0","https://app.prolific.com/","en-GB,en-US;q=0.9,en;q=0.8","67292b38c60932d4ab0eeeb6","683db6dfa200031b80f2a654","68650789d888889537163e10","67292b38c60932d4ab0eeeb6","2025-07-02T10:34:39.062Z","","","","","","ControlQ","","","","","","","","","","","","","","","","","","","","","","","","","","","","","","","","","","","","","","50"
"5631","","<div style=""width:500px;"">
  <p>How would you describe your current emotional state?</p>
  </div>","0","html-slider-response","41","847596","0.0-10.0-3.0","132","1","2025-07-02 10:20:24","80fe4187154257d5fb01684ea91b68b9","41.122.14.58","Mozilla/5.0 (Windows NT 10.0; Win64; x64) AppleWebKit/537.36 (KHTML, like Gecko) Chrome/137.0.0.0 Safari/537.36 AVG/137.0.0.0","WebKit","Chrome","137.0.0.0","Windows","10.0","https://app.prolific.com/","en-GB,en-US;q=0.9,en;q=0.8","67292b38c60932d4ab0eeeb6","683db6dfa200031b80f2a654","68650789d888889537163e10","67292b38c60932d4ab0eeeb6","2025-07-02T10:34:44.697Z","","","","","","StressQ","","","","","","","","","","","","","","","","","","","","","","","","","","","","","","","","","","","","","","50"
"5337","","<div style=""width:500px;"">
  <p>What best describes how you currently feel?</p>
  </div>","100","html-slider-response","42","852938","0.0-10.0-4.0","132","1","2025-07-02 10:20:24","80fe4187154257d5fb01684ea91b68b9","41.122.14.58","Mozilla/5.0 (Windows NT 10.0; Win64; x64) AppleWebKit/537.36 (KHTML, like Gecko) Chrome/137.0.0.0 Safari/537.36 AVG/137.0.0.0","WebKit","Chrome","137.0.0.0","Windows","10.0","https://app.prolific.com/","en-GB,en-US;q=0.9,en;q=0.8","67292b38c60932d4ab0eeeb6","683db6dfa200031b80f2a654","68650789d888889537163e10","67292b38c60932d4ab0eeeb6","2025-07-02T10:34:50.039Z","","","","","","MotivationQ","","","","","","","","","","","","","","","","","","","","","","","","","","","","","","","","","","","","","","50"
"","","","","ctl-task-cpt","43","886487","0.0-10.0-0.1","132","1","2025-07-02 10:20:24","80fe4187154257d5fb01684ea91b68b9","41.122.14.58","Mozilla/5.0 (Windows NT 10.0; Win64; x64) AppleWebKit/537.36 (KHTML, like Gecko) Chrome/137.0.0.0 Safari/537.36 AVG/137.0.0.0","WebKit","Chrome","137.0.0.0","Windows","10.0","https://app.prolific.com/","en-GB,en-US;q=0.9,en;q=0.8","67292b38c60932d4ab0eeeb6","683db6dfa200031b80f2a654","68650789d888889537163e10","67292b38c60932d4ab0eeeb6","2025-07-02T10:35:23.587Z","","","","","","","","","","","","","","","","win-only","2","g1:SE,g2:NW","0.9","2","0","866143.6","1930.6","6943.3","30478.9","1","4","4","6","2","4","4","12","8","0.09090909090909091","4038.4","3000","1240","[""left"",""up""]","{""num_key_presses"":6,""num_perfect"":6,""num_errors"":0,""num_randdir"":0,""num_randdir_good_moves"":0,""num_whilered"":0,""num_whileblue"":0,""num_blue"":2,""num_good_moves"":6}","[291.22232142857143,301.12857142857143,0.6,291.22232142857143,301.12857142857143,102.5,291.22232142857143,301.12857142857143,212.1,291.22232142857143,301.12857142857143,313,291.22232142857143,301.12857142857143,414.8,291.22232142857143,301.12857142857143,517.9,291.22232142857143,301.12857142857143,620.7,318.22232142857143,310.12857142857143,726.5,400.22232142857143,375.12857142857143,832.4,400.22232142857143,380.12857142857143,932.5,396.22232142857143,383.12857142857143,1039.1,397.22232142857143,388.12857142857143,1146.9,381.22232142857143,393.12857142857143,1259.7,158.22232142857143,220.12857142857143,1372.6,151.22232142857143,209.12857142857143,1480,151.22232142857143,209.12857142857143,1580.7,18.222321428571426,44.128571428571426,1681.5,10.222321428571426,35.128571428571426,1787.2,10.222321428571426,35.128571428571426,1887.4,104.22232142857143,116.12857142857143,1999.8,398.22232142857143,369.12857142857143,2100.7,460.22232142857143,495.12857142857143,2201.3,460.22232142857143,495.12857142857143,2301.5,460.22232142857143,495.12857142857143,2402.2,346.22232142857143,402.12857142857143,2502.4,245.22232142857143,322.12857142857143,2612.7,245.22232142857143,322.12857142857143,2713.2,245.22232142857143,322.12857142857143,2816.7,100.22232142857143,110.12857142857143,2927.6,92.22232142857143,103.12857142857143,3033.9,88.22232142857143,99.12857142857143,3142.2,88.22232142857143,99.12857142857143,3249.3,88.22232142857143,99.12857142857143,3356.6,88.22232142857143,99.12857142857143,3466.3,88.22232142857143,99.12857142857143,3576.1,88.22232142857143,99.12857142857143,3678.7,88.22232142857143,99.12857142857143,3782.6,60.222321428571426,52.128571428571426,3892.3,60.222321428571426,52.128571428571426,4002.7,60.222321428571426,52.128571428571426,4111.3,60.222321428571426,52.128571428571426,4211.6,60.222321428571426,52.128571428571426,4312.4,60.222321428571426,52.128571428571426,4412.9,60.222321428571426,52.128571428571426,4513.3,60.222321428571426,52.128571428571426,4621.4,60.222321428571426,52.128571428571426,4726.4,60.222321428571426,52.128571428571426,4828.4,60.222321428571426,52.128571428571426,4933.9]","[7697.3,7697.3,1680.2,5603.4,413.7,""smooth"",""up"",""up"",""good_move"",10793.6,3094.7,2517.9,7698.9,576.8,""smooth"",""up"",""up"",""good_move"",14077.4,3282.7,2871.5,10794.7,411.2,""smooth"",""up"",""up"",""good_move"",16950.4,2870.8,2512.3,14079.8,358.4,""smooth"",""left"",""left"",""good_move"",20357.7,3404.6,3042.2,16953.1,362.4,""smooth"",""left"",""left"",""good_move"",23430.1,3070.4,2676.1,20359.7,394.3,""smooth"",""left"",""left"",""good_move""]","",""
"4400","","<div style=""width:500px;"">
  <p>What determined the result of this run?</p>
  </div>","100","html-slider-response","44","890889","0.0-10.0-1.1","132","1","2025-07-02 10:20:24","80fe4187154257d5fb01684ea91b68b9","41.122.14.58","Mozilla/5.0 (Windows NT 10.0; Win64; x64) AppleWebKit/537.36 (KHTML, like Gecko) Chrome/137.0.0.0 Safari/537.36 AVG/137.0.0.0","WebKit","Chrome","137.0.0.0","Windows","10.0","https://app.prolific.com/","en-GB,en-US;q=0.9,en;q=0.8","67292b38c60932d4ab0eeeb6","683db6dfa200031b80f2a654","68650789d888889537163e10","67292b38c60932d4ab0eeeb6","2025-07-02T10:35:27.989Z","","","","","","AttribQ","","","","","","","","","","","","","","","","","","","","","","","","","","","","","","","","","","","","","","50"
"3165","","<div style=""width:500px;"">
  <p>How much control did you have over the ball?</p>
  </div>","100","html-slider-response","45","894058","0.0-10.0-2.1","132","1","2025-07-02 10:20:24","80fe4187154257d5fb01684ea91b68b9","41.122.14.58","Mozilla/5.0 (Windows NT 10.0; Win64; x64) AppleWebKit/537.36 (KHTML, like Gecko) Chrome/137.0.0.0 Safari/537.36 AVG/137.0.0.0","WebKit","Chrome","137.0.0.0","Windows","10.0","https://app.prolific.com/","en-GB,en-US;q=0.9,en;q=0.8","67292b38c60932d4ab0eeeb6","683db6dfa200031b80f2a654","68650789d888889537163e10","67292b38c60932d4ab0eeeb6","2025-07-02T10:35:31.158Z","","","","","","ControlQ","","","","","","","","","","","","","","","","","","","","","","","","","","","","","","","","","","","","","","50"
"3302","","<div style=""width:500px;"">
  <p>How would you describe your current emotional state?</p>
  </div>","0","html-slider-response","46","897362","0.0-10.0-3.1","132","1","2025-07-02 10:20:24","80fe4187154257d5fb01684ea91b68b9","41.122.14.58","Mozilla/5.0 (Windows NT 10.0; Win64; x64) AppleWebKit/537.36 (KHTML, like Gecko) Chrome/137.0.0.0 Safari/537.36 AVG/137.0.0.0","WebKit","Chrome","137.0.0.0","Windows","10.0","https://app.prolific.com/","en-GB,en-US;q=0.9,en;q=0.8","67292b38c60932d4ab0eeeb6","683db6dfa200031b80f2a654","68650789d888889537163e10","67292b38c60932d4ab0eeeb6","2025-07-02T10:35:34.462Z","","","","","","StressQ","","","","","","","","","","","","","","","","","","","","","","","","","","","","","","","","","","","","","","50"
"3477","","<div style=""width:500px;"">
  <p>What best describes how you currently feel?</p>
  </div>","100","html-slider-response","47","900841","0.0-10.0-4.1","132","1","2025-07-02 10:20:24","80fe4187154257d5fb01684ea91b68b9","41.122.14.58","Mozilla/5.0 (Windows NT 10.0; Win64; x64) AppleWebKit/537.36 (KHTML, like Gecko) Chrome/137.0.0.0 Safari/537.36 AVG/137.0.0.0","WebKit","Chrome","137.0.0.0","Windows","10.0","https://app.prolific.com/","en-GB,en-US;q=0.9,en;q=0.8","67292b38c60932d4ab0eeeb6","683db6dfa200031b80f2a654","68650789d888889537163e10","67292b38c60932d4ab0eeeb6","2025-07-02T10:35:37.941Z","","","","","","MotivationQ","","","","","","","","","","","","","","","","","","","","","","","","","","","","","","","","","","","","","","50"
"","","","","ctl-task-cpt","48","933353","0.0-10.0-0.2","132","1","2025-07-02 10:20:24","80fe4187154257d5fb01684ea91b68b9","41.122.14.58","Mozilla/5.0 (Windows NT 10.0; Win64; x64) AppleWebKit/537.36 (KHTML, like Gecko) Chrome/137.0.0.0 Safari/537.36 AVG/137.0.0.0","WebKit","Chrome","137.0.0.0","Windows","10.0","https://app.prolific.com/","en-GB,en-US;q=0.9,en;q=0.8","67292b38c60932d4ab0eeeb6","683db6dfa200031b80f2a654","68650789d888889537163e10","67292b38c60932d4ab0eeeb6","2025-07-02T10:36:10.453Z","","","","","","","","","","","","","","","","win-only","1","g1:NE,g2:SW","0.8","3","0","914003.4","1535","6536.4","29501.6","1","4","4","6","2","4","3","15","12","0.11363636363636363","1442.4","3000","665","[""down"",""left""]","{""num_key_presses"":8,""num_perfect"":5,""num_errors"":1,""num_randdir"":2,""num_randdir_good_moves"":1,""num_whilered"":0,""num_whileblue"":1,""num_blue"":1,""num_good_moves"":7}","[293.22232142857143,292.12857142857143,1.1,293.22232142857143,292.12857142857143,103.4,293.22232142857143,292.12857142857143,206.1,293.22232142857143,292.12857142857143,308,293.22232142857143,292.12857142857143,417,293.22232142857143,292.12857142857143,518.2,293.22232142857143,292.12857142857143,622.8,293.22232142857143,292.12857142857143,722.9,293.22232142857143,292.12857142857143,823.9,107.22232142857143,471.12857142857143,932.3,40.222321428571426,547.1285714285714,1039.6,30.222321428571426,556.1285714285714,1142.9,24.222321428571426,562.1285714285714,1249.1,24.222321428571426,562.1285714285714,1360.4,24.222321428571426,562.1285714285714,1477.6,24.222321428571426,562.1285714285714,1583.4,24.222321428571426,562.1285714285714,1683.9,24.222321428571426,562.1285714285714,1786.7,24.222321428571426,562.1285714285714,1889.3,24.222321428571426,562.1285714285714,1999.5,24.222321428571426,562.1285714285714,2105.5,24.222321428571426,562.1285714285714,2206.8,24.222321428571426,562.1285714285714,2308.6,24.222321428571426,562.1285714285714,2413.2,24.222321428571426,562.1285714285714,2517.7,24.222321428571426,562.1285714285714,2621.2,24.222321428571426,562.1285714285714,2721.8,24.222321428571426,562.1285714285714,2832.8,24.222321428571426,562.1285714285714,2933.4,24.222321428571426,562.1285714285714,3038.8,24.222321428571426,562.1285714285714,3146,24.222321428571426,562.1285714285714,3254.2,24.222321428571426,562.1285714285714,3362.2,24.222321428571426,562.1285714285714,3464.1,24.222321428571426,562.1285714285714,3568.5,24.222321428571426,562.1285714285714,3688.8,24.222321428571426,562.1285714285714,3791.8,24.222321428571426,562.1285714285714,3897,24.222321428571426,562.1285714285714,3998.3,24.222321428571426,562.1285714285714,4103.8,24.222321428571426,562.1285714285714,4207.8,24.222321428571426,562.1285714285714,4308.3,24.222321428571426,562.1285714285714,4413.7,24.222321428571426,562.1285714285714,4515,24.222321428571426,562.1285714285714,4617.6,24.222321428571426,562.1285714285714,4723.3,24.222321428571426,562.1285714285714,4823.6,24.222321428571426,562.1285714285714,4931.2]","[1435.3,1435.3,1000,0,435.3,""smooth"",""down"",""down"",""good_move"",4698,3261.2,2743.9,1436.8,517.3,""smooth"",""down"",""down"",""good_move"",7260.7,2561.2,1871.4,4699.5,689.8,""oops"",""left"",""left"",""good_move"",10536.7,3274.5,2874.6,7262.2,399.9,""while_blue"",""down"",""down"",""good_move"",13338.2,2800.4,2413.8,10537.8,386.6,""oops"",""left"",""right"",""bad_move"",16337.4,2997.9,2574.7,13339.5,423.2,""smooth"",""left"",""left"",""good_move"",19668.2,3329.5,2907.8,16338.7,421.7,""smooth"",""left"",""left"",""good_move"",22851,3181.7,2715.1,19669.3,466.6,""smooth"",""left"",""left"",""good_move""]","",""
"4184","","<div style=""width:500px;"">
  <p>What determined the result of this run?</p>
  </div>","100","html-slider-response","49","937540","0.0-10.0-1.2","132","1","2025-07-02 10:20:24","80fe4187154257d5fb01684ea91b68b9","41.122.14.58","Mozilla/5.0 (Windows NT 10.0; Win64; x64) AppleWebKit/537.36 (KHTML, like Gecko) Chrome/137.0.0.0 Safari/537.36 AVG/137.0.0.0","WebKit","Chrome","137.0.0.0","Windows","10.0","https://app.prolific.com/","en-GB,en-US;q=0.9,en;q=0.8","67292b38c60932d4ab0eeeb6","683db6dfa200031b80f2a654","68650789d888889537163e10","67292b38c60932d4ab0eeeb6","2025-07-02T10:36:14.640Z","","","","","","AttribQ","","","","","","","","","","","","","","","","","","","","","","","","","","","","","","","","","","","","","","50"
"3665","","<div style=""width:500px;"">
  <p>How much control did you have over the ball?</p>
  </div>","100","html-slider-response","50","941208","0.0-10.0-2.2","132","1","2025-07-02 10:20:24","80fe4187154257d5fb01684ea91b68b9","41.122.14.58","Mozilla/5.0 (Windows NT 10.0; Win64; x64) AppleWebKit/537.36 (KHTML, like Gecko) Chrome/137.0.0.0 Safari/537.36 AVG/137.0.0.0","WebKit","Chrome","137.0.0.0","Windows","10.0","https://app.prolific.com/","en-GB,en-US;q=0.9,en;q=0.8","67292b38c60932d4ab0eeeb6","683db6dfa200031b80f2a654","68650789d888889537163e10","67292b38c60932d4ab0eeeb6","2025-07-02T10:36:18.308Z","","","","","","ControlQ","","","","","","","","","","","","","","","","","","","","","","","","","","","","","","","","","","","","","","50"
"3126","","<div style=""width:500px;"">
  <p>How would you describe your current emotional state?</p>
  </div>","0","html-slider-response","51","944340","0.0-10.0-3.2","132","1","2025-07-02 10:20:24","80fe4187154257d5fb01684ea91b68b9","41.122.14.58","Mozilla/5.0 (Windows NT 10.0; Win64; x64) AppleWebKit/537.36 (KHTML, like Gecko) Chrome/137.0.0.0 Safari/537.36 AVG/137.0.0.0","WebKit","Chrome","137.0.0.0","Windows","10.0","https://app.prolific.com/","en-GB,en-US;q=0.9,en;q=0.8","67292b38c60932d4ab0eeeb6","683db6dfa200031b80f2a654","68650789d888889537163e10","67292b38c60932d4ab0eeeb6","2025-07-02T10:36:21.443Z","","","","","","StressQ","","","","","","","","","","","","","","","","","","","","","","","","","","","","","","","","","","","","","","50"
"3267","","<div style=""width:500px;"">
  <p>What best describes how you currently feel?</p>
  </div>","100","html-slider-response","52","947612","0.0-10.0-4.2","132","1","2025-07-02 10:20:24","80fe4187154257d5fb01684ea91b68b9","41.122.14.58","Mozilla/5.0 (Windows NT 10.0; Win64; x64) AppleWebKit/537.36 (KHTML, like Gecko) Chrome/137.0.0.0 Safari/537.36 AVG/137.0.0.0","WebKit","Chrome","137.0.0.0","Windows","10.0","https://app.prolific.com/","en-GB,en-US;q=0.9,en;q=0.8","67292b38c60932d4ab0eeeb6","683db6dfa200031b80f2a654","68650789d888889537163e10","67292b38c60932d4ab0eeeb6","2025-07-02T10:36:24.712Z","","","","","","MotivationQ","","","","","","","","","","","","","","","","","","","","","","","","","","","","","","","","","","","","","","50"
"","","","","ctl-task-cpt","53","980712","0.0-10.0-0.3","132","1","2025-07-02 10:20:24","80fe4187154257d5fb01684ea91b68b9","41.122.14.58","Mozilla/5.0 (Windows NT 10.0; Win64; x64) AppleWebKit/537.36 (KHTML, like Gecko) Chrome/137.0.0.0 Safari/537.36 AVG/137.0.0.0","WebKit","Chrome","137.0.0.0","Windows","10.0","https://app.prolific.com/","en-GB,en-US;q=0.9,en;q=0.8","67292b38c60932d4ab0eeeb6","683db6dfa200031b80f2a654","68650789d888889537163e10","67292b38c60932d4ab0eeeb6","2025-07-02T10:36:57.813Z","","","","","","","","","","","","","","","","win-only","1","g1:NE,g2:SW","0.7","4","0","960773.7","1480.5","6483.5","30090.4","1","4","8","6","2","8","8","23","15","0.17424242424242425","1187.1","3000","1465","[""down"",""left""]","{""num_key_presses"":6,""num_perfect"":6,""num_errors"":0,""num_randdir"":0,""num_randdir_good_moves"":0,""num_whilered"":0,""num_whileblue"":0,""num_blue"":2,""num_good_moves"":6}","[298.22232142857143,295.12857142857143,0.8,298.22232142857143,295.12857142857143,100.6,298.22232142857143,295.12857142857143,201.3,298.22232142857143,295.12857142857143,304.3,298.22232142857143,295.12857142857143,404.9,298.22232142857143,295.12857142857143,505.7,298.22232142857143,295.12857142857143,614,298.22232142857143,295.12857142857143,716.1,147.22232142857143,463.12857142857143,817,89.22232142857143,518.1285714285714,920.8,75.22232142857143,532.1285714285714,1029.8,75.22232142857143,532.1285714285714,1130.2,75.22232142857143,532.1285714285714,1233.3,75.22232142857143,532.1285714285714,1344.4,75.22232142857143,532.1285714285714,1446.4,75.22232142857143,532.1285714285714,1553.3,75.22232142857143,532.1285714285714,1660.2,75.22232142857143,532.1285714285714,1762.2,223.22232142857143,418.12857142857143,1863.1,306.22232142857143,323.12857142857143,1963.5,323.22232142857143,315.12857142857143,2064.2,323.22232142857143,315.12857142857143,2170.6,323.22232142857143,315.12857142857143,2272.6,323.22232142857143,315.12857142857143,2373,323.22232142857143,315.12857142857143,2476.5,323.22232142857143,315.12857142857143,2578,323.22232142857143,315.12857142857143,2685.3,323.22232142857143,315.12857142857143,2793.2,323.22232142857143,315.12857142857143,2894.4,323.22232142857143,315.12857142857143,2996.9,323.22232142857143,315.12857142857143,3102.1,323.22232142857143,315.12857142857143,3223.4,323.22232142857143,315.12857142857143,3323.5,323.22232142857143,315.12857142857143,3423.8,323.22232142857143,315.12857142857143,3526.8,323.22232142857143,315.12857142857143,3635.2,323.22232142857143,315.12857142857143,3736.3,323.22232142857143,315.12857142857143,3837.4,323.22232142857143,315.12857142857143,3947.5,323.22232142857143,315.12857142857143,4054.8,323.22232142857143,315.12857142857143,4160.9,323.22232142857143,315.12857142857143,4263.3,323.22232142857143,315.12857142857143,4368.6,323.22232142857143,315.12857142857143,4477.8,323.22232142857143,315.12857142857143,4578.9,323.22232142857143,315.12857142857143,4685.8,323.22232142857143,315.12857142857143,4787,323.22232142857143,315.12857142857143,4889.2,323.22232142857143,315.12857142857143,4993.4]","[1338.8,1338.8,1000,0,338.8,""smooth"",""down"",""down"",""good_move"",7725.6,6385.6,2349.9,4999.6,376.2,""smooth"",""down"",""down"",""good_move"",10449.1,2722.8,2271.8,7726.4,451,""smooth"",""down"",""down"",""good_move"",13238.6,2785.6,2368.5,10453,417.1,""smooth"",""left"",""left"",""good_move"",20206.6,6966.4,2730.9,17121.5,354.2,""smooth"",""left"",""left"",""good_move"",23453.7,3244.1,2735.9,20209.6,508.2,""smooth"",""left"",""left"",""good_move""]","",""
"3886","","<div style=""width:500px;"">
  <p>What determined the result of this run?</p>
  </div>","100","html-slider-response","54","984601","0.0-10.0-1.3","132","1","2025-07-02 10:20:24","80fe4187154257d5fb01684ea91b68b9","41.122.14.58","Mozilla/5.0 (Windows NT 10.0; Win64; x64) AppleWebKit/537.36 (KHTML, like Gecko) Chrome/137.0.0.0 Safari/537.36 AVG/137.0.0.0","WebKit","Chrome","137.0.0.0","Windows","10.0","https://app.prolific.com/","en-GB,en-US;q=0.9,en;q=0.8","67292b38c60932d4ab0eeeb6","683db6dfa200031b80f2a654","68650789d888889537163e10","67292b38c60932d4ab0eeeb6","2025-07-02T10:37:01.701Z","","","","","","AttribQ","","","","","","","","","","","","","","","","","","","","","","","","","","","","","","","","","","","","","","50"
"4480","","<div style=""width:500px;"">
  <p>How much control did you have over the ball?</p>
  </div>","100","html-slider-response","55","989083","0.0-10.0-2.3","132","1","2025-07-02 10:20:24","80fe4187154257d5fb01684ea91b68b9","41.122.14.58","Mozilla/5.0 (Windows NT 10.0; Win64; x64) AppleWebKit/537.36 (KHTML, like Gecko) Chrome/137.0.0.0 Safari/537.36 AVG/137.0.0.0","WebKit","Chrome","137.0.0.0","Windows","10.0","https://app.prolific.com/","en-GB,en-US;q=0.9,en;q=0.8","67292b38c60932d4ab0eeeb6","683db6dfa200031b80f2a654","68650789d888889537163e10","67292b38c60932d4ab0eeeb6","2025-07-02T10:37:06.183Z","","","","","","ControlQ","","","","","","","","","","","","","","","","","","","","","","","","","","","","","","","","","","","","","","50"
"3378","","<div style=""width:500px;"">
  <p>How would you describe your current emotional state?</p>
  </div>","0","html-slider-response","56","992464","0.0-10.0-3.3","132","1","2025-07-02 10:20:24","80fe4187154257d5fb01684ea91b68b9","41.122.14.58","Mozilla/5.0 (Windows NT 10.0; Win64; x64) AppleWebKit/537.36 (KHTML, like Gecko) Chrome/137.0.0.0 Safari/537.36 AVG/137.0.0.0","WebKit","Chrome","137.0.0.0","Windows","10.0","https://app.prolific.com/","en-GB,en-US;q=0.9,en;q=0.8","67292b38c60932d4ab0eeeb6","683db6dfa200031b80f2a654","68650789d888889537163e10","67292b38c60932d4ab0eeeb6","2025-07-02T10:37:09.564Z","","","","","","StressQ","","","","","","","","","","","","","","","","","","","","","","","","","","","","","","","","","","","","","","50"
"3708","","<div style=""width:500px;"">
  <p>What best describes how you currently feel?</p>
  </div>","100","html-slider-response","57","996175","0.0-10.0-4.3","132","1","2025-07-02 10:20:24","80fe4187154257d5fb01684ea91b68b9","41.122.14.58","Mozilla/5.0 (Windows NT 10.0; Win64; x64) AppleWebKit/537.36 (KHTML, like Gecko) Chrome/137.0.0.0 Safari/537.36 AVG/137.0.0.0","WebKit","Chrome","137.0.0.0","Windows","10.0","https://app.prolific.com/","en-GB,en-US;q=0.9,en;q=0.8","67292b38c60932d4ab0eeeb6","683db6dfa200031b80f2a654","68650789d888889537163e10","67292b38c60932d4ab0eeeb6","2025-07-02T10:37:13.275Z","","","","","","MotivationQ","","","","","","","","","","","","","","","","","","","","","","","","","","","","","","","","","","","","","","50"
"","","","","ctl-task-cpt","58","1034260","0.0-10.0-0.4","132","1","2025-07-02 10:20:24","80fe4187154257d5fb01684ea91b68b9","41.122.14.58","Mozilla/5.0 (Windows NT 10.0; Win64; x64) AppleWebKit/537.36 (KHTML, like Gecko) Chrome/137.0.0.0 Safari/537.36 AVG/137.0.0.0","WebKit","Chrome","137.0.0.0","Windows","10.0","https://app.prolific.com/","en-GB,en-US;q=0.9,en;q=0.8","67292b38c60932d4ab0eeeb6","683db6dfa200031b80f2a654","68650789d888889537163e10","67292b38c60932d4ab0eeeb6","2025-07-02T10:37:51.361Z","","","","","","","","","","","","","","","","win-only","1","g1:NE,g2:SW","0.6","5","0","1009337.6","1441.9","6465","35060.3","1","4","8","6","2","8","8","31","23","0.23484848484848486","1308.2","3000","2015","[""down"",""left""]","{""num_key_presses"":8,""num_perfect"":5,""num_errors"":0,""num_randdir"":3,""num_randdir_good_moves"":2,""num_whilered"":0,""num_whileblue"":0,""num_blue"":1,""num_good_moves"":7}","[294.22232142857143,289.12857142857143,0.1,294.22232142857143,289.12857142857143,103.9,294.22232142857143,289.12857142857143,204.9,294.22232142857143,289.12857142857143,308.7,294.22232142857143,289.12857142857143,424.8,294.22232142857143,289.12857142857143,532.3,294.22232142857143,289.12857142857143,634.7,294.22232142857143,289.12857142857143,744.5,196.22232142857143,388.12857142857143,874,95.22232142857143,508.12857142857143,987.3,70.22232142857143,529.1285714285714,1102.8,68.22232142857143,529.1285714285714,1218.4,68.22232142857143,529.1285714285714,1326.5,68.22232142857143,529.1285714285714,1431.6,68.22232142857143,529.1285714285714,1543.2,68.22232142857143,529.1285714285714,1648.1,68.22232142857143,529.1285714285714,1748.4,68.22232142857143,529.1285714285714,1859.2,68.22232142857143,529.1285714285714,1969.6,68.22232142857143,529.1285714285714,2076.3,68.22232142857143,529.1285714285714,2176.4,68.22232142857143,529.1285714285714,2288.2,68.22232142857143,529.1285714285714,2403.2,68.22232142857143,529.1285714285714,2519.1,68.22232142857143,529.1285714285714,2633.2,68.22232142857143,529.1285714285714,2798.3,68.22232142857143,529.1285714285714,2899.9,68.22232142857143,529.1285714285714,3002.4,68.22232142857143,529.1285714285714,3116.5,68.22232142857143,529.1285714285714,3223.9,68.22232142857143,529.1285714285714,3329.8,68.22232142857143,529.1285714285714,3431.4,68.22232142857143,529.1285714285714,3541.6,68.22232142857143,529.1285714285714,3645.7,68.22232142857143,529.1285714285714,3805.9,68.22232142857143,529.1285714285714,3916.7,68.22232142857143,529.1285714285714,4024.4,68.22232142857143,529.1285714285714,4140.6,68.22232142857143,529.1285714285714,4245.2,68.22232142857143,529.1285714285714,4345.7,68.22232142857143,529.1285714285714,4446.8,68.22232142857143,529.1285714285714,4553,68.22232142857143,529.1285714285714,4666.8,68.22232142857143,529.1285714285714,4770.3,68.22232142857143,529.1285714285714,4904.3]","[4686.9,4686.9,2314.2,2020.1,352.6,""smooth"",""down"",""down"",""good_move"",8251.4,3550.4,3018.5,4701,531.9,""oops"",""down"",""left"",""good_move"",11327.4,3074.1,2627.6,8253.3,446.5,""oops"",""down"",""right"",""bad_move"",14479.6,3150.1,2746.8,11329.5,403.3,""smooth"",""down"",""down"",""good_move"",17892,3410.8,3021.7,14481.2,389.1,""oops"",""down"",""down"",""good_move"",20624.6,2730.7,2334.6,17894.1,395.9,""smooth"",""left"",""left"",""good_move"",24783.9,4156.7,3134.1,20627.3,1022.6,""smooth"",""left"",""left"",""good_move"",28228.8,3443.3,1729.5,24785.7,1713.6,""smooth"",""left"",""left"",""good_move""]","",""
"3270","","<div style=""width:500px;"">
  <p>What determined the result of this run?</p>
  </div>","100","html-slider-response","59","1037534","0.0-10.0-1.4","132","1","2025-07-02 10:20:24","80fe4187154257d5fb01684ea91b68b9","41.122.14.58","Mozilla/5.0 (Windows NT 10.0; Win64; x64) AppleWebKit/537.36 (KHTML, like Gecko) Chrome/137.0.0.0 Safari/537.36 AVG/137.0.0.0","WebKit","Chrome","137.0.0.0","Windows","10.0","https://app.prolific.com/","en-GB,en-US;q=0.9,en;q=0.8","67292b38c60932d4ab0eeeb6","683db6dfa200031b80f2a654","68650789d888889537163e10","67292b38c60932d4ab0eeeb6","2025-07-02T10:37:54.634Z","","","","","","AttribQ","","","","","","","","","","","","","","","","","","","","","","","","","","","","","","","","","","","","","","50"
"2647","","<div style=""width:500px;"">
  <p>How much control did you have over the ball?</p>
  </div>","100","html-slider-response","60","1040185","0.0-10.0-2.4","132","1","2025-07-02 10:20:24","80fe4187154257d5fb01684ea91b68b9","41.122.14.58","Mozilla/5.0 (Windows NT 10.0; Win64; x64) AppleWebKit/537.36 (KHTML, like Gecko) Chrome/137.0.0.0 Safari/537.36 AVG/137.0.0.0","WebKit","Chrome","137.0.0.0","Windows","10.0","https://app.prolific.com/","en-GB,en-US;q=0.9,en;q=0.8","67292b38c60932d4ab0eeeb6","683db6dfa200031b80f2a654","68650789d888889537163e10","67292b38c60932d4ab0eeeb6","2025-07-02T10:37:57.285Z","","","","","","ControlQ","","","","","","","","","","","","","","","","","","","","","","","","","","","","","","","","","","","","","","50"
"2710","","<div style=""width:500px;"">
  <p>How would you describe your current emotional state?</p>
  </div>","0","html-slider-response","61","1042898","0.0-10.0-3.4","132","1","2025-07-02 10:20:24","80fe4187154257d5fb01684ea91b68b9","41.122.14.58","Mozilla/5.0 (Windows NT 10.0; Win64; x64) AppleWebKit/537.36 (KHTML, like Gecko) Chrome/137.0.0.0 Safari/537.36 AVG/137.0.0.0","WebKit","Chrome","137.0.0.0","Windows","10.0","https://app.prolific.com/","en-GB,en-US;q=0.9,en;q=0.8","67292b38c60932d4ab0eeeb6","683db6dfa200031b80f2a654","68650789d888889537163e10","67292b38c60932d4ab0eeeb6","2025-07-02T10:37:59.998Z","","","","","","StressQ","","","","","","","","","","","","","","","","","","","","","","","","","","","","","","","","","","","","","","50"
"3114","","<div style=""width:500px;"">
  <p>What best describes how you currently feel?</p>
  </div>","100","html-slider-response","62","1046015","0.0-10.0-4.4","132","1","2025-07-02 10:20:24","80fe4187154257d5fb01684ea91b68b9","41.122.14.58","Mozilla/5.0 (Windows NT 10.0; Win64; x64) AppleWebKit/537.36 (KHTML, like Gecko) Chrome/137.0.0.0 Safari/537.36 AVG/137.0.0.0","WebKit","Chrome","137.0.0.0","Windows","10.0","https://app.prolific.com/","en-GB,en-US;q=0.9,en;q=0.8","67292b38c60932d4ab0eeeb6","683db6dfa200031b80f2a654","68650789d888889537163e10","67292b38c60932d4ab0eeeb6","2025-07-02T10:38:03.115Z","","","","","","MotivationQ","","","","","","","","","","","","","","","","","","","","","","","","","","","","","","","","","","","","","","50"
"","","","","ctl-task-cpt","63","1090166","0.0-10.0-0.5","132","1","2025-07-02 10:20:24","80fe4187154257d5fb01684ea91b68b9","41.122.14.58","Mozilla/5.0 (Windows NT 10.0; Win64; x64) AppleWebKit/537.36 (KHTML, like Gecko) Chrome/137.0.0.0 Safari/537.36 AVG/137.0.0.0","WebKit","Chrome","137.0.0.0","Windows","10.0","https://app.prolific.com/","en-GB,en-US;q=0.9,en;q=0.8","67292b38c60932d4ab0eeeb6","683db6dfa200031b80f2a654","68650789d888889537163e10","67292b38c60932d4ab0eeeb6","2025-07-02T10:38:47.266Z","","","","","","","","","","","","","","","","win-only","1","g1:NE,g2:SW","0.5","6","0","1059179.3","1449.6","6468.3","41111","1","4","4","6","2","4","4","35","31","0.26515151515151514","1523.5","3000","1265","[""down"",""left""]","{""num_key_presses"":10,""num_perfect"":5,""num_errors"":0,""num_randdir"":5,""num_randdir_good_moves"":3,""num_whilered"":0,""num_whileblue"":0,""num_blue"":2,""num_good_moves"":8}","[296.22232142857143,298.12857142857143,2.3,296.22232142857143,298.12857142857143,123.4,296.22232142857143,298.12857142857143,239.3,296.22232142857143,298.12857142857143,360.5,296.22232142857143,298.12857142857143,472.5,296.22232142857143,298.12857142857143,599.9,105.22232142857143,498.12857142857143,705.8,66.22232142857143,539.1285714285714,812.2,2.2223214285714263,591.1285714285714,1003.7,1.2223214285714263,591.1285714285714,1115.9,1.2223214285714263,591.1285714285714,1225.3,35.222321428571426,539.1285714285714,1390.9,35.222321428571426,539.1285714285714,1502.7,35.222321428571426,539.1285714285714,1607.9,35.222321428571426,539.1285714285714,1732.4,35.222321428571426,539.1285714285714,1858.6,35.222321428571426,539.1285714285714,1980.9,35.222321428571426,539.1285714285714,2099.5,35.222321428571426,539.1285714285714,2218.1,35.222321428571426,539.1285714285714,2329.8,35.222321428571426,539.1285714285714,2449.1,35.222321428571426,539.1285714285714,2565.3,35.222321428571426,539.1285714285714,2682.5,35.222321428571426,539.1285714285714,2798.2,35.222321428571426,539.1285714285714,2907.5,35.222321428571426,539.1285714285714,3018.9,35.222321428571426,539.1285714285714,3131.4,35.222321428571426,539.1285714285714,3248.1,35.222321428571426,539.1285714285714,3353.2,35.222321428571426,539.1285714285714,3459,35.222321428571426,539.1285714285714,3564.6,35.222321428571426,539.1285714285714,3678.7,35.222321428571426,539.1285714285714,3789.9,35.222321428571426,539.1285714285714,3899.1,35.222321428571426,539.1285714285714,4006.7,35.222321428571426,539.1285714285714,4120.4,35.222321428571426,539.1285714285714,4239.7,35.222321428571426,539.1285714285714,4348,35.222321428571426,539.1285714285714,4454.6,35.222321428571426,539.1285714285714,4569.6,35.222321428571426,539.1285714285714,4683.1,35.222321428571426,539.1285714285714,4788.4,35.222321428571426,539.1285714285714,4905.2]","[4430.3,4430.3,1988.5,2024.3,417.5,""smooth"",""down"",""down"",""good_move"",6936.1,2504.3,1436.8,4431.8,1067.5,""smooth"",""left"",""left"",""good_move"",10119.4,3182,2725,6937.4,457,""oops"",""down"",""right"",""bad_move"",16160.5,6036.4,2115,13546.3,499.2,""smooth"",""down"",""down"",""good_move"",18736.9,2575.2,2098.3,16162.3,476.3,""smooth"",""left"",""left"",""good_move"",22290.9,3548.9,2113.2,18742,1435.7,""oops"",""left"",""left"",""good_move"",25408.9,3116.5,2396.6,22292.5,719.8,""oops"",""down"",""right"",""bad_move"",27672.4,2262.2,1662.5,25410.2,599.7,""oops"",""down"",""down"",""good_move"",30420.4,2745.1,2308.2,27675.3,436.9,""oops"",""left"",""left"",""good_move"",34286.5,3860.2,2491,30426.3,1369.2,""smooth"",""left"",""left"",""good_move""]","",""
"3616","","<div style=""width:500px;"">
  <p>What determined the result of this run?</p>
  </div>","100","html-slider-response","64","1093788","0.0-10.0-1.5","132","1","2025-07-02 10:20:24","80fe4187154257d5fb01684ea91b68b9","41.122.14.58","Mozilla/5.0 (Windows NT 10.0; Win64; x64) AppleWebKit/537.36 (KHTML, like Gecko) Chrome/137.0.0.0 Safari/537.36 AVG/137.0.0.0","WebKit","Chrome","137.0.0.0","Windows","10.0","https://app.prolific.com/","en-GB,en-US;q=0.9,en;q=0.8","67292b38c60932d4ab0eeeb6","683db6dfa200031b80f2a654","68650789d888889537163e10","67292b38c60932d4ab0eeeb6","2025-07-02T10:38:50.888Z","","","","","","AttribQ","","","","","","","","","","","","","","","","","","","","","","","","","","","","","","","","","","","","","","50"
"2589","","<div style=""width:500px;"">
  <p>How much control did you have over the ball?</p>
  </div>","100","html-slider-response","65","1096381","0.0-10.0-2.5","132","1","2025-07-02 10:20:24","80fe4187154257d5fb01684ea91b68b9","41.122.14.58","Mozilla/5.0 (Windows NT 10.0; Win64; x64) AppleWebKit/537.36 (KHTML, like Gecko) Chrome/137.0.0.0 Safari/537.36 AVG/137.0.0.0","WebKit","Chrome","137.0.0.0","Windows","10.0","https://app.prolific.com/","en-GB,en-US;q=0.9,en;q=0.8","67292b38c60932d4ab0eeeb6","683db6dfa200031b80f2a654","68650789d888889537163e10","67292b38c60932d4ab0eeeb6","2025-07-02T10:38:53.481Z","","","","","","ControlQ","","","","","","","","","","","","","","","","","","","","","","","","","","","","","","","","","","","","","","50"
"4448","","<div style=""width:500px;"">
  <p>How would you describe your current emotional state?</p>
  </div>","0","html-slider-response","66","1100832","0.0-10.0-3.5","132","1","2025-07-02 10:20:24","80fe4187154257d5fb01684ea91b68b9","41.122.14.58","Mozilla/5.0 (Windows NT 10.0; Win64; x64) AppleWebKit/537.36 (KHTML, like Gecko) Chrome/137.0.0.0 Safari/537.36 AVG/137.0.0.0","WebKit","Chrome","137.0.0.0","Windows","10.0","https://app.prolific.com/","en-GB,en-US;q=0.9,en;q=0.8","67292b38c60932d4ab0eeeb6","683db6dfa200031b80f2a654","68650789d888889537163e10","67292b38c60932d4ab0eeeb6","2025-07-02T10:38:57.932Z","","","","","","StressQ","","","","","","","","","","","","","","","","","","","","","","","","","","","","","","","","","","","","","","50"
"4566","","<div style=""width:500px;"">
  <p>What best describes how you currently feel?</p>
  </div>","100","html-slider-response","67","1105403","0.0-10.0-4.5","132","1","2025-07-02 10:20:24","80fe4187154257d5fb01684ea91b68b9","41.122.14.58","Mozilla/5.0 (Windows NT 10.0; Win64; x64) AppleWebKit/537.36 (KHTML, like Gecko) Chrome/137.0.0.0 Safari/537.36 AVG/137.0.0.0","WebKit","Chrome","137.0.0.0","Windows","10.0","https://app.prolific.com/","en-GB,en-US;q=0.9,en;q=0.8","67292b38c60932d4ab0eeeb6","683db6dfa200031b80f2a654","68650789d888889537163e10","67292b38c60932d4ab0eeeb6","2025-07-02T10:39:02.503Z","","","","","","MotivationQ","","","","","","","","","","","","","","","","","","","","","","","","","","","","","","","","","","","","","","50"
"","","","","ctl-task-cpt","68","1181880","0.0-10.0-0.6","132","1","2025-07-02 10:20:24","80fe4187154257d5fb01684ea91b68b9","41.122.14.58","Mozilla/5.0 (Windows NT 10.0; Win64; x64) AppleWebKit/537.36 (KHTML, like Gecko) Chrome/137.0.0.0 Safari/537.36 AVG/137.0.0.0","WebKit","Chrome","137.0.0.0","Windows","10.0","https://app.prolific.com/","en-GB,en-US;q=0.9,en;q=0.8","67292b38c60932d4ab0eeeb6","683db6dfa200031b80f2a654","68650789d888889537163e10","67292b38c60932d4ab0eeeb6","2025-07-02T10:40:18.980Z","","","","","","","","","","","","","","","","win-only","0","g1:NW,g2:SE","0.4","7","0","1118565.6","1469","6476.6","73455.1","1","4","8","6","2","8","7","42","35","0.3181818181818182","1470.3","3000","950","[""down"",""right""]","{""num_key_presses"":16,""num_perfect"":5,""num_errors"":1,""num_randdir"":10,""num_randdir_good_moves"":5,""num_whilered"":0,""num_whileblue"":1,""num_blue"":6,""num_good_moves"":11}","[292.22232142857143,294.12857142857143,2.6,292.22232142857143,294.12857142857143,118.9,292.22232142857143,294.12857142857143,221.4,292.22232142857143,294.12857142857143,322.6,292.22232142857143,294.12857142857143,423,292.22232142857143,294.12857142857143,537.4,292.22232142857143,294.12857142857143,669.8,292.22232142857143,294.12857142857143,794.9,292.22232142857143,294.12857142857143,925.5,530.2223214285714,452.12857142857143,1108.9,546.2223214285714,499.12857142857143,1209.4,546.2223214285714,527.1285714285714,1310.9,546.2223214285714,527.1285714285714,1414.6,546.2223214285714,527.1285714285714,1525.9,546.2223214285714,527.1285714285714,1631.6,546.2223214285714,527.1285714285714,1738,546.2223214285714,527.1285714285714,1852.1,546.2223214285714,527.1285714285714,1962.7,546.2223214285714,527.1285714285714,2070.4,546.2223214285714,527.1285714285714,2170.5,546.2223214285714,527.1285714285714,2276.3,546.2223214285714,527.1285714285714,2383.9,546.2223214285714,527.1285714285714,2492.6,546.2223214285714,527.1285714285714,2602.3,546.2223214285714,527.1285714285714,2712.5,546.2223214285714,527.1285714285714,2818.8,546.2223214285714,527.1285714285714,2930,546.2223214285714,527.1285714285714,3040.1,546.2223214285714,527.1285714285714,3150.2,546.2223214285714,527.1285714285714,3254.6,546.2223214285714,527.1285714285714,3362.5,546.2223214285714,527.1285714285714,3462.6,546.2223214285714,527.1285714285714,3573.2,546.2223214285714,527.1285714285714,3684.8,546.2223214285714,527.1285714285714,3785.6,546.2223214285714,527.1285714285714,3895.2,546.2223214285714,527.1285714285714,4005.9,546.2223214285714,527.1285714285714,4109,546.2223214285714,527.1285714285714,4211.8,546.2223214285714,527.1285714285714,4319.2,546.2223214285714,527.1285714285714,4419.4,546.2223214285714,527.1285714285714,4519.8,546.2223214285714,527.1285714285714,4631.9,546.2223214285714,527.1285714285714,4743.9,546.2223214285714,527.1285714285714,4856,546.2223214285714,527.1285714285714,4959]","[1422.4,1422.4,1000,0,422.4,""oops"",""down"",""left"",""bad_move"",12870,11446.2,3082.1,9398.2,389.8,""oops"",""down"",""right"",""good_move"",19941.3,7070.1,2981.4,16585.2,374.7,""smooth"",""right"",""right"",""good_move"",22947.2,3004.4,2431.8,19942.9,572.5,""smooth"",""right"",""right"",""good_move"",26394.6,3443.8,2994.2,22950.8,449.6,""smooth"",""right"",""right"",""good_move"",36244.8,9844.8,2297.3,33550.3,397.2,""oops"",""down"",""up"",""bad_move"",39207.4,2960.9,2435.2,36246.5,525.7,""smooth"",""down"",""down"",""good_move"",42290.3,3079.6,2591.3,39210.7,488.3,""oops"",""down"",""up"",""bad_move"",45266.9,2975,1954.2,42291.9,1020.8,""oops"",""down"",""down"",""good_move"",48216.3,2948.1,2427,45268.2,521.1,""oops"",""down"",""left"",""bad_move"",52033.4,3815.6,3474.6,48217.8,341,""while_blue"",""down"",""right"",""good_move"",55476.6,3442,3009.2,52034.6,432.8,""oops"",""down"",""up"",""bad_move"",58370.4,2892.2,2458.4,55478.2,433.8,""oops"",""down"",""down"",""good_move"",61634.2,3262.2,2827.6,58372,434.6,""oops"",""down"",""down"",""good_move"",64202.3,2566.3,1999.8,61636,566.5,""oops"",""down"",""down"",""good_move"",66697.1,2493.4,2080.5,64203.7,412.9,""smooth"",""down"",""down"",""good_move""]","",""
"3597","","<div style=""width:500px;"">
  <p>What determined the result of this run?</p>
  </div>","100","html-slider-response","69","1185481","0.0-10.0-1.6","132","1","2025-07-02 10:20:24","80fe4187154257d5fb01684ea91b68b9","41.122.14.58","Mozilla/5.0 (Windows NT 10.0; Win64; x64) AppleWebKit/537.36 (KHTML, like Gecko) Chrome/137.0.0.0 Safari/537.36 AVG/137.0.0.0","WebKit","Chrome","137.0.0.0","Windows","10.0","https://app.prolific.com/","en-GB,en-US;q=0.9,en;q=0.8","67292b38c60932d4ab0eeeb6","683db6dfa200031b80f2a654","68650789d888889537163e10","67292b38c60932d4ab0eeeb6","2025-07-02T10:40:22.581Z","","","","","","AttribQ","","","","","","","","","","","","","","","","","","","","","","","","","","","","","","","","","","","","","","50"
"2810","","<div style=""width:500px;"">
  <p>How much control did you have over the ball?</p>
  </div>","100","html-slider-response","70","1188298","0.0-10.0-2.6","132","1","2025-07-02 10:20:24","80fe4187154257d5fb01684ea91b68b9","41.122.14.58","Mozilla/5.0 (Windows NT 10.0; Win64; x64) AppleWebKit/537.36 (KHTML, like Gecko) Chrome/137.0.0.0 Safari/537.36 AVG/137.0.0.0","WebKit","Chrome","137.0.0.0","Windows","10.0","https://app.prolific.com/","en-GB,en-US;q=0.9,en;q=0.8","67292b38c60932d4ab0eeeb6","683db6dfa200031b80f2a654","68650789d888889537163e10","67292b38c60932d4ab0eeeb6","2025-07-02T10:40:25.398Z","","","","","","ControlQ","","","","","","","","","","","","","","","","","","","","","","","","","","","","","","","","","","","","","","50"
"3302","","<div style=""width:500px;"">
  <p>How would you describe your current emotional state?</p>
  </div>","0","html-slider-response","71","1191604","0.0-10.0-3.6","132","1","2025-07-02 10:20:24","80fe4187154257d5fb01684ea91b68b9","41.122.14.58","Mozilla/5.0 (Windows NT 10.0; Win64; x64) AppleWebKit/537.36 (KHTML, like Gecko) Chrome/137.0.0.0 Safari/537.36 AVG/137.0.0.0","WebKit","Chrome","137.0.0.0","Windows","10.0","https://app.prolific.com/","en-GB,en-US;q=0.9,en;q=0.8","67292b38c60932d4ab0eeeb6","683db6dfa200031b80f2a654","68650789d888889537163e10","67292b38c60932d4ab0eeeb6","2025-07-02T10:40:28.704Z","","","","","","StressQ","","","","","","","","","","","","","","","","","","","","","","","","","","","","","","","","","","","","","","50"
"3156","","<div style=""width:500px;"">
  <p>What best describes how you currently feel?</p>
  </div>","100","html-slider-response","72","1194764","0.0-10.0-4.6","132","1","2025-07-02 10:20:24","80fe4187154257d5fb01684ea91b68b9","41.122.14.58","Mozilla/5.0 (Windows NT 10.0; Win64; x64) AppleWebKit/537.36 (KHTML, like Gecko) Chrome/137.0.0.0 Safari/537.36 AVG/137.0.0.0","WebKit","Chrome","137.0.0.0","Windows","10.0","https://app.prolific.com/","en-GB,en-US;q=0.9,en;q=0.8","67292b38c60932d4ab0eeeb6","683db6dfa200031b80f2a654","68650789d888889537163e10","67292b38c60932d4ab0eeeb6","2025-07-02T10:40:31.864Z","","","","","","MotivationQ","","","","","","","","","","","","","","","","","","","","","","","","","","","","","","","","","","","","","","50"
"","","","","ctl-task-cpt","73","1242417","0.0-10.0-0.7","132","1","2025-07-02 10:20:24","80fe4187154257d5fb01684ea91b68b9","41.122.14.58","Mozilla/5.0 (Windows NT 10.0; Win64; x64) AppleWebKit/537.36 (KHTML, like Gecko) Chrome/137.0.0.0 Safari/537.36 AVG/137.0.0.0","WebKit","Chrome","137.0.0.0","Windows","10.0","https://app.prolific.com/","en-GB,en-US;q=0.9,en;q=0.8","67292b38c60932d4ab0eeeb6","683db6dfa200031b80f2a654","68650789d888889537163e10","67292b38c60932d4ab0eeeb6","2025-07-02T10:41:19.517Z","","","","","","","","","","","","","","","","win-only","2","g1:SE,g2:NW","0.3","8","0","1207926.2","1474.3","6484.7","44627.6","1","4","4","6","2","4","4","46","42","0.3484848484848485","1325.2","3000","1800","[""left"",""up""]","{""num_key_presses"":8,""num_perfect"":3,""num_errors"":0,""num_randdir"":5,""num_randdir_good_moves"":4,""num_whilered"":0,""num_whileblue"":0,""num_blue"":3,""num_good_moves"":7}","[293.22232142857143,296.12857142857143,1.3,293.22232142857143,296.12857142857143,120.7,293.22232142857143,296.12857142857143,240.3,293.22232142857143,296.12857142857143,353.6,293.22232142857143,296.12857142857143,462.3,293.22232142857143,296.12857142857143,570.7,293.22232142857143,296.12857142857143,672,293.22232142857143,296.12857142857143,774.1,293.22232142857143,296.12857142857143,874.7,102.22232142857143,73.12857142857143,1000.4,66.22232142857143,34.128571428571426,1106.6,66.22232142857143,34.128571428571426,1208.4,66.22232142857143,34.128571428571426,1311,66.22232142857143,34.128571428571426,1420.5,66.22232142857143,34.128571428571426,1522.3,66.22232142857143,34.128571428571426,1629.7,66.22232142857143,34.128571428571426,1741.2,66.22232142857143,34.128571428571426,1847.1,66.22232142857143,34.128571428571426,1954.7,66.22232142857143,34.128571428571426,2062.4,66.22232142857143,34.128571428571426,2172.1,66.22232142857143,34.128571428571426,2280.1,66.22232142857143,34.128571428571426,2384.5,66.22232142857143,34.128571428571426,2489.5,66.22232142857143,34.128571428571426,2599.4,66.22232142857143,34.128571428571426,2714.5,66.22232142857143,34.128571428571426,2819.9,66.22232142857143,34.128571428571426,2927.8,66.22232142857143,34.128571428571426,3033.8,66.22232142857143,34.128571428571426,3142.8,66.22232142857143,34.128571428571426,3250.2,66.22232142857143,34.128571428571426,3356.8,66.22232142857143,34.128571428571426,3463.3,66.22232142857143,34.128571428571426,3573.4,66.22232142857143,34.128571428571426,3673.7,66.22232142857143,34.128571428571426,3774.8,66.22232142857143,34.128571428571426,3877.1,66.22232142857143,34.128571428571426,3987.9,66.22232142857143,34.128571428571426,4110.9,66.22232142857143,34.128571428571426,4212.7,66.22232142857143,34.128571428571426,4318.8,66.22232142857143,34.128571428571426,4424.9,66.22232142857143,34.128571428571426,4534.9,66.22232142857143,34.128571428571426,4638.4,66.22232142857143,34.128571428571426,4741.1,66.22232142857143,34.128571428571426,4848,66.22232142857143,34.128571428571426,4957.6]","[1410.9,1410.9,1000,0,410.9,""smooth"",""up"",""up"",""good_move"",8252.1,6835.8,2911.9,4918.1,422.1,""oops"",""up"",""left"",""good_move"",12198.4,3945,2145.3,8253.4,1799.7,""smooth"",""up"",""up"",""good_move"",16966.4,4765.4,2458.3,12201,2307.1,""oops"",""up"",""up"",""good_move"",27032.6,10064.6,2105,24463.2,464.4,""oops"",""left"",""left"",""good_move"",30528.7,3495.3,2561.6,27033.5,933.6,""oops"",""left"",""down"",""bad_move"",33957.2,3426.5,2996.9,30530.7,429.6,""smooth"",""up"",""up"",""good_move"",37893.3,3925.5,3506.8,33967.8,418.7,""oops"",""left"",""left"",""good_move""]","",""
"3303","","<div style=""width:500px;"">
  <p>What determined the result of this run?</p>
  </div>","100","html-slider-response","74","1245728","0.0-10.0-1.7","132","1","2025-07-02 10:20:24","80fe4187154257d5fb01684ea91b68b9","41.122.14.58","Mozilla/5.0 (Windows NT 10.0; Win64; x64) AppleWebKit/537.36 (KHTML, like Gecko) Chrome/137.0.0.0 Safari/537.36 AVG/137.0.0.0","WebKit","Chrome","137.0.0.0","Windows","10.0","https://app.prolific.com/","en-GB,en-US;q=0.9,en;q=0.8","67292b38c60932d4ab0eeeb6","683db6dfa200031b80f2a654","68650789d888889537163e10","67292b38c60932d4ab0eeeb6","2025-07-02T10:41:22.828Z","","","","","","AttribQ","","","","","","","","","","","","","","","","","","","","","","","","","","","","","","","","","","","","","","50"
"5443","","<div style=""width:500px;"">
  <p>How much control did you have over the ball?</p>
  </div>","45","html-slider-response","75","1251175","0.0-10.0-2.7","132","1","2025-07-02 10:20:24","80fe4187154257d5fb01684ea91b68b9","41.122.14.58","Mozilla/5.0 (Windows NT 10.0; Win64; x64) AppleWebKit/537.36 (KHTML, like Gecko) Chrome/137.0.0.0 Safari/537.36 AVG/137.0.0.0","WebKit","Chrome","137.0.0.0","Windows","10.0","https://app.prolific.com/","en-GB,en-US;q=0.9,en;q=0.8","67292b38c60932d4ab0eeeb6","683db6dfa200031b80f2a654","68650789d888889537163e10","67292b38c60932d4ab0eeeb6","2025-07-02T10:41:28.276Z","","","","","","ControlQ","","","","","","","","","","","","","","","","","","","","","","","","","","","","","","","","","","","","","","50"
"3345","","<div style=""width:500px;"">
  <p>How would you describe your current emotional state?</p>
  </div>","0","html-slider-response","76","1254525","0.0-10.0-3.7","132","1","2025-07-02 10:20:24","80fe4187154257d5fb01684ea91b68b9","41.122.14.58","Mozilla/5.0 (Windows NT 10.0; Win64; x64) AppleWebKit/537.36 (KHTML, like Gecko) Chrome/137.0.0.0 Safari/537.36 AVG/137.0.0.0","WebKit","Chrome","137.0.0.0","Windows","10.0","https://app.prolific.com/","en-GB,en-US;q=0.9,en;q=0.8","67292b38c60932d4ab0eeeb6","683db6dfa200031b80f2a654","68650789d888889537163e10","67292b38c60932d4ab0eeeb6","2025-07-02T10:41:31.625Z","","","","","","StressQ","","","","","","","","","","","","","","","","","","","","","","","","","","","","","","","","","","","","","","50"
"3266","","<div style=""width:500px;"">
  <p>What best describes how you currently feel?</p>
  </div>","100","html-slider-response","77","1257793","0.0-10.0-4.7","132","1","2025-07-02 10:20:24","80fe4187154257d5fb01684ea91b68b9","41.122.14.58","Mozilla/5.0 (Windows NT 10.0; Win64; x64) AppleWebKit/537.36 (KHTML, like Gecko) Chrome/137.0.0.0 Safari/537.36 AVG/137.0.0.0","WebKit","Chrome","137.0.0.0","Windows","10.0","https://app.prolific.com/","en-GB,en-US;q=0.9,en;q=0.8","67292b38c60932d4ab0eeeb6","683db6dfa200031b80f2a654","68650789d888889537163e10","67292b38c60932d4ab0eeeb6","2025-07-02T10:41:34.893Z","","","","","","MotivationQ","","","","","","","","","","","","","","","","","","","","","","","","","","","","","","","","","","","","","","50"
"","","","","ctl-task-cpt","78","1314856","0.0-10.0-0.8","132","1","2025-07-02 10:20:24","80fe4187154257d5fb01684ea91b68b9","41.122.14.58","Mozilla/5.0 (Windows NT 10.0; Win64; x64) AppleWebKit/537.36 (KHTML, like Gecko) Chrome/137.0.0.0 Safari/537.36 AVG/137.0.0.0","WebKit","Chrome","137.0.0.0","Windows","10.0","https://app.prolific.com/","en-GB,en-US;q=0.9,en;q=0.8","67292b38c60932d4ab0eeeb6","683db6dfa200031b80f2a654","68650789d888889537163e10","67292b38c60932d4ab0eeeb6","2025-07-02T10:42:31.956Z","","","","","","","","","","","","","","","","win-only","1","g1:NE,g2:SW","0.4","9","0","1270954.9","1417.4","6420.7","54025.1","1","4","8","6","2","8","8","54","46","0.4090909090909091","1264.1","3000","1465","[""down"",""left""]","{""num_key_presses"":10,""num_perfect"":4,""num_errors"":0,""num_randdir"":6,""num_randdir_good_moves"":4,""num_whilered"":0,""num_whileblue"":0,""num_blue"":5,""num_good_moves"":8}","[297.22232142857143,298.12857142857143,0.7,297.22232142857143,298.12857142857143,118,297.22232142857143,298.12857142857143,224.4,297.22232142857143,298.12857142857143,334.5,297.22232142857143,298.12857142857143,449.4,297.22232142857143,298.12857142857143,560.5,297.22232142857143,298.12857142857143,664.3,244.22232142857143,351.12857142857143,790.4,73.22232142857143,493.12857142857143,909.9,39.222321428571426,518.1285714285714,1016.4,25.222321428571426,533.1285714285714,1123.7,25.222321428571426,533.1285714285714,1231.3,25.222321428571426,533.1285714285714,1350.6,25.222321428571426,533.1285714285714,1450.9,25.222321428571426,533.1285714285714,1554.7,25.222321428571426,533.1285714285714,1654.8,25.222321428571426,533.1285714285714,1768.4,25.222321428571426,533.1285714285714,1868.6,25.222321428571426,533.1285714285714,1983.4,25.222321428571426,533.1285714285714,2087.6,25.222321428571426,533.1285714285714,2196.2,25.222321428571426,533.1285714285714,2296.3,25.222321428571426,533.1285714285714,2399.8,25.222321428571426,533.1285714285714,2500.8,25.222321428571426,533.1285714285714,2614.7,25.222321428571426,533.1285714285714,2715.7,25.222321428571426,533.1285714285714,2829.5,25.222321428571426,533.1285714285714,2945.6,25.222321428571426,533.1285714285714,3058.5,25.222321428571426,533.1285714285714,3163.8,25.222321428571426,533.1285714285714,3280.4,25.222321428571426,533.1285714285714,3380.7,25.222321428571426,533.1285714285714,3500.9,25.222321428571426,533.1285714285714,3615.2,25.222321428571426,533.1285714285714,3728.9,25.222321428571426,533.1285714285714,3842,25.222321428571426,533.1285714285714,3942.2,25.222321428571426,533.1285714285714,4049.9,25.222321428571426,533.1285714285714,4160,25.222321428571426,533.1285714285714,4265.5,25.222321428571426,533.1285714285714,4369.9,25.222321428571426,533.1285714285714,4472.1,25.222321428571426,533.1285714285714,4574.2,25.222321428571426,533.1285714285714,4678.5,25.222321428571426,533.1285714285714,4782.9,25.222321428571426,533.1285714285714,4890]","[1485.4,1485.4,1000,0,485.5,""smooth"",""down"",""down"",""good_move"",6787.3,5299.6,1635.5,4759.9,391.9,""oops"",""down"",""down"",""good_move"",13905.5,7117.3,3044.9,10469.3,391.3,""smooth"",""left"",""left"",""good_move"",17936.5,4024.5,2052.2,13912.1,1972.3,""oops"",""left"",""right"",""bad_move"",20730.3,2790.3,2220.6,17940,569.7,""oops"",""left"",""left"",""good_move"",31003.2,10269.8,2349.8,28206.7,446.8,""smooth"",""left"",""left"",""good_move"",34493.7,3489.4,3032.5,31004.5,456.7,""oops"",""left"",""up"",""bad_move"",37855.4,3359.7,2193.2,34495.7,1166.5,""smooth"",""down"",""down"",""good_move"",40844,2986.8,2545.9,37857.2,440.9,""oops"",""left"",""left"",""good_move"",47181.4,6335.9,2134.8,44673.9,372.7,""oops"",""down"",""down"",""good_move""]","",""
"4287","","<div style=""width:500px;"">
  <p>What determined the result of this run?</p>
  </div>","100","html-slider-response","79","1319146","0.0-10.0-1.8","132","1","2025-07-02 10:20:24","80fe4187154257d5fb01684ea91b68b9","41.122.14.58","Mozilla/5.0 (Windows NT 10.0; Win64; x64) AppleWebKit/537.36 (KHTML, like Gecko) Chrome/137.0.0.0 Safari/537.36 AVG/137.0.0.0","WebKit","Chrome","137.0.0.0","Windows","10.0","https://app.prolific.com/","en-GB,en-US;q=0.9,en;q=0.8","67292b38c60932d4ab0eeeb6","683db6dfa200031b80f2a654","68650789d888889537163e10","67292b38c60932d4ab0eeeb6","2025-07-02T10:42:36.247Z","","","","","","AttribQ","","","","","","","","","","","","","","","","","","","","","","","","","","","","","","","","","","","","","","50"
"3054","","<div style=""width:500px;"">
  <p>How much control did you have over the ball?</p>
  </div>","100","html-slider-response","80","1322203","0.0-10.0-2.8","132","1","2025-07-02 10:20:24","80fe4187154257d5fb01684ea91b68b9","41.122.14.58","Mozilla/5.0 (Windows NT 10.0; Win64; x64) AppleWebKit/537.36 (KHTML, like Gecko) Chrome/137.0.0.0 Safari/537.36 AVG/137.0.0.0","WebKit","Chrome","137.0.0.0","Windows","10.0","https://app.prolific.com/","en-GB,en-US;q=0.9,en;q=0.8","67292b38c60932d4ab0eeeb6","683db6dfa200031b80f2a654","68650789d888889537163e10","67292b38c60932d4ab0eeeb6","2025-07-02T10:42:39.304Z","","","","","","ControlQ","","","","","","","","","","","","","","","","","","","","","","","","","","","","","","","","","","","","","","50"
"4059","","<div style=""width:500px;"">
  <p>How would you describe your current emotional state?</p>
  </div>","0","html-slider-response","81","1326265","0.0-10.0-3.8","132","1","2025-07-02 10:20:24","80fe4187154257d5fb01684ea91b68b9","41.122.14.58","Mozilla/5.0 (Windows NT 10.0; Win64; x64) AppleWebKit/537.36 (KHTML, like Gecko) Chrome/137.0.0.0 Safari/537.36 AVG/137.0.0.0","WebKit","Chrome","137.0.0.0","Windows","10.0","https://app.prolific.com/","en-GB,en-US;q=0.9,en;q=0.8","67292b38c60932d4ab0eeeb6","683db6dfa200031b80f2a654","68650789d888889537163e10","67292b38c60932d4ab0eeeb6","2025-07-02T10:42:43.365Z","","","","","","StressQ","","","","","","","","","","","","","","","","","","","","","","","","","","","","","","","","","","","","","","50"
"4055","","<div style=""width:500px;"">
  <p>What best describes how you currently feel?</p>
  </div>","100","html-slider-response","82","1330323","0.0-10.0-4.8","132","1","2025-07-02 10:20:24","80fe4187154257d5fb01684ea91b68b9","41.122.14.58","Mozilla/5.0 (Windows NT 10.0; Win64; x64) AppleWebKit/537.36 (KHTML, like Gecko) Chrome/137.0.0.0 Safari/537.36 AVG/137.0.0.0","WebKit","Chrome","137.0.0.0","Windows","10.0","https://app.prolific.com/","en-GB,en-US;q=0.9,en;q=0.8","67292b38c60932d4ab0eeeb6","683db6dfa200031b80f2a654","68650789d888889537163e10","67292b38c60932d4ab0eeeb6","2025-07-02T10:42:47.423Z","","","","","","MotivationQ","","","","","","","","","","","","","","","","","","","","","","","","","","","","","","","","","","","","","","50"
