"rt","response_timestamp","stimulus","response","trial_type","trial_index","time_elapsed","internal_node_id","run_id","condition","recorded_at","source_code_version","ip","user_agent","device","browser","browser_version","platform","platform_version","referer","accept_language","PROLIFIC_PID","STUDY_ID","SESSION_ID","prolific_id","realtime","view_history","question_order","consent","success","question_id","eventType","responses","item_order","radio_event_ids","radio_event_times","key_event_times","mouse_event_times","straightlining","zigzagging","honeypot","which_type","canvas_config","goals_layout","control_level","trial_number","tutorial_trial_number","trial_start_time","phase1_start_time","phase2_start_time","phase3_start_time","goal_1_value","goal_1_distance","goal_2_value","goal_2_distance","goal_selected","outcome","outcome_total","participant_final_score","participant_initial_score","participant_final_score_prop","goal_choice_rt","allocated_time","allocated_time_remaining","goal_direction","counts","mouse_movements","key_presses","correct","slider_start"
"6121","1751451573352","<p style='font-size:40px;line-height:1.25'><strong>Welcome to the experiment!</strong></p><p style='font-size:1.1em;line-height:1.25'>Thank you for your interest in our experiment! Before you begin, it is important that we obtain your informed consent to participate in the study.</p><p style='font-size:1.1em;line-height:1.25'>On the next screen will be an <strong>information sheet</strong> for you to read. To participate in the study we need you to read this information sheet and the following consent form carefully. If you agree with all the statements, please click the <strong>I agree</strong> button.</p><p style='font-size:1.1em;line-height:1.25'>Press <strong>Next</strong> to read the information sheet.</p>","0","custom-html-button-response","0","6126","0.0-0.0","103","1","2025-07-02 10:19:26","80fe4187154257d5fb01684ea91b68b9","209.35.65.94","Mozilla/5.0 (Macintosh; Intel Mac OS X 10_15_7) AppleWebKit/537.36 (KHTML, like Gecko) Chrome/137.0.0.0 Safari/537.36","Macintosh","Chrome","137.0.0.0","OS X","10_15_7","https://app.prolific.com/","en-GB,en-US;q=0.9,en;q=0.8","672de198be1065a8f288300d","683db6dfa200031b80f2a654","6865077ff13240d7e755bcb4","672de198be1065a8f288300d","2025-07-02T10:19:33.354Z","","","","","","","","","","","","","","","","","","","","","","","","","","","","","","","","","","","","","","","","","","","",""
"9520","","","","instructions","1","15648","0.0-1.0","103","1","2025-07-02 10:19:26","80fe4187154257d5fb01684ea91b68b9","209.35.65.94","Mozilla/5.0 (Macintosh; Intel Mac OS X 10_15_7) AppleWebKit/537.36 (KHTML, like Gecko) Chrome/137.0.0.0 Safari/537.36","Macintosh","Chrome","137.0.0.0","OS X","10_15_7","https://app.prolific.com/","en-GB,en-US;q=0.9,en;q=0.8","672de198be1065a8f288300d","683db6dfa200031b80f2a654","6865077ff13240d7e755bcb4","672de198be1065a8f288300d","","[{""page_index"":0,""viewing_time"":6133},{""page_index"":1,""viewing_time"":3386}]","","","","","","","","","","","","","","","","","","","","","","","","","","","","","","","","","","","","","","","","","","",""
"4026","","","{""Q0"":"""",""Q1"":"""",""Q2"":"""",""Q3"":"""",""Q4"":"""",""Q5"":"""",""Q6"":""I agree""}","survey-multi-choice","2","19678","0.0-2.0","103","1","2025-07-02 10:19:26","80fe4187154257d5fb01684ea91b68b9","209.35.65.94","Mozilla/5.0 (Macintosh; Intel Mac OS X 10_15_7) AppleWebKit/537.36 (KHTML, like Gecko) Chrome/137.0.0.0 Safari/537.36","Macintosh","Chrome","137.0.0.0","OS X","10_15_7","https://app.prolific.com/","en-GB,en-US;q=0.9,en;q=0.8","672de198be1065a8f288300d","683db6dfa200031b80f2a654","6865077ff13240d7e755bcb4","672de198be1065a8f288300d","","","[0,1,2,3,4,5,6]","true","","","","","","","","","","","","","","","","","","","","","","","","","","","","","","","","","","","","","","","","",""
"3136","","","","fullscreen","3","23817","0.0-4.0","103","1","2025-07-02 10:19:26","80fe4187154257d5fb01684ea91b68b9","209.35.65.94","Mozilla/5.0 (Macintosh; Intel Mac OS X 10_15_7) AppleWebKit/537.36 (KHTML, like Gecko) Chrome/137.0.0.0 Safari/537.36","Macintosh","Chrome","137.0.0.0","OS X","10_15_7","https://app.prolific.com/","en-GB,en-US;q=0.9,en;q=0.8","672de198be1065a8f288300d","683db6dfa200031b80f2a654","6865077ff13240d7e755bcb4","672de198be1065a8f288300d","","","","","true","","","","","","","","","","","","","","","","","","","","","","","","","","","","","","","","","","","","","","","",""
"7346","1751451598391"," <p style='font-size:1.1em;line-height:1.25'>Thank you for completing the consent form and closing all other tabs.</p><p style='font-size:1.1em;line-height:1.25'>We will now invite you to fill in some demographic information and questionnaires, before starting the game.<br>This will take about 5 minutes.<br></p><p style='font-size:1.1em;line-height:1.25'>Press the <strong>Next</strong> button to continue.</p>","0","custom-html-button-response","4","31165","0.0-5.0","103","1","2025-07-02 10:19:26","80fe4187154257d5fb01684ea91b68b9","209.35.65.94","Mozilla/5.0 (Macintosh; Intel Mac OS X 10_15_7) AppleWebKit/537.36 (KHTML, like Gecko) Chrome/137.0.0.0 Safari/537.36","Macintosh","Chrome","137.0.0.0","OS X","10_15_7","https://app.prolific.com/","en-GB,en-US;q=0.9,en;q=0.8","672de198be1065a8f288300d","683db6dfa200031b80f2a654","6865077ff13240d7e755bcb4","672de198be1065a8f288300d","2025-07-02T10:19:58.393Z","","","","","","","","","","","","","","","","","","","","","","","","","","","","","","","","","","","","","","","","","","","",""
"3664","","","{""age"":""37""}","survey-text","5","34834","0.0-6.0-0.0","103","1","2025-07-02 10:19:26","80fe4187154257d5fb01684ea91b68b9","209.35.65.94","Mozilla/5.0 (Macintosh; Intel Mac OS X 10_15_7) AppleWebKit/537.36 (KHTML, like Gecko) Chrome/137.0.0.0 Safari/537.36","Macintosh","Chrome","137.0.0.0","OS X","10_15_7","https://app.prolific.com/","en-GB,en-US;q=0.9,en;q=0.8","672de198be1065a8f288300d","683db6dfa200031b80f2a654","6865077ff13240d7e755bcb4","672de198be1065a8f288300d","","","","","","0","demographics","","","","","","","","","","","","","","","","","","","","","","","","","","","","","","","","","","","","","",""
"3742","","","{""gender_identity"":""male/man""}","survey-multi-choice","6","38578","0.0-6.0-1.0","103","1","2025-07-02 10:19:26","80fe4187154257d5fb01684ea91b68b9","209.35.65.94","Mozilla/5.0 (Macintosh; Intel Mac OS X 10_15_7) AppleWebKit/537.36 (KHTML, like Gecko) Chrome/137.0.0.0 Safari/537.36","Macintosh","Chrome","137.0.0.0","OS X","10_15_7","https://app.prolific.com/","en-GB,en-US;q=0.9,en;q=0.8","672de198be1065a8f288300d","683db6dfa200031b80f2a654","6865077ff13240d7e755bcb4","672de198be1065a8f288300d","","","[0]","","","1","demographics","","","","","","","","","","","","","","","","","","","","","","","","","","","","","","","","","","","","","",""
"3057","","","{""assigned_sex"":""male""}","survey-multi-choice","7","41637","0.0-6.0-2.0","103","1","2025-07-02 10:19:26","80fe4187154257d5fb01684ea91b68b9","209.35.65.94","Mozilla/5.0 (Macintosh; Intel Mac OS X 10_15_7) AppleWebKit/537.36 (KHTML, like Gecko) Chrome/137.0.0.0 Safari/537.36","Macintosh","Chrome","137.0.0.0","OS X","10_15_7","https://app.prolific.com/","en-GB,en-US;q=0.9,en;q=0.8","672de198be1065a8f288300d","683db6dfa200031b80f2a654","6865077ff13240d7e755bcb4","672de198be1065a8f288300d","","","[0]","","","2","demographics","","","","","","","","","","","","","","","","","","","","","","","","","","","","","","","","","","","","","",""
"3548","","","{""menstrual_cycle"":""No""}","survey-multi-choice","8","45187","0.0-6.0-3.0","103","1","2025-07-02 10:19:26","80fe4187154257d5fb01684ea91b68b9","209.35.65.94","Mozilla/5.0 (Macintosh; Intel Mac OS X 10_15_7) AppleWebKit/537.36 (KHTML, like Gecko) Chrome/137.0.0.0 Safari/537.36","Macintosh","Chrome","137.0.0.0","OS X","10_15_7","https://app.prolific.com/","en-GB,en-US;q=0.9,en;q=0.8","672de198be1065a8f288300d","683db6dfa200031b80f2a654","6865077ff13240d7e755bcb4","672de198be1065a8f288300d","","","[0]","","","4","demographics","","","","","","","","","","","","","","","","","","","","","","","","","","","","","","","","","","","","","",""
"4073","","","{""education"":""Bachelor's Degree (e.g., BA)""}","survey-multi-choice","9","49262","0.0-6.0-4.0","103","1","2025-07-02 10:19:26","80fe4187154257d5fb01684ea91b68b9","209.35.65.94","Mozilla/5.0 (Macintosh; Intel Mac OS X 10_15_7) AppleWebKit/537.36 (KHTML, like Gecko) Chrome/137.0.0.0 Safari/537.36","Macintosh","Chrome","137.0.0.0","OS X","10_15_7","https://app.prolific.com/","en-GB,en-US;q=0.9,en;q=0.8","672de198be1065a8f288300d","683db6dfa200031b80f2a654","6865077ff13240d7e755bcb4","672de198be1065a8f288300d","","","[0]","","","5","demographics","","","","","","","","","","","","","","","","","","","","","","","","","","","","","","","","","","","","","",""
"5267","","","{""education"":""Bachelor's Degree (e.g., BA)""}","survey-multi-choice","10","54531","0.0-6.0-5.0","103","1","2025-07-02 10:19:26","80fe4187154257d5fb01684ea91b68b9","209.35.65.94","Mozilla/5.0 (Macintosh; Intel Mac OS X 10_15_7) AppleWebKit/537.36 (KHTML, like Gecko) Chrome/137.0.0.0 Safari/537.36","Macintosh","Chrome","137.0.0.0","OS X","10_15_7","https://app.prolific.com/","en-GB,en-US;q=0.9,en;q=0.8","672de198be1065a8f288300d","683db6dfa200031b80f2a654","6865077ff13240d7e755bcb4","672de198be1065a8f288300d","2025-07-02T10:20:21.759Z","","[0]","","","6","demographics","","","","","","","","","","","","","","","","","","","","","","","","","","","","","","","","","","","","","",""
"9228","","","{""mental_health_condition"":""No"",""mental_health_treatment"":""No"",""psychiatric_medication"":""No""}","survey-text","11","63762","0.0-7.0-0.0","103","1","2025-07-02 10:19:26","80fe4187154257d5fb01684ea91b68b9","209.35.65.94","Mozilla/5.0 (Macintosh; Intel Mac OS X 10_15_7) AppleWebKit/537.36 (KHTML, like Gecko) Chrome/137.0.0.0 Safari/537.36","Macintosh","Chrome","137.0.0.0","OS X","10_15_7","https://app.prolific.com/","en-GB,en-US;q=0.9,en;q=0.8","672de198be1065a8f288300d","683db6dfa200031b80f2a654","6865077ff13240d7e755bcb4","672de198be1065a8f288300d","2025-07-02T10:20:30.991Z","","","","","1","mental_health","","","","","","","","","","","","","","","","","","","","","","","","","","","","","","","","","","","","","",""
"7055","","","{""depression_history"":[""No""]}","survey-multi-select","12","70821","0.0-7.0-1.0","103","1","2025-07-02 10:19:26","80fe4187154257d5fb01684ea91b68b9","209.35.65.94","Mozilla/5.0 (Macintosh; Intel Mac OS X 10_15_7) AppleWebKit/537.36 (KHTML, like Gecko) Chrome/137.0.0.0 Safari/537.36","Macintosh","Chrome","137.0.0.0","OS X","10_15_7","https://app.prolific.com/","en-GB,en-US;q=0.9,en;q=0.8","672de198be1065a8f288300d","683db6dfa200031b80f2a654","6865077ff13240d7e755bcb4","672de198be1065a8f288300d","","","[0]","","","","mental_health","","","","","","","","","","","","","","","","","","","","","","","","","","","","","","","","","","","","","",""
"70635.10000000149","","","","survey-template","13","141464","0.0-7.0-3.0","103","1","2025-07-02 10:19:26","80fe4187154257d5fb01684ea91b68b9","209.35.65.94","Mozilla/5.0 (Macintosh; Intel Mac OS X 10_15_7) AppleWebKit/537.36 (KHTML, like Gecko) Chrome/137.0.0.0 Safari/537.36","Macintosh","Chrome","137.0.0.0","OS X","10_15_7","https://app.prolific.com/","en-GB,en-US;q=0.9,en;q=0.8","672de198be1065a8f288300d","683db6dfa200031b80f2a654","6865077ff13240d7e755bcb4","672de198be1065a8f288300d","2025-07-02T10:21:48.692Z","","","","","","ius","{""Q01"":""1"",""Q02"":""2"",""Q03"":""1"",""Q04"":""1"",""Q05"":""0"",""Q06"":""0"",""Q07"":""1"",""Q08"":""0"",""Q09"":""1"",""Q10"":""0"",""Q11"":""0"",""Q12"":""1"",""Q13"":""0""}","[0,1,2,3,4,5,6,7,8,9,10,11,12]","[""Q01"",""Q03"",""Q04"",""Q05"",""Q06"",""Q07"",""Q08"",""Q06"",""Q09"",""Q10"",""Q12"",""Q11"",""Q13"",""Q02"",""Q02""]","[7907,12979.5,18673.30000000447,23539.80000000447,26557.60000000149,32695.30000000447,35053.80000000447,38331.20000000298,47965,52702.70000000298,57223.39999999851,58023.80000000447,60908.5,66831.60000000149,68739.39999999851]","[]","[6843.30000000447,7907,9453,10205,12299.30000000447,12979.5,17358.89999999851,18673.30000000447,20611.30000000447,22661.39999999851,23539.80000000447,26557.60000000149,32695.30000000447,35053.80000000447,38331.20000000298,46455.30000000447,47965,51899.5,52702.70000000298,54972,57223.39999999851,58023.80000000447,60190.20000000298,60592.80000000447,60908.5,61681,66831.60000000149,68739.39999999851,70631.39999999851]","0.46153846153846156","0.75","0","","","","","","","","","","","","","","","","","","","","","","","","","","","","",""
"6920","1751451715613","<p style='font-size:1.1em;line-height:1.25'>In the following, we will ask you a few questions relating to your experiences over the past month.<br></p><p style='font-size:1.1em;line-height:1.25'>Press the <strong>Next</strong> button to continue.</p>","0","custom-html-button-response","14","148386","0.0-7.0-4.0","103","1","2025-07-02 10:19:26","80fe4187154257d5fb01684ea91b68b9","209.35.65.94","Mozilla/5.0 (Macintosh; Intel Mac OS X 10_15_7) AppleWebKit/537.36 (KHTML, like Gecko) Chrome/137.0.0.0 Safari/537.36","Macintosh","Chrome","137.0.0.0","OS X","10_15_7","https://app.prolific.com/","en-GB,en-US;q=0.9,en;q=0.8","672de198be1065a8f288300d","683db6dfa200031b80f2a654","6865077ff13240d7e755bcb4","672de198be1065a8f288300d","2025-07-02T10:21:55.614Z","","","","","","","","","","","","","","","","","","","","","","","","","","","","","","","","","","","","","","","","","","","",""
"56403.5","","","","survey-template","15","204794","0.0-7.0-5.0","103","1","2025-07-02 10:19:26","80fe4187154257d5fb01684ea91b68b9","209.35.65.94","Mozilla/5.0 (Macintosh; Intel Mac OS X 10_15_7) AppleWebKit/537.36 (KHTML, like Gecko) Chrome/137.0.0.0 Safari/537.36","Macintosh","Chrome","137.0.0.0","OS X","10_15_7","https://app.prolific.com/","en-GB,en-US;q=0.9,en;q=0.8","672de198be1065a8f288300d","683db6dfa200031b80f2a654","6865077ff13240d7e755bcb4","672de198be1065a8f288300d","2025-07-02T10:22:52.022Z","","","","","","pss","{""Q01"":""1"",""Q02"":""2"",""Q03"":""1"",""Q04"":""1"",""Q05"":""1"",""Q06"":""1"",""Q07"":""0"",""Q08"":""2"",""Q09"":""2"",""Q10"":""0""}","[0,1,2,3,4,5,6,7,8,9]","[""Q01"",""Q02"",""Q03"",""Q04"",""Q05"",""Q06"",""Q07"",""Q08"",""Q08"",""Q09"",""Q10""]","[5274.60000000149,11742.10000000149,15752.5,20216.29999999702,27520.19999999553,32274.60000000149,38610.5,43029.10000000149,44552.5,50322.29999999702,55132.39999999851]","[]","[0,4640.39999999851,5274.60000000149,11742.10000000149,15752.5,19466.29999999702,20216.29999999702,25636.5,27520.19999999553,32274.60000000149,38610.5,43029.10000000149,44552.5,49596.79999999702,50322.29999999702,54742.89999999851,55132.39999999851,56400.69999999553]","0.3","0.2222222222222222","0","","","","","","","","","","","","","","","","","","","","","","","","","","","","",""
"5272","1751451777295","<p style='font-size:1.1em;line-height:1.25'>Thank you for your answers! Now we will ask you a few more questions relating to your feelings in the last 24 hours.<br></p><p style='font-size:1.1em;line-height:1.25'>Press the <strong>Next</strong> button to continue.</p>","0","custom-html-button-response","16","210068","0.0-7.0-6.0","103","1","2025-07-02 10:19:26","80fe4187154257d5fb01684ea91b68b9","209.35.65.94","Mozilla/5.0 (Macintosh; Intel Mac OS X 10_15_7) AppleWebKit/537.36 (KHTML, like Gecko) Chrome/137.0.0.0 Safari/537.36","Macintosh","Chrome","137.0.0.0","OS X","10_15_7","https://app.prolific.com/","en-GB,en-US;q=0.9,en;q=0.8","672de198be1065a8f288300d","683db6dfa200031b80f2a654","6865077ff13240d7e755bcb4","672de198be1065a8f288300d","2025-07-02T10:22:57.296Z","","","","","","","","","","","","","","","","","","","","","","","","","","","","","","","","","","","","","","","","","","","",""
"55727.90000000596","","","","survey-template","17","265804","0.0-7.0-7.0","103","1","2025-07-02 10:19:26","80fe4187154257d5fb01684ea91b68b9","209.35.65.94","Mozilla/5.0 (Macintosh; Intel Mac OS X 10_15_7) AppleWebKit/537.36 (KHTML, like Gecko) Chrome/137.0.0.0 Safari/537.36","Macintosh","Chrome","137.0.0.0","OS X","10_15_7","https://app.prolific.com/","en-GB,en-US;q=0.9,en;q=0.8","672de198be1065a8f288300d","683db6dfa200031b80f2a654","6865077ff13240d7e755bcb4","672de198be1065a8f288300d","2025-07-02T10:23:53.032Z","","","","","","drsp","{""Q01"":""0"",""Q02"":""1"",""Q03"":""1"",""Q04"":""0"",""Q05"":""0"",""Q06"":""0"",""Q07"":""1"",""Q08"":""0"",""Q09"":""0"",""Q10"":""0"",""Q11"":""0"",""Q12"":""1"",""Q13"":""1"",""Q14"":""0"",""Q15"":""0"",""Q16"":""0"",""Q17"":""0"",""Q18"":""1"",""Q19"":""0"",""Q20"":""0"",""Q21"":""0""}","[0,1,2,3,4,5,6,7,8,9,10,11,12,13,14,15,16,17,18,19,20]","[""Q01"",""Q02"",""Q02"",""Q03"",""Q04"",""Q05"",""Q06"",""Q07"",""Q08"",""Q09"",""Q10"",""Q11"",""Q12"",""Q13"",""Q15"",""Q14"",""Q16"",""Q18"",""Q18"",""Q19"",""Q20"",""Q21"",""Q17""]","[3498.9000000059605,4374.70000000298,6736.70000000298,7386.5,9106.10000000149,9927.80000000447,11056.10000000149,14008.20000000298,16276.5,17262.40000000596,18497,21366.30000000447,22398.5,24613.10000000149,28202.40000000596,30570.40000000596,31744.30000000447,35351.60000000149,39104.20000000298,47166.5,48776.10000000149,51044.10000000149,54567.10000000149]","[]","[0,3498.9000000059605,4374.70000000298,6736.70000000298,7386.5,9106.10000000149,9927.80000000447,11056.10000000149,12374.90000000596,14008.20000000298,16276.5,17262.40000000596,18497,21366.30000000447,22398.5,24613.10000000149,26412.20000000298,28202.40000000596,29399.40000000596,30570.40000000596,31744.30000000447,33617.70000000298,35351.60000000149,38252.10000000149,39104.20000000298,46594.60000000149,47166.5,48776.10000000149,49878.60000000149,50708.5,51044.10000000149,51920.10000000149,54567.10000000149,55720.60000000149]","0.7142857142857143","0.4","0","","","","","","","","","","","","","","","","","","","","","","","","","","","","",""
"15823.80000000447","","","","survey-template","18","281630","0.0-7.0-8.0","103","1","2025-07-02 10:19:26","80fe4187154257d5fb01684ea91b68b9","209.35.65.94","Mozilla/5.0 (Macintosh; Intel Mac OS X 10_15_7) AppleWebKit/537.36 (KHTML, like Gecko) Chrome/137.0.0.0 Safari/537.36","Macintosh","Chrome","137.0.0.0","OS X","10_15_7","https://app.prolific.com/","en-GB,en-US;q=0.9,en;q=0.8","672de198be1065a8f288300d","683db6dfa200031b80f2a654","6865077ff13240d7e755bcb4","672de198be1065a8f288300d","2025-07-02T10:24:08.858Z","","","","","","stress","{""Q01"":""0"",""Q02"":""2"",""Q03"":""3""}","[0,1,2]","[""Q01"",""Q02"",""Q03""]","[4358.70000000298,11250,15305.39999999851]","[]","[4358.70000000298,8020.10000000149,8401.70000000298,11250,15305.39999999851,15821.70000000298]","0.6666666666666666","0","0","","","","","","","","","","","","","","","","","","","","","","","","","","","","",""
"62597","","","","instructions","19","344228","0.0-8.0-0.0","103","1","2025-07-02 10:19:26","80fe4187154257d5fb01684ea91b68b9","209.35.65.94","Mozilla/5.0 (Macintosh; Intel Mac OS X 10_15_7) AppleWebKit/537.36 (KHTML, like Gecko) Chrome/137.0.0.0 Safari/537.36","Macintosh","Chrome","137.0.0.0","OS X","10_15_7","https://app.prolific.com/","en-GB,en-US;q=0.9,en;q=0.8","672de198be1065a8f288300d","683db6dfa200031b80f2a654","6865077ff13240d7e755bcb4","672de198be1065a8f288300d","","[{""page_index"":0,""viewing_time"":13296},{""page_index"":1,""viewing_time"":24414},{""page_index"":2,""viewing_time"":6128},{""page_index"":3,""viewing_time"":18759}]","","","","","","","","","","","","","","","","","","","","","","","","","","","","","","","","","","","","","","","","","","",""
"","","","","ctl-task-cpt","20","374167","0.0-8.0-1.0","103","1","2025-07-02 10:19:26","80fe4187154257d5fb01684ea91b68b9","209.35.65.94","Mozilla/5.0 (Macintosh; Intel Mac OS X 10_15_7) AppleWebKit/537.36 (KHTML, like Gecko) Chrome/137.0.0.0 Safari/537.36","Macintosh","Chrome","137.0.0.0","OS X","10_15_7","https://app.prolific.com/","en-GB,en-US;q=0.9,en;q=0.8","672de198be1065a8f288300d","683db6dfa200031b80f2a654","6865077ff13240d7e755bcb4","672de198be1065a8f288300d","","","","","","","","","","","","","","","","","win-only","3","g1:SW,g2:NE","1","0","1","345663.6","2159.3","6162","26932.7","2","4","4","6","2","4","1","1","0","0.007575757575757576","2873.6","4000","1835","[""up"",""right""]","{""num_key_presses"":8,""num_perfect"":5,""num_errors"":3,""num_randdir"":0,""num_randdir_good_moves"":0,""num_whilered"":0,""num_whileblue"":1,""num_blue"":1,""num_good_moves"":6}","[558.4285714285714,560.3348214285714,0.4,558.4285714285714,560.3348214285714,101.9,558.4285714285714,560.3348214285714,202.3,596.4285714285714,588.3348214285714,306.6,658.4285714285714,639.3348214285714,407,662.4285714285714,640.3348214285714,507.6,662.4285714285714,640.3348214285714,614.7,662.4285714285714,640.3348214285714,717.6,662.4285714285714,640.3348214285714,821.9,662.4285714285714,640.3348214285714,927.7,662.4285714285714,640.3348214285714,1027.9,662.4285714285714,640.3348214285714,1134,662.4285714285714,640.3348214285714,1236.8,662.4285714285714,640.3348214285714,1342.8,662.4285714285714,640.3348214285714,1449.8,662.4285714285714,640.3348214285714,1552.1,662.4285714285714,640.3348214285714,1656.9,662.4285714285714,640.3348214285714,1756.9,662.4285714285714,640.3348214285714,1857.6,662.4285714285714,640.3348214285714,1962.7,660.4285714285714,640.3348214285714,2069.5,662.4285714285714,629.3348214285714,2170.2,663.4285714285714,628.3348214285714,2271.7,732.4285714285714,578.3348214285714,2371.8,817.4285714285714,342.33482142857144,2471.9,909.4285714285714,149.33482142857144,2572.5,929.4285714285714,131.33482142857144,2677.3,951.4285714285714,129.33482142857144,2777.8,968.4285714285714,126.33482142857143,2882.7,968.4285714285714,126.33482142857143,2982.7,979.4285714285714,143.33482142857144,3086.7,1135.4285714285713,329.33482142857144,3188.3,1193.4285714285713,403.33482142857144,3289.1,1192.4285714285713,404.33482142857144,3392.8,1192.4285714285713,404.33482142857144,3493.1,1192.4285714285713,404.33482142857144,3598.6,1192.4285714285713,404.33482142857144,3699.2,1192.4285714285713,404.33482142857144,3801.8,1192.4285714285713,404.33482142857144,3903.8]","[1671.4,1671.4,1003.1,0,668.3,""while_blue"",""right"",""right"",""good_move"",2815.2,1143.4,2320.8,1671.8,-1177.4,""error"",""-"",""-"",""no_move"",6129.3,3313.6,1906.6,3817.6,405.1,""smooth"",""right"",""right"",""good_move"",6643,513.6,2458.2,6129.4,-1944.6,""error"",""-"",""-"",""no_move"",10825.4,4182.1,2764.8,7644,416.7,""smooth"",""up"",""up"",""good_move"",14311,3485.2,2977.4,10825.8,507.9,""smooth"",""up"",""up"",""good_move"",17667.1,3355.6,2846.2,14311.5,509.4,""smooth"",""up"",""up"",""good_move"",20680.3,3013,2654.5,17667.3,358.5,""smooth"",""right"",""right"",""good_move""]","",""
"13766","","","","instructions","21","387933","0.0-8.0-2.0","103","1","2025-07-02 10:19:26","80fe4187154257d5fb01684ea91b68b9","209.35.65.94","Mozilla/5.0 (Macintosh; Intel Mac OS X 10_15_7) AppleWebKit/537.36 (KHTML, like Gecko) Chrome/137.0.0.0 Safari/537.36","Macintosh","Chrome","137.0.0.0","OS X","10_15_7","https://app.prolific.com/","en-GB,en-US;q=0.9,en;q=0.8","672de198be1065a8f288300d","683db6dfa200031b80f2a654","6865077ff13240d7e755bcb4","672de198be1065a8f288300d","","[{""page_index"":0,""viewing_time"":13765}]","","","","","","","","","","","","","","","","","","","","","","","","","","","","","","","","","","","","","","","","","","",""
"","","","","ctl-task-cpt","22","433575","0.0-8.0-3.0","103","1","2025-07-02 10:19:26","80fe4187154257d5fb01684ea91b68b9","209.35.65.94","Mozilla/5.0 (Macintosh; Intel Mac OS X 10_15_7) AppleWebKit/537.36 (KHTML, like Gecko) Chrome/137.0.0.0 Safari/537.36","Macintosh","Chrome","137.0.0.0","OS X","10_15_7","https://app.prolific.com/","en-GB,en-US;q=0.9,en;q=0.8","672de198be1065a8f288300d","683db6dfa200031b80f2a654","6865077ff13240d7e755bcb4","672de198be1065a8f288300d","","","","","","","","","","","","","","","","","win-only","3","g1:SW,g2:NE","0.35","0","3","389366.6","973.8","4976.7","42631.8","2","4","8","6","1","-2","-3","0","0","0","1096.2","4000","-2710","[""down"",""left""]","{""num_key_presses"":9,""num_perfect"":3,""num_errors"":1,""num_randdir"":5,""num_randdir_good_moves"":2,""num_whilered"":0,""num_whileblue"":0,""num_blue"":2,""num_good_moves"":5}","[546.4285714285714,548.3348214285714,0.3,549.4285714285714,548.3348214285714,108.5,911.4285714285714,666.3348214285714,211.9,1379.4285714285713,801.3348214285714,316,1306.4285714285713,755.3348214285714,423.3,1281.4285714285713,413.33482142857144,527.4,1166.4285714285713,284.33482142857144,631.7,1118.4285714285713,249.33482142857144,740.7,554.4285714285714,582.3348214285714,842.1,172.42857142857144,906.3348214285714,942.4,145.42857142857144,972.3348214285714,1043.2,121.42857142857143,1013.3348214285714,1144.6,117.42857142857143,1019.3348214285714,1254.3,118.42857142857143,1018.3348214285714,1355.3,120.42857142857143,1015.3348214285714,1458.5,485.42857142857144,1057.3348214285713,1562.5,741.4285714285714,1051.3348214285713,1668.6,742.4285714285714,1050.3348214285713,1774.3,742.4285714285714,1050.3348214285713,1877.1,742.4285714285714,1050.3348214285713,1978.2,742.4285714285714,1050.3348214285713,2082.8,742.4285714285714,1050.3348214285713,2191.3,742.4285714285714,1050.3348214285713,2292.5,742.4285714285714,1050.3348214285713,2397.8,742.4285714285714,1050.3348214285713,2504.4,742.4285714285714,1050.3348214285713,2607.9,742.4285714285714,1050.3348214285713,2712.8,742.4285714285714,1050.3348214285713,2822.2,742.4285714285714,1050.3348214285713,2922.5,742.4285714285714,1050.3348214285713,3027.1,742.4285714285714,1050.3348214285713,3133.1,742.4285714285714,1050.3348214285713,3233.1,742.4285714285714,1050.3348214285713,3343.1,742.4285714285714,1050.3348214285713,3447.8,742.4285714285714,1050.3348214285713,3553.4,742.4285714285714,1050.3348214285713,3662.1,742.4285714285714,1050.3348214285713,3762.6,742.4285714285714,1050.3348214285713,3866.9,742.4285714285714,1050.3348214285713,3972.4]","[8532.8,8532.8,2268.7,5819.7,444.4,""oops"",""down"",""up"",""bad_move"",12432.9,3899.5,3437.5,8533.4,462,""oops"",""left"",""down"",""good_move"",14992.1,2558.9,1802.1,12433.2,756.8,""oops"",""left"",""down"",""good_move"",18532.5,3539.5,2939.3,14993,600.2,""smooth"",""down"",""down"",""good_move"",21837.1,3304.3,2950.4,18532.8,353.9,""oops"",""left"",""up"",""bad_move"",24692.2,2854.8,2318.8,21837.4,536,""smooth"",""left"",""left"",""good_move"",28022.1,3329.6,2841.6,24692.5,488,""smooth"",""left"",""left"",""good_move"",31105.3,3083,2682.7,28022.4,400.2,""oops"",""down"",""up"",""bad_move"",33602.4,2497,2863.1,31105.5,-366.1,""error"",""-"",""-"",""no_move""]","",""
"18584","","","","instructions","23","452160","0.0-8.0-4.0","103","1","2025-07-02 10:19:26","80fe4187154257d5fb01684ea91b68b9","209.35.65.94","Mozilla/5.0 (Macintosh; Intel Mac OS X 10_15_7) AppleWebKit/537.36 (KHTML, like Gecko) Chrome/137.0.0.0 Safari/537.36","Macintosh","Chrome","137.0.0.0","OS X","10_15_7","https://app.prolific.com/","en-GB,en-US;q=0.9,en;q=0.8","672de198be1065a8f288300d","683db6dfa200031b80f2a654","6865077ff13240d7e755bcb4","672de198be1065a8f288300d","","[{""page_index"":0,""viewing_time"":11706},{""page_index"":1,""viewing_time"":6879}]","","","","","","","","","","","","","","","","","","","","","","","","","","","","","","","","","","","","","","","","","","",""
"14920","","","{""green_ball"":[""Ball sometimes shakes and moves in a random direction""]}","survey-multi-select","24","467083","0.0-8.0-5.0-0.0","103","1","2025-07-02 10:19:26","80fe4187154257d5fb01684ea91b68b9","209.35.65.94","Mozilla/5.0 (Macintosh; Intel Mac OS X 10_15_7) AppleWebKit/537.36 (KHTML, like Gecko) Chrome/137.0.0.0 Safari/537.36","Macintosh","Chrome","137.0.0.0","OS X","10_15_7","https://app.prolific.com/","en-GB,en-US;q=0.9,en;q=0.8","672de198be1065a8f288300d","683db6dfa200031b80f2a654","6865077ff13240d7e755bcb4","672de198be1065a8f288300d","","","[0]","","","","quiz","","","","","","","","","","","","","","","","","","","","","","","","","","","","","","","","","","","","","true",""
"2442","","<p align='center'><b>CORRECT!</b> Indeed, the green ball may sometimes shake and move in a random direction.</p>","0","html-button-response","25","469526","0.0-8.0-5.0-1.0","103","1","2025-07-02 10:19:26","80fe4187154257d5fb01684ea91b68b9","209.35.65.94","Mozilla/5.0 (Macintosh; Intel Mac OS X 10_15_7) AppleWebKit/537.36 (KHTML, like Gecko) Chrome/137.0.0.0 Safari/537.36","Macintosh","Chrome","137.0.0.0","OS X","10_15_7","https://app.prolific.com/","en-GB,en-US;q=0.9,en;q=0.8","672de198be1065a8f288300d","683db6dfa200031b80f2a654","6865077ff13240d7e755bcb4","672de198be1065a8f288300d","","","","","","","","","","","","","","","","","","","","","","","","","","","","","","","","","","","","","","","","","","","","",""
"3646","","","{""yellow_ball"":[""Ball doesn‘t move and I get -1 penalty point""]}","survey-multi-select","26","473175","0.0-8.0-6.0-0.0","103","1","2025-07-02 10:19:26","80fe4187154257d5fb01684ea91b68b9","209.35.65.94","Mozilla/5.0 (Macintosh; Intel Mac OS X 10_15_7) AppleWebKit/537.36 (KHTML, like Gecko) Chrome/137.0.0.0 Safari/537.36","Macintosh","Chrome","137.0.0.0","OS X","10_15_7","https://app.prolific.com/","en-GB,en-US;q=0.9,en;q=0.8","672de198be1065a8f288300d","683db6dfa200031b80f2a654","6865077ff13240d7e755bcb4","672de198be1065a8f288300d","","","[0]","","","","quiz","","","","","","","","","","","","","","","","","","","","","","","","","","","","","","","","","","","","","true",""
"1131","","<p align='center'><b>CORRECT!</b> Indeed, the yellow ball never moves and you receive a penalty.</p>","0","html-button-response","27","474307","0.0-8.0-6.0-1.0","103","1","2025-07-02 10:19:26","80fe4187154257d5fb01684ea91b68b9","209.35.65.94","Mozilla/5.0 (Macintosh; Intel Mac OS X 10_15_7) AppleWebKit/537.36 (KHTML, like Gecko) Chrome/137.0.0.0 Safari/537.36","Macintosh","Chrome","137.0.0.0","OS X","10_15_7","https://app.prolific.com/","en-GB,en-US;q=0.9,en;q=0.8","672de198be1065a8f288300d","683db6dfa200031b80f2a654","6865077ff13240d7e755bcb4","672de198be1065a8f288300d","","","","","","","","","","","","","","","","","","","","","","","","","","","","","","","","","","","","","","","","","","","","",""
"2142","","","{""blue_ball"":[""Ball doesn‘t move and I get -1 penalty point""]}","survey-multi-select","28","476452","0.0-8.0-7.0-0.0","103","1","2025-07-02 10:19:26","80fe4187154257d5fb01684ea91b68b9","209.35.65.94","Mozilla/5.0 (Macintosh; Intel Mac OS X 10_15_7) AppleWebKit/537.36 (KHTML, like Gecko) Chrome/137.0.0.0 Safari/537.36","Macintosh","Chrome","137.0.0.0","OS X","10_15_7","https://app.prolific.com/","en-GB,en-US;q=0.9,en;q=0.8","672de198be1065a8f288300d","683db6dfa200031b80f2a654","6865077ff13240d7e755bcb4","672de198be1065a8f288300d","","","[0]","","","","quiz","","","","","","","","","","","","","","","","","","","","","","","","","","","","","","","","","","","","","false",""
"3234","","<p align='center'><b>INCORRECT.</b> The blue ball always shakes and moves randomly.</p>","0","html-button-response","29","479688","0.0-8.0-7.0-1.0","103","1","2025-07-02 10:19:26","80fe4187154257d5fb01684ea91b68b9","209.35.65.94","Mozilla/5.0 (Macintosh; Intel Mac OS X 10_15_7) AppleWebKit/537.36 (KHTML, like Gecko) Chrome/137.0.0.0 Safari/537.36","Macintosh","Chrome","137.0.0.0","OS X","10_15_7","https://app.prolific.com/","en-GB,en-US;q=0.9,en;q=0.8","672de198be1065a8f288300d","683db6dfa200031b80f2a654","6865077ff13240d7e755bcb4","672de198be1065a8f288300d","","","","","","","","","","","","","","","","","","","","","","","","","","","","","","","","","","","","","","","","","","","","",""
"7872","","","{""blue_ball"":[""Ball always shakes and moves in a random direction""]}","survey-multi-select","30","487563","0.0-8.0-7.1-0.1","103","1","2025-07-02 10:19:26","80fe4187154257d5fb01684ea91b68b9","209.35.65.94","Mozilla/5.0 (Macintosh; Intel Mac OS X 10_15_7) AppleWebKit/537.36 (KHTML, like Gecko) Chrome/137.0.0.0 Safari/537.36","Macintosh","Chrome","137.0.0.0","OS X","10_15_7","https://app.prolific.com/","en-GB,en-US;q=0.9,en;q=0.8","672de198be1065a8f288300d","683db6dfa200031b80f2a654","6865077ff13240d7e755bcb4","672de198be1065a8f288300d","","","[0]","","","","quiz","","","","","","","","","","","","","","","","","","","","","","","","","","","","","","","","","","","","","true",""
"2534","","<p align='center'><b>CORRECT!</b> Indeed, the blue ball always shakes and moves in a random direction. Also there is a penalty of -1 point.</p>","0","html-button-response","31","490098","0.0-8.0-7.1-1.1","103","1","2025-07-02 10:19:26","80fe4187154257d5fb01684ea91b68b9","209.35.65.94","Mozilla/5.0 (Macintosh; Intel Mac OS X 10_15_7) AppleWebKit/537.36 (KHTML, like Gecko) Chrome/137.0.0.0 Safari/537.36","Macintosh","Chrome","137.0.0.0","OS X","10_15_7","https://app.prolific.com/","en-GB,en-US;q=0.9,en;q=0.8","672de198be1065a8f288300d","683db6dfa200031b80f2a654","6865077ff13240d7e755bcb4","672de198be1065a8f288300d","","","","","","","","","","","","","","","","","","","","","","","","","","","","","","","","","","","","","","","","","","","","",""
"4581","","","{""bonus"":[""When I reach 50% of points""]}","survey-multi-select","32","494682","0.0-8.0-8.0-0.0","103","1","2025-07-02 10:19:26","80fe4187154257d5fb01684ea91b68b9","209.35.65.94","Mozilla/5.0 (Macintosh; Intel Mac OS X 10_15_7) AppleWebKit/537.36 (KHTML, like Gecko) Chrome/137.0.0.0 Safari/537.36","Macintosh","Chrome","137.0.0.0","OS X","10_15_7","https://app.prolific.com/","en-GB,en-US;q=0.9,en;q=0.8","672de198be1065a8f288300d","683db6dfa200031b80f2a654","6865077ff13240d7e755bcb4","672de198be1065a8f288300d","","","[0]","","","","quiz","","","","","","","","","","","","","","","","","","","","","","","","","","","","","","","","","","","","","true",""
"1873","","<p align='center'><b>CORRECT!</b> Indeed, you receive 2 pounds extra when you reach 50% of points.</p>","0","html-button-response","33","496556","0.0-8.0-8.0-1.0","103","1","2025-07-02 10:19:26","80fe4187154257d5fb01684ea91b68b9","209.35.65.94","Mozilla/5.0 (Macintosh; Intel Mac OS X 10_15_7) AppleWebKit/537.36 (KHTML, like Gecko) Chrome/137.0.0.0 Safari/537.36","Macintosh","Chrome","137.0.0.0","OS X","10_15_7","https://app.prolific.com/","en-GB,en-US;q=0.9,en;q=0.8","672de198be1065a8f288300d","683db6dfa200031b80f2a654","6865077ff13240d7e755bcb4","672de198be1065a8f288300d","","","","","","","","","","","","","","","","","","","","","","","","","","","","","","","","","","","","","","","","","","","","",""
"3862","","","","instructions","34","500420","0.0-8.0-9.0","103","1","2025-07-02 10:19:26","80fe4187154257d5fb01684ea91b68b9","209.35.65.94","Mozilla/5.0 (Macintosh; Intel Mac OS X 10_15_7) AppleWebKit/537.36 (KHTML, like Gecko) Chrome/137.0.0.0 Safari/537.36","Macintosh","Chrome","137.0.0.0","OS X","10_15_7","https://app.prolific.com/","en-GB,en-US;q=0.9,en;q=0.8","672de198be1065a8f288300d","683db6dfa200031b80f2a654","6865077ff13240d7e755bcb4","672de198be1065a8f288300d","","[{""page_index"":0,""viewing_time"":3862}]","","","","","","","","","","","","","","","","","","","","","","","","","","","","","","","","","","","","","","","","","","",""
"3999","","<p>Before you start with this game please answer the following three questions yourself. </p>
  <p>Through this game, we measure several aspects of your cognitive performance, such as reaction times, multi-tasking capabilities </p>
  <p>and the ability to assess the situation you are in.</p>
  <p></p>
  <p><b>How good do you usually are in such tasks?</b></p>","74","html-slider-response","35","504425","0.0-9.0-0.0","103","1","2025-07-02 10:19:26","80fe4187154257d5fb01684ea91b68b9","209.35.65.94","Mozilla/5.0 (Macintosh; Intel Mac OS X 10_15_7) AppleWebKit/537.36 (KHTML, like Gecko) Chrome/137.0.0.0 Safari/537.36","Macintosh","Chrome","137.0.0.0","OS X","10_15_7","https://app.prolific.com/","en-GB,en-US;q=0.9,en;q=0.8","672de198be1065a8f288300d","683db6dfa200031b80f2a654","6865077ff13240d7e755bcb4","672de198be1065a8f288300d","2025-07-02T10:27:51.653Z","","","","","","PreSkillQ","","","","","","","","","","","","","","","","","","","","","","","","","","","","","","","","","","","","","","50"
"3134","","<div style=""width:500px;"">
  <p>How well do you think you will perform in this task compared to other participants?</p>
  </div>","75","html-slider-response","36","507561","0.0-9.0-1.0","103","1","2025-07-02 10:19:26","80fe4187154257d5fb01684ea91b68b9","209.35.65.94","Mozilla/5.0 (Macintosh; Intel Mac OS X 10_15_7) AppleWebKit/537.36 (KHTML, like Gecko) Chrome/137.0.0.0 Safari/537.36","Macintosh","Chrome","137.0.0.0","OS X","10_15_7","https://app.prolific.com/","en-GB,en-US;q=0.9,en;q=0.8","672de198be1065a8f288300d","683db6dfa200031b80f2a654","6865077ff13240d7e755bcb4","672de198be1065a8f288300d","2025-07-02T10:27:54.789Z","","","","","","PrePerfQ","","","","","","","","","","","","","","","","","","","","","","","","","","","","","","","","","","","","","","50"
"2640","","<div style=""width:500px;"">
  <p>What best describes how you currently feel?</p>
  </div>","80","html-slider-response","37","510203","0.0-9.0-2.0","103","1","2025-07-02 10:19:26","80fe4187154257d5fb01684ea91b68b9","209.35.65.94","Mozilla/5.0 (Macintosh; Intel Mac OS X 10_15_7) AppleWebKit/537.36 (KHTML, like Gecko) Chrome/137.0.0.0 Safari/537.36","Macintosh","Chrome","137.0.0.0","OS X","10_15_7","https://app.prolific.com/","en-GB,en-US;q=0.9,en;q=0.8","672de198be1065a8f288300d","683db6dfa200031b80f2a654","6865077ff13240d7e755bcb4","672de198be1065a8f288300d","2025-07-02T10:27:57.431Z","","","","","","PreMotivationQ","","","","","","","","","","","","","","","","","","","","","","","","","","","","","","","","","","","","","","50"
"","","","","ctl-task-cpt","38","531203","0.0-10.0-0.0","103","1","2025-07-02 10:19:26","80fe4187154257d5fb01684ea91b68b9","209.35.65.94","Mozilla/5.0 (Macintosh; Intel Mac OS X 10_15_7) AppleWebKit/537.36 (KHTML, like Gecko) Chrome/137.0.0.0 Safari/537.36","Macintosh","Chrome","137.0.0.0","OS X","10_15_7","https://app.prolific.com/","en-GB,en-US;q=0.9,en;q=0.8","672de198be1065a8f288300d","683db6dfa200031b80f2a654","6865077ff13240d7e755bcb4","672de198be1065a8f288300d","2025-07-02T10:28:18.431Z","","","","","","","","","","","","","","","","win-only","2","g1:SE,g2:NW","1","1","0","511637.3","2090.8","7092.4","17986.6","1","4","4","6","1","1","1","1","0","0.007575757575757576","2563.1","3000","1400","[""down"",""right""]","{""num_key_presses"":4,""num_perfect"":4,""num_errors"":0,""num_randdir"":0,""num_randdir_good_moves"":0,""num_whilered"":0,""num_whileblue"":0,""num_blue"":0,""num_good_moves"":4}","[561.4285714285714,561.3348214285714,0.1,561.4285714285714,561.3348214285714,118,561.4285714285714,561.3348214285714,220.6,561.4285714285714,561.3348214285714,331.7,561.4285714285714,561.3348214285714,434,561.4285714285714,561.3348214285714,538.6,561.4285714285714,561.3348214285714,642.2,561.4285714285714,561.3348214285714,752.4,570.4285714285714,586.3348214285714,862.8,607.4285714285714,677.3348214285714,963,740.4285714285714,854.3348214285714,1069.4,881.4285714285714,959.3348214285714,1173.5,939.4285714285714,973.3348214285714,1275.3,957.4285714285714,984.3348214285714,1380.7,954.4285714285714,981.3348214285714,1487.8,785.4285714285714,885.3348214285714,1598.4,164.42857142857144,247.33482142857144,1701.6,144.42857142857144,213.33482142857144,1810.5,145.42857142857144,209.33482142857144,1915.2,132.42857142857144,181.33482142857144,2024.6,111.42857142857143,148.33482142857144,2125.6,390.42857142857144,381.33482142857144,2226.3,899.4285714285714,937.3348214285714,2328.7,981.4285714285714,1025.3348214285713,2433,1007.4285714285714,1036.3348214285713,2538.9,1007.4285714285714,1037.3348214285713,2640.5,1007.4285714285714,1036.3348214285713,2741.8,1008.4285714285714,1036.3348214285713,2845.5,1008.4285714285714,1036.3348214285713,2949.1,1008.4285714285714,1036.3348214285713,3053,1008.4285714285714,1036.3348214285713,3155.6,1008.4285714285714,1036.3348214285713,3260.3,1008.4285714285714,1036.3348214285713,3360.9,1008.4285714285714,1036.3348214285713,3461.9,1008.4285714285714,1036.3348214285713,3565.5,1008.4285714285714,1036.3348214285713,3673.1,1008.4285714285714,1036.3348214285713,3775.8,1008.4285714285714,1036.3348214285713,3889.2,1008.4285714285714,1036.3348214285713,3991.1,1008.4285714285714,1036.3348214285713,4095.3,1008.4285714285714,1036.3348214285713,4195.3,1008.4285714285714,1036.3348214285713,4297.5,1008.4285714285714,1036.3348214285713,4401.9,1008.4285714285714,1036.3348214285713,4506.6,1008.4285714285714,1036.3348214285713,4610.1,1008.4285714285714,1036.3348214285713,4711.5,1008.4285714285714,1036.3348214285713,4815.3,1008.4285714285714,1036.3348214285713,4923.4]","[1531.2,1531.2,1000,0,531.2,""smooth"",""down"",""down"",""good_move"",5198.7,3666.7,3227.8,1532,438.9,""smooth"",""right"",""right"",""good_move"",7833,2634,1891.2,5199,742.8,""smooth"",""right"",""right"",""good_move"",10778.9,2945.5,2557.6,7833.4,387.9,""smooth"",""down"",""down"",""good_move""]","",""
"3587","","<div style=""width:500px;"">
  <p>What determined the result of this run?</p>
  </div>","100","html-slider-response","39","534791","0.0-10.0-1.0","103","1","2025-07-02 10:19:26","80fe4187154257d5fb01684ea91b68b9","209.35.65.94","Mozilla/5.0 (Macintosh; Intel Mac OS X 10_15_7) AppleWebKit/537.36 (KHTML, like Gecko) Chrome/137.0.0.0 Safari/537.36","Macintosh","Chrome","137.0.0.0","OS X","10_15_7","https://app.prolific.com/","en-GB,en-US;q=0.9,en;q=0.8","672de198be1065a8f288300d","683db6dfa200031b80f2a654","6865077ff13240d7e755bcb4","672de198be1065a8f288300d","2025-07-02T10:28:22.019Z","","","","","","AttribQ","","","","","","","","","","","","","","","","","","","","","","","","","","","","","","","","","","","","","","50"
"2782","","<div style=""width:500px;"">
  <p>How much control did you have over the ball?</p>
  </div>","100","html-slider-response","40","537575","0.0-10.0-2.0","103","1","2025-07-02 10:19:26","80fe4187154257d5fb01684ea91b68b9","209.35.65.94","Mozilla/5.0 (Macintosh; Intel Mac OS X 10_15_7) AppleWebKit/537.36 (KHTML, like Gecko) Chrome/137.0.0.0 Safari/537.36","Macintosh","Chrome","137.0.0.0","OS X","10_15_7","https://app.prolific.com/","en-GB,en-US;q=0.9,en;q=0.8","672de198be1065a8f288300d","683db6dfa200031b80f2a654","6865077ff13240d7e755bcb4","672de198be1065a8f288300d","2025-07-02T10:28:24.803Z","","","","","","ControlQ","","","","","","","","","","","","","","","","","","","","","","","","","","","","","","","","","","","","","","50"
"3031","","<div style=""width:500px;"">
  <p>How would you describe your current emotional state?</p>
  </div>","3","html-slider-response","41","540607","0.0-10.0-3.0","103","1","2025-07-02 10:19:26","80fe4187154257d5fb01684ea91b68b9","209.35.65.94","Mozilla/5.0 (Macintosh; Intel Mac OS X 10_15_7) AppleWebKit/537.36 (KHTML, like Gecko) Chrome/137.0.0.0 Safari/537.36","Macintosh","Chrome","137.0.0.0","OS X","10_15_7","https://app.prolific.com/","en-GB,en-US;q=0.9,en;q=0.8","672de198be1065a8f288300d","683db6dfa200031b80f2a654","6865077ff13240d7e755bcb4","672de198be1065a8f288300d","2025-07-02T10:28:27.835Z","","","","","","StressQ","","","","","","","","","","","","","","","","","","","","","","","","","","","","","","","","","","","","","","50"
"2941","","<div style=""width:500px;"">
  <p>What best describes how you currently feel?</p>
  </div>","91","html-slider-response","42","543549","0.0-10.0-4.0","103","1","2025-07-02 10:19:26","80fe4187154257d5fb01684ea91b68b9","209.35.65.94","Mozilla/5.0 (Macintosh; Intel Mac OS X 10_15_7) AppleWebKit/537.36 (KHTML, like Gecko) Chrome/137.0.0.0 Safari/537.36","Macintosh","Chrome","137.0.0.0","OS X","10_15_7","https://app.prolific.com/","en-GB,en-US;q=0.9,en;q=0.8","672de198be1065a8f288300d","683db6dfa200031b80f2a654","6865077ff13240d7e755bcb4","672de198be1065a8f288300d","2025-07-02T10:28:30.777Z","","","","","","MotivationQ","","","","","","","","","","","","","","","","","","","","","","","","","","","","","","","","","","","","","","50"
"","","","","ctl-task-cpt","43","571789","0.0-10.0-0.1","103","1","2025-07-02 10:19:26","80fe4187154257d5fb01684ea91b68b9","209.35.65.94","Mozilla/5.0 (Macintosh; Intel Mac OS X 10_15_7) AppleWebKit/537.36 (KHTML, like Gecko) Chrome/137.0.0.0 Safari/537.36","Macintosh","Chrome","137.0.0.0","OS X","10_15_7","https://app.prolific.com/","en-GB,en-US;q=0.9,en;q=0.8","672de198be1065a8f288300d","683db6dfa200031b80f2a654","6865077ff13240d7e755bcb4","672de198be1065a8f288300d","2025-07-02T10:28:59.018Z","","","","","","","","","","","","","","","","win-only","3","g1:SW,g2:NE","0.9","2","0","544984.6","1295.5","6300.7","25219.4","1","4","8","6","1","1","1","2","1","0.015151515151515152","1776.6","3000","1585","[""down"",""left""]","{""num_key_presses"":4,""num_perfect"":4,""num_errors"":0,""num_randdir"":0,""num_randdir_good_moves"":0,""num_whilered"":0,""num_whileblue"":0,""num_blue"":2,""num_good_moves"":4}","[565.4285714285714,567.3348214285714,0.4,565.4285714285714,567.3348214285714,104.7,565.4285714285714,567.3348214285714,214.5,564.4285714285714,569.3348214285714,315.6,564.4285714285714,570.3348214285714,426.7,564.4285714285714,571.3348214285714,528.8,564.4285714285714,571.3348214285714,634.7,564.4285714285714,571.3348214285714,746.2,564.4285714285714,571.3348214285714,850.2,564.4285714285714,571.3348214285714,951.4,564.4285714285714,571.3348214285714,1054,494.42857142857144,660.3348214285714,1159.4,258.42857142857144,900.3348214285714,1260,195.42857142857144,957.3348214285714,1367.4,109.42857142857143,1013.3348214285714,1477.2,86.42857142857143,1025.3348214285713,1579.6,86.42857142857143,1025.3348214285713,1691,86.42857142857143,1025.3348214285713,1797.8,87.42857142857143,1024.3348214285713,1906.4,325.42857142857144,1055.3348214285713,2024.5,1199.4285714285713,1237.3348214285713,2127.6,1331.4285714285713,1269.3348214285713,2229.8,1331.4285714285713,1269.3348214285713,2337.5,1331.4285714285713,1269.3348214285713,2442.5,1331.4285714285713,1269.3348214285713,2545.1,1331.4285714285713,1269.3348214285713,2647.1,1331.4285714285713,1269.3348214285713,2748.9,1331.4285714285713,1269.3348214285713,2848.9,1331.4285714285713,1269.3348214285713,2954.3,1331.4285714285713,1269.3348214285713,3064.8,1331.4285714285713,1269.3348214285713,3175.8,1331.4285714285713,1269.3348214285713,3295.7,1331.4285714285713,1269.3348214285713,3398.2,1331.4285714285713,1269.3348214285713,3498.9,1331.4285714285713,1269.3348214285713,3606.9,1331.4285714285713,1269.3348214285713,3713.6,1331.4285714285713,1269.3348214285713,3816.6,1331.4285714285713,1269.3348214285713,3925.4,1331.4285714285713,1269.3348214285713,4029,1331.4285714285713,1269.3348214285713,4133,1331.4285714285713,1269.3348214285713,4235.2,1331.4285714285713,1269.3348214285713,4335.6,1331.4285714285713,1269.3348214285713,4440.5,1331.4285714285713,1269.3348214285713,4542.6,1331.4285714285713,1269.3348214285713,4647,1331.4285714285713,1269.3348214285713,4747.7,1331.4285714285713,1269.3348214285713,4851.6,1331.4285714285713,1269.3348214285713,4953.2]","[1760.8,1760.8,1000,0,760.8,""smooth"",""down"",""down"",""good_move"",5083.7,3321.9,2489.1,1761.8,832.8,""smooth"",""down"",""down"",""good_move"",11636.7,6549.4,2287,8861.3,488.4,""smooth"",""left"",""left"",""good_move"",18739.8,7101.8,2381.7,15961.9,396.2,""smooth"",""left"",""left"",""good_move""]","",""
"2844","","<div style=""width:500px;"">
  <p>What determined the result of this run?</p>
  </div>","100","html-slider-response","44","574636","0.0-10.0-1.1","103","1","2025-07-02 10:19:26","80fe4187154257d5fb01684ea91b68b9","209.35.65.94","Mozilla/5.0 (Macintosh; Intel Mac OS X 10_15_7) AppleWebKit/537.36 (KHTML, like Gecko) Chrome/137.0.0.0 Safari/537.36","Macintosh","Chrome","137.0.0.0","OS X","10_15_7","https://app.prolific.com/","en-GB,en-US;q=0.9,en;q=0.8","672de198be1065a8f288300d","683db6dfa200031b80f2a654","6865077ff13240d7e755bcb4","672de198be1065a8f288300d","2025-07-02T10:29:01.865Z","","","","","","AttribQ","","","","","","","","","","","","","","","","","","","","","","","","","","","","","","","","","","","","","","50"
"2332","","<div style=""width:500px;"">
  <p>How much control did you have over the ball?</p>
  </div>","100","html-slider-response","45","576971","0.0-10.0-2.1","103","1","2025-07-02 10:19:26","80fe4187154257d5fb01684ea91b68b9","209.35.65.94","Mozilla/5.0 (Macintosh; Intel Mac OS X 10_15_7) AppleWebKit/537.36 (KHTML, like Gecko) Chrome/137.0.0.0 Safari/537.36","Macintosh","Chrome","137.0.0.0","OS X","10_15_7","https://app.prolific.com/","en-GB,en-US;q=0.9,en;q=0.8","672de198be1065a8f288300d","683db6dfa200031b80f2a654","6865077ff13240d7e755bcb4","672de198be1065a8f288300d","2025-07-02T10:29:04.199Z","","","","","","ControlQ","","","","","","","","","","","","","","","","","","","","","","","","","","","","","","","","","","","","","","50"
"2306","","<div style=""width:500px;"">
  <p>How would you describe your current emotional state?</p>
  </div>","0","html-slider-response","46","579282","0.0-10.0-3.1","103","1","2025-07-02 10:19:26","80fe4187154257d5fb01684ea91b68b9","209.35.65.94","Mozilla/5.0 (Macintosh; Intel Mac OS X 10_15_7) AppleWebKit/537.36 (KHTML, like Gecko) Chrome/137.0.0.0 Safari/537.36","Macintosh","Chrome","137.0.0.0","OS X","10_15_7","https://app.prolific.com/","en-GB,en-US;q=0.9,en;q=0.8","672de198be1065a8f288300d","683db6dfa200031b80f2a654","6865077ff13240d7e755bcb4","672de198be1065a8f288300d","2025-07-02T10:29:06.510Z","","","","","","StressQ","","","","","","","","","","","","","","","","","","","","","","","","","","","","","","","","","","","","","","50"
"2816","","<div style=""width:500px;"">
  <p>What best describes how you currently feel?</p>
  </div>","98","html-slider-response","47","582100","0.0-10.0-4.1","103","1","2025-07-02 10:19:26","80fe4187154257d5fb01684ea91b68b9","209.35.65.94","Mozilla/5.0 (Macintosh; Intel Mac OS X 10_15_7) AppleWebKit/537.36 (KHTML, like Gecko) Chrome/137.0.0.0 Safari/537.36","Macintosh","Chrome","137.0.0.0","OS X","10_15_7","https://app.prolific.com/","en-GB,en-US;q=0.9,en;q=0.8","672de198be1065a8f288300d","683db6dfa200031b80f2a654","6865077ff13240d7e755bcb4","672de198be1065a8f288300d","2025-07-02T10:29:09.329Z","","","","","","MotivationQ","","","","","","","","","","","","","","","","","","","","","","","","","","","","","","","","","","","","","","50"
"","","","","ctl-task-cpt","48","611646","0.0-10.0-0.2","103","1","2025-07-02 10:19:26","80fe4187154257d5fb01684ea91b68b9","209.35.65.94","Mozilla/5.0 (Macintosh; Intel Mac OS X 10_15_7) AppleWebKit/537.36 (KHTML, like Gecko) Chrome/137.0.0.0 Safari/537.36","Macintosh","Chrome","137.0.0.0","OS X","10_15_7","https://app.prolific.com/","en-GB,en-US;q=0.9,en;q=0.8","672de198be1065a8f288300d","683db6dfa200031b80f2a654","6865077ff13240d7e755bcb4","672de198be1065a8f288300d","2025-07-02T10:29:38.874Z","","","","","","","","","","","","","","","","win-only","3","g1:SW,g2:NE","0.8","3","0","583534.9","1102.6","6108.2","26521.3","1","4","4","6","2","4","3","5","2","0.03787878787878788","1483.2","3000","945","[""up"",""right""]","{""num_key_presses"":8,""num_perfect"":7,""num_errors"":1,""num_randdir"":0,""num_randdir_good_moves"":0,""num_whilered"":0,""num_whileblue"":1,""num_blue"":1,""num_good_moves"":7}","[548.4285714285714,552.3348214285714,3.4,548.4285714285714,553.3348214285714,107.4,548.4285714285714,559.3348214285714,217.2,559.4285714285714,615.3348214285714,358.4,560.4285714285714,617.3348214285714,464.5,560.4285714285714,617.3348214285714,564.5,603.4285714285714,590.3348214285714,671.7,813.4285714285714,392.33482142857144,778.6,942.4285714285714,283.33482142857144,889.4,973.4285714285714,218.33482142857144,994.1,989.4285714285714,190.33482142857144,1095.6,1005.4285714285714,155.33482142857144,1204.6,1005.4285714285714,135.33482142857144,1305.1,1005.4285714285714,134.33482142857144,1410.5,1004.4285714285714,134.33482142857144,1522.2,1004.4285714285714,134.33482142857144,1630.1,1055.4285714285713,194.33482142857144,1747.6,1245.4285714285713,402.33482142857144,1850.8,1333.4285714285713,519.3348214285714,1958.7,1333.4285714285713,519.3348214285714,2059.5,1333.4285714285713,519.3348214285714,2168.6,1333.4285714285713,519.3348214285714,2282.7,1333.4285714285713,519.3348214285714,2395.5,1333.4285714285713,519.3348214285714,2501.6,1333.4285714285713,519.3348214285714,2606.1,1333.4285714285713,519.3348214285714,2714.2,1333.4285714285713,519.3348214285714,2820.2,1333.4285714285713,519.3348214285714,2930.2,1333.4285714285713,519.3348214285714,3030.5,1333.4285714285713,519.3348214285714,3132.1,1333.4285714285713,519.3348214285714,3243.6,1333.4285714285713,519.3348214285714,3346.2,1333.4285714285713,519.3348214285714,3456.7,1333.4285714285713,519.3348214285714,3564.2,1333.4285714285713,519.3348214285714,3677.6,1333.4285714285713,519.3348214285714,3780.4,1333.4285714285713,519.3348214285714,3880.4,1333.4285714285713,519.3348214285714,3990.8,1333.4285714285713,519.3348214285714,4095.5,1333.4285714285713,519.3348214285714,4196.8,1333.4285714285713,519.3348214285714,4305,1333.4285714285713,519.3348214285714,4410.2,1333.4285714285713,519.3348214285714,4514.7,1333.4285714285713,519.3348214285714,4615.4,1333.4285714285713,519.3348214285714,4718.8,1333.4285714285713,519.3348214285714,4830.4,1333.4285714285713,519.3348214285714,4941.3]","[1485.4,1485.5,1000,0,485.5,""smooth"",""right"",""right"",""good_move"",4552.1,3065.6,1950.6,1486.5,1115.1,""smooth"",""right"",""right"",""good_move"",7275.5,2715.7,2116.3,4559.9,599.3,""smooth"",""right"",""right"",""good_move"",9458.7,2180.3,1655.8,7278.4,524.5,""smooth"",""up"",""up"",""good_move"",12087.3,2628.3,2229.4,9459.1,398.8,""while_blue"",""up"",""down"",""bad_move"",14693.9,2601.7,2019.2,12092.2,582.5,""smooth"",""up"",""up"",""good_move"",17848.7,3153.7,2569.2,14695,584.5,""smooth"",""up"",""up"",""good_move"",20225.4,2375.2,1665.6,17850.2,709.6,""smooth"",""up"",""up"",""good_move""]","",""
"2527","","<div style=""width:500px;"">
  <p>What determined the result of this run?</p>
  </div>","100","html-slider-response","49","614175","0.0-10.0-1.2","103","1","2025-07-02 10:19:26","80fe4187154257d5fb01684ea91b68b9","209.35.65.94","Mozilla/5.0 (Macintosh; Intel Mac OS X 10_15_7) AppleWebKit/537.36 (KHTML, like Gecko) Chrome/137.0.0.0 Safari/537.36","Macintosh","Chrome","137.0.0.0","OS X","10_15_7","https://app.prolific.com/","en-GB,en-US;q=0.9,en;q=0.8","672de198be1065a8f288300d","683db6dfa200031b80f2a654","6865077ff13240d7e755bcb4","672de198be1065a8f288300d","2025-07-02T10:29:41.404Z","","","","","","AttribQ","","","","","","","","","","","","","","","","","","","","","","","","","","","","","","","","","","","","","","50"
"2146","","<div style=""width:500px;"">
  <p>How much control did you have over the ball?</p>
  </div>","100","html-slider-response","50","616323","0.0-10.0-2.2","103","1","2025-07-02 10:19:26","80fe4187154257d5fb01684ea91b68b9","209.35.65.94","Mozilla/5.0 (Macintosh; Intel Mac OS X 10_15_7) AppleWebKit/537.36 (KHTML, like Gecko) Chrome/137.0.0.0 Safari/537.36","Macintosh","Chrome","137.0.0.0","OS X","10_15_7","https://app.prolific.com/","en-GB,en-US;q=0.9,en;q=0.8","672de198be1065a8f288300d","683db6dfa200031b80f2a654","6865077ff13240d7e755bcb4","672de198be1065a8f288300d","2025-07-02T10:29:43.551Z","","","","","","ControlQ","","","","","","","","","","","","","","","","","","","","","","","","","","","","","","","","","","","","","","50"
"4325","","<div style=""width:500px;"">
  <p>How would you describe your current emotional state?</p>
  </div>","19","html-slider-response","51","620650","0.0-10.0-3.2","103","1","2025-07-02 10:19:26","80fe4187154257d5fb01684ea91b68b9","209.35.65.94","Mozilla/5.0 (Macintosh; Intel Mac OS X 10_15_7) AppleWebKit/537.36 (KHTML, like Gecko) Chrome/137.0.0.0 Safari/537.36","Macintosh","Chrome","137.0.0.0","OS X","10_15_7","https://app.prolific.com/","en-GB,en-US;q=0.9,en;q=0.8","672de198be1065a8f288300d","683db6dfa200031b80f2a654","6865077ff13240d7e755bcb4","672de198be1065a8f288300d","2025-07-02T10:29:47.879Z","","","","","","StressQ","","","","","","","","","","","","","","","","","","","","","","","","","","","","","","","","","","","","","","50"
"2220","","<div style=""width:500px;"">
  <p>What best describes how you currently feel?</p>
  </div>","100","html-slider-response","52","622875","0.0-10.0-4.2","103","1","2025-07-02 10:19:26","80fe4187154257d5fb01684ea91b68b9","209.35.65.94","Mozilla/5.0 (Macintosh; Intel Mac OS X 10_15_7) AppleWebKit/537.36 (KHTML, like Gecko) Chrome/137.0.0.0 Safari/537.36","Macintosh","Chrome","137.0.0.0","OS X","10_15_7","https://app.prolific.com/","en-GB,en-US;q=0.9,en;q=0.8","672de198be1065a8f288300d","683db6dfa200031b80f2a654","6865077ff13240d7e755bcb4","672de198be1065a8f288300d","2025-07-02T10:29:50.103Z","","","","","","MotivationQ","","","","","","","","","","","","","","","","","","","","","","","","","","","","","","","","","","","","","","50"
"","","","","ctl-task-cpt","53","684302","0.0-10.0-0.3","103","1","2025-07-02 10:19:26","80fe4187154257d5fb01684ea91b68b9","209.35.65.94","Mozilla/5.0 (Macintosh; Intel Mac OS X 10_15_7) AppleWebKit/537.36 (KHTML, like Gecko) Chrome/137.0.0.0 Safari/537.36","Macintosh","Chrome","137.0.0.0","OS X","10_15_7","https://app.prolific.com/","en-GB,en-US;q=0.9,en;q=0.8","672de198be1065a8f288300d","683db6dfa200031b80f2a654","6865077ff13240d7e755bcb4","672de198be1065a8f288300d","2025-07-02T10:30:51.530Z","","","","","","","","","","","","","","","","win-only","0","g1:NW,g2:SE","0.7","4","0","624316.8","1409.8","6417","58390.8","1","4","8","6","2","-8","-9","0","5","0","1354.8","3000","-970","[""down"",""right""]","{""num_key_presses"":12,""num_perfect"":7,""num_errors"":1,""num_randdir"":4,""num_randdir_good_moves"":1,""num_whilered"":0,""num_whileblue"":1,""num_blue"":5,""num_good_moves"":8}","[544.4285714285714,556.3348214285714,1.6,544.4285714285714,556.3348214285714,101,544.4285714285714,556.3348214285714,208.6,544.4285714285714,556.3348214285714,312,544.4285714285714,556.3348214285714,424.2,544.4285714285714,556.3348214285714,532.8,543.4285714285714,556.3348214285714,637.2,544.4285714285714,557.3348214285714,751.9,544.4285714285714,558.3348214285714,864.1,758.4285714285714,789.3348214285714,974.3,889.4285714285714,941.3348214285714,1086.6,925.4285714285714,947.3348214285714,1198.5,1001.4285714285714,977.3348214285714,1314.3,1006.4285714285714,981.3348214285714,1430.2,1037.4285714285713,995.3348214285714,1533.6,1261.4285714285713,1046.3348214285713,1641.8,1393.4285714285713,1060.3348214285713,1743.8,1393.4285714285713,1060.3348214285713,1844.5,1393.4285714285713,1060.3348214285713,1950.1,1393.4285714285713,1060.3348214285713,2054.2,1393.4285714285713,1060.3348214285713,2159.1,1393.4285714285713,1060.3348214285713,2271.8,1393.4285714285713,1060.3348214285713,2376.5,1393.4285714285713,1060.3348214285713,2477.8,1393.4285714285713,1060.3348214285713,2581.7,1393.4285714285713,1060.3348214285713,2707.9,1393.4285714285713,1060.3348214285713,2814.5,1393.4285714285713,1060.3348214285713,2917.3,1393.4285714285713,1060.3348214285713,3019.2,1393.4285714285713,1060.3348214285713,3122.3,1393.4285714285713,1060.3348214285713,3226,1393.4285714285713,1060.3348214285713,3326,1393.4285714285713,1060.3348214285713,3437.7,1393.4285714285713,1060.3348214285713,3541.2,1393.4285714285713,1060.3348214285713,3644.7,1393.4285714285713,1060.3348214285713,3754.1,1393.4285714285713,1060.3348214285713,3855.2,1393.4285714285713,1060.3348214285713,3955.7,1393.4285714285713,1060.3348214285713,4065.5,1393.4285714285713,1060.3348214285713,4175.2,1393.4285714285713,1060.3348214285713,4277.9,1393.4285714285713,1060.3348214285713,4385.8,1393.4285714285713,1060.3348214285713,4495,1393.4285714285713,1060.3348214285713,4602.1,1393.4285714285713,1060.3348214285713,4711.3,1393.4285714285713,1060.3348214285713,4811.7,1393.4285714285713,1060.3348214285713,4913.1]","[4455.5,4455.5,1852.8,2003.8,598.9,""smooth"",""right"",""right"",""good_move"",7914.4,3458.1,2893.1,4456.3,565,""oops"",""down"",""up"",""bad_move"",10570.4,2653.9,2220.8,7916.5,433.1,""smooth"",""right"",""right"",""good_move"",14671.7,4100.1,3022.4,10571.6,1077.7,""smooth"",""right"",""right"",""good_move"",17812.8,3140.9,2815.3,14671.9,325.7,""while_blue"",""down"",""up"",""bad_move"",23581.5,5768.3,2250.9,20801.3,529.3,""oops"",""down"",""left"",""bad_move"",26345.8,2763.4,2190.7,23582.5,572.7,""smooth"",""down"",""down"",""good_move"",35952.9,9602.4,1923.8,33567.2,461.9,""smooth"",""down"",""down"",""good_move"",39144.4,3188.7,2406.2,35956,782.2,""oops"",""down"",""right"",""good_move"",42113.7,2966.8,2366.2,39146.9,600.6,""smooth"",""down"",""down"",""good_move"",46111.8,3996.2,3524.5,42115.6,471.7,""smooth"",""down"",""down"",""good_move"",49357.4,3242.2,1991.2,46115.2,1251,""oops"",""down"",""up"",""bad_move""]","",""
"3934","","<div style=""width:500px;"">
  <p>What determined the result of this run?</p>
  </div>","14","html-slider-response","54","688239","0.0-10.0-1.3","103","1","2025-07-02 10:19:26","80fe4187154257d5fb01684ea91b68b9","209.35.65.94","Mozilla/5.0 (Macintosh; Intel Mac OS X 10_15_7) AppleWebKit/537.36 (KHTML, like Gecko) Chrome/137.0.0.0 Safari/537.36","Macintosh","Chrome","137.0.0.0","OS X","10_15_7","https://app.prolific.com/","en-GB,en-US;q=0.9,en;q=0.8","672de198be1065a8f288300d","683db6dfa200031b80f2a654","6865077ff13240d7e755bcb4","672de198be1065a8f288300d","2025-07-02T10:30:55.467Z","","","","","","AttribQ","","","","","","","","","","","","","","","","","","","","","","","","","","","","","","","","","","","","","","50"
"3660","","<div style=""width:500px;"">
  <p>How much control did you have over the ball?</p>
  </div>","19","html-slider-response","55","691901","0.0-10.0-2.3","103","1","2025-07-02 10:19:26","80fe4187154257d5fb01684ea91b68b9","209.35.65.94","Mozilla/5.0 (Macintosh; Intel Mac OS X 10_15_7) AppleWebKit/537.36 (KHTML, like Gecko) Chrome/137.0.0.0 Safari/537.36","Macintosh","Chrome","137.0.0.0","OS X","10_15_7","https://app.prolific.com/","en-GB,en-US;q=0.9,en;q=0.8","672de198be1065a8f288300d","683db6dfa200031b80f2a654","6865077ff13240d7e755bcb4","672de198be1065a8f288300d","2025-07-02T10:30:59.129Z","","","","","","ControlQ","","","","","","","","","","","","","","","","","","","","","","","","","","","","","","","","","","","","","","50"
"2732","","<div style=""width:500px;"">
  <p>How would you describe your current emotional state?</p>
  </div>","50","html-slider-response","56","694636","0.0-10.0-3.3","103","1","2025-07-02 10:19:26","80fe4187154257d5fb01684ea91b68b9","209.35.65.94","Mozilla/5.0 (Macintosh; Intel Mac OS X 10_15_7) AppleWebKit/537.36 (KHTML, like Gecko) Chrome/137.0.0.0 Safari/537.36","Macintosh","Chrome","137.0.0.0","OS X","10_15_7","https://app.prolific.com/","en-GB,en-US;q=0.9,en;q=0.8","672de198be1065a8f288300d","683db6dfa200031b80f2a654","6865077ff13240d7e755bcb4","672de198be1065a8f288300d","2025-07-02T10:31:01.864Z","","","","","","StressQ","","","","","","","","","","","","","","","","","","","","","","","","","","","","","","","","","","","","","","50"
"2772","","<div style=""width:500px;"">
  <p>What best describes how you currently feel?</p>
  </div>","84","html-slider-response","57","697411","0.0-10.0-4.3","103","1","2025-07-02 10:19:26","80fe4187154257d5fb01684ea91b68b9","209.35.65.94","Mozilla/5.0 (Macintosh; Intel Mac OS X 10_15_7) AppleWebKit/537.36 (KHTML, like Gecko) Chrome/137.0.0.0 Safari/537.36","Macintosh","Chrome","137.0.0.0","OS X","10_15_7","https://app.prolific.com/","en-GB,en-US;q=0.9,en;q=0.8","672de198be1065a8f288300d","683db6dfa200031b80f2a654","6865077ff13240d7e755bcb4","672de198be1065a8f288300d","2025-07-02T10:31:04.640Z","","","","","","MotivationQ","","","","","","","","","","","","","","","","","","","","","","","","","","","","","","","","","","","","","","50"
"","","","","ctl-task-cpt","58","761517","0.0-10.0-0.4","103","1","2025-07-02 10:19:26","80fe4187154257d5fb01684ea91b68b9","209.35.65.94","Mozilla/5.0 (Macintosh; Intel Mac OS X 10_15_7) AppleWebKit/537.36 (KHTML, like Gecko) Chrome/137.0.0.0 Safari/537.36","Macintosh","Chrome","137.0.0.0","OS X","10_15_7","https://app.prolific.com/","en-GB,en-US;q=0.9,en;q=0.8","672de198be1065a8f288300d","683db6dfa200031b80f2a654","6865077ff13240d7e755bcb4","672de198be1065a8f288300d","2025-07-02T10:32:08.745Z","","","","","","","","","","","","","","","","win-only","3","g1:SW,g2:NE","0.6","5","0","698845.9","1003.2","6013.7","61078.8","1","4","8","6","2","8","7","7","0","0.05303030303030303","1509.4","3000","905","[""up"",""right""]","{""num_key_presses"":11,""num_perfect"":6,""num_errors"":1,""num_randdir"":4,""num_randdir_good_moves"":2,""num_whilered"":0,""num_whileblue"":0,""num_blue"":6,""num_good_moves"":8}","[565.4285714285714,548.3348214285714,1.8,564.4285714285714,549.3348214285714,104.8,569.4285714285714,564.3348214285714,215.4,567.4285714285714,601.3348214285714,318.7,566.4285714285714,605.3348214285714,424,566.4285714285714,605.3348214285714,537.8,566.4285714285714,605.3348214285714,651.2,566.4285714285714,605.3348214285714,759.2,566.4285714285714,605.3348214285714,860.9,566.4285714285714,605.3348214285714,964.3,601.4285714285714,583.3348214285714,1074.1,865.4285714285714,242.33482142857144,1189.8,894.4285714285714,225.33482142857144,1305.6,954.4285714285714,158.33482142857144,1410.8,971.4285714285714,140.33482142857144,1515,971.4285714285714,140.33482142857144,1638.7,1081.4285714285713,249.33482142857144,1740.3,1283.4285714285713,555.3348214285714,1851.8,1378.4285714285713,688.3348214285714,1965.4,1378.4285714285713,688.3348214285714,2076.8,1378.4285714285713,688.3348214285714,2179.4,1378.4285714285713,688.3348214285714,2287,1378.4285714285713,688.3348214285714,2395.5,1378.4285714285713,688.3348214285714,2511.9,1378.4285714285713,688.3348214285714,2616,1378.4285714285713,688.3348214285714,2717.9,1378.4285714285713,688.3348214285714,2825.9,1378.4285714285713,688.3348214285714,2928,1378.4285714285713,688.3348214285714,3037.5,1378.4285714285713,688.3348214285714,3150.9,1378.4285714285713,688.3348214285714,3260.9,1378.4285714285713,688.3348214285714,3364.5,1378.4285714285713,688.3348214285714,3474.8,1378.4285714285713,688.3348214285714,3574.8,1378.4285714285713,688.3348214285714,3686.6,1378.4285714285713,688.3348214285714,3799.9,1378.4285714285713,688.3348214285714,3901.7,1378.4285714285713,688.3348214285714,4007.5,1378.4285714285713,688.3348214285714,4120,1378.4285714285713,688.3348214285714,4227.2,1378.4285714285713,688.3348214285714,4337.3,1378.4285714285713,688.3348214285714,4452.6,1378.4285714285713,688.3348214285714,4559,1378.4285714285713,688.3348214285714,4669.1,1378.4285714285713,688.3348214285714,4771.7,1378.4285714285713,688.3348214285714,4885.8,1378.4285714285713,688.3348214285714,4990]","[754.4,754.5,1000,0,-245.5,""error"",""-"",""-"",""no_move"",4883.8,4123.4,2590.7,1760.6,532.5,""smooth"",""right"",""right"",""good_move"",8077.3,3192.9,2663.5,4884.4,529.4,""oops"",""right"",""down"",""bad_move"",14626.8,6548.4,3014.9,11196,415.9,""oops"",""up"",""right"",""good_move"",18116.9,3489.9,2856.2,14627,633.7,""smooth"",""up"",""up"",""good_move"",21650.6,3531.6,2782.3,18119,749.3,""smooth"",""up"",""up"",""good_move"",24671,3019.4,2259.7,21651.6,759.7,""oops"",""up"",""right"",""good_move"",28239.5,3568.3,2966.2,24671.2,602.1,""smooth"",""up"",""up"",""good_move"",34390.1,6149.5,2022.3,31913.2,454.6,""oops"",""up"",""left"",""bad_move"",51398.9,17008.5,2555.2,48320.7,523,""smooth"",""up"",""up"",""good_move"",54778.3,3375.8,2352.4,51402.5,1023.4,""smooth"",""right"",""right"",""good_move""]","",""
"3486","","<div style=""width:500px;"">
  <p>What determined the result of this run?</p>
  </div>","49","html-slider-response","59","765008","0.0-10.0-1.4","103","1","2025-07-02 10:19:26","80fe4187154257d5fb01684ea91b68b9","209.35.65.94","Mozilla/5.0 (Macintosh; Intel Mac OS X 10_15_7) AppleWebKit/537.36 (KHTML, like Gecko) Chrome/137.0.0.0 Safari/537.36","Macintosh","Chrome","137.0.0.0","OS X","10_15_7","https://app.prolific.com/","en-GB,en-US;q=0.9,en;q=0.8","672de198be1065a8f288300d","683db6dfa200031b80f2a654","6865077ff13240d7e755bcb4","672de198be1065a8f288300d","2025-07-02T10:32:12.237Z","","","","","","AttribQ","","","","","","","","","","","","","","","","","","","","","","","","","","","","","","","","","","","","","","50"
"3940","","<div style=""width:500px;"">
  <p>How much control did you have over the ball?</p>
  </div>","51","html-slider-response","60","768953","0.0-10.0-2.4","103","1","2025-07-02 10:19:26","80fe4187154257d5fb01684ea91b68b9","209.35.65.94","Mozilla/5.0 (Macintosh; Intel Mac OS X 10_15_7) AppleWebKit/537.36 (KHTML, like Gecko) Chrome/137.0.0.0 Safari/537.36","Macintosh","Chrome","137.0.0.0","OS X","10_15_7","https://app.prolific.com/","en-GB,en-US;q=0.9,en;q=0.8","672de198be1065a8f288300d","683db6dfa200031b80f2a654","6865077ff13240d7e755bcb4","672de198be1065a8f288300d","2025-07-02T10:32:16.181Z","","","","","","ControlQ","","","","","","","","","","","","","","","","","","","","","","","","","","","","","","","","","","","","","","50"
"2711","","<div style=""width:500px;"">
  <p>How would you describe your current emotional state?</p>
  </div>","22","html-slider-response","61","771669","0.0-10.0-3.4","103","1","2025-07-02 10:19:26","80fe4187154257d5fb01684ea91b68b9","209.35.65.94","Mozilla/5.0 (Macintosh; Intel Mac OS X 10_15_7) AppleWebKit/537.36 (KHTML, like Gecko) Chrome/137.0.0.0 Safari/537.36","Macintosh","Chrome","137.0.0.0","OS X","10_15_7","https://app.prolific.com/","en-GB,en-US;q=0.9,en;q=0.8","672de198be1065a8f288300d","683db6dfa200031b80f2a654","6865077ff13240d7e755bcb4","672de198be1065a8f288300d","2025-07-02T10:32:18.897Z","","","","","","StressQ","","","","","","","","","","","","","","","","","","","","","","","","","","","","","","","","","","","","","","50"
"2696","","<div style=""width:500px;"">
  <p>What best describes how you currently feel?</p>
  </div>","89","html-slider-response","62","774369","0.0-10.0-4.4","103","1","2025-07-02 10:19:26","80fe4187154257d5fb01684ea91b68b9","209.35.65.94","Mozilla/5.0 (Macintosh; Intel Mac OS X 10_15_7) AppleWebKit/537.36 (KHTML, like Gecko) Chrome/137.0.0.0 Safari/537.36","Macintosh","Chrome","137.0.0.0","OS X","10_15_7","https://app.prolific.com/","en-GB,en-US;q=0.9,en;q=0.8","672de198be1065a8f288300d","683db6dfa200031b80f2a654","6865077ff13240d7e755bcb4","672de198be1065a8f288300d","2025-07-02T10:32:21.597Z","","","","","","MotivationQ","","","","","","","","","","","","","","","","","","","","","","","","","","","","","","","","","","","","","","50"
"","","","","ctl-task-cpt","63","795415","0.0-10.0-0.5","103","1","2025-07-02 10:19:26","80fe4187154257d5fb01684ea91b68b9","209.35.65.94","Mozilla/5.0 (Macintosh; Intel Mac OS X 10_15_7) AppleWebKit/537.36 (KHTML, like Gecko) Chrome/137.0.0.0 Safari/537.36","Macintosh","Chrome","137.0.0.0","OS X","10_15_7","https://app.prolific.com/","en-GB,en-US;q=0.9,en;q=0.8","672de198be1065a8f288300d","683db6dfa200031b80f2a654","6865077ff13240d7e755bcb4","672de198be1065a8f288300d","2025-07-02T10:32:42.643Z","","","","","","","","","","","","","","","","win-only","3","g1:SW,g2:NE","0.5","6","0","775805.2","1125.4","6130.4","18023.3","1","4","4","6","1","1","1","8","7","0.06060606060606061","1098.6","3000","2320","[""down"",""left""]","{""num_key_presses"":4,""num_perfect"":3,""num_errors"":0,""num_randdir"":1,""num_randdir_good_moves"":1,""num_whilered"":0,""num_whileblue"":0,""num_blue"":0,""num_good_moves"":4}","[550.4285714285714,562.3348214285714,0.6,550.4285714285714,562.3348214285714,106.9,550.4285714285714,562.3348214285714,214.5,550.4285714285714,562.3348214285714,321.5,550.4285714285714,562.3348214285714,432,550.4285714285714,562.3348214285714,534.9,550.4285714285714,562.3348214285714,642,550.4285714285714,562.3348214285714,746.1,197.42857142857144,822.3348214285714,863.6,121.42857142857143,910.3348214285714,972.9,116.42857142857143,944.3348214285714,1089.8,119.42857142857143,949.3348214285714,1204.5,121.42857142857143,944.3348214285714,1308.1,142.42857142857144,955.3348214285714,1413.9,563.4285714285714,1035.3348214285713,1527.8,921.4285714285714,1065.3348214285713,1642.8,936.4285714285714,1059.3348214285713,1753.8,936.4285714285714,1059.3348214285713,1858.8,936.4285714285714,1059.3348214285713,1960.9,936.4285714285714,1059.3348214285713,2063.9,936.4285714285714,1059.3348214285713,2165.1,936.4285714285714,1059.3348214285713,2278.4,936.4285714285714,1059.3348214285713,2391,936.4285714285714,1059.3348214285713,2493.9,936.4285714285714,1059.3348214285713,2596.4,936.4285714285714,1059.3348214285713,2699.5,936.4285714285714,1059.3348214285713,2809.3,936.4285714285714,1059.3348214285713,2923,936.4285714285714,1059.3348214285713,3039.6,936.4285714285714,1059.3348214285713,3147.8,936.4285714285714,1059.3348214285713,3254.3,936.4285714285714,1059.3348214285713,3360.4,936.4285714285714,1059.3348214285713,3468.5,936.4285714285714,1059.3348214285713,3579.3,936.4285714285714,1059.3348214285713,3682.3,936.4285714285714,1059.3348214285713,3793.9,936.4285714285714,1059.3348214285713,3895,936.4285714285714,1059.3348214285713,4002.3,936.4285714285714,1059.3348214285713,4120.6,936.4285714285714,1059.3348214285713,4233.2,936.4285714285714,1059.3348214285713,4341.9,936.4285714285714,1059.3348214285713,4443.2,936.4285714285714,1059.3348214285713,4555,936.4285714285714,1059.3348214285713,4656.5,936.4285714285714,1059.3348214285713,4765.9,936.4285714285714,1059.3348214285713,4874.7,936.4285714285714,1059.3348214285713,4981.5]","[1542.8,1542.8,1000,0,542.8,""smooth"",""down"",""down"",""good_move"",5094.9,3551.4,2998.7,1543.5,552.7,""oops"",""left"",""left"",""good_move"",8487.2,3389.5,2766.2,5097.7,623.3,""smooth"",""left"",""left"",""good_move"",11616,3128.2,2673.4,8487.8,454.8,""smooth"",""down"",""down"",""good_move""]","",""
"5011","","<div style=""width:500px;"">
  <p>What determined the result of this run?</p>
  </div>","43","html-slider-response","64","800429","0.0-10.0-1.5","103","1","2025-07-02 10:19:26","80fe4187154257d5fb01684ea91b68b9","209.35.65.94","Mozilla/5.0 (Macintosh; Intel Mac OS X 10_15_7) AppleWebKit/537.36 (KHTML, like Gecko) Chrome/137.0.0.0 Safari/537.36","Macintosh","Chrome","137.0.0.0","OS X","10_15_7","https://app.prolific.com/","en-GB,en-US;q=0.9,en;q=0.8","672de198be1065a8f288300d","683db6dfa200031b80f2a654","6865077ff13240d7e755bcb4","672de198be1065a8f288300d","2025-07-02T10:32:47.657Z","","","","","","AttribQ","","","","","","","","","","","","","","","","","","","","","","","","","","","","","","","","","","","","","","50"
"4478","","<div style=""width:500px;"">
  <p>How much control did you have over the ball?</p>
  </div>","63","html-slider-response","65","804910","0.0-10.0-2.5","103","1","2025-07-02 10:19:26","80fe4187154257d5fb01684ea91b68b9","209.35.65.94","Mozilla/5.0 (Macintosh; Intel Mac OS X 10_15_7) AppleWebKit/537.36 (KHTML, like Gecko) Chrome/137.0.0.0 Safari/537.36","Macintosh","Chrome","137.0.0.0","OS X","10_15_7","https://app.prolific.com/","en-GB,en-US;q=0.9,en;q=0.8","672de198be1065a8f288300d","683db6dfa200031b80f2a654","6865077ff13240d7e755bcb4","672de198be1065a8f288300d","2025-07-02T10:32:52.138Z","","","","","","ControlQ","","","","","","","","","","","","","","","","","","","","","","","","","","","","","","","","","","","","","","50"
"3510","","<div style=""width:500px;"">
  <p>How would you describe your current emotional state?</p>
  </div>","18","html-slider-response","66","808423","0.0-10.0-3.5","103","1","2025-07-02 10:19:26","80fe4187154257d5fb01684ea91b68b9","209.35.65.94","Mozilla/5.0 (Macintosh; Intel Mac OS X 10_15_7) AppleWebKit/537.36 (KHTML, like Gecko) Chrome/137.0.0.0 Safari/537.36","Macintosh","Chrome","137.0.0.0","OS X","10_15_7","https://app.prolific.com/","en-GB,en-US;q=0.9,en;q=0.8","672de198be1065a8f288300d","683db6dfa200031b80f2a654","6865077ff13240d7e755bcb4","672de198be1065a8f288300d","2025-07-02T10:32:55.651Z","","","","","","StressQ","","","","","","","","","","","","","","","","","","","","","","","","","","","","","","","","","","","","","","50"
"2677","","<div style=""width:500px;"">
  <p>What best describes how you currently feel?</p>
  </div>","82","html-slider-response","67","811104","0.0-10.0-4.5","103","1","2025-07-02 10:19:26","80fe4187154257d5fb01684ea91b68b9","209.35.65.94","Mozilla/5.0 (Macintosh; Intel Mac OS X 10_15_7) AppleWebKit/537.36 (KHTML, like Gecko) Chrome/137.0.0.0 Safari/537.36","Macintosh","Chrome","137.0.0.0","OS X","10_15_7","https://app.prolific.com/","en-GB,en-US;q=0.9,en;q=0.8","672de198be1065a8f288300d","683db6dfa200031b80f2a654","6865077ff13240d7e755bcb4","672de198be1065a8f288300d","2025-07-02T10:32:58.332Z","","","","","","MotivationQ","","","","","","","","","","","","","","","","","","","","","","","","","","","","","","","","","","","","","","50"
"","","","","ctl-task-cpt","68","884556","0.0-10.0-0.6","103","1","2025-07-02 10:19:26","80fe4187154257d5fb01684ea91b68b9","209.35.65.94","Mozilla/5.0 (Macintosh; Intel Mac OS X 10_15_7) AppleWebKit/537.36 (KHTML, like Gecko) Chrome/137.0.0.0 Safari/537.36","Macintosh","Chrome","137.0.0.0","OS X","10_15_7","https://app.prolific.com/","en-GB,en-US;q=0.9,en;q=0.8","672de198be1065a8f288300d","683db6dfa200031b80f2a654","6865077ff13240d7e755bcb4","672de198be1065a8f288300d","2025-07-02T10:34:11.784Z","","","","","","","","","","","","","","","","win-only","2","g1:SE,g2:NW","0.4","7","0","812543","1015.5","6030.5","70421.7","1","4","4","6","1","1","0","8","8","0.06060606060606061","1695.9","3000","400","[""down"",""right""]","{""num_key_presses"":15,""num_perfect"":7,""num_errors"":1,""num_randdir"":7,""num_randdir_good_moves"":2,""num_whilered"":0,""num_whileblue"":0,""num_blue"":5,""num_good_moves"":9}","[543.4285714285714,543.3348214285714,0.1,543.4285714285714,543.3348214285714,100.8,543.4285714285714,543.3348214285714,229.3,544.4285714285714,549.3348214285714,355.4,545.4285714285714,551.3348214285714,470.6,548.4285714285714,554.3348214285714,574.3,563.4285714285714,569.3348214285714,676.9,676.4285714285714,663.3348214285714,788.7,721.4285714285714,715.3348214285714,893.9,852.4285714285714,852.3348214285714,1021,908.4285714285714,908.3348214285714,1123.2,935.4285714285714,935.3348214285714,1249.3,965.4285714285714,975.3348214285714,1356.3,973.4285714285714,984.3348214285714,1476.9,987.4285714285714,995.3348214285714,1584,992.4285714285714,998.3348214285714,1685.1,992.4285714285714,998.3348214285714,1800.7,996.4285714285714,999.3348214285714,1903.3,1063.4285714285713,1011.3348214285714,2006.3,1359.4285714285713,1006.3348214285714,2117.3,1435.4285714285713,964.3348214285714,2237.2,1435.4285714285713,964.3348214285714,2343.7,1435.4285714285713,964.3348214285714,2460.3,1435.4285714285713,964.3348214285714,2570.2,1435.4285714285713,964.3348214285714,2684.5,1435.4285714285713,964.3348214285714,2799.9,1435.4285714285713,964.3348214285714,2916.3,1435.4285714285713,964.3348214285714,3033,1435.4285714285713,964.3348214285714,3139,1435.4285714285713,964.3348214285714,3244.2,1435.4285714285713,964.3348214285714,3351.8,1435.4285714285713,964.3348214285714,3455.9,1435.4285714285713,964.3348214285714,3564.1,1435.4285714285713,964.3348214285714,3679.1,1435.4285714285713,964.3348214285714,3800.5,1435.4285714285713,964.3348214285714,3913.5,1435.4285714285713,964.3348214285714,4024.6,1435.4285714285713,964.3348214285714,4150.3,1435.4285714285713,964.3348214285714,4254.7,1435.4285714285713,964.3348214285714,4355.3,1435.4285714285713,964.3348214285714,4461.8,1435.4285714285713,964.3348214285714,4571.7,1435.4285714285713,964.3348214285714,4672.8,1435.4285714285713,964.3348214285714,4774.8,1435.4285714285713,964.3348214285714,4886.7,1435.4285714285713,964.3348214285714,4993.1]","[766.5,766.6,1000,0,-233.4,""error"",""-"",""-"",""no_move"",4685.3,3916.6,2301.9,1787.1,596.3,""oops"",""right"",""left"",""bad_move"",7878.9,3190.8,2082.3,4688.1,1108.5,""oops"",""down"",""up"",""bad_move"",11552.8,3671.4,2915.3,7881.4,756.1,""oops"",""right"",""up"",""bad_move"",15190.7,3636.2,1967.4,11554.5,1668.8,""smooth"",""down"",""down"",""good_move"",18573.8,3381.1,2980.3,15192.8,400.8,""smooth"",""down"",""down"",""good_move"",21789.7,3215.7,2520.4,18574,695.3,""oops"",""down"",""right"",""good_move"",24957.4,3166.3,2130.5,21791.2,1035.7,""smooth"",""down"",""down"",""good_move"",27808.7,2847.9,2281.7,24960.9,566.1,""smooth"",""down"",""down"",""good_move"",33957.9,6148,2413.6,30958.9,585.4,""oops"",""right"",""right"",""good_move"",44071.1,10111.9,2731.2,40817.6,522.3,""oops"",""right"",""up"",""bad_move"",47657,3585.7,2559.2,44071.3,1026.5,""smooth"",""right"",""right"",""good_move"",53659.6,6001.2,2140.7,51041,477.9,""oops"",""down"",""left"",""bad_move"",60478.7,6818.9,2012.8,57430.8,1035.1,""smooth"",""right"",""right"",""good_move"",64101.1,3619.3,3099.2,60481.9,520.1,""smooth"",""down"",""down"",""good_move""]","",""
"5982","","<div style=""width:500px;"">
  <p>What determined the result of this run?</p>
  </div>","50","html-slider-response","69","890540","0.0-10.0-1.6","103","1","2025-07-02 10:19:26","80fe4187154257d5fb01684ea91b68b9","209.35.65.94","Mozilla/5.0 (Macintosh; Intel Mac OS X 10_15_7) AppleWebKit/537.36 (KHTML, like Gecko) Chrome/137.0.0.0 Safari/537.36","Macintosh","Chrome","137.0.0.0","OS X","10_15_7","https://app.prolific.com/","en-GB,en-US;q=0.9,en;q=0.8","672de198be1065a8f288300d","683db6dfa200031b80f2a654","6865077ff13240d7e755bcb4","672de198be1065a8f288300d","2025-07-02T10:34:17.769Z","","","","","","AttribQ","","","","","","","","","","","","","","","","","","","","","","","","","","","","","","","","","","","","","","50"
"4054","","<div style=""width:500px;"">
  <p>How much control did you have over the ball?</p>
  </div>","50","html-slider-response","70","894596","0.0-10.0-2.6","103","1","2025-07-02 10:19:26","80fe4187154257d5fb01684ea91b68b9","209.35.65.94","Mozilla/5.0 (Macintosh; Intel Mac OS X 10_15_7) AppleWebKit/537.36 (KHTML, like Gecko) Chrome/137.0.0.0 Safari/537.36","Macintosh","Chrome","137.0.0.0","OS X","10_15_7","https://app.prolific.com/","en-GB,en-US;q=0.9,en;q=0.8","672de198be1065a8f288300d","683db6dfa200031b80f2a654","6865077ff13240d7e755bcb4","672de198be1065a8f288300d","2025-07-02T10:34:21.825Z","","","","","","ControlQ","","","","","","","","","","","","","","","","","","","","","","","","","","","","","","","","","","","","","","50"
"4751","","<div style=""width:500px;"">
  <p>How would you describe your current emotional state?</p>
  </div>","30","html-slider-response","71","899352","0.0-10.0-3.6","103","1","2025-07-02 10:19:26","80fe4187154257d5fb01684ea91b68b9","209.35.65.94","Mozilla/5.0 (Macintosh; Intel Mac OS X 10_15_7) AppleWebKit/537.36 (KHTML, like Gecko) Chrome/137.0.0.0 Safari/537.36","Macintosh","Chrome","137.0.0.0","OS X","10_15_7","https://app.prolific.com/","en-GB,en-US;q=0.9,en;q=0.8","672de198be1065a8f288300d","683db6dfa200031b80f2a654","6865077ff13240d7e755bcb4","672de198be1065a8f288300d","2025-07-02T10:34:26.581Z","","","","","","StressQ","","","","","","","","","","","","","","","","","","","","","","","","","","","","","","","","","","","","","","50"
"2310","","<div style=""width:500px;"">
  <p>What best describes how you currently feel?</p>
  </div>","71","html-slider-response","72","901668","0.0-10.0-4.6","103","1","2025-07-02 10:19:26","80fe4187154257d5fb01684ea91b68b9","209.35.65.94","Mozilla/5.0 (Macintosh; Intel Mac OS X 10_15_7) AppleWebKit/537.36 (KHTML, like Gecko) Chrome/137.0.0.0 Safari/537.36","Macintosh","Chrome","137.0.0.0","OS X","10_15_7","https://app.prolific.com/","en-GB,en-US;q=0.9,en;q=0.8","672de198be1065a8f288300d","683db6dfa200031b80f2a654","6865077ff13240d7e755bcb4","672de198be1065a8f288300d","2025-07-02T10:34:28.896Z","","","","","","MotivationQ","","","","","","","","","","","","","","","","","","","","","","","","","","","","","","","","","","","","","","50"
"","","","","ctl-task-cpt","73","998803","0.0-10.0-0.7","103","1","2025-07-02 10:19:26","80fe4187154257d5fb01684ea91b68b9","209.35.65.94","Mozilla/5.0 (Macintosh; Intel Mac OS X 10_15_7) AppleWebKit/537.36 (KHTML, like Gecko) Chrome/137.0.0.0 Safari/537.36","Macintosh","Chrome","137.0.0.0","OS X","10_15_7","https://app.prolific.com/","en-GB,en-US;q=0.9,en;q=0.8","672de198be1065a8f288300d","683db6dfa200031b80f2a654","6865077ff13240d7e755bcb4","672de198be1065a8f288300d","2025-07-02T10:36:06.031Z","","","","","","","","","","","","","","","","win-only","0","g1:NW,g2:SE","0.3","8","0","903105.7","3680.1","8693.9","94112.9","1","4","8","6","2","-8","-10","0","8","0","1800.5","3000","-790","[""down"",""right""]","{""num_key_presses"":20,""num_perfect"":5,""num_errors"":2,""num_randdir"":13,""num_randdir_good_moves"":5,""num_whilered"":0,""num_whileblue"":1,""num_blue"":5,""num_good_moves"":11}","[564.4285714285714,551.3348214285714,0.3,564.4285714285714,551.3348214285714,109.4,564.4285714285714,551.3348214285714,214.3,564.4285714285714,551.3348214285714,319.3,564.4285714285714,551.3348214285714,425.8,564.4285714285714,551.3348214285714,554.8,564.4285714285714,551.3348214285714,678.9,564.4285714285714,551.3348214285714,781.7,564.4285714285714,551.3348214285714,887.1,564.4285714285714,551.3348214285714,1010.6,564.4285714285714,551.3348214285714,1129.9,564.4285714285714,551.3348214285714,1240,565.4285714285714,553.3348214285714,1342.5,808.4285714285714,768.3348214285714,1460,877.4285714285714,865.3348214285714,1560.8,979.4285714285714,988.3348214285714,1664.7,1030.4285714285713,1016.3348214285714,1768.3,1042.4285714285713,1033.3348214285713,1881.9,1042.4285714285713,1031.3348214285713,1999.1,1137.4285714285713,1027.3348214285713,2105.2,1484.4285714285713,887.3348214285714,2222.8,1496.4285714285713,877.3348214285714,2325.3,1496.4285714285713,877.3348214285714,2438.7,1496.4285714285713,877.3348214285714,2550.3,1496.4285714285713,877.3348214285714,2656.3,1496.4285714285713,877.3348214285714,2791.2,1496.4285714285713,877.3348214285714,2896,1496.4285714285713,877.3348214285714,3001.2,1496.4285714285713,877.3348214285714,3117.4,1496.4285714285713,877.3348214285714,3231.6,1496.4285714285713,877.3348214285714,3343,1496.4285714285713,877.3348214285714,3467.4,1496.4285714285713,877.3348214285714,3569.5,1496.4285714285713,877.3348214285714,3691.3,1496.4285714285713,877.3348214285714,3794.2,1496.4285714285713,877.3348214285714,3902.4,1496.4285714285713,877.3348214285714,4017.4,1496.4285714285713,877.3348214285714,4120.1,1496.4285714285713,877.3348214285714,4226.1,1496.4285714285713,877.3348214285714,4331.8,1496.4285714285713,877.3348214285714,4456.7,1496.4285714285713,877.3348214285714,4557.7,1496.4285714285713,877.3348214285714,4666.3,1496.4285714285713,877.3348214285714,4769,1496.4285714285713,877.3348214285714,4880.3,1496.4285714285713,877.3348214285714,4996.5]","[482.8,482.8,1000,0,-517.2,""error"",""-"",""-"",""no_move"",4445,3955.5,2521.7,1509,414.4,""oops"",""down"",""up"",""bad_move"",8456.8,4010.7,2625.8,4446.1,1384.9,""smooth"",""right"",""right"",""good_move"",15495.3,7038.2,2567.4,12301.8,626.1,""oops"",""right"",""left"",""bad_move"",19987.2,4491.5,2584.2,15495.7,1907.3,""oops"",""right"",""left"",""bad_move"",27981.4,7992.6,3049.2,24333.2,599,""smooth"",""right"",""right"",""good_move"",30792.8,2810.3,1779.9,27982.6,1030.3,""smooth"",""right"",""right"",""good_move"",33779.5,2984.8,2305.7,30794.7,679.1,""oops"",""right"",""right"",""good_move"",37179.1,3398,2888.5,33781.1,509.5,""oops"",""right"",""left"",""bad_move"",41007.9,3828,3291.9,37180.1,536,""oops"",""right"",""up"",""bad_move"",45570.3,4561.4,2104.2,41009,2457.2,""oops"",""right"",""right"",""good_move"",48227,2654.1,2186.3,45572.9,467.8,""smooth"",""right"",""right"",""good_move"",51891.8,3663.9,3229.2,48228,434.6,""oops"",""down"",""down"",""good_move"",54839.1,2945.1,2416.8,51894,528.3,""oops"",""down"",""up"",""bad_move"",62228.2,7387.8,2428.4,59326.7,473.1,""oops"",""down"",""down"",""good_move"",65750.9,3519.8,2567.8,62231.1,952,""oops"",""down"",""up"",""bad_move"",69575.8,3824.3,3184.5,65751.5,639.8,""oops"",""down"",""left"",""bad_move"",73159.5,3582.5,2125.8,69577,1456.7,""smooth"",""down"",""down"",""good_move"",76240.8,3079.5,2477,73161.3,602.5,""while_blue"",""down"",""right"",""good_move"",83144.9,6899,2866.4,79855,423.5,""oops"",""down"",""down"",""good_move""]","",""
"5336","","<div style=""width:500px;"">
  <p>What determined the result of this run?</p>
  </div>","1","html-slider-response","74","1004141","0.0-10.0-1.7","103","1","2025-07-02 10:19:26","80fe4187154257d5fb01684ea91b68b9","209.35.65.94","Mozilla/5.0 (Macintosh; Intel Mac OS X 10_15_7) AppleWebKit/537.36 (KHTML, like Gecko) Chrome/137.0.0.0 Safari/537.36","Macintosh","Chrome","137.0.0.0","OS X","10_15_7","https://app.prolific.com/","en-GB,en-US;q=0.9,en;q=0.8","672de198be1065a8f288300d","683db6dfa200031b80f2a654","6865077ff13240d7e755bcb4","672de198be1065a8f288300d","2025-07-02T10:36:11.369Z","","","","","","AttribQ","","","","","","","","","","","","","","","","","","","","","","","","","","","","","","","","","","","","","","50"
"2161","","<div style=""width:500px;"">
  <p>How much control did you have over the ball?</p>
  </div>","12","html-slider-response","75","1006307","0.0-10.0-2.7","103","1","2025-07-02 10:19:26","80fe4187154257d5fb01684ea91b68b9","209.35.65.94","Mozilla/5.0 (Macintosh; Intel Mac OS X 10_15_7) AppleWebKit/537.36 (KHTML, like Gecko) Chrome/137.0.0.0 Safari/537.36","Macintosh","Chrome","137.0.0.0","OS X","10_15_7","https://app.prolific.com/","en-GB,en-US;q=0.9,en;q=0.8","672de198be1065a8f288300d","683db6dfa200031b80f2a654","6865077ff13240d7e755bcb4","672de198be1065a8f288300d","2025-07-02T10:36:13.535Z","","","","","","ControlQ","","","","","","","","","","","","","","","","","","","","","","","","","","","","","","","","","","","","","","50"
"2593","","<div style=""width:500px;"">
  <p>How would you describe your current emotional state?</p>
  </div>","61","html-slider-response","76","1008903","0.0-10.0-3.7","103","1","2025-07-02 10:19:26","80fe4187154257d5fb01684ea91b68b9","209.35.65.94","Mozilla/5.0 (Macintosh; Intel Mac OS X 10_15_7) AppleWebKit/537.36 (KHTML, like Gecko) Chrome/137.0.0.0 Safari/537.36","Macintosh","Chrome","137.0.0.0","OS X","10_15_7","https://app.prolific.com/","en-GB,en-US;q=0.9,en;q=0.8","672de198be1065a8f288300d","683db6dfa200031b80f2a654","6865077ff13240d7e755bcb4","672de198be1065a8f288300d","2025-07-02T10:36:16.131Z","","","","","","StressQ","","","","","","","","","","","","","","","","","","","","","","","","","","","","","","","","","","","","","","50"
"3220","","<div style=""width:500px;"">
  <p>What best describes how you currently feel?</p>
  </div>","48","html-slider-response","77","1012124","0.0-10.0-4.7","103","1","2025-07-02 10:19:26","80fe4187154257d5fb01684ea91b68b9","209.35.65.94","Mozilla/5.0 (Macintosh; Intel Mac OS X 10_15_7) AppleWebKit/537.36 (KHTML, like Gecko) Chrome/137.0.0.0 Safari/537.36","Macintosh","Chrome","137.0.0.0","OS X","10_15_7","https://app.prolific.com/","en-GB,en-US;q=0.9,en;q=0.8","672de198be1065a8f288300d","683db6dfa200031b80f2a654","6865077ff13240d7e755bcb4","672de198be1065a8f288300d","2025-07-02T10:36:19.352Z","","","","","","MotivationQ","","","","","","","","","","","","","","","","","","","","","","","","","","","","","","","","","","","","","","50"
"","","","","ctl-task-cpt","78","1105006","0.0-10.0-0.8","103","1","2025-07-02 10:19:26","80fe4187154257d5fb01684ea91b68b9","209.35.65.94","Mozilla/5.0 (Macintosh; Intel Mac OS X 10_15_7) AppleWebKit/537.36 (KHTML, like Gecko) Chrome/137.0.0.0 Safari/537.36","Macintosh","Chrome","137.0.0.0","OS X","10_15_7","https://app.prolific.com/","en-GB,en-US;q=0.9,en;q=0.8","672de198be1065a8f288300d","683db6dfa200031b80f2a654","6865077ff13240d7e755bcb4","672de198be1065a8f288300d","2025-07-02T10:37:52.234Z","","","","","","","","","","","","","","","","win-only","0","g1:NW,g2:SE","0.4","9","0","1013558.9","2251.1","7255.8","89842.6","1","4","4","6","1","-1","-3","0","0","0","3516","3000","-685","[""left"",""up""]","{""num_key_presses"":19,""num_perfect"":6,""num_errors"":2,""num_randdir"":11,""num_randdir_good_moves"":4,""num_whilered"":0,""num_whileblue"":2,""num_blue"":5,""num_good_moves"":10}","[545.4285714285714,558.3348214285714,2.1,545.4285714285714,558.3348214285714,118.7,545.4285714285714,558.3348214285714,233,545.4285714285714,559.3348214285714,339.4,545.4285714285714,559.3348214285714,442.4,545.4285714285714,559.3348214285714,568.6,545.4285714285714,559.3348214285714,684.5,545.4285714285714,559.3348214285714,796.2,545.4285714285714,559.3348214285714,906.3,545.4285714285714,559.3348214285714,1010.6,545.4285714285714,559.3348214285714,1113,545.4285714285714,559.3348214285714,1233.1,545.4285714285714,559.3348214285714,1353.9,545.4285714285714,559.3348214285714,1465.1,545.4285714285714,560.3348214285714,1583.7,545.4285714285714,560.3348214285714,1687.1,545.4285714285714,560.3348214285714,1789.8,545.4285714285714,560.3348214285714,1893.9,545.4285714285714,560.3348214285714,1995.4,545.4285714285714,560.3348214285714,2105.5,545.4285714285714,560.3348214285714,2230.8,545.4285714285714,560.3348214285714,2340.8,545.4285714285714,560.3348214285714,2448.8,545.4285714285714,560.3348214285714,2549.6,545.4285714285714,560.3348214285714,2659,545.4285714285714,560.3348214285714,2769.9,544.4285714285714,560.3348214285714,2899.3,320.42857142857144,289.33482142857144,3020,193.42857142857144,171.33482142857144,3130,157.42857142857144,142.33482142857144,3240.5,155.42857142857144,140.33482142857144,3345.1,155.42857142857144,140.33482142857144,3462.7,155.42857142857144,140.33482142857144,3565.5,155.42857142857144,141.33482142857144,3669.5,216.42857142857144,249.33482142857144,3786.4,437.42857142857144,483.33482142857144,3905.3,619.4285714285714,710.3348214285714,4024.1,664.4285714285714,746.3348214285714,4135.8,664.4285714285714,746.3348214285714,4246.5,664.4285714285714,746.3348214285714,4369.1,664.4285714285714,746.3348214285714,4470.9,664.4285714285714,746.3348214285714,4576.1,664.4285714285714,746.3348214285714,4677.2,664.4285714285714,746.3348214285714,4789.7,664.4285714285714,746.3348214285714,4890.7]","[1472.7,1472.7,1000,0,472.7,""oops"",""left"",""left"",""good_move"",5470.6,3996.2,2048.1,1474.4,1948.1,""oops"",""left"",""right"",""bad_move"",8642.4,3170.6,2574.5,5471.8,596.1,""while_blue"",""up"",""down"",""bad_move"",11568.7,2926,2412.4,8642.7,513.6,""smooth"",""left"",""left"",""good_move"",15619.1,4050.2,2716.1,11568.9,1334.1,""smooth"",""left"",""left"",""good_move"",19938.2,4316.8,2198.8,15621.4,2118,""smooth"",""up"",""up"",""good_move"",24152.8,4213.4,2684.1,19939.4,1529.3,""oops"",""up"",""down"",""bad_move"",27893.5,3740.4,2973.7,24153.1,766.7,""smooth"",""up"",""up"",""good_move"",32042.6,4148.5,2206.7,27894.1,1941.8,""oops"",""up"",""up"",""good_move"",36084,4041.2,3605.8,32042.8,435.4,""while_blue"",""up"",""down"",""bad_move"",38365.7,2273.7,1518.5,36092,755.2,""oops"",""up"",""down"",""bad_move"",44751,6384.3,2821.1,41465.8,464.1,""oops"",""up"",""down"",""bad_move"",50310.9,5559.7,1970.6,44751.2,3589.1,""smooth"",""up"",""up"",""good_move"",54362.8,4051,3509.7,50311.9,541.3,""oops"",""up"",""up"",""good_move"",65467.6,11097.4,2092.6,62906.1,468.9,""oops"",""up"",""up"",""good_move"",69502,4034.1,2684,65467.9,1350.1,""oops"",""up"",""right"",""bad_move"",71981.6,2478.2,1997.3,69503.4,480.9,""oops"",""up"",""right"",""bad_move"",74970.3,2987,2310.6,71983.3,676.4,""smooth"",""left"",""left"",""good_move"",79361.9,4390.2,2069.6,74971.7,2320.6,""oops"",""left"",""down"",""bad_move""]","",""
"1976","","<div style=""width:500px;"">
  <p>What determined the result of this run?</p>
  </div>","29","html-slider-response","79","1106984","0.0-10.0-1.8","103","1","2025-07-02 10:19:26","80fe4187154257d5fb01684ea91b68b9","209.35.65.94","Mozilla/5.0 (Macintosh; Intel Mac OS X 10_15_7) AppleWebKit/537.36 (KHTML, like Gecko) Chrome/137.0.0.0 Safari/537.36","Macintosh","Chrome","137.0.0.0","OS X","10_15_7","https://app.prolific.com/","en-GB,en-US;q=0.9,en;q=0.8","672de198be1065a8f288300d","683db6dfa200031b80f2a654","6865077ff13240d7e755bcb4","672de198be1065a8f288300d","2025-07-02T10:37:54.213Z","","","","","","AttribQ","","","","","","","","","","","","","","","","","","","","","","","","","","","","","","","","","","","","","","50"
"2289","","<div style=""width:500px;"">
  <p>How much control did you have over the ball?</p>
  </div>","25","html-slider-response","80","1109278","0.0-10.0-2.8","103","1","2025-07-02 10:19:26","80fe4187154257d5fb01684ea91b68b9","209.35.65.94","Mozilla/5.0 (Macintosh; Intel Mac OS X 10_15_7) AppleWebKit/537.36 (KHTML, like Gecko) Chrome/137.0.0.0 Safari/537.36","Macintosh","Chrome","137.0.0.0","OS X","10_15_7","https://app.prolific.com/","en-GB,en-US;q=0.9,en;q=0.8","672de198be1065a8f288300d","683db6dfa200031b80f2a654","6865077ff13240d7e755bcb4","672de198be1065a8f288300d","2025-07-02T10:37:56.506Z","","","","","","ControlQ","","","","","","","","","","","","","","","","","","","","","","","","","","","","","","","","","","","","","","50"
"2531","","<div style=""width:500px;"">
  <p>How would you describe your current emotional state?</p>
  </div>","65","html-slider-response","81","1111813","0.0-10.0-3.8","103","1","2025-07-02 10:19:26","80fe4187154257d5fb01684ea91b68b9","209.35.65.94","Mozilla/5.0 (Macintosh; Intel Mac OS X 10_15_7) AppleWebKit/537.36 (KHTML, like Gecko) Chrome/137.0.0.0 Safari/537.36","Macintosh","Chrome","137.0.0.0","OS X","10_15_7","https://app.prolific.com/","en-GB,en-US;q=0.9,en;q=0.8","672de198be1065a8f288300d","683db6dfa200031b80f2a654","6865077ff13240d7e755bcb4","672de198be1065a8f288300d","2025-07-02T10:37:59.042Z","","","","","","StressQ","","","","","","","","","","","","","","","","","","","","","","","","","","","","","","","","","","","","","","50"
"2042","","<div style=""width:500px;"">
  <p>What best describes how you currently feel?</p>
  </div>","40","html-slider-response","82","1113862","0.0-10.0-4.8","103","1","2025-07-02 10:19:26","80fe4187154257d5fb01684ea91b68b9","209.35.65.94","Mozilla/5.0 (Macintosh; Intel Mac OS X 10_15_7) AppleWebKit/537.36 (KHTML, like Gecko) Chrome/137.0.0.0 Safari/537.36","Macintosh","Chrome","137.0.0.0","OS X","10_15_7","https://app.prolific.com/","en-GB,en-US;q=0.9,en;q=0.8","672de198be1065a8f288300d","683db6dfa200031b80f2a654","6865077ff13240d7e755bcb4","672de198be1065a8f288300d","2025-07-02T10:38:01.090Z","","","","","","MotivationQ","","","","","","","","","","","","","","","","","","","","","","","","","","","","","","","","","","","","","","50"
