"rt","response_timestamp","stimulus","response","trial_type","trial_index","time_elapsed","internal_node_id","run_id","condition","recorded_at","source_code_version","ip","user_agent","device","browser","browser_version","platform","platform_version","referer","accept_language","PROLIFIC_PID","STUDY_ID","SESSION_ID","prolific_id","realtime","view_history","question_order","consent","success","question_id","eventType","responses","item_order","radio_event_ids","radio_event_times","key_event_times","mouse_event_times","straightlining","zigzagging","honeypot","which_type","canvas_config","goals_layout","control_level","trial_number","tutorial_trial_number","trial_start_time","phase1_start_time","phase2_start_time","phase3_start_time","goal_1_value","goal_1_distance","goal_2_value","goal_2_distance","goal_selected","outcome","outcome_total","participant_final_score","participant_initial_score","participant_final_score_prop","goal_choice_rt","allocated_time","allocated_time_remaining","goal_direction","counts","mouse_movements","key_presses","correct","slider_start"
"9440","1751451755420","<p style='font-size:40px;line-height:1.25'><strong>Welcome to the experiment!</strong></p><p style='font-size:1.1em;line-height:1.25'>Thank you for your interest in our experiment! Before you begin, it is important that we obtain your informed consent to participate in the study.</p><p style='font-size:1.1em;line-height:1.25'>On the next screen will be an <strong>information sheet</strong> for you to read. To participate in the study we need you to read this information sheet and the following consent form carefully. If you agree with all the statements, please click the <strong>I agree</strong> button.</p><p style='font-size:1.1em;line-height:1.25'>Press <strong>Next</strong> to read the information sheet.</p>","0","custom-html-button-response","0","9442","0.0-0.0","157","1","2025-07-02 10:22:02","80fe4187154257d5fb01684ea91b68b9","87.20.147.48","Mozilla/5.0 (Windows NT 10.0; Win64; x64) AppleWebKit/537.36 (KHTML, like Gecko) Chrome/137.0.0.0 Safari/537.36","WebKit","Chrome","137.0.0.0","Windows","10.0","https://app.prolific.com/","it-IT,it;q=0.9,en-US;q=0.8,en;q=0.7","672f7b856c1ce6995a666bc6","683db6dfa200031b80f2a654","6865075e22783478d75616c5","672f7b856c1ce6995a666bc6","2025-07-02T10:22:35.421Z","","","","","","","","","","","","","","","","","","","","","","","","","","","","","","","","","","","","","","","","","","","",""
"113600","","","","instructions","1","123046","0.0-1.0","157","1","2025-07-02 10:22:02","80fe4187154257d5fb01684ea91b68b9","87.20.147.48","Mozilla/5.0 (Windows NT 10.0; Win64; x64) AppleWebKit/537.36 (KHTML, like Gecko) Chrome/137.0.0.0 Safari/537.36","WebKit","Chrome","137.0.0.0","Windows","10.0","https://app.prolific.com/","it-IT,it;q=0.9,en-US;q=0.8,en;q=0.7","672f7b856c1ce6995a666bc6","683db6dfa200031b80f2a654","6865075e22783478d75616c5","672f7b856c1ce6995a666bc6","","[{""page_index"":0,""viewing_time"":108744},{""page_index"":1,""viewing_time"":4856}]","","","","","","","","","","","","","","","","","","","","","","","","","","","","","","","","","","","","","","","","","","",""
"5041","","","{""Q0"":"""",""Q1"":"""",""Q2"":"""",""Q3"":"""",""Q4"":"""",""Q5"":"""",""Q6"":""I agree""}","survey-multi-choice","2","128089","0.0-2.0","157","1","2025-07-02 10:22:02","80fe4187154257d5fb01684ea91b68b9","87.20.147.48","Mozilla/5.0 (Windows NT 10.0; Win64; x64) AppleWebKit/537.36 (KHTML, like Gecko) Chrome/137.0.0.0 Safari/537.36","WebKit","Chrome","137.0.0.0","Windows","10.0","https://app.prolific.com/","it-IT,it;q=0.9,en-US;q=0.8,en;q=0.7","672f7b856c1ce6995a666bc6","683db6dfa200031b80f2a654","6865075e22783478d75616c5","672f7b856c1ce6995a666bc6","","","[0,1,2,3,4,5,6]","true","","","","","","","","","","","","","","","","","","","","","","","","","","","","","","","","","","","","","","","","",""
"32218","","","","fullscreen","3","161316","0.0-4.0","157","1","2025-07-02 10:22:02","80fe4187154257d5fb01684ea91b68b9","87.20.147.48","Mozilla/5.0 (Windows NT 10.0; Win64; x64) AppleWebKit/537.36 (KHTML, like Gecko) Chrome/137.0.0.0 Safari/537.36","WebKit","Chrome","137.0.0.0","Windows","10.0","https://app.prolific.com/","it-IT,it;q=0.9,en-US;q=0.8,en;q=0.7","672f7b856c1ce6995a666bc6","683db6dfa200031b80f2a654","6865075e22783478d75616c5","672f7b856c1ce6995a666bc6","","","","","true","","","","","","","","","","","","","","","","","","","","","","","","","","","","","","","","","","","","","","","",""
"7670","1751451914966"," <p style='font-size:1.1em;line-height:1.25'>Thank you for completing the consent form and closing all other tabs.</p><p style='font-size:1.1em;line-height:1.25'>We will now invite you to fill in some demographic information and questionnaires, before starting the game.<br>This will take about 5 minutes.<br></p><p style='font-size:1.1em;line-height:1.25'>Press the <strong>Next</strong> button to continue.</p>","0","custom-html-button-response","4","168988","0.0-5.0","157","1","2025-07-02 10:22:02","80fe4187154257d5fb01684ea91b68b9","87.20.147.48","Mozilla/5.0 (Windows NT 10.0; Win64; x64) AppleWebKit/537.36 (KHTML, like Gecko) Chrome/137.0.0.0 Safari/537.36","WebKit","Chrome","137.0.0.0","Windows","10.0","https://app.prolific.com/","it-IT,it;q=0.9,en-US;q=0.8,en;q=0.7","672f7b856c1ce6995a666bc6","683db6dfa200031b80f2a654","6865075e22783478d75616c5","672f7b856c1ce6995a666bc6","2025-07-02T10:25:14.966Z","","","","","","","","","","","","","","","","","","","","","","","","","","","","","","","","","","","","","","","","","","","",""
"2705","","","{""age"":""25""}","survey-text","5","171696","0.0-6.0-0.0","157","1","2025-07-02 10:22:02","80fe4187154257d5fb01684ea91b68b9","87.20.147.48","Mozilla/5.0 (Windows NT 10.0; Win64; x64) AppleWebKit/537.36 (KHTML, like Gecko) Chrome/137.0.0.0 Safari/537.36","WebKit","Chrome","137.0.0.0","Windows","10.0","https://app.prolific.com/","it-IT,it;q=0.9,en-US;q=0.8,en;q=0.7","672f7b856c1ce6995a666bc6","683db6dfa200031b80f2a654","6865075e22783478d75616c5","672f7b856c1ce6995a666bc6","","","","","","0","demographics","","","","","","","","","","","","","","","","","","","","","","","","","","","","","","","","","","","","","",""
"1855","","","{""gender_identity"":""female/woman""}","survey-multi-choice","6","173553","0.0-6.0-1.0","157","1","2025-07-02 10:22:02","80fe4187154257d5fb01684ea91b68b9","87.20.147.48","Mozilla/5.0 (Windows NT 10.0; Win64; x64) AppleWebKit/537.36 (KHTML, like Gecko) Chrome/137.0.0.0 Safari/537.36","WebKit","Chrome","137.0.0.0","Windows","10.0","https://app.prolific.com/","it-IT,it;q=0.9,en-US;q=0.8,en;q=0.7","672f7b856c1ce6995a666bc6","683db6dfa200031b80f2a654","6865075e22783478d75616c5","672f7b856c1ce6995a666bc6","","","[0]","","","1","demographics","","","","","","","","","","","","","","","","","","","","","","","","","","","","","","","","","","","","","",""
"2363","","","{""assigned_sex"":""female""}","survey-multi-choice","7","175917","0.0-6.0-2.0","157","1","2025-07-02 10:22:02","80fe4187154257d5fb01684ea91b68b9","87.20.147.48","Mozilla/5.0 (Windows NT 10.0; Win64; x64) AppleWebKit/537.36 (KHTML, like Gecko) Chrome/137.0.0.0 Safari/537.36","WebKit","Chrome","137.0.0.0","Windows","10.0","https://app.prolific.com/","it-IT,it;q=0.9,en-US;q=0.8,en;q=0.7","672f7b856c1ce6995a666bc6","683db6dfa200031b80f2a654","6865075e22783478d75616c5","672f7b856c1ce6995a666bc6","","","[0]","","","2","demographics","","","","","","","","","","","","","","","","","","","","","","","","","","","","","","","","","","","","","",""
"2485","","","{""menstrual_cycle"":""Yes""}","survey-multi-choice","8","178403","0.0-6.0-3.0","157","1","2025-07-02 10:22:02","80fe4187154257d5fb01684ea91b68b9","87.20.147.48","Mozilla/5.0 (Windows NT 10.0; Win64; x64) AppleWebKit/537.36 (KHTML, like Gecko) Chrome/137.0.0.0 Safari/537.36","WebKit","Chrome","137.0.0.0","Windows","10.0","https://app.prolific.com/","it-IT,it;q=0.9,en-US;q=0.8,en;q=0.7","672f7b856c1ce6995a666bc6","683db6dfa200031b80f2a654","6865075e22783478d75616c5","672f7b856c1ce6995a666bc6","","","[0]","","","4","demographics","","","","","","","","","","","","","","","","","","","","","","","","","","","","","","","","","","","","","",""
"3059","","","{""education"":""Bachelor's Degree (e.g., BA)""}","survey-multi-choice","9","181464","0.0-6.0-4.0","157","1","2025-07-02 10:22:02","80fe4187154257d5fb01684ea91b68b9","87.20.147.48","Mozilla/5.0 (Windows NT 10.0; Win64; x64) AppleWebKit/537.36 (KHTML, like Gecko) Chrome/137.0.0.0 Safari/537.36","WebKit","Chrome","137.0.0.0","Windows","10.0","https://app.prolific.com/","it-IT,it;q=0.9,en-US;q=0.8,en;q=0.7","672f7b856c1ce6995a666bc6","683db6dfa200031b80f2a654","6865075e22783478d75616c5","672f7b856c1ce6995a666bc6","","","[0]","","","5","demographics","","","","","","","","","","","","","","","","","","","","","","","","","","","","","","","","","","","","","",""
"4741","","","{""education"":""Master's Degree (e.g., MSc)""}","survey-multi-choice","10","186205","0.0-6.0-5.0","157","1","2025-07-02 10:22:02","80fe4187154257d5fb01684ea91b68b9","87.20.147.48","Mozilla/5.0 (Windows NT 10.0; Win64; x64) AppleWebKit/537.36 (KHTML, like Gecko) Chrome/137.0.0.0 Safari/537.36","WebKit","Chrome","137.0.0.0","Windows","10.0","https://app.prolific.com/","it-IT,it;q=0.9,en-US;q=0.8,en;q=0.7","672f7b856c1ce6995a666bc6","683db6dfa200031b80f2a654","6865075e22783478d75616c5","672f7b856c1ce6995a666bc6","2025-07-02T10:25:32.184Z","","[0]","","","6","demographics","","","","","","","","","","","","","","","","","","","","","","","","","","","","","","","","","","","","","",""
"61078","","","{""mental_health_condition"":""depression"",""mental_health_treatment"":""yes, i'm taking antidepressants"",""psychiatric_medication"":""i'm taking zoloft, two times a day""}","survey-text","11","247286","0.0-7.0-0.0","157","1","2025-07-02 10:22:02","80fe4187154257d5fb01684ea91b68b9","87.20.147.48","Mozilla/5.0 (Windows NT 10.0; Win64; x64) AppleWebKit/537.36 (KHTML, like Gecko) Chrome/137.0.0.0 Safari/537.36","WebKit","Chrome","137.0.0.0","Windows","10.0","https://app.prolific.com/","it-IT,it;q=0.9,en-US;q=0.8,en;q=0.7","672f7b856c1ce6995a666bc6","683db6dfa200031b80f2a654","6865075e22783478d75616c5","672f7b856c1ce6995a666bc6","2025-07-02T10:26:33.264Z","","","","","1","mental_health","","","","","","","","","","","","","","","","","","","","","","","","","","","","","","","","","","","","","",""
"8132","","","{""depression_history"":[""Yes""]}","survey-multi-select","12","255420","0.0-7.0-1.0","157","1","2025-07-02 10:22:02","80fe4187154257d5fb01684ea91b68b9","87.20.147.48","Mozilla/5.0 (Windows NT 10.0; Win64; x64) AppleWebKit/537.36 (KHTML, like Gecko) Chrome/137.0.0.0 Safari/537.36","WebKit","Chrome","137.0.0.0","Windows","10.0","https://app.prolific.com/","it-IT,it;q=0.9,en-US;q=0.8,en;q=0.7","672f7b856c1ce6995a666bc6","683db6dfa200031b80f2a654","6865075e22783478d75616c5","672f7b856c1ce6995a666bc6","","","[0]","","","","mental_health","","","","","","","","","","","","","","","","","","","","","","","","","","","","","","","","","","","","","",""
"7288","","","{""depression_episodes"":""more than 5"",""depression_recent"":""Within the past year""}","survey-multi-choice","13","262710","0.0-7.0-2.0-0.0","157","1","2025-07-02 10:22:02","80fe4187154257d5fb01684ea91b68b9","87.20.147.48","Mozilla/5.0 (Windows NT 10.0; Win64; x64) AppleWebKit/537.36 (KHTML, like Gecko) Chrome/137.0.0.0 Safari/537.36","WebKit","Chrome","137.0.0.0","Windows","10.0","https://app.prolific.com/","it-IT,it;q=0.9,en-US;q=0.8,en;q=0.7","672f7b856c1ce6995a666bc6","683db6dfa200031b80f2a654","6865075e22783478d75616c5","672f7b856c1ce6995a666bc6","2025-07-02T10:26:48.688Z","","[0,1]","","","3","mental_health","","","","","","","","","","","","","","","","","","","","","","","","","","","","","","","","","","","","","",""
"196948.60000014305","","","","survey-template","14","459664","0.0-7.0-3.0","157","1","2025-07-02 10:22:02","80fe4187154257d5fb01684ea91b68b9","87.20.147.48","Mozilla/5.0 (Windows NT 10.0; Win64; x64) AppleWebKit/537.36 (KHTML, like Gecko) Chrome/137.0.0.0 Safari/537.36","WebKit","Chrome","137.0.0.0","Windows","10.0","https://app.prolific.com/","it-IT,it;q=0.9,en-US;q=0.8,en;q=0.7","672f7b856c1ce6995a666bc6","683db6dfa200031b80f2a654","6865075e22783478d75616c5","672f7b856c1ce6995a666bc6","2025-07-02T10:30:05.642Z","","","","","","ius","{""Q01"":""2"",""Q02"":""2"",""Q03"":""3"",""Q04"":""2"",""Q05"":""2"",""Q06"":""3"",""Q07"":""2"",""Q08"":""0"",""Q09"":""3"",""Q10"":""2"",""Q11"":""1"",""Q12"":""2"",""Q13"":""1""}","[0,1,2,3,4,5,6,7,8,9,10,11,12]","[""Q01"",""Q02"",""Q01"",""Q02"",""Q03"",""Q04"",""Q05"",""Q06"",""Q07"",""Q08"",""Q09"",""Q10"",""Q11"",""Q12"",""Q13"",""Q13""]","[6936.5,11902.600000143051,16586.10000014305,19016.700000047684,21820.800000190735,23404.700000047684,149714.10000014305,154012.5,176024.5,178922.60000014305,181754.40000009537,184208.40000009537,188748.80000019073,190928.5,194142.60000014305,195686.70000004768]","[]","[5552.900000095367,6936.5,11902.600000143051,16586.10000014305,17674.60000014305,19016.700000047684,21820.800000190735,23404.700000047684,149714.10000014305,152162.40000009537,154012.5,176024.5,178558.60000014305,178922.60000014305,181390.60000014305,181754.40000009537,184208.40000009537,187380.20000004768,188748.80000019073,190928.5,194142.60000014305,195686.70000004768,196946.90000009537]","0.5384615384615384","0.6666666666666666","0","","","","","","","","","","","","","","","","","","","","","","","","","","","","",""
"1583","1751452207227","<p style='font-size:1.1em;line-height:1.25'>In the following, we will ask you a few questions relating to your experiences over the past month.<br></p><p style='font-size:1.1em;line-height:1.25'>Press the <strong>Next</strong> button to continue.</p>","0","custom-html-button-response","15","461250","0.0-7.0-4.0","157","1","2025-07-02 10:22:02","80fe4187154257d5fb01684ea91b68b9","87.20.147.48","Mozilla/5.0 (Windows NT 10.0; Win64; x64) AppleWebKit/537.36 (KHTML, like Gecko) Chrome/137.0.0.0 Safari/537.36","WebKit","Chrome","137.0.0.0","Windows","10.0","https://app.prolific.com/","it-IT,it;q=0.9,en-US;q=0.8,en;q=0.7","672f7b856c1ce6995a666bc6","683db6dfa200031b80f2a654","6865075e22783478d75616c5","672f7b856c1ce6995a666bc6","2025-07-02T10:30:07.228Z","","","","","","","","","","","","","","","","","","","","","","","","","","","","","","","","","","","","","","","","","","","",""
"131236.40000009537","","","","survey-template","16","592489","0.0-7.0-5.0","157","1","2025-07-02 10:22:02","80fe4187154257d5fb01684ea91b68b9","87.20.147.48","Mozilla/5.0 (Windows NT 10.0; Win64; x64) AppleWebKit/537.36 (KHTML, like Gecko) Chrome/137.0.0.0 Safari/537.36","WebKit","Chrome","137.0.0.0","Windows","10.0","https://app.prolific.com/","it-IT,it;q=0.9,en-US;q=0.8,en;q=0.7","672f7b856c1ce6995a666bc6","683db6dfa200031b80f2a654","6865075e22783478d75616c5","672f7b856c1ce6995a666bc6","2025-07-02T10:32:18.467Z","","","","","","pss","{""Q01"":""2"",""Q02"":""2"",""Q03"":""2"",""Q04"":""1"",""Q05"":""1"",""Q06"":""3"",""Q07"":""2"",""Q08"":""2"",""Q09"":""2"",""Q10"":""1""}","[0,1,2,3,4,5,6,7,8,9]","[""Q01"",""Q02"",""Q03"",""Q04"",""Q05"",""Q06"",""Q07"",""Q08"",""Q09"",""Q09"",""Q10""]","[86695.40000009537,89627,95829,100575,105403.60000014305,110357,113895.29999995232,116467.29999995232,123685.40000009537,125225.20000004768,130543.10000014305]","[]","[0.10000014305114746,85315,86695.40000009537,89627,93920.79999995232,95829,100575,104779.10000014305,105403.60000014305,110357,112548.60000014305,113895.29999995232,116467.29999995232,123685.40000009537,124901.20000004768,125225.20000004768,130543.10000014305,131235.10000014305]","0.6","0.3333333333333333","0","","","","","","","","","","","","","","","","","","","","","","","","","","","","",""
"1857","1751452340326","<p style='font-size:1.1em;line-height:1.25'>Thank you for your answers! Now we will ask you a few more questions relating to your feelings in the last 24 hours.<br></p><p style='font-size:1.1em;line-height:1.25'>Press the <strong>Next</strong> button to continue.</p>","0","custom-html-button-response","17","594348","0.0-7.0-6.0","157","1","2025-07-02 10:22:02","80fe4187154257d5fb01684ea91b68b9","87.20.147.48","Mozilla/5.0 (Windows NT 10.0; Win64; x64) AppleWebKit/537.36 (KHTML, like Gecko) Chrome/137.0.0.0 Safari/537.36","WebKit","Chrome","137.0.0.0","Windows","10.0","https://app.prolific.com/","it-IT,it;q=0.9,en-US;q=0.8,en;q=0.7","672f7b856c1ce6995a666bc6","683db6dfa200031b80f2a654","6865075e22783478d75616c5","672f7b856c1ce6995a666bc6","2025-07-02T10:32:20.326Z","","","","","","","","","","","","","","","","","","","","","","","","","","","","","","","","","","","","","","","","","","","",""
"193385.5","","","","survey-template","18","787740","0.0-7.0-7.0","157","1","2025-07-02 10:22:02","80fe4187154257d5fb01684ea91b68b9","87.20.147.48","Mozilla/5.0 (Windows NT 10.0; Win64; x64) AppleWebKit/537.36 (KHTML, like Gecko) Chrome/137.0.0.0 Safari/537.36","WebKit","Chrome","137.0.0.0","Windows","10.0","https://app.prolific.com/","it-IT,it;q=0.9,en-US;q=0.8,en;q=0.7","672f7b856c1ce6995a666bc6","683db6dfa200031b80f2a654","6865075e22783478d75616c5","672f7b856c1ce6995a666bc6","2025-07-02T10:35:33.718Z","","","","","","drsp","{""Q01"":""3"",""Q02"":""2"",""Q03"":""1"",""Q04"":""3"",""Q05"":""2"",""Q06"":""2"",""Q07"":""1"",""Q08"":""0"",""Q09"":""1"",""Q10"":""1"",""Q11"":""4"",""Q12"":""2"",""Q13"":""3"",""Q14"":""1"",""Q15"":""5"",""Q16"":""2"",""Q17"":""2"",""Q18"":""1"",""Q19"":""3"",""Q20"":""2"",""Q21"":""1""}","[0,1,2,3,4,5,6,7,8,9,10,11,12,13,14,15,16,17,18,19,20]","[""Q01"",""Q02"",""Q03"",""Q04"",""Q05"",""Q06"",""Q07"",""Q08"",""Q08"",""Q09"",""Q10"",""Q11"",""Q12"",""Q13"",""Q13"",""Q15"",""Q14"",""Q16"",""Q17"",""Q18"",""Q19"",""Q20"",""Q21""]","[5131.900000095367,6200.5,8256.099999904633,9952.099999904633,12757.900000095367,15518.400000095367,17999.900000095367,20900.400000095367,24536.099999904633,25994.400000095367,38099.90000009537,41154,44221.799999952316,45702.40000009537,47202,54576.799999952316,56417.59999990463,60413.59999990463,63236,66252.09999990463,70649.90000009537,189300.70000004768,192145.40000009537]","[]","[0.09999990463256836,5131.900000095367,6200.5,8256.099999904633,9952.099999904633,12757.900000095367,15518.400000095367,17999.900000095367,20900.400000095367,24536.099999904633,24959.900000095367,25498.5,25994.400000095367,38099.90000009537,40658.200000047684,41154,44221.799999952316,45702.40000009537,47202,54576.799999952316,56417.59999990463,60413.59999990463,61794.40000009537,63236,66252.09999990463,70649.90000009537,189300.70000004768,192145.40000009537,193380.5]","0.3333333333333333","0.5","0","","","","","","","","","","","","","","","","","","","","","","","","","","","","",""
"20434","","","","survey-template","19","808177","0.0-7.0-8.0","157","1","2025-07-02 10:22:02","80fe4187154257d5fb01684ea91b68b9","87.20.147.48","Mozilla/5.0 (Windows NT 10.0; Win64; x64) AppleWebKit/537.36 (KHTML, like Gecko) Chrome/137.0.0.0 Safari/537.36","WebKit","Chrome","137.0.0.0","Windows","10.0","https://app.prolific.com/","it-IT,it;q=0.9,en-US;q=0.8,en;q=0.7","672f7b856c1ce6995a666bc6","683db6dfa200031b80f2a654","6865075e22783478d75616c5","672f7b856c1ce6995a666bc6","2025-07-02T10:35:54.155Z","","","","","","stress","{""Q01"":""3"",""Q02"":""4"",""Q03"":""1""}","[0,1,2]","[""Q01"",""Q02"",""Q01"",""Q03""]","[6628.200000047684,8280.400000095367,16275,18447.700000047684]","[]","[6628.200000047684,8280.400000095367,16275,18447.700000047684,19752.10000014305,20432.900000095367]","0.6666666666666666","0","0","","","","","","","","","","","","","","","","","","","","","","","","","","","","",""
"121947","","","","instructions","20","930127","0.0-8.0-0.0","157","1","2025-07-02 10:22:02","80fe4187154257d5fb01684ea91b68b9","87.20.147.48","Mozilla/5.0 (Windows NT 10.0; Win64; x64) AppleWebKit/537.36 (KHTML, like Gecko) Chrome/137.0.0.0 Safari/537.36","WebKit","Chrome","137.0.0.0","Windows","10.0","https://app.prolific.com/","it-IT,it;q=0.9,en-US;q=0.8,en;q=0.7","672f7b856c1ce6995a666bc6","683db6dfa200031b80f2a654","6865075e22783478d75616c5","672f7b856c1ce6995a666bc6","","[{""page_index"":0,""viewing_time"":47855},{""page_index"":1,""viewing_time"":6751},{""page_index"":0,""viewing_time"":39021},{""page_index"":1,""viewing_time"":10875},{""page_index"":2,""viewing_time"":6513},{""page_index"":3,""viewing_time"":10933}]","","","","","","","","","","","","","","","","","","","","","","","","","","","","","","","","","","","","","","","","","","",""
"","","","","ctl-task-cpt","21","957176","0.0-8.0-1.0","157","1","2025-07-02 10:22:02","80fe4187154257d5fb01684ea91b68b9","87.20.147.48","Mozilla/5.0 (Windows NT 10.0; Win64; x64) AppleWebKit/537.36 (KHTML, like Gecko) Chrome/137.0.0.0 Safari/537.36","WebKit","Chrome","137.0.0.0","Windows","10.0","https://app.prolific.com/","it-IT,it;q=0.9,en-US;q=0.8,en;q=0.7","672f7b856c1ce6995a666bc6","683db6dfa200031b80f2a654","6865075e22783478d75616c5","672f7b856c1ce6995a666bc6","","","","","","","","","","","","","","","","","win-only","3","g1:SW,g2:NE","1","0","1","954995.4","1565.6","5567.4","24043.7","2","4","4","6","2","4","2","2","0","0.015151515151515152","1481.8","4000","2050","[""up"",""right""]","{""num_key_presses"":10,""num_perfect"":6,""num_errors"":2,""num_randdir"":0,""num_randdir_good_moves"":0,""num_whilered"":2,""num_whileblue"":0,""num_blue"":0,""num_good_moves"":6}","[415.3214133126395,415.32142761775424,0.2,415.3214133126395,415.32142761775424,105.8,415.3214133126395,415.32142761775424,210.2,426.5714133126395,396.57142761775424,316.1,467.8214133126395,347.82142761775424,420.4,462.8214133126395,362.82142761775424,520.4,447.8214133126395,384.07142761775424,622,447.8214133126395,386.57142761775424,725.5,447.8214133126395,386.57142761775424,830.1,447.8214133126395,389.07142761775424,931.3,466.5714133126395,381.57142761775424,1036.3,646.5714133126395,236.57142761775424,1141.4,729.0714133126395,152.82142761775424,1246.4,752.8214133126395,111.57142761775425,1350.9,754.0714133126395,111.57142761775425,1451.4,750.3214133126395,111.57142761775425,1556.5,749.0714133126395,111.57142761775425,1661.8,749.0714133126395,111.57142761775425,1765.7,745.3214133126395,116.57142761775425,1869.8,711.5714133126395,189.07142761775424,1970.1,694.0714133126395,259.07142761775424,2071.4,687.8214133126395,289.07142761775424,2175.1,681.5714133126395,316.57142761775424,2275.4,680.3214133126395,324.07142761775424,2375.6,677.8214133126395,325.32142761775424,2480.1,677.8214133126395,325.32142761775424,2580.3,677.8214133126395,325.32142761775424,2681.3,677.8214133126395,325.32142761775424,2785.6,677.8214133126395,325.32142761775424,2892,677.8214133126395,325.32142761775424,2995.7,680.3214133126395,325.32142761775424,3096.8,680.3214133126395,325.32142761775424,3200.9,680.3214133126395,326.57142761775424,3301.6,680.3214133126395,326.57142761775424,3406,680.3214133126395,326.57142761775424,3506,680.3214133126395,326.57142761775424,3606.2,680.3214133126395,326.57142761775424,3710.3,680.3214133126395,326.57142761775424,3815.4,680.3214133126395,326.57142761775424,3915.8]","[0.5,0.5,1000,0,-999.5,""error"",""-"",""-"",""no_move"",522,521.2,1000,0,-478,""while_red"",""-"",""-"",""no_move"",3892.2,3891.4,2586.7,1004.1,301.4,""smooth"",""right"",""right"",""good_move"",4155,262.1,2637.1,3893,-2375.1,""error"",""-"",""-"",""no_move"",4439.8,284.5,2637.1,3893,-2090.3,""while_red"",""-"",""-"",""no_move"",7593.9,3438.6,1991.1,5159.7,443.1,""smooth"",""right"",""right"",""good_move"",10366.1,2771.9,2440.1,7594.3,331.7,""smooth"",""right"",""right"",""good_move"",13194.6,2828.4,2515.6,10366.2,312.8,""smooth"",""up"",""up"",""good_move"",15443,2247.9,1907.6,13195.1,340.3,""smooth"",""up"",""up"",""good_move"",18386,2942.8,2686.8,15443.3,255.9,""smooth"",""up"",""up"",""good_move""]","",""
"158107","","","","instructions","22","1115286","0.0-8.0-2.0","157","1","2025-07-02 10:22:02","80fe4187154257d5fb01684ea91b68b9","87.20.147.48","Mozilla/5.0 (Windows NT 10.0; Win64; x64) AppleWebKit/537.36 (KHTML, like Gecko) Chrome/137.0.0.0 Safari/537.36","WebKit","Chrome","137.0.0.0","Windows","10.0","https://app.prolific.com/","it-IT,it;q=0.9,en-US;q=0.8,en;q=0.7","672f7b856c1ce6995a666bc6","683db6dfa200031b80f2a654","6865075e22783478d75616c5","672f7b856c1ce6995a666bc6","","[{""page_index"":0,""viewing_time"":158106}]","","","","","","","","","","","","","","","","","","","","","","","","","","","","","","","","","","","","","","","","","","",""
"","","","","ctl-task-cpt","23","1139893","0.0-8.0-3.0","157","1","2025-07-02 10:22:02","80fe4187154257d5fb01684ea91b68b9","87.20.147.48","Mozilla/5.0 (Windows NT 10.0; Win64; x64) AppleWebKit/537.36 (KHTML, like Gecko) Chrome/137.0.0.0 Safari/537.36","WebKit","Chrome","137.0.0.0","Windows","10.0","https://app.prolific.com/","it-IT,it;q=0.9,en-US;q=0.8,en;q=0.7","672f7b856c1ce6995a666bc6","683db6dfa200031b80f2a654","6865075e22783478d75616c5","672f7b856c1ce6995a666bc6","","","","","","","","","","","","","","","","","win-only","3","g1:SW,g2:NE","0.35","0","3","1140151.3","1311.8","5316.1","21592.1","2","4","8","6","2","8","7","7","0","0.05303030303030303","1384.1","4000","2630","[""up"",""right""]","{""num_key_presses"":6,""num_perfect"":4,""num_errors"":1,""num_randdir"":1,""num_randdir_good_moves"":1,""num_whilered"":0,""num_whileblue"":1,""num_blue"":1,""num_good_moves"":6}","[426.5714133126395,416.57142761775424,0.3,425.3214133126395,416.57142761775424,104.3,425.3214133126395,416.57142761775424,208.4,440.3214133126395,396.57142761775424,308.8,472.8214133126395,340.32142761775424,409.8,500.3214133126395,281.57142761775424,510,614.0714133126395,185.32142761775424,610.9,737.8214133126395,132.82142761775424,714,801.5714133126395,104.07142761775425,819.5,807.8214133126395,95.32142761775425,920.1,814.0714133126395,74.07142761775425,1024.8,814.0714133126395,74.07142761775425,1130,814.0714133126395,71.57142761775425,1233.7,814.0714133126395,71.57142761775425,1334.5,814.0714133126395,71.57142761775425,1434.9,814.0714133126395,71.57142761775425,1538.9,814.0714133126395,71.57142761775425,1643.9,976.5714133126395,132.82142761775424,1744.4,1006.5714133126395,147.82142761775424,1850,1006.5714133126395,147.82142761775424,1953.5,1006.5714133126395,147.82142761775424,2053.7,1006.5714133126395,147.82142761775424,2159.1,1006.5714133126395,147.82142761775424,2259.1,1006.5714133126395,147.82142761775424,2359.9,1006.5714133126395,147.82142761775424,2463.5,1006.5714133126395,147.82142761775424,2563.7,1006.5714133126395,147.82142761775424,2663.9,1006.5714133126395,147.82142761775424,2769.7,1006.5714133126395,147.82142761775424,2874.2,1006.5714133126395,147.82142761775424,2975.3,1006.5714133126395,147.82142761775424,3075.7,1006.5714133126395,147.82142761775424,3179.6,1006.5714133126395,147.82142761775424,3283.9,1005.3214133126395,147.82142761775424,3388.9,1005.3214133126395,147.82142761775424,3488.9,1005.3214133126395,147.82142761775424,3589.6,1005.3214133126395,147.82142761775424,3694.3,1005.3214133126395,147.82142761775424,3799.6,1005.3214133126395,147.82142761775424,3904]","[1289.4,1289.4,1000,0,289.4,""smooth"",""right"",""right"",""good_move"",4483.7,3193.9,2934.6,1289.9,259.2,""smooth"",""right"",""right"",""good_move"",7855.9,3371.9,3093.4,4484,278.5,""smooth"",""right"",""right"",""good_move"",11370.8,3513.8,3245.5,7857.1,268.3,""oops"",""up"",""up"",""good_move"",13689.3,2318.2,2014,11371.2,304.2,""smooth"",""up"",""up"",""good_move"",16190.1,2499.7,2213.9,13690.4,285.8,""while_blue"",""up"",""up"",""good_move""]","",""
"14532","","","","instructions","24","1154426","0.0-8.0-4.0","157","1","2025-07-02 10:22:02","80fe4187154257d5fb01684ea91b68b9","87.20.147.48","Mozilla/5.0 (Windows NT 10.0; Win64; x64) AppleWebKit/537.36 (KHTML, like Gecko) Chrome/137.0.0.0 Safari/537.36","WebKit","Chrome","137.0.0.0","Windows","10.0","https://app.prolific.com/","it-IT,it;q=0.9,en-US;q=0.8,en;q=0.7","672f7b856c1ce6995a666bc6","683db6dfa200031b80f2a654","6865075e22783478d75616c5","672f7b856c1ce6995a666bc6","","[{""page_index"":0,""viewing_time"":5963},{""page_index"":1,""viewing_time"":8568}]","","","","","","","","","","","","","","","","","","","","","","","","","","","","","","","","","","","","","","","","","","",""
"8312","","","{""green_ball"":[""Ball always moves in the direction I press""]}","survey-multi-select","25","1162742","0.0-8.0-5.0-0.0","157","1","2025-07-02 10:22:02","80fe4187154257d5fb01684ea91b68b9","87.20.147.48","Mozilla/5.0 (Windows NT 10.0; Win64; x64) AppleWebKit/537.36 (KHTML, like Gecko) Chrome/137.0.0.0 Safari/537.36","WebKit","Chrome","137.0.0.0","Windows","10.0","https://app.prolific.com/","it-IT,it;q=0.9,en-US;q=0.8,en;q=0.7","672f7b856c1ce6995a666bc6","683db6dfa200031b80f2a654","6865075e22783478d75616c5","672f7b856c1ce6995a666bc6","","","[0]","","","","quiz","","","","","","","","","","","","","","","","","","","","","","","","","","","","","","","","","","","","","false",""
"3446","","<p align='center'><b>INCORRECT.</b> Usually the green ball moves in the indicated direction, but sometimes it shakes and moves randomly. </p>","0","html-button-response","26","1166189","0.0-8.0-5.0-1.0","157","1","2025-07-02 10:22:02","80fe4187154257d5fb01684ea91b68b9","87.20.147.48","Mozilla/5.0 (Windows NT 10.0; Win64; x64) AppleWebKit/537.36 (KHTML, like Gecko) Chrome/137.0.0.0 Safari/537.36","WebKit","Chrome","137.0.0.0","Windows","10.0","https://app.prolific.com/","it-IT,it;q=0.9,en-US;q=0.8,en;q=0.7","672f7b856c1ce6995a666bc6","683db6dfa200031b80f2a654","6865075e22783478d75616c5","672f7b856c1ce6995a666bc6","","","","","","","","","","","","","","","","","","","","","","","","","","","","","","","","","","","","","","","","","","","","",""
"13009","","","{""green_ball"":[""Ball sometimes shakes and moves in a random direction""]}","survey-multi-select","27","1179201","0.0-8.0-5.1-0.1","157","1","2025-07-02 10:22:02","80fe4187154257d5fb01684ea91b68b9","87.20.147.48","Mozilla/5.0 (Windows NT 10.0; Win64; x64) AppleWebKit/537.36 (KHTML, like Gecko) Chrome/137.0.0.0 Safari/537.36","WebKit","Chrome","137.0.0.0","Windows","10.0","https://app.prolific.com/","it-IT,it;q=0.9,en-US;q=0.8,en;q=0.7","672f7b856c1ce6995a666bc6","683db6dfa200031b80f2a654","6865075e22783478d75616c5","672f7b856c1ce6995a666bc6","","","[0]","","","","quiz","","","","","","","","","","","","","","","","","","","","","","","","","","","","","","","","","","","","","true",""
"1531","","<p align='center'><b>CORRECT!</b> Indeed, the green ball may sometimes shake and move in a random direction.</p>","0","html-button-response","28","1180733","0.0-8.0-5.1-1.1","157","1","2025-07-02 10:22:02","80fe4187154257d5fb01684ea91b68b9","87.20.147.48","Mozilla/5.0 (Windows NT 10.0; Win64; x64) AppleWebKit/537.36 (KHTML, like Gecko) Chrome/137.0.0.0 Safari/537.36","WebKit","Chrome","137.0.0.0","Windows","10.0","https://app.prolific.com/","it-IT,it;q=0.9,en-US;q=0.8,en;q=0.7","672f7b856c1ce6995a666bc6","683db6dfa200031b80f2a654","6865075e22783478d75616c5","672f7b856c1ce6995a666bc6","","","","","","","","","","","","","","","","","","","","","","","","","","","","","","","","","","","","","","","","","","","","",""
"5877","","","{""yellow_ball"":[""Ball doesn‘t move and I get -1 penalty point""]}","survey-multi-select","29","1186611","0.0-8.0-6.0-0.0","157","1","2025-07-02 10:22:02","80fe4187154257d5fb01684ea91b68b9","87.20.147.48","Mozilla/5.0 (Windows NT 10.0; Win64; x64) AppleWebKit/537.36 (KHTML, like Gecko) Chrome/137.0.0.0 Safari/537.36","WebKit","Chrome","137.0.0.0","Windows","10.0","https://app.prolific.com/","it-IT,it;q=0.9,en-US;q=0.8,en;q=0.7","672f7b856c1ce6995a666bc6","683db6dfa200031b80f2a654","6865075e22783478d75616c5","672f7b856c1ce6995a666bc6","","","[0]","","","","quiz","","","","","","","","","","","","","","","","","","","","","","","","","","","","","","","","","","","","","true",""
"979","","<p align='center'><b>CORRECT!</b> Indeed, the yellow ball never moves and you receive a penalty.</p>","0","html-button-response","30","1187590","0.0-8.0-6.0-1.0","157","1","2025-07-02 10:22:02","80fe4187154257d5fb01684ea91b68b9","87.20.147.48","Mozilla/5.0 (Windows NT 10.0; Win64; x64) AppleWebKit/537.36 (KHTML, like Gecko) Chrome/137.0.0.0 Safari/537.36","WebKit","Chrome","137.0.0.0","Windows","10.0","https://app.prolific.com/","it-IT,it;q=0.9,en-US;q=0.8,en;q=0.7","672f7b856c1ce6995a666bc6","683db6dfa200031b80f2a654","6865075e22783478d75616c5","672f7b856c1ce6995a666bc6","","","","","","","","","","","","","","","","","","","","","","","","","","","","","","","","","","","","","","","","","","","","",""
"7285","","","{""blue_ball"":[""Ball always shakes and moves in a random direction""]}","survey-multi-select","31","1194877","0.0-8.0-7.0-0.0","157","1","2025-07-02 10:22:02","80fe4187154257d5fb01684ea91b68b9","87.20.147.48","Mozilla/5.0 (Windows NT 10.0; Win64; x64) AppleWebKit/537.36 (KHTML, like Gecko) Chrome/137.0.0.0 Safari/537.36","WebKit","Chrome","137.0.0.0","Windows","10.0","https://app.prolific.com/","it-IT,it;q=0.9,en-US;q=0.8,en;q=0.7","672f7b856c1ce6995a666bc6","683db6dfa200031b80f2a654","6865075e22783478d75616c5","672f7b856c1ce6995a666bc6","","","[0]","","","","quiz","","","","","","","","","","","","","","","","","","","","","","","","","","","","","","","","","","","","","true",""
"1363","","<p align='center'><b>CORRECT!</b> Indeed, the blue ball always shakes and moves in a random direction. Also there is a penalty of -1 point.</p>","0","html-button-response","32","1196240","0.0-8.0-7.0-1.0","157","1","2025-07-02 10:22:02","80fe4187154257d5fb01684ea91b68b9","87.20.147.48","Mozilla/5.0 (Windows NT 10.0; Win64; x64) AppleWebKit/537.36 (KHTML, like Gecko) Chrome/137.0.0.0 Safari/537.36","WebKit","Chrome","137.0.0.0","Windows","10.0","https://app.prolific.com/","it-IT,it;q=0.9,en-US;q=0.8,en;q=0.7","672f7b856c1ce6995a666bc6","683db6dfa200031b80f2a654","6865075e22783478d75616c5","672f7b856c1ce6995a666bc6","","","","","","","","","","","","","","","","","","","","","","","","","","","","","","","","","","","","","","","","","","","","",""
"5721","","","{""bonus"":[""When I reach 50% of points""]}","survey-multi-select","33","1201962","0.0-8.0-8.0-0.0","157","1","2025-07-02 10:22:02","80fe4187154257d5fb01684ea91b68b9","87.20.147.48","Mozilla/5.0 (Windows NT 10.0; Win64; x64) AppleWebKit/537.36 (KHTML, like Gecko) Chrome/137.0.0.0 Safari/537.36","WebKit","Chrome","137.0.0.0","Windows","10.0","https://app.prolific.com/","it-IT,it;q=0.9,en-US;q=0.8,en;q=0.7","672f7b856c1ce6995a666bc6","683db6dfa200031b80f2a654","6865075e22783478d75616c5","672f7b856c1ce6995a666bc6","","","[0]","","","","quiz","","","","","","","","","","","","","","","","","","","","","","","","","","","","","","","","","","","","","true",""
"1639","","<p align='center'><b>CORRECT!</b> Indeed, you receive 2 pounds extra when you reach 50% of points.</p>","0","html-button-response","34","1203602","0.0-8.0-8.0-1.0","157","1","2025-07-02 10:22:02","80fe4187154257d5fb01684ea91b68b9","87.20.147.48","Mozilla/5.0 (Windows NT 10.0; Win64; x64) AppleWebKit/537.36 (KHTML, like Gecko) Chrome/137.0.0.0 Safari/537.36","WebKit","Chrome","137.0.0.0","Windows","10.0","https://app.prolific.com/","it-IT,it;q=0.9,en-US;q=0.8,en;q=0.7","672f7b856c1ce6995a666bc6","683db6dfa200031b80f2a654","6865075e22783478d75616c5","672f7b856c1ce6995a666bc6","","","","","","","","","","","","","","","","","","","","","","","","","","","","","","","","","","","","","","","","","","","","",""
"1825","","","","instructions","35","1205427","0.0-8.0-9.0","157","1","2025-07-02 10:22:02","80fe4187154257d5fb01684ea91b68b9","87.20.147.48","Mozilla/5.0 (Windows NT 10.0; Win64; x64) AppleWebKit/537.36 (KHTML, like Gecko) Chrome/137.0.0.0 Safari/537.36","WebKit","Chrome","137.0.0.0","Windows","10.0","https://app.prolific.com/","it-IT,it;q=0.9,en-US;q=0.8,en;q=0.7","672f7b856c1ce6995a666bc6","683db6dfa200031b80f2a654","6865075e22783478d75616c5","672f7b856c1ce6995a666bc6","","[{""page_index"":0,""viewing_time"":1824}]","","","","","","","","","","","","","","","","","","","","","","","","","","","","","","","","","","","","","","","","","","",""
"7343","","<p>Before you start with this game please answer the following three questions yourself. </p>
  <p>Through this game, we measure several aspects of your cognitive performance, such as reaction times, multi-tasking capabilities </p>
  <p>and the ability to assess the situation you are in.</p>
  <p></p>
  <p><b>How good do you usually are in such tasks?</b></p>","65","html-slider-response","36","1212772","0.0-9.0-0.0","157","1","2025-07-02 10:22:02","80fe4187154257d5fb01684ea91b68b9","87.20.147.48","Mozilla/5.0 (Windows NT 10.0; Win64; x64) AppleWebKit/537.36 (KHTML, like Gecko) Chrome/137.0.0.0 Safari/537.36","WebKit","Chrome","137.0.0.0","Windows","10.0","https://app.prolific.com/","it-IT,it;q=0.9,en-US;q=0.8,en;q=0.7","672f7b856c1ce6995a666bc6","683db6dfa200031b80f2a654","6865075e22783478d75616c5","672f7b856c1ce6995a666bc6","2025-07-02T10:42:38.750Z","","","","","","PreSkillQ","","","","","","","","","","","","","","","","","","","","","","","","","","","","","","","","","","","","","","50"
"3557","","<div style=""width:500px;"">
  <p>How well do you think you will perform in this task compared to other participants?</p>
  </div>","52","html-slider-response","37","1216331","0.0-9.0-1.0","157","1","2025-07-02 10:22:02","80fe4187154257d5fb01684ea91b68b9","87.20.147.48","Mozilla/5.0 (Windows NT 10.0; Win64; x64) AppleWebKit/537.36 (KHTML, like Gecko) Chrome/137.0.0.0 Safari/537.36","WebKit","Chrome","137.0.0.0","Windows","10.0","https://app.prolific.com/","it-IT,it;q=0.9,en-US;q=0.8,en;q=0.7","672f7b856c1ce6995a666bc6","683db6dfa200031b80f2a654","6865075e22783478d75616c5","672f7b856c1ce6995a666bc6","2025-07-02T10:42:42.309Z","","","","","","PrePerfQ","","","","","","","","","","","","","","","","","","","","","","","","","","","","","","","","","","","","","","50"
"2923","","<div style=""width:500px;"">
  <p>What best describes how you currently feel?</p>
  </div>","45","html-slider-response","38","1219254","0.0-9.0-2.0","157","1","2025-07-02 10:22:02","80fe4187154257d5fb01684ea91b68b9","87.20.147.48","Mozilla/5.0 (Windows NT 10.0; Win64; x64) AppleWebKit/537.36 (KHTML, like Gecko) Chrome/137.0.0.0 Safari/537.36","WebKit","Chrome","137.0.0.0","Windows","10.0","https://app.prolific.com/","it-IT,it;q=0.9,en-US;q=0.8,en;q=0.7","672f7b856c1ce6995a666bc6","683db6dfa200031b80f2a654","6865075e22783478d75616c5","672f7b856c1ce6995a666bc6","2025-07-02T10:42:45.232Z","","","","","","PreMotivationQ","","","","","","","","","","","","","","","","","","","","","","","","","","","","","","","","","","","","","","50"
"","","","","ctl-task-cpt","39","1260849","0.0-10.0-0.0","157","1","2025-07-02 10:22:02","80fe4187154257d5fb01684ea91b68b9","87.20.147.48","Mozilla/5.0 (Windows NT 10.0; Win64; x64) AppleWebKit/537.36 (KHTML, like Gecko) Chrome/137.0.0.0 Safari/537.36","WebKit","Chrome","137.0.0.0","Windows","10.0","https://app.prolific.com/","it-IT,it;q=0.9,en-US;q=0.8,en;q=0.7","672f7b856c1ce6995a666bc6","683db6dfa200031b80f2a654","6865075e22783478d75616c5","672f7b856c1ce6995a666bc6","2025-07-02T10:43:26.827Z","","","","","","","","","","","","","","","","win-only","3","g1:SW,g2:NE","1","1","0","1244119.1","1082.9","6086.3","38576.1","1","4","4","6","2","-4","-6","0","0","0","935.1","3000","-3010","[""up"",""right""]","{""num_key_presses"":9,""num_perfect"":7,""num_errors"":2,""num_randdir"":0,""num_randdir_good_moves"":0,""num_whilered"":0,""num_whileblue"":2,""num_blue"":3,""num_good_moves"":7}","[416.5714133126395,411.57142761775424,0.2,416.5714133126395,412.82142761775424,102.6,416.5714133126395,412.82142761775424,203.2,440.3214133126395,392.82142761775424,303.2,459.0714133126395,367.82142761775424,407.8,522.8214133126395,274.07142761775424,508.2,651.5714133126395,114.07142761775425,612.6,671.5714133126395,82.82142761775425,713.3,691.5714133126395,79.07142761775425,813.6,710.3214133126395,87.82142761775425,918.7,711.5714133126395,89.07142761775425,1023.5,711.5714133126395,89.07142761775425,1127.9,737.8214133126395,121.57142761775425,1230.4,841.5714133126395,149.07142761775424,1332.6,956.5714133126395,142.82142761775424,1433.5,1024.0714133126396,132.82142761775424,1538.2,1024.0714133126396,132.82142761775424,1643.1,1024.0714133126396,132.82142761775424,1744.4,1024.0714133126396,132.82142761775424,1847.9,1024.0714133126396,132.82142761775424,1953.8,1024.0714133126396,132.82142761775424,2057.8,1024.0714133126396,132.82142761775424,2158,1024.0714133126396,132.82142761775424,2263.8,1024.0714133126396,132.82142761775424,2364,1024.0714133126396,132.82142761775424,2468.3,1024.0714133126396,132.82142761775424,2573,1024.0714133126396,132.82142761775424,2673.6,1021.5714133126395,131.57142761775424,2777.8,1020.3214133126395,130.32142761775424,2877.9,1020.3214133126395,130.32142761775424,2978.2,1009.0714133126395,92.82142761775425,3082.7,1007.8214133126395,64.07142761775425,3183.7,799.0714133126395,141.57142761775424,3288,862.8214133126395,101.57142761775425,3388.2,837.8214133126395,191.57142761775424,3493,851.5714133126395,199.07142761775424,3593.4,941.5714133126395,219.07142761775424,3697.7,986.5714133126395,231.57142761775424,3797.8,989.0714133126395,231.57142761775424,3898.4,989.0714133126395,231.57142761775424,4002.7,989.0714133126395,231.57142761775424,4104.6,989.0714133126395,231.57142761775424,4208.6,989.0714133126395,231.57142761775424,4314.5,989.0714133126395,231.57142761775424,4418.1,989.0714133126395,231.57142761775424,4518.2,987.8214133126395,231.57142761775424,4618.7,987.8214133126395,231.57142761775424,4724.4,987.8214133126395,231.57142761775424,4828.7,987.8214133126395,231.57142761775424,4932.9]","[5601.2,5601.2,3270.6,2011,319.6,""smooth"",""right"",""right"",""good_move"",8270.1,2668.4,2237.5,5601.7,430.9,""smooth"",""right"",""right"",""good_move"",10499.4,2229.1,1824.5,8270.3,404.6,""smooth"",""right"",""right"",""good_move"",13555.3,3055.4,2729.5,10499.9,325.9,""while_blue"",""up"",""down"",""bad_move"",16768,3212.1,2659.8,13555.9,552.3,""smooth"",""up"",""up"",""good_move"",20247.7,3479.4,3105.9,16768.3,373.5,""while_blue"",""up"",""left"",""bad_move"",23226.5,2977.6,2598.9,20248.9,378.7,""smooth"",""up"",""up"",""good_move"",26410.2,3182.9,2794.3,23227.3,388.6,""smooth"",""up"",""up"",""good_move"",29602.7,3192.2,2895.2,26410.5,297,""smooth"",""up"",""up"",""good_move""]","",""
"3096","","<div style=""width:500px;"">
  <p>What determined the result of this run?</p>
  </div>","59","html-slider-response","40","1263947","0.0-10.0-1.0","157","1","2025-07-02 10:22:02","80fe4187154257d5fb01684ea91b68b9","87.20.147.48","Mozilla/5.0 (Windows NT 10.0; Win64; x64) AppleWebKit/537.36 (KHTML, like Gecko) Chrome/137.0.0.0 Safari/537.36","WebKit","Chrome","137.0.0.0","Windows","10.0","https://app.prolific.com/","it-IT,it;q=0.9,en-US;q=0.8,en;q=0.7","672f7b856c1ce6995a666bc6","683db6dfa200031b80f2a654","6865075e22783478d75616c5","672f7b856c1ce6995a666bc6","2025-07-02T10:43:29.925Z","","","","","","AttribQ","","","","","","","","","","","","","","","","","","","","","","","","","","","","","","","","","","","","","","50"
"2290","","<div style=""width:500px;"">
  <p>How much control did you have over the ball?</p>
  </div>","66","html-slider-response","41","1266239","0.0-10.0-2.0","157","1","2025-07-02 10:22:02","80fe4187154257d5fb01684ea91b68b9","87.20.147.48","Mozilla/5.0 (Windows NT 10.0; Win64; x64) AppleWebKit/537.36 (KHTML, like Gecko) Chrome/137.0.0.0 Safari/537.36","WebKit","Chrome","137.0.0.0","Windows","10.0","https://app.prolific.com/","it-IT,it;q=0.9,en-US;q=0.8,en;q=0.7","672f7b856c1ce6995a666bc6","683db6dfa200031b80f2a654","6865075e22783478d75616c5","672f7b856c1ce6995a666bc6","2025-07-02T10:43:32.217Z","","","","","","ControlQ","","","","","","","","","","","","","","","","","","","","","","","","","","","","","","","","","","","","","","50"
"2953","","<div style=""width:500px;"">
  <p>How would you describe your current emotional state?</p>
  </div>","56","html-slider-response","42","1269193","0.0-10.0-3.0","157","1","2025-07-02 10:22:02","80fe4187154257d5fb01684ea91b68b9","87.20.147.48","Mozilla/5.0 (Windows NT 10.0; Win64; x64) AppleWebKit/537.36 (KHTML, like Gecko) Chrome/137.0.0.0 Safari/537.36","WebKit","Chrome","137.0.0.0","Windows","10.0","https://app.prolific.com/","it-IT,it;q=0.9,en-US;q=0.8,en;q=0.7","672f7b856c1ce6995a666bc6","683db6dfa200031b80f2a654","6865075e22783478d75616c5","672f7b856c1ce6995a666bc6","2025-07-02T10:43:35.171Z","","","","","","StressQ","","","","","","","","","","","","","","","","","","","","","","","","","","","","","","","","","","","","","","50"
"3031","","<div style=""width:500px;"">
  <p>What best describes how you currently feel?</p>
  </div>","61","html-slider-response","43","1272225","0.0-10.0-4.0","157","1","2025-07-02 10:22:02","80fe4187154257d5fb01684ea91b68b9","87.20.147.48","Mozilla/5.0 (Windows NT 10.0; Win64; x64) AppleWebKit/537.36 (KHTML, like Gecko) Chrome/137.0.0.0 Safari/537.36","WebKit","Chrome","137.0.0.0","Windows","10.0","https://app.prolific.com/","it-IT,it;q=0.9,en-US;q=0.8,en;q=0.7","672f7b856c1ce6995a666bc6","683db6dfa200031b80f2a654","6865075e22783478d75616c5","672f7b856c1ce6995a666bc6","2025-07-02T10:43:38.203Z","","","","","","MotivationQ","","","","","","","","","","","","","","","","","","","","","","","","","","","","","","","","","","","","","","50"
"","","","","ctl-task-cpt","44","1310200","0.0-10.0-0.1","157","1","2025-07-02 10:22:02","80fe4187154257d5fb01684ea91b68b9","87.20.147.48","Mozilla/5.0 (Windows NT 10.0; Win64; x64) AppleWebKit/537.36 (KHTML, like Gecko) Chrome/137.0.0.0 Safari/537.36","WebKit","Chrome","137.0.0.0","Windows","10.0","https://app.prolific.com/","it-IT,it;q=0.9,en-US;q=0.8,en;q=0.7","672f7b856c1ce6995a666bc6","683db6dfa200031b80f2a654","6865075e22783478d75616c5","672f7b856c1ce6995a666bc6","2025-07-02T10:44:16.178Z","","","","","","","","","","","","","","","","win-only","1","g1:NE,g2:SW","0.9","2","0","1297089.3","882.5","5887.3","34955.9","1","4","8","6","2","-8","-9","0","0","0","1370.7","3000","-3010","[""down"",""left""]","{""num_key_presses"":7,""num_perfect"":5,""num_errors"":1,""num_randdir"":1,""num_randdir_good_moves"":0,""num_whilered"":0,""num_whileblue"":1,""num_blue"":3,""num_good_moves"":5}","[416.5714133126395,416.57142761775424,0.2,416.5714133126395,416.57142761775424,103.8,426.5714133126395,381.57142761775424,209.1,616.5714133126395,39.07142761775425,313.1,655.3214133126395,4.071427617754253,414.1,725.3214133126395,-18.428572382245747,514.1,736.5714133126395,21.571427617754253,614.9,537.8214133126395,295.32142761775424,718.6,242.8214133126395,619.0714276177542,820,-13.428586687360493,806.5714276177542,924.9,-17.178586687360493,814.0714276177542,1025,-17.178586687360493,814.0714276177542,1129.1,-9.678586687360493,801.5714276177542,1229.3,17.821413312639507,784.0714276177542,1334.1,41.57141331263951,781.5714276177542,1434.2,42.82141331263951,777.8214276177542,1534.8,225.3214133126395,529.0714276177542,1638.9,316.5714133126395,421.57142761775424,1744.5,426.5714133126395,259.07142761775424,1848.9,481.5714133126395,216.57142761775424,1953.4,711.5714133126395,281.57142761775424,2053.6,850.3214133126395,251.57142761775424,2153.7,861.5714133126395,227.82142761775424,2258.3,891.5714133126395,186.57142761775424,2358.5,909.0714133126395,161.57142761775424,2463.1,900.3214133126395,140.32142761775424,2563.4,901.5714133126395,132.82142761775424,2669.2,901.5714133126395,134.07142761775424,2774.1,900.3214133126395,139.07142761775424,2878.2,900.3214133126395,139.07142761775424,2979,900.3214133126395,139.07142761775424,3084.7,900.3214133126395,139.07142761775424,3188.6,900.3214133126395,139.07142761775424,3288.7,900.3214133126395,139.07142761775424,3393,900.3214133126395,139.07142761775424,3493.8,900.3214133126395,139.07142761775424,3598.9,900.3214133126395,139.07142761775424,3703.8,900.3214133126395,139.07142761775424,3809.3,900.3214133126395,139.07142761775424,3913.8,900.3214133126395,139.07142761775424,4014.1,900.3214133126395,139.07142761775424,4119.1,900.3214133126395,139.07142761775424,4223.7,900.3214133126395,139.07142761775424,4323.7,900.3214133126395,139.07142761775424,4424.6,900.3214133126395,139.07142761775424,4525,900.3214133126395,139.07142761775424,4628.6,900.3214133126395,139.07142761775424,4728.7,900.3214133126395,139.07142761775424,4834,900.3214133126395,139.07142761775424,4938.2]","[1389.3,1389.3,1000,0,389.3,""smooth"",""down"",""down"",""good_move"",4684.6,3294.8,2880,1389.8,414.8,""smooth"",""down"",""down"",""good_move"",8487.3,3802.4,3097.4,4684.9,705,""oops"",""down"",""right"",""bad_move"",11211.9,2724.3,2220.8,8487.6,503.5,""smooth"",""down"",""down"",""good_move"",14702,3489.4,3196.5,11212.6,292.9,""while_blue"",""left"",""up"",""bad_move"",17440.3,2737.8,2308.6,14702.5,429.2,""smooth"",""left"",""left"",""good_move"",26418.3,8977.7,2036.6,24079.9,301.8,""smooth"",""left"",""left"",""good_move""]","",""
"2776","","<div style=""width:500px;"">
  <p>What determined the result of this run?</p>
  </div>","37","html-slider-response","45","1312978","0.0-10.0-1.1","157","1","2025-07-02 10:22:02","80fe4187154257d5fb01684ea91b68b9","87.20.147.48","Mozilla/5.0 (Windows NT 10.0; Win64; x64) AppleWebKit/537.36 (KHTML, like Gecko) Chrome/137.0.0.0 Safari/537.36","WebKit","Chrome","137.0.0.0","Windows","10.0","https://app.prolific.com/","it-IT,it;q=0.9,en-US;q=0.8,en;q=0.7","672f7b856c1ce6995a666bc6","683db6dfa200031b80f2a654","6865075e22783478d75616c5","672f7b856c1ce6995a666bc6","2025-07-02T10:44:18.956Z","","","","","","AttribQ","","","","","","","","","","","","","","","","","","","","","","","","","","","","","","","","","","","","","","50"
"2568","","<div style=""width:500px;"">
  <p>How much control did you have over the ball?</p>
  </div>","43","html-slider-response","46","1315547","0.0-10.0-2.1","157","1","2025-07-02 10:22:02","80fe4187154257d5fb01684ea91b68b9","87.20.147.48","Mozilla/5.0 (Windows NT 10.0; Win64; x64) AppleWebKit/537.36 (KHTML, like Gecko) Chrome/137.0.0.0 Safari/537.36","WebKit","Chrome","137.0.0.0","Windows","10.0","https://app.prolific.com/","it-IT,it;q=0.9,en-US;q=0.8,en;q=0.7","672f7b856c1ce6995a666bc6","683db6dfa200031b80f2a654","6865075e22783478d75616c5","672f7b856c1ce6995a666bc6","2025-07-02T10:44:21.525Z","","","","","","ControlQ","","","","","","","","","","","","","","","","","","","","","","","","","","","","","","","","","","","","","","50"
"2258","","<div style=""width:500px;"">
  <p>How would you describe your current emotional state?</p>
  </div>","56","html-slider-response","47","1317805","0.0-10.0-3.1","157","1","2025-07-02 10:22:02","80fe4187154257d5fb01684ea91b68b9","87.20.147.48","Mozilla/5.0 (Windows NT 10.0; Win64; x64) AppleWebKit/537.36 (KHTML, like Gecko) Chrome/137.0.0.0 Safari/537.36","WebKit","Chrome","137.0.0.0","Windows","10.0","https://app.prolific.com/","it-IT,it;q=0.9,en-US;q=0.8,en;q=0.7","672f7b856c1ce6995a666bc6","683db6dfa200031b80f2a654","6865075e22783478d75616c5","672f7b856c1ce6995a666bc6","2025-07-02T10:44:23.783Z","","","","","","StressQ","","","","","","","","","","","","","","","","","","","","","","","","","","","","","","","","","","","","","","50"
"2749","","<div style=""width:500px;"">
  <p>What best describes how you currently feel?</p>
  </div>","60","html-slider-response","48","1320556","0.0-10.0-4.1","157","1","2025-07-02 10:22:02","80fe4187154257d5fb01684ea91b68b9","87.20.147.48","Mozilla/5.0 (Windows NT 10.0; Win64; x64) AppleWebKit/537.36 (KHTML, like Gecko) Chrome/137.0.0.0 Safari/537.36","WebKit","Chrome","137.0.0.0","Windows","10.0","https://app.prolific.com/","it-IT,it;q=0.9,en-US;q=0.8,en;q=0.7","672f7b856c1ce6995a666bc6","683db6dfa200031b80f2a654","6865075e22783478d75616c5","672f7b856c1ce6995a666bc6","2025-07-02T10:44:26.534Z","","","","","","MotivationQ","","","","","","","","","","","","","","","","","","","","","","","","","","","","","","","","","","","","","","50"
"","","","","ctl-task-cpt","49","1349003","0.0-10.0-0.2","157","1","2025-07-02 10:22:02","80fe4187154257d5fb01684ea91b68b9","87.20.147.48","Mozilla/5.0 (Windows NT 10.0; Win64; x64) AppleWebKit/537.36 (KHTML, like Gecko) Chrome/137.0.0.0 Safari/537.36","WebKit","Chrome","137.0.0.0","Windows","10.0","https://app.prolific.com/","it-IT,it;q=0.9,en-US;q=0.8,en;q=0.7","672f7b856c1ce6995a666bc6","683db6dfa200031b80f2a654","6865075e22783478d75616c5","672f7b856c1ce6995a666bc6","2025-07-02T10:44:54.981Z","","","","","","","","","","","","","","","","win-only","1","g1:NE,g2:SW","0.8","3","0","1345419.4","922","5922.8","25426","1","4","8","6","2","8","8","8","0","0.06060606060606061","1271.7","3000","645","[""down"",""left""]","{""num_key_presses"":6,""num_perfect"":5,""num_errors"":0,""num_randdir"":1,""num_randdir_good_moves"":1,""num_whilered"":0,""num_whileblue"":0,""num_blue"":1,""num_good_moves"":6}","[424.0714133126395,425.32142761775424,0.1,424.0714133126395,425.32142761775424,104.2,424.0714133126395,425.32142761775424,208.9,430.3214133126395,404.07142761775424,309.3,436.5714133126395,411.57142761775424,409.3,451.5714133126395,444.07142761775424,509.3,392.8214133126395,516.5714276177542,609.6,271.5714133126395,609.0714276177542,715.3,227.8214133126395,665.3214276177542,819.1,209.0714133126395,680.3214276177542,919.8,137.8214133126395,730.3214276177542,1020.3,122.8214133126395,742.8214276177542,1124.2,106.5714133126395,756.5714276177542,1225.5,105.3214133126395,757.8214276177542,1330.3,105.3214133126395,757.8214276177542,1431.6,141.5714133126395,676.5714276177542,1535.3,196.5714133126395,252.82142761775424,1639.1,336.5714133126395,0.321427617754253,1742.6,336.5714133126395,0.321427617754253,1843.5,336.5714133126395,-2.178572382245747,1944.4,351.5714133126395,81.57142761775425,2050.1,409.0714133126395,201.57142761775424,2154.4,439.0714133126395,472.82142761775424,2258.5,426.5714133126395,652.8214276177542,2364.5,446.5714133126395,567.8214276177542,2468.4,451.5714133126395,546.5714276177542,2569.3,520.3214133126395,439.07142761775424,2669.7,524.0714133126395,426.57142761775424,2770.9,524.0714133126395,424.07142761775424,2874,524.0714133126395,424.07142761775424,2974.9,531.5714133126395,392.82142761775424,3075.3,531.5714133126395,381.57142761775424,3180.4,531.5714133126395,381.57142761775424,3285.2,531.5714133126395,381.57142761775424,3388.7,531.5714133126395,381.57142761775424,3489,531.5714133126395,381.57142761775424,3589.4,531.5714133126395,381.57142761775424,3694.1,531.5714133126395,381.57142761775424,3795.1,550.3214133126395,352.82142761775424,3899,584.0714133126395,321.57142761775424,3999.5,595.3214133126395,309.07142761775424,4104.7,602.8214133126395,296.57142761775424,4208.5,605.3214133126395,296.57142761775424,4308.8,605.3214133126395,296.57142761775424,4409.1,605.3214133126395,296.57142761775424,4514.7,605.3214133126395,296.57142761775424,4618.9,605.3214133126395,296.57142761775424,4718.9,605.3214133126395,296.57142761775424,4820.7,602.8214133126395,297.82142761775424,4924.3]","[1357.4,1357.4,1000,0,357.4,""smooth"",""down"",""down"",""good_move"",4571.7,3213.7,2835.6,1358.1,378,""smooth"",""down"",""down"",""good_move"",10998.5,6426.8,2667.4,8007.8,323.3,""smooth"",""left"",""left"",""good_move"",13788.4,2789.3,2377.7,10999.1,411.6,""oops"",""down"",""left"",""good_move"",17401.2,3613,3161.4,13788.6,451.6,""smooth"",""down"",""down"",""good_move"",19419.8,2017.5,1544.9,17402.5,472.5,""smooth"",""left"",""left"",""good_move""]","",""
"2910","","<div style=""width:500px;"">
  <p>What determined the result of this run?</p>
  </div>","59","html-slider-response","50","1351915","0.0-10.0-1.2","157","1","2025-07-02 10:22:02","80fe4187154257d5fb01684ea91b68b9","87.20.147.48","Mozilla/5.0 (Windows NT 10.0; Win64; x64) AppleWebKit/537.36 (KHTML, like Gecko) Chrome/137.0.0.0 Safari/537.36","WebKit","Chrome","137.0.0.0","Windows","10.0","https://app.prolific.com/","it-IT,it;q=0.9,en-US;q=0.8,en;q=0.7","672f7b856c1ce6995a666bc6","683db6dfa200031b80f2a654","6865075e22783478d75616c5","672f7b856c1ce6995a666bc6","2025-07-02T10:44:57.894Z","","","","","","AttribQ","","","","","","","","","","","","","","","","","","","","","","","","","","","","","","","","","","","","","","50"
"2397","","<div style=""width:500px;"">
  <p>How much control did you have over the ball?</p>
  </div>","60","html-slider-response","51","1354315","0.0-10.0-2.2","157","1","2025-07-02 10:22:02","80fe4187154257d5fb01684ea91b68b9","87.20.147.48","Mozilla/5.0 (Windows NT 10.0; Win64; x64) AppleWebKit/537.36 (KHTML, like Gecko) Chrome/137.0.0.0 Safari/537.36","WebKit","Chrome","137.0.0.0","Windows","10.0","https://app.prolific.com/","it-IT,it;q=0.9,en-US;q=0.8,en;q=0.7","672f7b856c1ce6995a666bc6","683db6dfa200031b80f2a654","6865075e22783478d75616c5","672f7b856c1ce6995a666bc6","2025-07-02T10:45:00.294Z","","","","","","ControlQ","","","","","","","","","","","","","","","","","","","","","","","","","","","","","","","","","","","","","","50"
"4133","","<div style=""width:500px;"">
  <p>How would you describe your current emotional state?</p>
  </div>","39","html-slider-response","52","1358451","0.0-10.0-3.2","157","1","2025-07-02 10:22:02","80fe4187154257d5fb01684ea91b68b9","87.20.147.48","Mozilla/5.0 (Windows NT 10.0; Win64; x64) AppleWebKit/537.36 (KHTML, like Gecko) Chrome/137.0.0.0 Safari/537.36","WebKit","Chrome","137.0.0.0","Windows","10.0","https://app.prolific.com/","it-IT,it;q=0.9,en-US;q=0.8,en;q=0.7","672f7b856c1ce6995a666bc6","683db6dfa200031b80f2a654","6865075e22783478d75616c5","672f7b856c1ce6995a666bc6","2025-07-02T10:45:04.429Z","","","","","","StressQ","","","","","","","","","","","","","","","","","","","","","","","","","","","","","","","","","","","","","","50"
"2739","","<div style=""width:500px;"">
  <p>What best describes how you currently feel?</p>
  </div>","73","html-slider-response","53","1361190","0.0-10.0-4.2","157","1","2025-07-02 10:22:02","80fe4187154257d5fb01684ea91b68b9","87.20.147.48","Mozilla/5.0 (Windows NT 10.0; Win64; x64) AppleWebKit/537.36 (KHTML, like Gecko) Chrome/137.0.0.0 Safari/537.36","WebKit","Chrome","137.0.0.0","Windows","10.0","https://app.prolific.com/","it-IT,it;q=0.9,en-US;q=0.8,en;q=0.7","672f7b856c1ce6995a666bc6","683db6dfa200031b80f2a654","6865075e22783478d75616c5","672f7b856c1ce6995a666bc6","2025-07-02T10:45:07.168Z","","","","","","MotivationQ","","","","","","","","","","","","","","","","","","","","","","","","","","","","","","","","","","","","","","50"
"","","","","ctl-task-cpt","54","1390805","0.0-10.0-0.3","157","1","2025-07-02 10:22:02","80fe4187154257d5fb01684ea91b68b9","87.20.147.48","Mozilla/5.0 (Windows NT 10.0; Win64; x64) AppleWebKit/537.36 (KHTML, like Gecko) Chrome/137.0.0.0 Safari/537.36","WebKit","Chrome","137.0.0.0","Windows","10.0","https://app.prolific.com/","it-IT,it;q=0.9,en-US;q=0.8,en;q=0.7","672f7b856c1ce6995a666bc6","683db6dfa200031b80f2a654","6865075e22783478d75616c5","672f7b856c1ce6995a666bc6","2025-07-02T10:45:36.783Z","","","","","","","","","","","","","","","","win-only","2","g1:SE,g2:NW","0.7","4","0","1386052.5","883.7","5886.3","26595.7","1","4","4","6","2","4","4","12","8","0.09090909090909091","1065.3","3000","165","[""left"",""up""]","{""num_key_presses"":8,""num_perfect"":7,""num_errors"":0,""num_randdir"":1,""num_randdir_good_moves"":0,""num_whilered"":0,""num_whileblue"":0,""num_blue"":0,""num_good_moves"":7}","[414.0714133126395,426.57142761775424,0.3,415.3214133126395,426.57142761775424,101.6,415.3214133126395,426.57142761775424,201.6,431.5714133126395,441.57142761775424,303.5,481.5714133126395,526.5714276177542,409,490.3214133126395,545.3214276177542,511.7,27.821413312639507,50.32142761775425,612.1,-48.42858668736049,-50.92857238224575,712.6,-44.67858668736049,-53.42857238224575,812.8,7.821413312639507,-3.428572382245747,916.9,22.821413312639507,74.07142761775425,1017.2,24.071413312639507,75.32142761775425,1122.6,24.071413312639507,75.32142761775425,1222.8,117.8214133126395,55.32142761775425,1326.6,451.5714133126395,136.57142761775424,1427.1,657.8214133126395,192.82142761775424,1527.6,746.5714133126395,226.57142761775424,1631.8,792.8214133126395,251.57142761775424,1731.8,801.5714133126395,251.57142761775424,1837.6,801.5714133126395,251.57142761775424,1942.3,801.5714133126395,254.07142761775424,2047.1,789.0714133126395,261.57142761775424,2147.9,776.5714133126395,266.57142761775424,2252.1,771.5714133126395,266.57142761775424,2357.6,760.3214133126395,266.57142761775424,2462.1,741.5714133126395,261.57142761775424,2567,726.5714133126395,261.57142761775424,2672,716.5714133126395,261.57142761775424,2773.5,711.5714133126395,261.57142761775424,2878,701.5714133126395,261.57142761775424,2982,696.5714133126395,256.57142761775424,3082.5,682.8214133126395,212.82142761775424,3183.2,680.3214133126395,206.57142761775424,3286.8,681.5714133126395,206.57142761775424,3392.7,730.3214133126395,241.57142761775424,3496.7,741.5714133126395,254.07142761775424,3596.9,739.0714133126395,262.82142761775424,3697.5,739.0714133126395,265.32142761775424,3801.8,752.8214133126395,256.57142761775424,3902.5,760.3214133126395,251.57142761775424,4006.9,760.3214133126395,251.57142761775424,4107.9,760.3214133126395,251.57142761775424,4211.6,760.3214133126395,251.57142761775424,4312.1,760.3214133126395,251.57142761775424,4412.6,757.8214133126395,254.07142761775424,4513.4,751.5714133126395,257.82142761775424,4617,747.8214133126395,260.32142761775424,4717.6,747.8214133126395,260.32142761775424,4822.4,744.0714133126395,265.32142761775424,4926.6]","[1402.8,1402.8,1000,0,402.8,""smooth"",""up"",""up"",""good_move"",4348.7,2945.2,2532,1403.6,413.1,""oops"",""left"",""down"",""bad_move"",7193.8,2844.7,2502.4,4349.1,342.3,""smooth"",""left"",""left"",""good_move"",10069.8,2875.7,2544.2,7194.1,331.5,""smooth"",""left"",""left"",""good_move"",12867.8,2797.8,2390.7,10070.2,406.9,""smooth"",""up"",""up"",""good_move"",15253.4,2385.4,2039,12868.1,346.3,""smooth"",""up"",""up"",""good_move"",17878.8,2625.3,2345.3,15253.5,280,""smooth"",""up"",""up"",""good_move"",20620.1,2740.9,2380.9,17879.2,360,""smooth"",""left"",""left"",""good_move""]","",""
"3198","","<div style=""width:500px;"">
  <p>What determined the result of this run?</p>
  </div>","59","html-slider-response","55","1394005","0.0-10.0-1.3","157","1","2025-07-02 10:22:02","80fe4187154257d5fb01684ea91b68b9","87.20.147.48","Mozilla/5.0 (Windows NT 10.0; Win64; x64) AppleWebKit/537.36 (KHTML, like Gecko) Chrome/137.0.0.0 Safari/537.36","WebKit","Chrome","137.0.0.0","Windows","10.0","https://app.prolific.com/","it-IT,it;q=0.9,en-US;q=0.8,en;q=0.7","672f7b856c1ce6995a666bc6","683db6dfa200031b80f2a654","6865075e22783478d75616c5","672f7b856c1ce6995a666bc6","2025-07-02T10:45:39.983Z","","","","","","AttribQ","","","","","","","","","","","","","","","","","","","","","","","","","","","","","","","","","","","","","","50"
"2314","","<div style=""width:500px;"">
  <p>How much control did you have over the ball?</p>
  </div>","61","html-slider-response","56","1396322","0.0-10.0-2.3","157","1","2025-07-02 10:22:02","80fe4187154257d5fb01684ea91b68b9","87.20.147.48","Mozilla/5.0 (Windows NT 10.0; Win64; x64) AppleWebKit/537.36 (KHTML, like Gecko) Chrome/137.0.0.0 Safari/537.36","WebKit","Chrome","137.0.0.0","Windows","10.0","https://app.prolific.com/","it-IT,it;q=0.9,en-US;q=0.8,en;q=0.7","672f7b856c1ce6995a666bc6","683db6dfa200031b80f2a654","6865075e22783478d75616c5","672f7b856c1ce6995a666bc6","2025-07-02T10:45:42.300Z","","","","","","ControlQ","","","","","","","","","","","","","","","","","","","","","","","","","","","","","","","","","","","","","","50"
"2162","","<div style=""width:500px;"">
  <p>How would you describe your current emotional state?</p>
  </div>","39","html-slider-response","57","1398487","0.0-10.0-3.3","157","1","2025-07-02 10:22:02","80fe4187154257d5fb01684ea91b68b9","87.20.147.48","Mozilla/5.0 (Windows NT 10.0; Win64; x64) AppleWebKit/537.36 (KHTML, like Gecko) Chrome/137.0.0.0 Safari/537.36","WebKit","Chrome","137.0.0.0","Windows","10.0","https://app.prolific.com/","it-IT,it;q=0.9,en-US;q=0.8,en;q=0.7","672f7b856c1ce6995a666bc6","683db6dfa200031b80f2a654","6865075e22783478d75616c5","672f7b856c1ce6995a666bc6","2025-07-02T10:45:44.465Z","","","","","","StressQ","","","","","","","","","","","","","","","","","","","","","","","","","","","","","","","","","","","","","","50"
"2096","","<div style=""width:500px;"">
  <p>What best describes how you currently feel?</p>
  </div>","71","html-slider-response","58","1400586","0.0-10.0-4.3","157","1","2025-07-02 10:22:02","80fe4187154257d5fb01684ea91b68b9","87.20.147.48","Mozilla/5.0 (Windows NT 10.0; Win64; x64) AppleWebKit/537.36 (KHTML, like Gecko) Chrome/137.0.0.0 Safari/537.36","WebKit","Chrome","137.0.0.0","Windows","10.0","https://app.prolific.com/","it-IT,it;q=0.9,en-US;q=0.8,en;q=0.7","672f7b856c1ce6995a666bc6","683db6dfa200031b80f2a654","6865075e22783478d75616c5","672f7b856c1ce6995a666bc6","2025-07-02T10:45:46.564Z","","","","","","MotivationQ","","","","","","","","","","","","","","","","","","","","","","","","","","","","","","","","","","","","","","50"
"","","","","ctl-task-cpt","59","1441122","0.0-10.0-0.4","157","1","2025-07-02 10:22:02","80fe4187154257d5fb01684ea91b68b9","87.20.147.48","Mozilla/5.0 (Windows NT 10.0; Win64; x64) AppleWebKit/537.36 (KHTML, like Gecko) Chrome/137.0.0.0 Safari/537.36","WebKit","Chrome","137.0.0.0","Windows","10.0","https://app.prolific.com/","it-IT,it;q=0.9,en-US;q=0.8,en;q=0.7","672f7b856c1ce6995a666bc6","683db6dfa200031b80f2a654","6865075e22783478d75616c5","672f7b856c1ce6995a666bc6","2025-07-02T10:46:27.100Z","","","","","","","","","","","","","","","","win-only","0","g1:NW,g2:SE","0.6","5","0","1425447.7","1367.9","6371.5","37515.9","1","4","8","6","2","-8","-8","4","12","0.030303030303030304","981.1","3000","-3010","[""down"",""right""]","{""num_key_presses"":7,""num_perfect"":4,""num_errors"":0,""num_randdir"":3,""num_randdir_good_moves"":2,""num_whilered"":0,""num_whileblue"":0,""num_blue"":3,""num_good_moves"":6}","[416.5714133126395,407.82142761775424,0.2,416.5714133126395,407.82142761775424,102.6,417.8214133126395,407.82142761775424,202.6,457.8214133126395,362.82142761775424,303.4,461.5714133126395,346.57142761775424,407.4,496.5714133126395,330.32142761775424,507.6,690.3214133126395,362.82142761775424,608.4,807.8214133126395,522.8214276177542,708.6,777.8214133126395,665.3214276177542,812.5,769.0714133126395,701.5714276177542,912.6,776.5714133126395,722.8214276177542,1013.1,775.3214133126395,722.8214276177542,1113.6,776.5714133126395,720.3214276177542,1218.7,847.8214133126395,614.0714276177542,1318.9,1001.5714133126395,492.82142761775424,1423.1,1126.5714133126396,407.82142761775424,1523.1,1120.3214133126396,400.32142761775424,1627.6,1056.5714133126396,412.82142761775424,1728,1017.8214133126395,427.82142761775424,1832.9,1000.3214133126395,440.32142761775424,1940.4,947.8214133126395,481.57142761775424,2042.8,834.0714133126395,539.0714276177542,2143.4,800.3214133126395,549.0714276177542,2244,800.3214133126395,549.0714276177542,2348,797.8214133126395,541.5714276177542,2448.3,789.0714133126395,536.5714276177542,2552.8,785.3214133126395,532.8214276177542,2657.4,800.3214133126395,509.07142761775424,2757.4,819.0714133126395,494.07142761775424,2857.8,819.0714133126395,494.07142761775424,2959.1,819.0714133126395,494.07142761775424,3064.5,819.0714133126395,494.07142761775424,3168.7,819.0714133126395,494.07142761775424,3273.2,819.0714133126395,494.07142761775424,3377.6,819.0714133126395,494.07142761775424,3478.8,819.0714133126395,494.07142761775424,3583.8,819.0714133126395,494.07142761775424,3688.4,819.0714133126395,494.07142761775424,3793.2,819.0714133126395,494.07142761775424,3893.2,819.0714133126395,494.07142761775424,3997.6,819.0714133126395,494.07142761775424,4097.8,819.0714133126395,494.07142761775424,4198.7,819.0714133126395,494.07142761775424,4298.8,819.0714133126395,494.07142761775424,4402.6,819.0714133126395,494.07142761775424,4503.7,819.0714133126395,494.07142761775424,4608.1,819.0714133126395,494.07142761775424,4712.3,819.0714133126395,494.07142761775424,4812.9,819.0714133126395,494.07142761775424,4918.5]","[1432.3,1432.3,1000,0,432.3,""oops"",""right"",""right"",""good_move"",8106.7,6673.7,2912,4865,329.7,""smooth"",""down"",""down"",""good_move"",13532.4,5424.9,2293.4,10794.9,444.1,""oops"",""down"",""down"",""good_move"",17036.7,3504.2,3126.6,13532.6,377.5,""smooth"",""right"",""right"",""good_move"",19903.4,2866.4,2325.4,17037,541,""smooth"",""down"",""down"",""good_move"",26024.2,6119.9,2738.1,22994.9,291.2,""oops"",""right"",""up"",""bad_move"",28833.8,2809.3,2491.8,26024.5,317.5,""smooth"",""down"",""down"",""good_move""]","",""
"2133","","<div style=""width:500px;"">
  <p>What determined the result of this run?</p>
  </div>","40","html-slider-response","60","1443256","0.0-10.0-1.4","157","1","2025-07-02 10:22:02","80fe4187154257d5fb01684ea91b68b9","87.20.147.48","Mozilla/5.0 (Windows NT 10.0; Win64; x64) AppleWebKit/537.36 (KHTML, like Gecko) Chrome/137.0.0.0 Safari/537.36","WebKit","Chrome","137.0.0.0","Windows","10.0","https://app.prolific.com/","it-IT,it;q=0.9,en-US;q=0.8,en;q=0.7","672f7b856c1ce6995a666bc6","683db6dfa200031b80f2a654","6865075e22783478d75616c5","672f7b856c1ce6995a666bc6","2025-07-02T10:46:29.235Z","","","","","","AttribQ","","","","","","","","","","","","","","","","","","","","","","","","","","","","","","","","","","","","","","50"
"3523","","<div style=""width:500px;"">
  <p>How much control did you have over the ball?</p>
  </div>","42","html-slider-response","61","1446781","0.0-10.0-2.4","157","1","2025-07-02 10:22:02","80fe4187154257d5fb01684ea91b68b9","87.20.147.48","Mozilla/5.0 (Windows NT 10.0; Win64; x64) AppleWebKit/537.36 (KHTML, like Gecko) Chrome/137.0.0.0 Safari/537.36","WebKit","Chrome","137.0.0.0","Windows","10.0","https://app.prolific.com/","it-IT,it;q=0.9,en-US;q=0.8,en;q=0.7","672f7b856c1ce6995a666bc6","683db6dfa200031b80f2a654","6865075e22783478d75616c5","672f7b856c1ce6995a666bc6","2025-07-02T10:46:32.759Z","","","","","","ControlQ","","","","","","","","","","","","","","","","","","","","","","","","","","","","","","","","","","","","","","50"
"2501","","<div style=""width:500px;"">
  <p>How would you describe your current emotional state?</p>
  </div>","54","html-slider-response","62","1449283","0.0-10.0-3.4","157","1","2025-07-02 10:22:02","80fe4187154257d5fb01684ea91b68b9","87.20.147.48","Mozilla/5.0 (Windows NT 10.0; Win64; x64) AppleWebKit/537.36 (KHTML, like Gecko) Chrome/137.0.0.0 Safari/537.36","WebKit","Chrome","137.0.0.0","Windows","10.0","https://app.prolific.com/","it-IT,it;q=0.9,en-US;q=0.8,en;q=0.7","672f7b856c1ce6995a666bc6","683db6dfa200031b80f2a654","6865075e22783478d75616c5","672f7b856c1ce6995a666bc6","2025-07-02T10:46:35.261Z","","","","","","StressQ","","","","","","","","","","","","","","","","","","","","","","","","","","","","","","","","","","","","","","50"
"1770","","<div style=""width:500px;"">
  <p>What best describes how you currently feel?</p>
  </div>","68","html-slider-response","63","1451054","0.0-10.0-4.4","157","1","2025-07-02 10:22:02","80fe4187154257d5fb01684ea91b68b9","87.20.147.48","Mozilla/5.0 (Windows NT 10.0; Win64; x64) AppleWebKit/537.36 (KHTML, like Gecko) Chrome/137.0.0.0 Safari/537.36","WebKit","Chrome","137.0.0.0","Windows","10.0","https://app.prolific.com/","it-IT,it;q=0.9,en-US;q=0.8,en;q=0.7","672f7b856c1ce6995a666bc6","683db6dfa200031b80f2a654","6865075e22783478d75616c5","672f7b856c1ce6995a666bc6","2025-07-02T10:46:37.032Z","","","","","","MotivationQ","","","","","","","","","","","","","","","","","","","","","","","","","","","","","","","","","","","","","","50"
"","","","","ctl-task-cpt","64","1502934","0.0-10.0-0.5","157","1","2025-07-02 10:22:02","80fe4187154257d5fb01684ea91b68b9","87.20.147.48","Mozilla/5.0 (Windows NT 10.0; Win64; x64) AppleWebKit/537.36 (KHTML, like Gecko) Chrome/137.0.0.0 Safari/537.36","WebKit","Chrome","137.0.0.0","Windows","10.0","https://app.prolific.com/","it-IT,it;q=0.9,en-US;q=0.8,en;q=0.7","672f7b856c1ce6995a666bc6","683db6dfa200031b80f2a654","6865075e22783478d75616c5","672f7b856c1ce6995a666bc6","2025-07-02T10:47:28.912Z","","","","","","","","","","","","","","","","win-only","2","g1:SE,g2:NW","0.5","6","0","1475916.4","890.4","5892","48860.8","1","4","4","6","2","-4","-4","0","4","0","976.4","3000","-2995","[""left"",""up""]","{""num_key_presses"":9,""num_perfect"":4,""num_errors"":0,""num_randdir"":5,""num_randdir_good_moves"":2,""num_whilered"":0,""num_whileblue"":0,""num_blue"":4,""num_good_moves"":6}","[430.3214133126395,416.57142761775424,0.1,427.8214133126395,416.57142761775424,108.5,427.8214133126395,416.57142761775424,211.1,427.8214133126395,416.57142761775424,311.8,390.3214133126395,416.57142761775424,415.7,150.3214133126395,249.07142761775424,516.2,105.3214133126395,191.57142761775424,620.2,101.5714133126395,150.32142761775424,721.7,104.0714133126395,111.57142761775425,825.1,99.0714133126395,90.32142761775425,926,99.0714133126395,87.82142761775425,1028,99.0714133126395,101.57142761775425,1131.6,130.3214133126395,145.32142761775424,1233.6,335.3214133126395,271.57142761775424,1337,521.5714133126395,355.32142761775424,1441,747.8214133126395,405.32142761775424,1548.1,820.3214133126395,394.07142761775424,1651.1,886.5714133126395,380.32142761775424,1755.7,891.5714133126395,376.57142761775424,1856.4,949.0714133126395,370.32142761775424,1956.7,956.5714133126395,370.32142761775424,2060.4,956.5714133126395,370.32142761775424,2161.1,956.5714133126395,370.32142761775424,2265.6,956.5714133126395,370.32142761775424,2371.2,955.3214133126395,370.32142761775424,2475.7,951.5714133126395,371.57142761775424,2581.2,946.5714133126395,375.32142761775424,2685.5,942.8214133126395,377.82142761775424,2790.7,942.8214133126395,379.07142761775424,2895,945.3214133126395,381.57142761775424,2995.7,946.5714133126395,384.07142761775424,3096.3,946.5714133126395,384.07142761775424,3200,946.5714133126395,384.07142761775424,3300.3,946.5714133126395,384.07142761775424,3400.5,946.5714133126395,384.07142761775424,3500.5,946.5714133126395,384.07142761775424,3601.3,946.5714133126395,384.07142761775424,3705.9,946.5714133126395,384.07142761775424,3811.1,946.5714133126395,384.07142761775424,3912,946.5714133126395,384.07142761775424,4012.2,946.5714133126395,384.07142761775424,4116.5,940.3214133126395,386.57142761775424,4219.4,931.5714133126395,392.82142761775424,4320,925.3214133126395,397.82142761775424,4420.5,915.3214133126395,406.57142761775424,4522.1,907.8214133126395,410.32142761775424,4625.8,901.5714133126395,414.07142761775424,4727,897.8214133126395,416.57142761775424,4829.9,897.8214133126395,417.82142761775424,4935.7]","[1370.1,1370.1,1000,0,370.1,""smooth"",""up"",""up"",""good_move"",11679.9,10309.7,2801.3,8569.3,309.3,""smooth"",""left"",""left"",""good_move"",14861.4,3181.2,2806.7,11680.2,374.5,""oops"",""up"",""left"",""good_move"",17827,2965.5,2662.8,14861.5,302.7,""oops"",""up"",""left"",""good_move"",21166.5,3338.6,3019.2,17827.9,319.4,""oops"",""up"",""down"",""bad_move"",24437.7,3271,2975.4,21166.7,295.6,""smooth"",""up"",""up"",""good_move"",30268.8,5830.7,2442.1,27570,256.7,""oops"",""up"",""down"",""bad_move"",37404.9,7135.7,3363.4,33720.5,321,""oops"",""up"",""down"",""bad_move"",40098.3,2693,2231.7,37405.3,461.3,""smooth"",""up"",""up"",""good_move""]","",""
"5023","","<div style=""width:500px;"">
  <p>What determined the result of this run?</p>
  </div>","20","html-slider-response","65","1507959","0.0-10.0-1.5","157","1","2025-07-02 10:22:02","80fe4187154257d5fb01684ea91b68b9","87.20.147.48","Mozilla/5.0 (Windows NT 10.0; Win64; x64) AppleWebKit/537.36 (KHTML, like Gecko) Chrome/137.0.0.0 Safari/537.36","WebKit","Chrome","137.0.0.0","Windows","10.0","https://app.prolific.com/","it-IT,it;q=0.9,en-US;q=0.8,en;q=0.7","672f7b856c1ce6995a666bc6","683db6dfa200031b80f2a654","6865075e22783478d75616c5","672f7b856c1ce6995a666bc6","2025-07-02T10:47:33.937Z","","","","","","AttribQ","","","","","","","","","","","","","","","","","","","","","","","","","","","","","","","","","","","","","","50"
"3139","","<div style=""width:500px;"">
  <p>How much control did you have over the ball?</p>
  </div>","15","html-slider-response","66","1511101","0.0-10.0-2.5","157","1","2025-07-02 10:22:02","80fe4187154257d5fb01684ea91b68b9","87.20.147.48","Mozilla/5.0 (Windows NT 10.0; Win64; x64) AppleWebKit/537.36 (KHTML, like Gecko) Chrome/137.0.0.0 Safari/537.36","WebKit","Chrome","137.0.0.0","Windows","10.0","https://app.prolific.com/","it-IT,it;q=0.9,en-US;q=0.8,en;q=0.7","672f7b856c1ce6995a666bc6","683db6dfa200031b80f2a654","6865075e22783478d75616c5","672f7b856c1ce6995a666bc6","2025-07-02T10:47:37.079Z","","","","","","ControlQ","","","","","","","","","","","","","","","","","","","","","","","","","","","","","","","","","","","","","","50"
"2634","","<div style=""width:500px;"">
  <p>How would you describe your current emotional state?</p>
  </div>","64","html-slider-response","67","1513738","0.0-10.0-3.5","157","1","2025-07-02 10:22:02","80fe4187154257d5fb01684ea91b68b9","87.20.147.48","Mozilla/5.0 (Windows NT 10.0; Win64; x64) AppleWebKit/537.36 (KHTML, like Gecko) Chrome/137.0.0.0 Safari/537.36","WebKit","Chrome","137.0.0.0","Windows","10.0","https://app.prolific.com/","it-IT,it;q=0.9,en-US;q=0.8,en;q=0.7","672f7b856c1ce6995a666bc6","683db6dfa200031b80f2a654","6865075e22783478d75616c5","672f7b856c1ce6995a666bc6","2025-07-02T10:47:39.716Z","","","","","","StressQ","","","","","","","","","","","","","","","","","","","","","","","","","","","","","","","","","","","","","","50"
"2144","","<div style=""width:500px;"">
  <p>What best describes how you currently feel?</p>
  </div>","65","html-slider-response","68","1515884","0.0-10.0-4.5","157","1","2025-07-02 10:22:02","80fe4187154257d5fb01684ea91b68b9","87.20.147.48","Mozilla/5.0 (Windows NT 10.0; Win64; x64) AppleWebKit/537.36 (KHTML, like Gecko) Chrome/137.0.0.0 Safari/537.36","WebKit","Chrome","137.0.0.0","Windows","10.0","https://app.prolific.com/","it-IT,it;q=0.9,en-US;q=0.8,en;q=0.7","672f7b856c1ce6995a666bc6","683db6dfa200031b80f2a654","6865075e22783478d75616c5","672f7b856c1ce6995a666bc6","2025-07-02T10:47:41.862Z","","","","","","MotivationQ","","","","","","","","","","","","","","","","","","","","","","","","","","","","","","","","","","","","","","50"
"","","","","ctl-task-cpt","69","1553177","0.0-10.0-0.6","157","1","2025-07-02 10:22:02","80fe4187154257d5fb01684ea91b68b9","87.20.147.48","Mozilla/5.0 (Windows NT 10.0; Win64; x64) AppleWebKit/537.36 (KHTML, like Gecko) Chrome/137.0.0.0 Safari/537.36","WebKit","Chrome","137.0.0.0","Windows","10.0","https://app.prolific.com/","it-IT,it;q=0.9,en-US;q=0.8,en;q=0.7","672f7b856c1ce6995a666bc6","683db6dfa200031b80f2a654","6865075e22783478d75616c5","672f7b856c1ce6995a666bc6","2025-07-02T10:48:19.155Z","","","","","","","","","","","","","","","","win-only","2","g1:SE,g2:NW","0.4","7","0","1540746.5","1302.6","6307.8","34271.8","1","4","8","6","2","-8","-8","0","0","0","1601.1","3000","-3000","[""left"",""up""]","{""num_key_presses"":8,""num_perfect"":3,""num_errors"":0,""num_randdir"":5,""num_randdir_good_moves"":1,""num_whilered"":0,""num_whileblue"":0,""num_blue"":2,""num_good_moves"":4}","[420.3214133126395,421.57142761775424,0.5,420.3214133126395,421.57142761775424,102.8,420.3214133126395,421.57142761775424,203.3,420.3214133126395,421.57142761775424,303.3,420.3214133126395,421.57142761775424,403.4,424.0714133126395,424.07142761775424,505.4,477.8214133126395,491.57142761775424,610.7,436.5714133126395,446.57142761775424,716.2,92.8214133126395,96.57142761775425,817.9,55.32141331263951,41.57142761775425,918,56.57141331263951,46.57142761775425,1018.3,60.32141331263951,54.07142761775425,1118.3,60.32141331263951,55.32142761775425,1218.3,62.82141331263951,57.82142761775425,1318.4,62.82141331263951,57.82142761775425,1419.7,62.82141331263951,57.82142761775425,1524,62.82141331263951,57.82142761775425,1629.8,62.82141331263951,57.82142761775425,1732.7,140.3214133126395,140.32142761775424,1833.7,491.5714133126395,339.07142761775424,1940.6,742.8214133126395,381.57142761775424,2043.3,881.5714133126395,381.57142761775424,2144.9,916.5714133126395,376.57142761775424,2245.1,944.0714133126395,376.57142761775424,2350.2,944.0714133126395,376.57142761775424,2454.1,944.0714133126395,376.57142761775424,2554.2,944.0714133126395,376.57142761775424,2655.8,941.5714133126395,374.07142761775424,2759,957.8214133126395,369.07142761775424,2860.3,977.8214133126395,364.07142761775424,2963.2,977.8214133126395,364.07142761775424,3063.2,977.8214133126395,364.07142761775424,3163.6,977.8214133126395,364.07142761775424,3263.9,977.8214133126395,364.07142761775424,3368.3,977.8214133126395,364.07142761775424,3470,977.8214133126395,364.07142761775424,3575.9,976.5714133126395,364.07142761775424,3680.1,976.5714133126395,364.07142761775424,3783,976.5714133126395,364.07142761775424,3884.2,974.0714133126395,365.32142761775424,3988.7,974.0714133126395,365.32142761775424,4092.6,974.0714133126395,365.32142761775424,4211.4,974.0714133126395,365.32142761775424,4314.3,972.8214133126395,366.57142761775424,4419.9,972.8214133126395,366.57142761775424,4524,972.8214133126395,366.57142761775424,4629.5,972.8214133126395,366.57142761775424,4733.6,972.8214133126395,366.57142761775424,4838.2,972.8214133126395,366.57142761775424,4939.4]","[1328.2,1328.2,1000,0,328.2,""oops"",""left"",""right"",""bad_move"",3655.7,2326.7,1832,1329,494.7,""smooth"",""up"",""up"",""good_move"",8491.8,4835.2,2143.3,5998.2,350.3,""oops"",""left"",""right"",""bad_move"",11548.3,3056,2728.9,8492.3,327.1,""smooth"",""up"",""up"",""good_move"",14309.8,2760.4,2367.1,11549.6,393.2,""smooth"",""up"",""up"",""good_move"",19500.6,5190.3,1657.9,17518.4,324.3,""oops"",""left"",""left"",""good_move"",21837.7,2336.1,2023.9,19501.6,312.2,""oops"",""left"",""down"",""bad_move"",24787.3,2948.6,2660.6,21838.7,288,""oops"",""left"",""down"",""bad_move""]","",""
"2845","","<div style=""width:500px;"">
  <p>What determined the result of this run?</p>
  </div>","21","html-slider-response","70","1556023","0.0-10.0-1.6","157","1","2025-07-02 10:22:02","80fe4187154257d5fb01684ea91b68b9","87.20.147.48","Mozilla/5.0 (Windows NT 10.0; Win64; x64) AppleWebKit/537.36 (KHTML, like Gecko) Chrome/137.0.0.0 Safari/537.36","WebKit","Chrome","137.0.0.0","Windows","10.0","https://app.prolific.com/","it-IT,it;q=0.9,en-US;q=0.8,en;q=0.7","672f7b856c1ce6995a666bc6","683db6dfa200031b80f2a654","6865075e22783478d75616c5","672f7b856c1ce6995a666bc6","2025-07-02T10:48:22.001Z","","","","","","AttribQ","","","","","","","","","","","","","","","","","","","","","","","","","","","","","","","","","","","","","","50"
"3449","","<div style=""width:500px;"">
  <p>How much control did you have over the ball?</p>
  </div>","20","html-slider-response","71","1559475","0.0-10.0-2.6","157","1","2025-07-02 10:22:02","80fe4187154257d5fb01684ea91b68b9","87.20.147.48","Mozilla/5.0 (Windows NT 10.0; Win64; x64) AppleWebKit/537.36 (KHTML, like Gecko) Chrome/137.0.0.0 Safari/537.36","WebKit","Chrome","137.0.0.0","Windows","10.0","https://app.prolific.com/","it-IT,it;q=0.9,en-US;q=0.8,en;q=0.7","672f7b856c1ce6995a666bc6","683db6dfa200031b80f2a654","6865075e22783478d75616c5","672f7b856c1ce6995a666bc6","2025-07-02T10:48:25.453Z","","","","","","ControlQ","","","","","","","","","","","","","","","","","","","","","","","","","","","","","","","","","","","","","","50"
"2569","","<div style=""width:500px;"">
  <p>How would you describe your current emotional state?</p>
  </div>","67","html-slider-response","72","1562046","0.0-10.0-3.6","157","1","2025-07-02 10:22:02","80fe4187154257d5fb01684ea91b68b9","87.20.147.48","Mozilla/5.0 (Windows NT 10.0; Win64; x64) AppleWebKit/537.36 (KHTML, like Gecko) Chrome/137.0.0.0 Safari/537.36","WebKit","Chrome","137.0.0.0","Windows","10.0","https://app.prolific.com/","it-IT,it;q=0.9,en-US;q=0.8,en;q=0.7","672f7b856c1ce6995a666bc6","683db6dfa200031b80f2a654","6865075e22783478d75616c5","672f7b856c1ce6995a666bc6","2025-07-02T10:48:28.024Z","","","","","","StressQ","","","","","","","","","","","","","","","","","","","","","","","","","","","","","","","","","","","","","","50"
"2406","","<div style=""width:500px;"">
  <p>What best describes how you currently feel?</p>
  </div>","31","html-slider-response","73","1564454","0.0-10.0-4.6","157","1","2025-07-02 10:22:02","80fe4187154257d5fb01684ea91b68b9","87.20.147.48","Mozilla/5.0 (Windows NT 10.0; Win64; x64) AppleWebKit/537.36 (KHTML, like Gecko) Chrome/137.0.0.0 Safari/537.36","WebKit","Chrome","137.0.0.0","Windows","10.0","https://app.prolific.com/","it-IT,it;q=0.9,en-US;q=0.8,en;q=0.7","672f7b856c1ce6995a666bc6","683db6dfa200031b80f2a654","6865075e22783478d75616c5","672f7b856c1ce6995a666bc6","2025-07-02T10:48:30.432Z","","","","","","MotivationQ","","","","","","","","","","","","","","","","","","","","","","","","","","","","","","","","","","","","","","50"
"","","","","ctl-task-cpt","74","1606213","0.0-10.0-0.7","157","1","2025-07-02 10:22:02","80fe4187154257d5fb01684ea91b68b9","87.20.147.48","Mozilla/5.0 (Windows NT 10.0; Win64; x64) AppleWebKit/537.36 (KHTML, like Gecko) Chrome/137.0.0.0 Safari/537.36","WebKit","Chrome","137.0.0.0","Windows","10.0","https://app.prolific.com/","it-IT,it;q=0.9,en-US;q=0.8,en;q=0.7","672f7b856c1ce6995a666bc6","683db6dfa200031b80f2a654","6865075e22783478d75616c5","672f7b856c1ce6995a666bc6","2025-07-02T10:49:12.191Z","","","","","","","","","","","","","","","","win-only","3","g1:SW,g2:NE","0.3","8","0","1589313.8","789","5791.4","38740.5","1","4","4","6","2","-4","-5","0","0","0","1383.2","3000","-2990","[""up"",""right""]","{""num_key_presses"":10,""num_perfect"":3,""num_errors"":1,""num_randdir"":6,""num_randdir_good_moves"":3,""num_whilered"":0,""num_whileblue"":1,""num_blue"":2,""num_good_moves"":6}","[426.5714133126395,412.82142761775424,0.1,426.5714133126395,412.82142761775424,101.7,426.5714133126395,412.82142761775424,207,426.5714133126395,412.82142761775424,312.9,426.5714133126395,412.82142761775424,416.2,426.5714133126395,412.82142761775424,516.9,424.0714133126395,412.82142761775424,616.9,429.0714133126395,399.07142761775424,722.5,437.8214133126395,372.82142761775424,822.6,440.3214133126395,366.57142761775424,923.4,625.3214133126395,246.57142761775424,1027.9,735.3214133126395,157.82142761775424,1133.2,757.8214133126395,81.57142761775425,1233.8,779.0714133126395,51.57142761775425,1338.2,780.3214133126395,50.32142761775425,1442.4,781.5714133126395,50.32142761775425,1547.2,781.5714133126395,50.32142761775425,1647.9,781.5714133126395,51.57142761775425,1752.6,780.3214133126395,57.82142761775425,1857.3,780.3214133126395,61.57142761775425,1958.3,779.0714133126395,69.07142761775425,2062.7,779.0714133126395,69.07142761775425,2166.3,779.0714133126395,69.07142761775425,2267.6,779.0714133126395,69.07142761775425,2368,777.8214133126395,69.07142761775425,2471.8,776.5714133126395,69.07142761775425,2573.5,776.5714133126395,79.07142761775425,2679,776.5714133126395,80.32142761775425,2781.7,776.5714133126395,86.57142761775425,2882,779.0714133126395,111.57142761775425,2982.2,786.5714133126395,126.57142761775425,3086.3,789.0714133126395,127.82142761775425,3187.4,791.5714133126395,129.07142761775424,3292.2,794.0714133126395,137.82142761775424,3392.2,794.0714133126395,137.82142761775424,3497.7,794.0714133126395,137.82142761775424,3602,792.8214133126395,137.82142761775424,3706.5,792.8214133126395,137.82142761775424,3808.1,792.8214133126395,137.82142761775424,3914.5,791.5714133126395,140.32142761775424,4016.5,791.5714133126395,140.32142761775424,4122.3,791.5714133126395,140.32142761775424,4227.4,791.5714133126395,140.32142761775424,4331.2,791.5714133126395,140.32142761775424,4431.6,790.3214133126395,145.32142761775424,4532.2,790.3214133126395,146.57142761775424,4637.3,786.5714133126395,151.57142761775424,4742.3,772.8214133126395,165.32142761775424,4846.7,770.3214133126395,170.32142761775424,4947.5]","[5346.7,5346.7,2944.8,2005.2,396.7,""smooth"",""right"",""right"",""good_move"",8256.4,2908.8,2597.9,5347.6,310.9,""smooth"",""up"",""up"",""good_move"",11409.8,3153,2781.9,8256.8,371.1,""oops"",""right"",""left"",""bad_move"",13973.1,2563.2,2309.5,11409.9,253.7,""smooth"",""up"",""up"",""good_move"",17078,3104.5,2788.1,13973.5,316.4,""oops"",""up"",""down"",""bad_move"",20777.4,3698.7,3392.2,17078.7,306.5,""oops"",""right"",""left"",""bad_move"",22834.3,2056.6,1754.7,20777.7,301.9,""oops"",""up"",""up"",""good_move"",25376.1,2541.2,2247.2,22834.9,294,""oops"",""up"",""right"",""good_move"",28087.8,2711.3,2426.7,25376.5,284.6,""oops"",""up"",""up"",""good_move"",30697.6,2609.5,2350.9,28088.1,258.6,""while_blue"",""right"",""left"",""bad_move""]","",""
"4806","","<div style=""width:500px;"">
  <p>What determined the result of this run?</p>
  </div>","28","html-slider-response","75","1611022","0.0-10.0-1.7","157","1","2025-07-02 10:22:02","80fe4187154257d5fb01684ea91b68b9","87.20.147.48","Mozilla/5.0 (Windows NT 10.0; Win64; x64) AppleWebKit/537.36 (KHTML, like Gecko) Chrome/137.0.0.0 Safari/537.36","WebKit","Chrome","137.0.0.0","Windows","10.0","https://app.prolific.com/","it-IT,it;q=0.9,en-US;q=0.8,en;q=0.7","672f7b856c1ce6995a666bc6","683db6dfa200031b80f2a654","6865075e22783478d75616c5","672f7b856c1ce6995a666bc6","2025-07-02T10:49:17.000Z","","","","","","AttribQ","","","","","","","","","","","","","","","","","","","","","","","","","","","","","","","","","","","","","","50"
"1855","","<div style=""width:500px;"">
  <p>How much control did you have over the ball?</p>
  </div>","24","html-slider-response","76","1612880","0.0-10.0-2.7","157","1","2025-07-02 10:22:02","80fe4187154257d5fb01684ea91b68b9","87.20.147.48","Mozilla/5.0 (Windows NT 10.0; Win64; x64) AppleWebKit/537.36 (KHTML, like Gecko) Chrome/137.0.0.0 Safari/537.36","WebKit","Chrome","137.0.0.0","Windows","10.0","https://app.prolific.com/","it-IT,it;q=0.9,en-US;q=0.8,en;q=0.7","672f7b856c1ce6995a666bc6","683db6dfa200031b80f2a654","6865075e22783478d75616c5","672f7b856c1ce6995a666bc6","2025-07-02T10:49:18.858Z","","","","","","ControlQ","","","","","","","","","","","","","","","","","","","","","","","","","","","","","","","","","","","","","","50"
"2501","","<div style=""width:500px;"">
  <p>How would you describe your current emotional state?</p>
  </div>","66","html-slider-response","77","1615383","0.0-10.0-3.7","157","1","2025-07-02 10:22:02","80fe4187154257d5fb01684ea91b68b9","87.20.147.48","Mozilla/5.0 (Windows NT 10.0; Win64; x64) AppleWebKit/537.36 (KHTML, like Gecko) Chrome/137.0.0.0 Safari/537.36","WebKit","Chrome","137.0.0.0","Windows","10.0","https://app.prolific.com/","it-IT,it;q=0.9,en-US;q=0.8,en;q=0.7","672f7b856c1ce6995a666bc6","683db6dfa200031b80f2a654","6865075e22783478d75616c5","672f7b856c1ce6995a666bc6","2025-07-02T10:49:21.361Z","","","","","","StressQ","","","","","","","","","","","","","","","","","","","","","","","","","","","","","","","","","","","","","","50"
"2518","","<div style=""width:500px;"">
  <p>What best describes how you currently feel?</p>
  </div>","26","html-slider-response","78","1617903","0.0-10.0-4.7","157","1","2025-07-02 10:22:02","80fe4187154257d5fb01684ea91b68b9","87.20.147.48","Mozilla/5.0 (Windows NT 10.0; Win64; x64) AppleWebKit/537.36 (KHTML, like Gecko) Chrome/137.0.0.0 Safari/537.36","WebKit","Chrome","137.0.0.0","Windows","10.0","https://app.prolific.com/","it-IT,it;q=0.9,en-US;q=0.8,en;q=0.7","672f7b856c1ce6995a666bc6","683db6dfa200031b80f2a654","6865075e22783478d75616c5","672f7b856c1ce6995a666bc6","2025-07-02T10:49:23.881Z","","","","","","MotivationQ","","","","","","","","","","","","","","","","","","","","","","","","","","","","","","","","","","","","","","50"
"","","","","ctl-task-cpt","79","1649306","0.0-10.0-0.8","157","1","2025-07-02 10:22:02","80fe4187154257d5fb01684ea91b68b9","87.20.147.48","Mozilla/5.0 (Windows NT 10.0; Win64; x64) AppleWebKit/537.36 (KHTML, like Gecko) Chrome/137.0.0.0 Safari/537.36","WebKit","Chrome","137.0.0.0","Windows","10.0","https://app.prolific.com/","it-IT,it;q=0.9,en-US;q=0.8,en;q=0.7","672f7b856c1ce6995a666bc6","683db6dfa200031b80f2a654","6865075e22783478d75616c5","672f7b856c1ce6995a666bc6","2025-07-02T10:49:55.284Z","","","","","","","","","","","","","","","","win-only","0","g1:NW,g2:SE","0.4","9","0","1642764.1","2630.6","7632.4","28380.8","1","4","4","6","1","1","-2","0","0","0","1511.7","3000","1150","[""left"",""up""]","{""num_key_presses"":8,""num_perfect"":3,""num_errors"":3,""num_randdir"":2,""num_randdir_good_moves"":0,""num_whilered"":0,""num_whileblue"":3,""num_blue"":3,""num_good_moves"":6}","[419.0714133126395,406.57142761775424,0.2,419.0714133126395,406.57142761775424,100.1,419.0714133126395,406.57142761775424,200.7,419.0714133126395,406.57142761775424,305,431.5714133126395,396.57142761775424,405.3,529.0714133126395,351.57142761775424,506.3,670.3214133126395,516.5714276177542,607.4,719.0714133126395,604.0714276177542,710,719.0714133126395,616.5714276177542,810.9,690.3214133126395,611.5714276177542,915.1,287.8214133126395,255.32142761775424,1015.3,220.3214133126395,161.57142761775424,1115.8,192.8214133126395,142.82142761775424,1220.3,135.3214133126395,116.57142761775425,1320.3,101.5714133126395,86.57142761775425,1427,101.5714133126395,86.57142761775425,1531.1,101.5714133126395,86.57142761775425,1636.3,296.5714133126395,276.57142761775424,1740.9,751.5714133126395,401.57142761775424,1840.9,954.0714133126395,371.57142761775424,1941.5,1007.8214133126395,347.82142761775424,2045.4,1007.8214133126395,347.82142761775424,2150.1,1007.8214133126395,347.82142761775424,2256.4,1007.8214133126395,347.82142761775424,2360.5,1007.8214133126395,347.82142761775424,2465.4,1007.8214133126395,347.82142761775424,2565.7,1007.8214133126395,347.82142761775424,2672.9,1007.8214133126395,347.82142761775424,2775.8,1007.8214133126395,347.82142761775424,2876.7,1007.8214133126395,347.82142761775424,2978.3,1007.8214133126395,346.57142761775424,3080.6,996.5714133126395,346.57142761775424,3180.9,995.3214133126395,346.57142761775424,3285.3,989.0714133126395,346.57142761775424,3386.5,986.5714133126395,346.57142761775424,3486.7,986.5714133126395,346.57142761775424,3590.3,986.5714133126395,346.57142761775424,3690.6,986.5714133126395,346.57142761775424,3795.4,981.5714133126395,346.57142761775424,3900.5,981.5714133126395,346.57142761775424,4000.5,981.5714133126395,346.57142761775424,4105.2,981.5714133126395,346.57142761775424,4205.3,981.5714133126395,346.57142761775424,4309.9,981.5714133126395,346.57142761775424,4410.7,981.5714133126395,346.57142761775424,4514.9,981.5714133126395,346.57142761775424,4615.4,981.5714133126395,346.57142761775424,4716.2,981.5714133126395,346.57142761775424,4820.5,981.5714133126395,346.57142761775424,4923.5]","[1394.3,1394.3,1000,0,394.3,""smooth"",""up"",""up"",""good_move"",5081.3,3686.4,3279.8,1395,406.6,""while_blue"",""left"",""up"",""good_move"",7359.9,2278.3,1868.2,5081.6,410.1,""oops"",""left"",""down"",""bad_move"",10023.6,2662.7,2291.8,7361,370.8,""oops"",""left"",""down"",""bad_move"",12601.5,2577.6,2235.1,10023.9,342.5,""while_blue"",""up"",""left"",""good_move"",15258.5,2656.3,2234,12602.2,422.3,""smooth"",""up"",""up"",""good_move"",17537.2,2278.1,1869.5,15259.1,408.6,""while_blue"",""up"",""left"",""good_move"",20658.7,3121.3,2817.5,17537.4,303.8,""smooth"",""up"",""up"",""good_move""]","",""
"3548","","<div style=""width:500px;"">
  <p>What determined the result of this run?</p>
  </div>","67","html-slider-response","80","1652856","0.0-10.0-1.8","157","1","2025-07-02 10:22:02","80fe4187154257d5fb01684ea91b68b9","87.20.147.48","Mozilla/5.0 (Windows NT 10.0; Win64; x64) AppleWebKit/537.36 (KHTML, like Gecko) Chrome/137.0.0.0 Safari/537.36","WebKit","Chrome","137.0.0.0","Windows","10.0","https://app.prolific.com/","it-IT,it;q=0.9,en-US;q=0.8,en;q=0.7","672f7b856c1ce6995a666bc6","683db6dfa200031b80f2a654","6865075e22783478d75616c5","672f7b856c1ce6995a666bc6","2025-07-02T10:49:58.834Z","","","","","","AttribQ","","","","","","","","","","","","","","","","","","","","","","","","","","","","","","","","","","","","","","50"
"2903","","<div style=""width:500px;"">
  <p>How much control did you have over the ball?</p>
  </div>","58","html-slider-response","81","1655762","0.0-10.0-2.8","157","1","2025-07-02 10:22:02","80fe4187154257d5fb01684ea91b68b9","87.20.147.48","Mozilla/5.0 (Windows NT 10.0; Win64; x64) AppleWebKit/537.36 (KHTML, like Gecko) Chrome/137.0.0.0 Safari/537.36","WebKit","Chrome","137.0.0.0","Windows","10.0","https://app.prolific.com/","it-IT,it;q=0.9,en-US;q=0.8,en;q=0.7","672f7b856c1ce6995a666bc6","683db6dfa200031b80f2a654","6865075e22783478d75616c5","672f7b856c1ce6995a666bc6","2025-07-02T10:50:01.740Z","","","","","","ControlQ","","","","","","","","","","","","","","","","","","","","","","","","","","","","","","","","","","","","","","50"
"4410","","<div style=""width:500px;"">
  <p>How would you describe your current emotional state?</p>
  </div>","60","html-slider-response","82","1660175","0.0-10.0-3.8","157","1","2025-07-02 10:22:02","80fe4187154257d5fb01684ea91b68b9","87.20.147.48","Mozilla/5.0 (Windows NT 10.0; Win64; x64) AppleWebKit/537.36 (KHTML, like Gecko) Chrome/137.0.0.0 Safari/537.36","WebKit","Chrome","137.0.0.0","Windows","10.0","https://app.prolific.com/","it-IT,it;q=0.9,en-US;q=0.8,en;q=0.7","672f7b856c1ce6995a666bc6","683db6dfa200031b80f2a654","6865075e22783478d75616c5","672f7b856c1ce6995a666bc6","2025-07-02T10:50:06.153Z","","","","","","StressQ","","","","","","","","","","","","","","","","","","","","","","","","","","","","","","","","","","","","","","50"
"3180","","<div style=""width:500px;"">
  <p>What best describes how you currently feel?</p>
  </div>","33","html-slider-response","83","1663358","0.0-10.0-4.8","157","1","2025-07-02 10:22:02","80fe4187154257d5fb01684ea91b68b9","87.20.147.48","Mozilla/5.0 (Windows NT 10.0; Win64; x64) AppleWebKit/537.36 (KHTML, like Gecko) Chrome/137.0.0.0 Safari/537.36","WebKit","Chrome","137.0.0.0","Windows","10.0","https://app.prolific.com/","it-IT,it;q=0.9,en-US;q=0.8,en;q=0.7","672f7b856c1ce6995a666bc6","683db6dfa200031b80f2a654","6865075e22783478d75616c5","672f7b856c1ce6995a666bc6","2025-07-02T10:50:09.336Z","","","","","","MotivationQ","","","","","","","","","","","","","","","","","","","","","","","","","","","","","","","","","","","","","","50"
