"rt","response_timestamp","stimulus","response","trial_type","trial_index","time_elapsed","internal_node_id","run_id","condition","recorded_at","source_code_version","ip","user_agent","device","browser","browser_version","platform","platform_version","referer","accept_language","PROLIFIC_PID","STUDY_ID","SESSION_ID","prolific_id","realtime","view_history","question_order","consent","success","question_id","eventType","responses","item_order","radio_event_ids","radio_event_times","key_event_times","mouse_event_times","straightlining","zigzagging","honeypot","which_type","canvas_config","goals_layout","control_level","trial_number","tutorial_trial_number","trial_start_time","phase1_start_time","phase2_start_time","phase3_start_time","goal_1_value","goal_1_distance","goal_2_value","goal_2_distance","goal_selected","outcome","outcome_total","participant_final_score","participant_initial_score","participant_final_score_prop","goal_choice_rt","allocated_time","allocated_time_remaining","goal_direction","counts","mouse_movements","key_presses","correct","slider_start"
"7146","1751451584770","<p style='font-size:40px;line-height:1.25'><strong>Welcome to the experiment!</strong></p><p style='font-size:1.1em;line-height:1.25'>Thank you for your interest in our experiment! Before you begin, it is important that we obtain your informed consent to participate in the study.</p><p style='font-size:1.1em;line-height:1.25'>On the next screen will be an <strong>information sheet</strong> for you to read. To participate in the study we need you to read this information sheet and the following consent form carefully. If you agree with all the statements, please click the <strong>I agree</strong> button.</p><p style='font-size:1.1em;line-height:1.25'>Press <strong>Next</strong> to read the information sheet.</p>","0","custom-html-button-response","0","7151","0.0-0.0","115","1","2025-07-02 10:19:46","80fe4187154257d5fb01684ea91b68b9","41.150.35.137","Mozilla/5.0 (Windows NT 10.0; Win64; x64) AppleWebKit/537.36 (KHTML, like Gecko) Chrome/138.0.0.0 Safari/537.36 Edg/138.0.0.0","WebKit","Edge","138.0.0.0","Windows","10.0","https://app.prolific.com/","en-US,en;q=0.9,en-ZA;q=0.8","673493f39318451e1c97abac","683db6dfa200031b80f2a654","6865076e9de707a5d9defd2b","673493f39318451e1c97abac","2025-07-02T10:19:44.774Z","","","","","","","","","","","","","","","","","","","","","","","","","","","","","","","","","","","","","","","","","","","",""
"59026","","","","instructions","1","66179","0.0-1.0","115","1","2025-07-02 10:19:46","80fe4187154257d5fb01684ea91b68b9","41.150.35.137","Mozilla/5.0 (Windows NT 10.0; Win64; x64) AppleWebKit/537.36 (KHTML, like Gecko) Chrome/138.0.0.0 Safari/537.36 Edg/138.0.0.0","WebKit","Edge","138.0.0.0","Windows","10.0","https://app.prolific.com/","en-US,en;q=0.9,en-ZA;q=0.8","673493f39318451e1c97abac","683db6dfa200031b80f2a654","6865076e9de707a5d9defd2b","673493f39318451e1c97abac","","[{""page_index"":0,""viewing_time"":48091},{""page_index"":1,""viewing_time"":10935}]","","","","","","","","","","","","","","","","","","","","","","","","","","","","","","","","","","","","","","","","","","",""
"26452","","","{""Q0"":"""",""Q1"":"""",""Q2"":"""",""Q3"":"""",""Q4"":"""",""Q5"":"""",""Q6"":""I agree""}","survey-multi-choice","2","92636","0.0-2.0","115","1","2025-07-02 10:19:46","80fe4187154257d5fb01684ea91b68b9","41.150.35.137","Mozilla/5.0 (Windows NT 10.0; Win64; x64) AppleWebKit/537.36 (KHTML, like Gecko) Chrome/138.0.0.0 Safari/537.36 Edg/138.0.0.0","WebKit","Edge","138.0.0.0","Windows","10.0","https://app.prolific.com/","en-US,en;q=0.9,en-ZA;q=0.8","673493f39318451e1c97abac","683db6dfa200031b80f2a654","6865076e9de707a5d9defd2b","673493f39318451e1c97abac","","","[0,1,2,3,4,5,6]","true","","","","","","","","","","","","","","","","","","","","","","","","","","","","","","","","","","","","","","","","",""
"8965","","","","fullscreen","3","102612","0.0-4.0","115","1","2025-07-02 10:19:46","80fe4187154257d5fb01684ea91b68b9","41.150.35.137","Mozilla/5.0 (Windows NT 10.0; Win64; x64) AppleWebKit/537.36 (KHTML, like Gecko) Chrome/138.0.0.0 Safari/537.36 Edg/138.0.0.0","WebKit","Edge","138.0.0.0","Windows","10.0","https://app.prolific.com/","en-US,en;q=0.9,en-ZA;q=0.8","673493f39318451e1c97abac","683db6dfa200031b80f2a654","6865076e9de707a5d9defd2b","673493f39318451e1c97abac","","","","","true","","","","","","","","","","","","","","","","","","","","","","","","","","","","","","","","","","","","","","","",""
"8315","1751451688551"," <p style='font-size:1.1em;line-height:1.25'>Thank you for completing the consent form and closing all other tabs.</p><p style='font-size:1.1em;line-height:1.25'>We will now invite you to fill in some demographic information and questionnaires, before starting the game.<br>This will take about 5 minutes.<br></p><p style='font-size:1.1em;line-height:1.25'>Press the <strong>Next</strong> button to continue.</p>","0","custom-html-button-response","4","110929","0.0-5.0","115","1","2025-07-02 10:19:46","80fe4187154257d5fb01684ea91b68b9","41.150.35.137","Mozilla/5.0 (Windows NT 10.0; Win64; x64) AppleWebKit/537.36 (KHTML, like Gecko) Chrome/138.0.0.0 Safari/537.36 Edg/138.0.0.0","WebKit","Edge","138.0.0.0","Windows","10.0","https://app.prolific.com/","en-US,en;q=0.9,en-ZA;q=0.8","673493f39318451e1c97abac","683db6dfa200031b80f2a654","6865076e9de707a5d9defd2b","673493f39318451e1c97abac","2025-07-02T10:21:28.553Z","","","","","","","","","","","","","","","","","","","","","","","","","","","","","","","","","","","","","","","","","","","",""
"5203","","","{""age"":""29""}","survey-text","5","116178","0.0-6.0-0.0","115","1","2025-07-02 10:19:46","80fe4187154257d5fb01684ea91b68b9","41.150.35.137","Mozilla/5.0 (Windows NT 10.0; Win64; x64) AppleWebKit/537.36 (KHTML, like Gecko) Chrome/138.0.0.0 Safari/537.36 Edg/138.0.0.0","WebKit","Edge","138.0.0.0","Windows","10.0","https://app.prolific.com/","en-US,en;q=0.9,en-ZA;q=0.8","673493f39318451e1c97abac","683db6dfa200031b80f2a654","6865076e9de707a5d9defd2b","673493f39318451e1c97abac","","","","","","0","demographics","","","","","","","","","","","","","","","","","","","","","","","","","","","","","","","","","","","","","",""
"5011","","","{""gender_identity"":""female/woman""}","survey-multi-choice","6","121229","0.0-6.0-1.0","115","1","2025-07-02 10:19:46","80fe4187154257d5fb01684ea91b68b9","41.150.35.137","Mozilla/5.0 (Windows NT 10.0; Win64; x64) AppleWebKit/537.36 (KHTML, like Gecko) Chrome/138.0.0.0 Safari/537.36 Edg/138.0.0.0","WebKit","Edge","138.0.0.0","Windows","10.0","https://app.prolific.com/","en-US,en;q=0.9,en-ZA;q=0.8","673493f39318451e1c97abac","683db6dfa200031b80f2a654","6865076e9de707a5d9defd2b","673493f39318451e1c97abac","","","[0]","","","1","demographics","","","","","","","","","","","","","","","","","","","","","","","","","","","","","","","","","","","","","",""
"4996","","","{""assigned_sex"":""female""}","survey-multi-choice","7","126228","0.0-6.0-2.0","115","1","2025-07-02 10:19:46","80fe4187154257d5fb01684ea91b68b9","41.150.35.137","Mozilla/5.0 (Windows NT 10.0; Win64; x64) AppleWebKit/537.36 (KHTML, like Gecko) Chrome/138.0.0.0 Safari/537.36 Edg/138.0.0.0","WebKit","Edge","138.0.0.0","Windows","10.0","https://app.prolific.com/","en-US,en;q=0.9,en-ZA;q=0.8","673493f39318451e1c97abac","683db6dfa200031b80f2a654","6865076e9de707a5d9defd2b","673493f39318451e1c97abac","","","[0]","","","2","demographics","","","","","","","","","","","","","","","","","","","","","","","","","","","","","","","","","","","","","",""
"6472","","","{""menstrual_cycle"":""Yes""}","survey-multi-choice","8","132702","0.0-6.0-3.0","115","1","2025-07-02 10:19:46","80fe4187154257d5fb01684ea91b68b9","41.150.35.137","Mozilla/5.0 (Windows NT 10.0; Win64; x64) AppleWebKit/537.36 (KHTML, like Gecko) Chrome/138.0.0.0 Safari/537.36 Edg/138.0.0.0","WebKit","Edge","138.0.0.0","Windows","10.0","https://app.prolific.com/","en-US,en;q=0.9,en-ZA;q=0.8","673493f39318451e1c97abac","683db6dfa200031b80f2a654","6865076e9de707a5d9defd2b","673493f39318451e1c97abac","","","[0]","","","4","demographics","","","","","","","","","","","","","","","","","","","","","","","","","","","","","","","","","","","","","",""
"12181","","","{""education"":""Master's Degree (e.g., MSc)""}","survey-multi-choice","9","144885","0.0-6.0-4.0","115","1","2025-07-02 10:19:46","80fe4187154257d5fb01684ea91b68b9","41.150.35.137","Mozilla/5.0 (Windows NT 10.0; Win64; x64) AppleWebKit/537.36 (KHTML, like Gecko) Chrome/138.0.0.0 Safari/537.36 Edg/138.0.0.0","WebKit","Edge","138.0.0.0","Windows","10.0","https://app.prolific.com/","en-US,en;q=0.9,en-ZA;q=0.8","673493f39318451e1c97abac","683db6dfa200031b80f2a654","6865076e9de707a5d9defd2b","673493f39318451e1c97abac","","","[0]","","","5","demographics","","","","","","","","","","","","","","","","","","","","","","","","","","","","","","","","","","","","","",""
"5323","","","{""education"":""Master's Degree (e.g., MSc)""}","survey-multi-choice","10","150209","0.0-6.0-5.0","115","1","2025-07-02 10:19:46","80fe4187154257d5fb01684ea91b68b9","41.150.35.137","Mozilla/5.0 (Windows NT 10.0; Win64; x64) AppleWebKit/537.36 (KHTML, like Gecko) Chrome/138.0.0.0 Safari/537.36 Edg/138.0.0.0","WebKit","Edge","138.0.0.0","Windows","10.0","https://app.prolific.com/","en-US,en;q=0.9,en-ZA;q=0.8","673493f39318451e1c97abac","683db6dfa200031b80f2a654","6865076e9de707a5d9defd2b","673493f39318451e1c97abac","2025-07-02T10:22:07.833Z","","[0]","","","6","demographics","","","","","","","","","","","","","","","","","","","","","","","","","","","","","","","","","","","","","",""
"17742","","","{""mental_health_condition"":""no"",""mental_health_treatment"":""no"",""psychiatric_medication"":""""}","survey-text","11","167956","0.0-7.0-0.0","115","1","2025-07-02 10:19:46","80fe4187154257d5fb01684ea91b68b9","41.150.35.137","Mozilla/5.0 (Windows NT 10.0; Win64; x64) AppleWebKit/537.36 (KHTML, like Gecko) Chrome/138.0.0.0 Safari/537.36 Edg/138.0.0.0","WebKit","Edge","138.0.0.0","Windows","10.0","https://app.prolific.com/","en-US,en;q=0.9,en-ZA;q=0.8","673493f39318451e1c97abac","683db6dfa200031b80f2a654","6865076e9de707a5d9defd2b","673493f39318451e1c97abac","2025-07-02T10:22:25.579Z","","","","","1","mental_health","","","","","","","","","","","","","","","","","","","","","","","","","","","","","","","","","","","","","",""
"14047","","","{""depression_history"":[""Yes""]}","survey-multi-select","12","182009","0.0-7.0-1.0","115","1","2025-07-02 10:19:46","80fe4187154257d5fb01684ea91b68b9","41.150.35.137","Mozilla/5.0 (Windows NT 10.0; Win64; x64) AppleWebKit/537.36 (KHTML, like Gecko) Chrome/138.0.0.0 Safari/537.36 Edg/138.0.0.0","WebKit","Edge","138.0.0.0","Windows","10.0","https://app.prolific.com/","en-US,en;q=0.9,en-ZA;q=0.8","673493f39318451e1c97abac","683db6dfa200031b80f2a654","6865076e9de707a5d9defd2b","673493f39318451e1c97abac","","","[0]","","","","mental_health","","","","","","","","","","","","","","","","","","","","","","","","","","","","","","","","","","","","","",""
"14726","","","{""depression_episodes"":""3-5"",""depression_recent"":""Within the past year""}","survey-multi-choice","13","196737","0.0-7.0-2.0-0.0","115","1","2025-07-02 10:19:46","80fe4187154257d5fb01684ea91b68b9","41.150.35.137","Mozilla/5.0 (Windows NT 10.0; Win64; x64) AppleWebKit/537.36 (KHTML, like Gecko) Chrome/138.0.0.0 Safari/537.36 Edg/138.0.0.0","WebKit","Edge","138.0.0.0","Windows","10.0","https://app.prolific.com/","en-US,en;q=0.9,en-ZA;q=0.8","673493f39318451e1c97abac","683db6dfa200031b80f2a654","6865076e9de707a5d9defd2b","673493f39318451e1c97abac","2025-07-02T10:22:54.360Z","","[0,1]","","","3","mental_health","","","","","","","","","","","","","","","","","","","","","","","","","","","","","","","","","","","","","",""
"82109.20000004768","","","","survey-template","14","278889","0.0-7.0-3.0","115","1","2025-07-02 10:19:46","80fe4187154257d5fb01684ea91b68b9","41.150.35.137","Mozilla/5.0 (Windows NT 10.0; Win64; x64) AppleWebKit/537.36 (KHTML, like Gecko) Chrome/138.0.0.0 Safari/537.36 Edg/138.0.0.0","WebKit","Edge","138.0.0.0","Windows","10.0","https://app.prolific.com/","en-US,en;q=0.9,en-ZA;q=0.8","673493f39318451e1c97abac","683db6dfa200031b80f2a654","6865076e9de707a5d9defd2b","673493f39318451e1c97abac","2025-07-02T10:24:16.512Z","","","","","","ius","{""Q01"":""2"",""Q02"":""3"",""Q03"":""1"",""Q04"":""3"",""Q05"":""1"",""Q06"":""1"",""Q07"":""2"",""Q08"":""0"",""Q09"":""2"",""Q10"":""1"",""Q11"":""0"",""Q12"":""2"",""Q13"":""0""}","[0,1,2,3,4,5,6,7,8,9,10,11,12]","[""Q01"",""Q02"",""Q03"",""Q04"",""Q05"",""Q06"",""Q07"",""Q08"",""Q09"",""Q10"",""Q11"",""Q12"",""Q13""]","[7548.700000047684,11679.200000047684,17295.5,22562.400000095367,31884.10000014305,42200.700000047684,45625.5,50093.299999952316,58657,62640.90000009537,71488.60000014305,74690.5,79380.20000004768]","[]","[7548.700000047684,11679.200000047684,17295.5,22562.400000095367,31884.10000014305,42200.700000047684,45625.5,50093.299999952316,58657,62640.90000009537,71488.60000014305,74690.5,79380.20000004768,82105.10000014305]","0.3076923076923077","0.3333333333333333","0","","","","","","","","","","","","","","","","","","","","","","","","","","","","",""
"6079","1751451862592","<p style='font-size:1.1em;line-height:1.25'>In the following, we will ask you a few questions relating to your experiences over the past month.<br></p><p style='font-size:1.1em;line-height:1.25'>Press the <strong>Next</strong> button to continue.</p>","0","custom-html-button-response","15","284970","0.0-7.0-4.0","115","1","2025-07-02 10:19:46","80fe4187154257d5fb01684ea91b68b9","41.150.35.137","Mozilla/5.0 (Windows NT 10.0; Win64; x64) AppleWebKit/537.36 (KHTML, like Gecko) Chrome/138.0.0.0 Safari/537.36 Edg/138.0.0.0","WebKit","Edge","138.0.0.0","Windows","10.0","https://app.prolific.com/","en-US,en;q=0.9,en-ZA;q=0.8","673493f39318451e1c97abac","683db6dfa200031b80f2a654","6865076e9de707a5d9defd2b","673493f39318451e1c97abac","2025-07-02T10:24:22.593Z","","","","","","","","","","","","","","","","","","","","","","","","","","","","","","","","","","","","","","","","","","","",""
"87468","","","","survey-template","16","372442","0.0-7.0-5.0","115","1","2025-07-02 10:19:46","80fe4187154257d5fb01684ea91b68b9","41.150.35.137","Mozilla/5.0 (Windows NT 10.0; Win64; x64) AppleWebKit/537.36 (KHTML, like Gecko) Chrome/138.0.0.0 Safari/537.36 Edg/138.0.0.0","WebKit","Edge","138.0.0.0","Windows","10.0","https://app.prolific.com/","en-US,en;q=0.9,en-ZA;q=0.8","673493f39318451e1c97abac","683db6dfa200031b80f2a654","6865076e9de707a5d9defd2b","673493f39318451e1c97abac","2025-07-02T10:25:50.065Z","","","","","","pss","{""Q01"":""1"",""Q02"":""4"",""Q03"":""2"",""Q04"":""2"",""Q05"":""1"",""Q06"":""1"",""Q07"":""2"",""Q08"":""1"",""Q09"":""1"",""Q10"":""1""}","[0,1,2,3,4,5,6,7,8,9]","[""Q01"",""Q02"",""Q03"",""Q04"",""Q05"",""Q06"",""Q07"",""Q08"",""Q09"",""Q10""]","[13371.899999856949,21513.799999952316,25872.200000047684,31847.700000047684,39466.799999952316,49484.89999985695,58127.59999990463,64160.09999990463,72832.39999985695,85647.5]","[]","[0.20000004768371582,13371.899999856949,21513.799999952316,25872.200000047684,31847.700000047684,39466.799999952316,49484.89999985695,58127.59999990463,64160.09999990463,72832.39999985695,85647.5,87464.59999990463]","0.4","0.3333333333333333","0","","","","","","","","","","","","","","","","","","","","","","","","","","","","",""
"5234","1751451955300","<p style='font-size:1.1em;line-height:1.25'>Thank you for your answers! Now we will ask you a few more questions relating to your feelings in the last 24 hours.<br></p><p style='font-size:1.1em;line-height:1.25'>Press the <strong>Next</strong> button to continue.</p>","0","custom-html-button-response","17","377678","0.0-7.0-6.0","115","1","2025-07-02 10:19:46","80fe4187154257d5fb01684ea91b68b9","41.150.35.137","Mozilla/5.0 (Windows NT 10.0; Win64; x64) AppleWebKit/537.36 (KHTML, like Gecko) Chrome/138.0.0.0 Safari/537.36 Edg/138.0.0.0","WebKit","Edge","138.0.0.0","Windows","10.0","https://app.prolific.com/","en-US,en;q=0.9,en-ZA;q=0.8","673493f39318451e1c97abac","683db6dfa200031b80f2a654","6865076e9de707a5d9defd2b","673493f39318451e1c97abac","2025-07-02T10:25:55.301Z","","","","","","","","","","","","","","","","","","","","","","","","","","","","","","","","","","","","","","","","","","","",""
"86068","","","","survey-template","18","463752","0.0-7.0-7.0","115","1","2025-07-02 10:19:46","80fe4187154257d5fb01684ea91b68b9","41.150.35.137","Mozilla/5.0 (Windows NT 10.0; Win64; x64) AppleWebKit/537.36 (KHTML, like Gecko) Chrome/138.0.0.0 Safari/537.36 Edg/138.0.0.0","WebKit","Edge","138.0.0.0","Windows","10.0","https://app.prolific.com/","en-US,en;q=0.9,en-ZA;q=0.8","673493f39318451e1c97abac","683db6dfa200031b80f2a654","6865076e9de707a5d9defd2b","673493f39318451e1c97abac","2025-07-02T10:27:21.375Z","","","","","","drsp","{""Q01"":""0"",""Q02"":""0"",""Q03"":""0"",""Q04"":""1"",""Q05"":""1"",""Q06"":""0"",""Q07"":""0"",""Q08"":""0"",""Q09"":""1"",""Q10"":""2"",""Q11"":""3"",""Q12"":""4"",""Q13"":""4"",""Q14"":""2"",""Q15"":""4"",""Q16"":""0"",""Q17"":""0"",""Q18"":""4"",""Q19"":""2"",""Q20"":""2"",""Q21"":""1""}","[0,1,2,3,4,5,6,7,8,9,10,11,12,13,14,15,16,17,18,19,20]","[""Q01"",""Q02"",""Q03"",""Q04"",""Q05"",""Q06"",""Q07"",""Q08"",""Q09"",""Q10"",""Q11"",""Q12"",""Q13"",""Q14"",""Q15"",""Q16"",""Q17"",""Q18"",""Q19"",""Q20"",""Q21""]","[4390,6177.300000190735,8958.200000047684,11436.700000047684,12728.300000190735,15880,17982.60000014305,26100.700000047684,27578.300000190735,31209.800000190735,33977.90000009537,36466.700000047684,39511,44284,53316.10000014305,56631.40000009537,63178.200000047684,68572.40000009537,74175.80000019073,80663.10000014305,84528.5]","[]","[0,4390,6177.300000190735,8958.200000047684,11436.700000047684,12728.300000190735,15880,17982.60000014305,26100.700000047684,27578.300000190735,31209.800000190735,33977.90000009537,36466.700000047684,39511,44284,53316.10000014305,56631.40000009537,63178.200000047684,68572.40000009537,74175.80000019073,80663.10000014305,84528.5,86060.70000004768]","0.38095238095238093","0.35","0","","","","","","","","","","","","","","","","","","","","","","","","","","","","",""
"13605.100000143051","","","","survey-template","19","477360","0.0-7.0-8.0","115","1","2025-07-02 10:19:46","80fe4187154257d5fb01684ea91b68b9","41.150.35.137","Mozilla/5.0 (Windows NT 10.0; Win64; x64) AppleWebKit/537.36 (KHTML, like Gecko) Chrome/138.0.0.0 Safari/537.36 Edg/138.0.0.0","WebKit","Edge","138.0.0.0","Windows","10.0","https://app.prolific.com/","en-US,en;q=0.9,en-ZA;q=0.8","673493f39318451e1c97abac","683db6dfa200031b80f2a654","6865076e9de707a5d9defd2b","673493f39318451e1c97abac","2025-07-02T10:27:34.983Z","","","","","","stress","{""Q01"":""0"",""Q02"":""3"",""Q03"":""0""}","[0,1,2]","[""Q01"",""Q02"",""Q03""]","[3520.2000000476837,7627.300000190735,11562.900000095367]","[]","[3520.2000000476837,7627.300000190735,10321.5,11562.900000095367,13603.300000190735]","0.6666666666666666","0","0","","","","","","","","","","","","","","","","","","","","","","","","","","","","",""
"77468","","","","instructions","20","554831","0.0-8.0-0.0","115","1","2025-07-02 10:19:46","80fe4187154257d5fb01684ea91b68b9","41.150.35.137","Mozilla/5.0 (Windows NT 10.0; Win64; x64) AppleWebKit/537.36 (KHTML, like Gecko) Chrome/138.0.0.0 Safari/537.36 Edg/138.0.0.0","WebKit","Edge","138.0.0.0","Windows","10.0","https://app.prolific.com/","en-US,en;q=0.9,en-ZA;q=0.8","673493f39318451e1c97abac","683db6dfa200031b80f2a654","6865076e9de707a5d9defd2b","673493f39318451e1c97abac","","[{""page_index"":0,""viewing_time"":30774},{""page_index"":1,""viewing_time"":19624},{""page_index"":2,""viewing_time"":11698},{""page_index"":3,""viewing_time"":15372}]","","","","","","","","","","","","","","","","","","","","","","","","","","","","","","","","","","","","","","","","","","",""
"","","","","ctl-task-cpt","21","571761","0.0-8.0-1.0","115","1","2025-07-02 10:19:46","80fe4187154257d5fb01684ea91b68b9","41.150.35.137","Mozilla/5.0 (Windows NT 10.0; Win64; x64) AppleWebKit/537.36 (KHTML, like Gecko) Chrome/138.0.0.0 Safari/537.36 Edg/138.0.0.0","WebKit","Edge","138.0.0.0","Windows","10.0","https://app.prolific.com/","en-US,en;q=0.9,en-ZA;q=0.8","673493f39318451e1c97abac","683db6dfa200031b80f2a654","6865076e9de707a5d9defd2b","673493f39318451e1c97abac","","","","","","","","","","","","","","","","","win-only","2","g1:SE,g2:NW","1","0","1","562288.1","3609.2","7612.8","13884.8","2","4","4","6","2","-4","-4","0","0","0","4003.5","4000","-2285","[""left"",""up""]","{""num_key_presses"":0,""num_perfect"":0,""num_errors"":0,""num_randdir"":0,""num_randdir_good_moves"":0,""num_whilered"":0,""num_whileblue"":0,""num_blue"":0,""num_good_moves"":0}","[415.07142857142856,416.1808016640799,1.5,415.07142857142856,416.1808016640799,100.1,415.07142857142856,416.1808016640799,202.1,415.07142857142856,416.1808016640799,310.5,415.07142857142856,416.1808016640799,411.3,415.07142857142856,416.1808016640799,511.5,415.07142857142856,416.1808016640799,611.6,415.07142857142856,416.1808016640799,715.4,415.07142857142856,416.1808016640799,819.9,469.07142857142856,452.1808016640799,926.1,482.57142857142856,461.1808016640799,1026.3,493.07142857142856,500.1808016640799,1127.3,512.5714285714286,545.1808016640799,1228.5,515.5714285714286,549.6808016640799,1339.2,515.5714285714286,551.1808016640799,1443,514.0714285714286,546.6808016640799,1545.2,485.57142857142856,498.6808016640799,1648.6,482.57142857142856,497.1808016640799,1752.2,397.07142857142856,392.1808016640799,1856.5,256.07142857142856,225.68080166407992,1962.3,223.07142857142856,194.18080166407992,2063.5,136.07142857142856,132.68080166407992,2167.8,133.07142857142856,132.68080166407992,2269,160.07142857142856,156.68080166407992,2369.3,205.07142857142856,197.18080166407992,2470.2,211.07142857142856,209.18080166407992,2572.5,206.57142857142856,209.18080166407992,2676.6,214.07142857142856,264.6808016640799,2781.2,239.57142857142856,315.6808016640799,2882.7,242.57142857142856,326.1808016640799,2993,223.07142857142856,306.6808016640799,3093.4,179.57142857142856,195.68080166407992,3197,161.57142857142856,171.68080166407992,3309,161.57142857142856,170.18080166407992,3411.9,137.57142857142856,146.18080166407992,3513.9,136.07142857142856,143.18080166407992,3613.9,134.57142857142856,143.18080166407992,3719.4,113.57142857142857,128.18080166407992,3825,101.57142857142857,122.18080166407994,3925.9]","[]","",""
"18909","","","","instructions","22","590671","0.0-8.0-2.0","115","1","2025-07-02 10:19:46","80fe4187154257d5fb01684ea91b68b9","41.150.35.137","Mozilla/5.0 (Windows NT 10.0; Win64; x64) AppleWebKit/537.36 (KHTML, like Gecko) Chrome/138.0.0.0 Safari/537.36 Edg/138.0.0.0","WebKit","Edge","138.0.0.0","Windows","10.0","https://app.prolific.com/","en-US,en;q=0.9,en-ZA;q=0.8","673493f39318451e1c97abac","683db6dfa200031b80f2a654","6865076e9de707a5d9defd2b","673493f39318451e1c97abac","","[{""page_index"":0,""viewing_time"":18909}]","","","","","","","","","","","","","","","","","","","","","","","","","","","","","","","","","","","","","","","","","","",""
"","","","","ctl-task-cpt","23","605818","0.0-8.0-3.0","115","1","2025-07-02 10:19:46","80fe4187154257d5fb01684ea91b68b9","41.150.35.137","Mozilla/5.0 (Windows NT 10.0; Win64; x64) AppleWebKit/537.36 (KHTML, like Gecko) Chrome/138.0.0.0 Safari/537.36 Edg/138.0.0.0","WebKit","Edge","138.0.0.0","Windows","10.0","https://app.prolific.com/","en-US,en;q=0.9,en-ZA;q=0.8","673493f39318451e1c97abac","683db6dfa200031b80f2a654","6865076e9de707a5d9defd2b","673493f39318451e1c97abac","","","","","","","","","","","","","","","","","win-only","2","g1:SE,g2:NW","0.35","0","3","598087.6","1794.7","5795.9","12131.6","2","4","8","6","2","-8","-8","0","0","0","4001.2","4000","-2360","[""left"",""up""]","{""num_key_presses"":0,""num_perfect"":0,""num_errors"":0,""num_randdir"":0,""num_randdir_good_moves"":0,""num_whilered"":0,""num_whileblue"":0,""num_blue"":0,""num_good_moves"":0}","[412.07142857142856,413.1808016640799,0.4,412.07142857142856,413.1808016640799,108.1,412.07142857142856,413.1808016640799,211.5,412.07142857142856,413.1808016640799,318.2,412.07142857142856,413.1808016640799,420,412.07142857142856,413.1808016640799,520.6,412.07142857142856,413.1808016640799,620.7,412.07142857142856,413.1808016640799,725.4,412.07142857142856,413.1808016640799,826.8,412.07142857142856,413.1808016640799,934.9,386.57142857142856,443.1808016640799,1036.6,373.07142857142856,461.1808016640799,1137.2,368.57142857142856,462.6808016640799,1241.3,368.57142857142856,462.6808016640799,1341.8,368.57142857142856,462.6808016640799,1453.2,368.57142857142856,462.6808016640799,1553.8,368.57142857142856,462.6808016640799,1656.3,368.57142857142856,462.6808016640799,1770,368.57142857142856,462.6808016640799,1871.4,368.57142857142856,462.6808016640799,1972.1,368.57142857142856,462.6808016640799,2072.6,368.57142857142856,462.6808016640799,2175.6,368.57142857142856,462.6808016640799,2275.7,377.57142857142856,467.1808016640799,2375.9,398.57142857142856,470.1808016640799,2481.9,419.57142857142856,470.1808016640799,2581.9,421.07142857142856,470.1808016640799,2682,389.57142857142856,465.6808016640799,2787.5,371.57142857142856,467.1808016640799,2888.6,368.57142857142856,468.6808016640799,2995.7,365.57142857142856,470.1808016640799,3095.9,365.57142857142856,473.1808016640799,3198.6,395.57142857142856,477.6808016640799,3304.3,422.57142857142856,480.6808016640799,3406.3,434.57142857142856,482.1808016640799,3506.8,437.57142857142856,482.1808016640799,3607.1,437.57142857142856,482.1808016640799,3719.5,437.57142857142856,482.1808016640799,3820,437.57142857142856,482.1808016640799,3920.7]","[]","",""
"39268","","","","instructions","24","645089","0.0-8.0-4.0","115","1","2025-07-02 10:19:46","80fe4187154257d5fb01684ea91b68b9","41.150.35.137","Mozilla/5.0 (Windows NT 10.0; Win64; x64) AppleWebKit/537.36 (KHTML, like Gecko) Chrome/138.0.0.0 Safari/537.36 Edg/138.0.0.0","WebKit","Edge","138.0.0.0","Windows","10.0","https://app.prolific.com/","en-US,en;q=0.9,en-ZA;q=0.8","673493f39318451e1c97abac","683db6dfa200031b80f2a654","6865076e9de707a5d9defd2b","673493f39318451e1c97abac","","[{""page_index"":0,""viewing_time"":13007},{""page_index"":1,""viewing_time"":26261}]","","","","","","","","","","","","","","","","","","","","","","","","","","","","","","","","","","","","","","","","","","",""
"12551","","","{""green_ball"":[""Ball doesn‘t move and I get -1 penalty point""]}","survey-multi-select","25","657681","0.0-8.0-5.0-0.0","115","1","2025-07-02 10:19:46","80fe4187154257d5fb01684ea91b68b9","41.150.35.137","Mozilla/5.0 (Windows NT 10.0; Win64; x64) AppleWebKit/537.36 (KHTML, like Gecko) Chrome/138.0.0.0 Safari/537.36 Edg/138.0.0.0","WebKit","Edge","138.0.0.0","Windows","10.0","https://app.prolific.com/","en-US,en;q=0.9,en-ZA;q=0.8","673493f39318451e1c97abac","683db6dfa200031b80f2a654","6865076e9de707a5d9defd2b","673493f39318451e1c97abac","","","[0]","","","","quiz","","","","","","","","","","","","","","","","","","","","","","","","","","","","","","","","","","","","","false",""
"3893","","<p align='center'><b>INCORRECT.</b> Usually the green ball moves in the indicated direction, but sometimes it shakes and moves randomly. </p>","0","html-button-response","26","661614","0.0-8.0-5.0-1.0","115","1","2025-07-02 10:19:46","80fe4187154257d5fb01684ea91b68b9","41.150.35.137","Mozilla/5.0 (Windows NT 10.0; Win64; x64) AppleWebKit/537.36 (KHTML, like Gecko) Chrome/138.0.0.0 Safari/537.36 Edg/138.0.0.0","WebKit","Edge","138.0.0.0","Windows","10.0","https://app.prolific.com/","en-US,en;q=0.9,en-ZA;q=0.8","673493f39318451e1c97abac","683db6dfa200031b80f2a654","6865076e9de707a5d9defd2b","673493f39318451e1c97abac","","","","","","","","","","","","","","","","","","","","","","","","","","","","","","","","","","","","","","","","","","","","",""
"7599","","","{""green_ball"":[""Ball always moves in the direction I press""]}","survey-multi-select","27","669217","0.0-8.0-5.1-0.1","115","1","2025-07-02 10:19:46","80fe4187154257d5fb01684ea91b68b9","41.150.35.137","Mozilla/5.0 (Windows NT 10.0; Win64; x64) AppleWebKit/537.36 (KHTML, like Gecko) Chrome/138.0.0.0 Safari/537.36 Edg/138.0.0.0","WebKit","Edge","138.0.0.0","Windows","10.0","https://app.prolific.com/","en-US,en;q=0.9,en-ZA;q=0.8","673493f39318451e1c97abac","683db6dfa200031b80f2a654","6865076e9de707a5d9defd2b","673493f39318451e1c97abac","","","[0]","","","","quiz","","","","","","","","","","","","","","","","","","","","","","","","","","","","","","","","","","","","","false",""
"5429","","<p align='center'><b>INCORRECT.</b> Usually the green ball moves in the indicated direction, but sometimes it shakes and moves randomly. </p>","0","html-button-response","28","674648","0.0-8.0-5.1-1.1","115","1","2025-07-02 10:19:46","80fe4187154257d5fb01684ea91b68b9","41.150.35.137","Mozilla/5.0 (Windows NT 10.0; Win64; x64) AppleWebKit/537.36 (KHTML, like Gecko) Chrome/138.0.0.0 Safari/537.36 Edg/138.0.0.0","WebKit","Edge","138.0.0.0","Windows","10.0","https://app.prolific.com/","en-US,en;q=0.9,en-ZA;q=0.8","673493f39318451e1c97abac","683db6dfa200031b80f2a654","6865076e9de707a5d9defd2b","673493f39318451e1c97abac","","","","","","","","","","","","","","","","","","","","","","","","","","","","","","","","","","","","","","","","","","","","",""
"3514","","","{""green_ball"":[""Ball sometimes shakes and moves in a random direction""]}","survey-multi-select","29","678164","0.0-8.0-5.2-0.2","115","1","2025-07-02 10:19:46","80fe4187154257d5fb01684ea91b68b9","41.150.35.137","Mozilla/5.0 (Windows NT 10.0; Win64; x64) AppleWebKit/537.36 (KHTML, like Gecko) Chrome/138.0.0.0 Safari/537.36 Edg/138.0.0.0","WebKit","Edge","138.0.0.0","Windows","10.0","https://app.prolific.com/","en-US,en;q=0.9,en-ZA;q=0.8","673493f39318451e1c97abac","683db6dfa200031b80f2a654","6865076e9de707a5d9defd2b","673493f39318451e1c97abac","","","[0]","","","","quiz","","","","","","","","","","","","","","","","","","","","","","","","","","","","","","","","","","","","","true",""
"1937","","<p align='center'><b>CORRECT!</b> Indeed, the green ball may sometimes shake and move in a random direction.</p>","0","html-button-response","30","680103","0.0-8.0-5.2-1.2","115","1","2025-07-02 10:19:46","80fe4187154257d5fb01684ea91b68b9","41.150.35.137","Mozilla/5.0 (Windows NT 10.0; Win64; x64) AppleWebKit/537.36 (KHTML, like Gecko) Chrome/138.0.0.0 Safari/537.36 Edg/138.0.0.0","WebKit","Edge","138.0.0.0","Windows","10.0","https://app.prolific.com/","en-US,en;q=0.9,en-ZA;q=0.8","673493f39318451e1c97abac","683db6dfa200031b80f2a654","6865076e9de707a5d9defd2b","673493f39318451e1c97abac","","","","","","","","","","","","","","","","","","","","","","","","","","","","","","","","","","","","","","","","","","","","",""
"7359","","","{""yellow_ball"":[""Ball doesn‘t move and I get -1 penalty point""]}","survey-multi-select","31","687465","0.0-8.0-6.0-0.0","115","1","2025-07-02 10:19:46","80fe4187154257d5fb01684ea91b68b9","41.150.35.137","Mozilla/5.0 (Windows NT 10.0; Win64; x64) AppleWebKit/537.36 (KHTML, like Gecko) Chrome/138.0.0.0 Safari/537.36 Edg/138.0.0.0","WebKit","Edge","138.0.0.0","Windows","10.0","https://app.prolific.com/","en-US,en;q=0.9,en-ZA;q=0.8","673493f39318451e1c97abac","683db6dfa200031b80f2a654","6865076e9de707a5d9defd2b","673493f39318451e1c97abac","","","[0]","","","","quiz","","","","","","","","","","","","","","","","","","","","","","","","","","","","","","","","","","","","","true",""
"1952","","<p align='center'><b>CORRECT!</b> Indeed, the yellow ball never moves and you receive a penalty.</p>","0","html-button-response","32","689419","0.0-8.0-6.0-1.0","115","1","2025-07-02 10:19:46","80fe4187154257d5fb01684ea91b68b9","41.150.35.137","Mozilla/5.0 (Windows NT 10.0; Win64; x64) AppleWebKit/537.36 (KHTML, like Gecko) Chrome/138.0.0.0 Safari/537.36 Edg/138.0.0.0","WebKit","Edge","138.0.0.0","Windows","10.0","https://app.prolific.com/","en-US,en;q=0.9,en-ZA;q=0.8","673493f39318451e1c97abac","683db6dfa200031b80f2a654","6865076e9de707a5d9defd2b","673493f39318451e1c97abac","","","","","","","","","","","","","","","","","","","","","","","","","","","","","","","","","","","","","","","","","","","","",""
"7642","","","{""blue_ball"":[""Ball always shakes and moves in a random direction""]}","survey-multi-select","33","697064","0.0-8.0-7.0-0.0","115","1","2025-07-02 10:19:46","80fe4187154257d5fb01684ea91b68b9","41.150.35.137","Mozilla/5.0 (Windows NT 10.0; Win64; x64) AppleWebKit/537.36 (KHTML, like Gecko) Chrome/138.0.0.0 Safari/537.36 Edg/138.0.0.0","WebKit","Edge","138.0.0.0","Windows","10.0","https://app.prolific.com/","en-US,en;q=0.9,en-ZA;q=0.8","673493f39318451e1c97abac","683db6dfa200031b80f2a654","6865076e9de707a5d9defd2b","673493f39318451e1c97abac","","","[0]","","","","quiz","","","","","","","","","","","","","","","","","","","","","","","","","","","","","","","","","","","","","true",""
"2433","","<p align='center'><b>CORRECT!</b> Indeed, the blue ball always shakes and moves in a random direction. Also there is a penalty of -1 point.</p>","0","html-button-response","34","699499","0.0-8.0-7.0-1.0","115","1","2025-07-02 10:19:46","80fe4187154257d5fb01684ea91b68b9","41.150.35.137","Mozilla/5.0 (Windows NT 10.0; Win64; x64) AppleWebKit/537.36 (KHTML, like Gecko) Chrome/138.0.0.0 Safari/537.36 Edg/138.0.0.0","WebKit","Edge","138.0.0.0","Windows","10.0","https://app.prolific.com/","en-US,en;q=0.9,en-ZA;q=0.8","673493f39318451e1c97abac","683db6dfa200031b80f2a654","6865076e9de707a5d9defd2b","673493f39318451e1c97abac","","","","","","","","","","","","","","","","","","","","","","","","","","","","","","","","","","","","","","","","","","","","",""
"9421","","","{""bonus"":[""When I reach all possible points""]}","survey-multi-select","35","708923","0.0-8.0-8.0-0.0","115","1","2025-07-02 10:19:46","80fe4187154257d5fb01684ea91b68b9","41.150.35.137","Mozilla/5.0 (Windows NT 10.0; Win64; x64) AppleWebKit/537.36 (KHTML, like Gecko) Chrome/138.0.0.0 Safari/537.36 Edg/138.0.0.0","WebKit","Edge","138.0.0.0","Windows","10.0","https://app.prolific.com/","en-US,en;q=0.9,en-ZA;q=0.8","673493f39318451e1c97abac","683db6dfa200031b80f2a654","6865076e9de707a5d9defd2b","673493f39318451e1c97abac","","","[0]","","","","quiz","","","","","","","","","","","","","","","","","","","","","","","","","","","","","","","","","","","","","false",""
"2392","","<p align='center'><b>INCORRECT.</b> You receive 2 pounds extra when you reach 50% of points </p>","0","html-button-response","36","711318","0.0-8.0-8.0-1.0","115","1","2025-07-02 10:19:46","80fe4187154257d5fb01684ea91b68b9","41.150.35.137","Mozilla/5.0 (Windows NT 10.0; Win64; x64) AppleWebKit/537.36 (KHTML, like Gecko) Chrome/138.0.0.0 Safari/537.36 Edg/138.0.0.0","WebKit","Edge","138.0.0.0","Windows","10.0","https://app.prolific.com/","en-US,en;q=0.9,en-ZA;q=0.8","673493f39318451e1c97abac","683db6dfa200031b80f2a654","6865076e9de707a5d9defd2b","673493f39318451e1c97abac","","","","","","","","","","","","","","","","","","","","","","","","","","","","","","","","","","","","","","","","","","","","",""
"3644","","","{""bonus"":[""When I reach 50% of points""]}","survey-multi-select","37","714965","0.0-8.0-8.1-0.1","115","1","2025-07-02 10:19:46","80fe4187154257d5fb01684ea91b68b9","41.150.35.137","Mozilla/5.0 (Windows NT 10.0; Win64; x64) AppleWebKit/537.36 (KHTML, like Gecko) Chrome/138.0.0.0 Safari/537.36 Edg/138.0.0.0","WebKit","Edge","138.0.0.0","Windows","10.0","https://app.prolific.com/","en-US,en;q=0.9,en-ZA;q=0.8","673493f39318451e1c97abac","683db6dfa200031b80f2a654","6865076e9de707a5d9defd2b","673493f39318451e1c97abac","","","[0]","","","","quiz","","","","","","","","","","","","","","","","","","","","","","","","","","","","","","","","","","","","","true",""
"1855","","<p align='center'><b>CORRECT!</b> Indeed, you receive 2 pounds extra when you reach 50% of points.</p>","0","html-button-response","38","716822","0.0-8.0-8.1-1.1","115","1","2025-07-02 10:19:46","80fe4187154257d5fb01684ea91b68b9","41.150.35.137","Mozilla/5.0 (Windows NT 10.0; Win64; x64) AppleWebKit/537.36 (KHTML, like Gecko) Chrome/138.0.0.0 Safari/537.36 Edg/138.0.0.0","WebKit","Edge","138.0.0.0","Windows","10.0","https://app.prolific.com/","en-US,en;q=0.9,en-ZA;q=0.8","673493f39318451e1c97abac","683db6dfa200031b80f2a654","6865076e9de707a5d9defd2b","673493f39318451e1c97abac","","","","","","","","","","","","","","","","","","","","","","","","","","","","","","","","","","","","","","","","","","","","",""
"3740","","","","instructions","39","720564","0.0-8.0-9.0","115","1","2025-07-02 10:19:46","80fe4187154257d5fb01684ea91b68b9","41.150.35.137","Mozilla/5.0 (Windows NT 10.0; Win64; x64) AppleWebKit/537.36 (KHTML, like Gecko) Chrome/138.0.0.0 Safari/537.36 Edg/138.0.0.0","WebKit","Edge","138.0.0.0","Windows","10.0","https://app.prolific.com/","en-US,en;q=0.9,en-ZA;q=0.8","673493f39318451e1c97abac","683db6dfa200031b80f2a654","6865076e9de707a5d9defd2b","673493f39318451e1c97abac","","[{""page_index"":0,""viewing_time"":3740}]","","","","","","","","","","","","","","","","","","","","","","","","","","","","","","","","","","","","","","","","","","",""
"19690","","<p>Before you start with this game please answer the following three questions yourself. </p>
  <p>Through this game, we measure several aspects of your cognitive performance, such as reaction times, multi-tasking capabilities </p>
  <p>and the ability to assess the situation you are in.</p>
  <p></p>
  <p><b>How good do you usually are in such tasks?</b></p>","67","html-slider-response","40","740327","0.0-9.0-0.0","115","1","2025-07-02 10:19:46","80fe4187154257d5fb01684ea91b68b9","41.150.35.137","Mozilla/5.0 (Windows NT 10.0; Win64; x64) AppleWebKit/537.36 (KHTML, like Gecko) Chrome/138.0.0.0 Safari/537.36 Edg/138.0.0.0","WebKit","Edge","138.0.0.0","Windows","10.0","https://app.prolific.com/","en-US,en;q=0.9,en-ZA;q=0.8","673493f39318451e1c97abac","683db6dfa200031b80f2a654","6865076e9de707a5d9defd2b","673493f39318451e1c97abac","2025-07-02T10:31:57.950Z","","","","","","PreSkillQ","","","","","","","","","","","","","","","","","","","","","","","","","","","","","","","","","","","","","","50"
"10356","","<div style=""width:500px;"">
  <p>How well do you think you will perform in this task compared to other participants?</p>
  </div>","50","html-slider-response","41","750686","0.0-9.0-1.0","115","1","2025-07-02 10:19:46","80fe4187154257d5fb01684ea91b68b9","41.150.35.137","Mozilla/5.0 (Windows NT 10.0; Win64; x64) AppleWebKit/537.36 (KHTML, like Gecko) Chrome/138.0.0.0 Safari/537.36 Edg/138.0.0.0","WebKit","Edge","138.0.0.0","Windows","10.0","https://app.prolific.com/","en-US,en;q=0.9,en-ZA;q=0.8","673493f39318451e1c97abac","683db6dfa200031b80f2a654","6865076e9de707a5d9defd2b","673493f39318451e1c97abac","2025-07-02T10:32:08.310Z","","","","","","PrePerfQ","","","","","","","","","","","","","","","","","","","","","","","","","","","","","","","","","","","","","","50"
"6224","","<div style=""width:500px;"">
  <p>What best describes how you currently feel?</p>
  </div>","84","html-slider-response","42","756912","0.0-9.0-2.0","115","1","2025-07-02 10:19:46","80fe4187154257d5fb01684ea91b68b9","41.150.35.137","Mozilla/5.0 (Windows NT 10.0; Win64; x64) AppleWebKit/537.36 (KHTML, like Gecko) Chrome/138.0.0.0 Safari/537.36 Edg/138.0.0.0","WebKit","Edge","138.0.0.0","Windows","10.0","https://app.prolific.com/","en-US,en;q=0.9,en-ZA;q=0.8","673493f39318451e1c97abac","683db6dfa200031b80f2a654","6865076e9de707a5d9defd2b","673493f39318451e1c97abac","2025-07-02T10:32:14.536Z","","","","","","PreMotivationQ","","","","","","","","","","","","","","","","","","","","","","","","","","","","","","","","","","","","","","50"
"","","","","ctl-task-cpt","43","792869","0.0-10.0-0.0","115","1","2025-07-02 10:19:46","80fe4187154257d5fb01684ea91b68b9","41.150.35.137","Mozilla/5.0 (Windows NT 10.0; Win64; x64) AppleWebKit/537.36 (KHTML, like Gecko) Chrome/138.0.0.0 Safari/537.36 Edg/138.0.0.0","WebKit","Edge","138.0.0.0","Windows","10.0","https://app.prolific.com/","en-US,en;q=0.9,en-ZA;q=0.8","673493f39318451e1c97abac","683db6dfa200031b80f2a654","6865076e9de707a5d9defd2b","673493f39318451e1c97abac","2025-07-02T10:32:50.492Z","","","","","","","","","","","","","","","","win-only","2","g1:SE,g2:NW","1","1","0","764335.1","3151.8","8155.5","32935.8","1","4","8","6","1","-1","-1","0","0","0","5003.7","3000","-2235","[""down"",""right""]","{""num_key_presses"":4,""num_perfect"":4,""num_errors"":0,""num_randdir"":0,""num_randdir_good_moves"":0,""num_whilered"":0,""num_whileblue"":0,""num_blue"":3,""num_good_moves"":0}","[422.57142857142856,404.1808016640799,0.8,422.57142857142856,404.1808016640799,101.2,422.57142857142856,404.1808016640799,208.5,422.57142857142856,404.1808016640799,308.6,422.57142857142856,404.1808016640799,417.6,422.57142857142856,404.1808016640799,522.3,422.57142857142856,404.1808016640799,628.3,422.57142857142856,404.1808016640799,733.4,422.57142857142856,404.1808016640799,836.2,422.57142857142856,404.1808016640799,944.2,422.57142857142856,404.1808016640799,1044.7,422.57142857142856,404.1808016640799,1149.6,422.57142857142856,404.1808016640799,1251.5,422.57142857142856,404.1808016640799,1359.7,422.57142857142856,404.1808016640799,1463.5,422.57142857142856,404.1808016640799,1566.8,422.57142857142856,404.1808016640799,1668.4,422.57142857142856,404.1808016640799,1773.6,422.57142857142856,404.1808016640799,1877.2,422.57142857142856,404.1808016640799,1978.9,422.57142857142856,404.1808016640799,2081.6,422.57142857142856,404.1808016640799,2182.1,422.57142857142856,404.1808016640799,2283.3,422.57142857142856,404.1808016640799,2383.9,422.57142857142856,404.1808016640799,2484.6,422.57142857142856,404.1808016640799,2585.3,422.57142857142856,404.1808016640799,2685.3,422.57142857142856,404.1808016640799,2793.7,422.57142857142856,404.1808016640799,2894.8,422.57142857142856,404.1808016640799,3000.2,422.57142857142856,404.1808016640799,3107.4,422.57142857142856,404.1808016640799,3215.6,422.57142857142856,404.1808016640799,3316.6,422.57142857142856,404.1808016640799,3418.5,422.57142857142856,404.1808016640799,3522.3,422.57142857142856,404.1808016640799,3623.7,422.57142857142856,404.1808016640799,3724,422.57142857142856,404.1808016640799,3824.2,422.57142857142856,404.1808016640799,3928.8,422.57142857142856,404.1808016640799,4033.5,422.57142857142856,404.1808016640799,4136.6,422.57142857142856,404.1808016640799,4243.9,422.57142857142856,404.1808016640799,4350.4,422.57142857142856,404.1808016640799,4451.9,422.57142857142856,404.1808016640799,4552.6,422.57142857142856,404.1808016640799,4661.3,422.57142857142856,404.1808016640799,4761.4,422.57142857142856,404.1808016640799,4861.6,422.57142857142856,404.1808016640799,4969.1]","[1489.9,1489.9,1000,0,489.9,""smooth"",""left"",""left"",""bad_move"",7892.9,6402.3,2364.9,5005.7,522.3,""smooth"",""left"",""left"",""bad_move"",17562.1,9668.8,2891.6,14275.5,395,""smooth"",""up"",""up"",""bad_move"",20813.4,3250.5,2132.2,17563,1118.2,""smooth"",""up"",""up"",""bad_move""]","",""
"9855","","<div style=""width:500px;"">
  <p>What determined the result of this run?</p>
  </div>","55","html-slider-response","44","802726","0.0-10.0-1.0","115","1","2025-07-02 10:19:46","80fe4187154257d5fb01684ea91b68b9","41.150.35.137","Mozilla/5.0 (Windows NT 10.0; Win64; x64) AppleWebKit/537.36 (KHTML, like Gecko) Chrome/138.0.0.0 Safari/537.36 Edg/138.0.0.0","WebKit","Edge","138.0.0.0","Windows","10.0","https://app.prolific.com/","en-US,en;q=0.9,en-ZA;q=0.8","673493f39318451e1c97abac","683db6dfa200031b80f2a654","6865076e9de707a5d9defd2b","673493f39318451e1c97abac","2025-07-02T10:33:00.349Z","","","","","","AttribQ","","","","","","","","","","","","","","","","","","","","","","","","","","","","","","","","","","","","","","50"
"5553","","<div style=""width:500px;"">
  <p>How much control did you have over the ball?</p>
  </div>","46","html-slider-response","45","808281","0.0-10.0-2.0","115","1","2025-07-02 10:19:46","80fe4187154257d5fb01684ea91b68b9","41.150.35.137","Mozilla/5.0 (Windows NT 10.0; Win64; x64) AppleWebKit/537.36 (KHTML, like Gecko) Chrome/138.0.0.0 Safari/537.36 Edg/138.0.0.0","WebKit","Edge","138.0.0.0","Windows","10.0","https://app.prolific.com/","en-US,en;q=0.9,en-ZA;q=0.8","673493f39318451e1c97abac","683db6dfa200031b80f2a654","6865076e9de707a5d9defd2b","673493f39318451e1c97abac","2025-07-02T10:33:05.904Z","","","","","","ControlQ","","","","","","","","","","","","","","","","","","","","","","","","","","","","","","","","","","","","","","50"
"8091","","<div style=""width:500px;"">
  <p>How would you describe your current emotional state?</p>
  </div>","32","html-slider-response","46","816374","0.0-10.0-3.0","115","1","2025-07-02 10:19:46","80fe4187154257d5fb01684ea91b68b9","41.150.35.137","Mozilla/5.0 (Windows NT 10.0; Win64; x64) AppleWebKit/537.36 (KHTML, like Gecko) Chrome/138.0.0.0 Safari/537.36 Edg/138.0.0.0","WebKit","Edge","138.0.0.0","Windows","10.0","https://app.prolific.com/","en-US,en;q=0.9,en-ZA;q=0.8","673493f39318451e1c97abac","683db6dfa200031b80f2a654","6865076e9de707a5d9defd2b","673493f39318451e1c97abac","2025-07-02T10:33:13.997Z","","","","","","StressQ","","","","","","","","","","","","","","","","","","","","","","","","","","","","","","","","","","","","","","50"
"6619","","<div style=""width:500px;"">
  <p>What best describes how you currently feel?</p>
  </div>","65","html-slider-response","47","822995","0.0-10.0-4.0","115","1","2025-07-02 10:19:46","80fe4187154257d5fb01684ea91b68b9","41.150.35.137","Mozilla/5.0 (Windows NT 10.0; Win64; x64) AppleWebKit/537.36 (KHTML, like Gecko) Chrome/138.0.0.0 Safari/537.36 Edg/138.0.0.0","WebKit","Edge","138.0.0.0","Windows","10.0","https://app.prolific.com/","en-US,en;q=0.9,en-ZA;q=0.8","673493f39318451e1c97abac","683db6dfa200031b80f2a654","6865076e9de707a5d9defd2b","673493f39318451e1c97abac","2025-07-02T10:33:20.618Z","","","","","","MotivationQ","","","","","","","","","","","","","","","","","","","","","","","","","","","","","","","","","","","","","","50"
"","","","","ctl-task-cpt","48","862478","0.0-10.0-0.1","115","1","2025-07-02 10:19:46","80fe4187154257d5fb01684ea91b68b9","41.150.35.137","Mozilla/5.0 (Windows NT 10.0; Win64; x64) AppleWebKit/537.36 (KHTML, like Gecko) Chrome/138.0.0.0 Safari/537.36 Edg/138.0.0.0","WebKit","Edge","138.0.0.0","Windows","10.0","https://app.prolific.com/","en-US,en;q=0.9,en-ZA;q=0.8","673493f39318451e1c97abac","683db6dfa200031b80f2a654","6865076e9de707a5d9defd2b","673493f39318451e1c97abac","2025-07-02T10:34:00.101Z","","","","","","","","","","","","","","","","win-only","3","g1:SW,g2:NE","0.9","2","0","830412.8","2102.3","7110.4","36466.7","1","4","4","6","1","-1","-1","0","0","0","5008.1","3000","-2150","[""down"",""left""]","{""num_key_presses"":8,""num_perfect"":7,""num_errors"":0,""num_randdir"":1,""num_randdir_good_moves"":1,""num_whilered"":0,""num_whileblue"":0,""num_blue"":1,""num_good_moves"":1}","[413.57142857142856,410.1808016640799,0.4,413.57142857142856,410.1808016640799,100.6,413.57142857142856,410.1808016640799,200.6,413.57142857142856,410.1808016640799,302.3,413.57142857142856,410.1808016640799,404.7,413.57142857142856,410.1808016640799,516.7,413.57142857142856,410.1808016640799,620,413.57142857142856,410.1808016640799,732.2,413.57142857142856,410.1808016640799,834.5,413.57142857142856,410.1808016640799,936.7,413.57142857142856,410.1808016640799,1042.3,413.57142857142856,410.1808016640799,1150.1,413.57142857142856,410.1808016640799,1257.8,413.57142857142856,410.1808016640799,1358.2,413.57142857142856,410.1808016640799,1459.3,413.57142857142856,410.1808016640799,1569.7,413.57142857142856,410.1808016640799,1670.1,413.57142857142856,410.1808016640799,1775.5,413.57142857142856,410.1808016640799,1882.6,413.57142857142856,410.1808016640799,1987.9,413.57142857142856,410.1808016640799,2091,413.57142857142856,410.1808016640799,2198.7,413.57142857142856,410.1808016640799,2299.7,413.57142857142856,410.1808016640799,2407.7,413.57142857142856,410.1808016640799,2509.1,413.57142857142856,410.1808016640799,2609.9,413.57142857142856,410.1808016640799,2715.3,413.57142857142856,410.1808016640799,2815.8,413.57142857142856,410.1808016640799,2925.1,413.57142857142856,410.1808016640799,3035.5,413.57142857142856,410.1808016640799,3138.8,413.57142857142856,410.1808016640799,3242,413.57142857142856,410.1808016640799,3343.8,413.57142857142856,410.1808016640799,3450.1,413.57142857142856,410.1808016640799,3558.1,413.57142857142856,410.1808016640799,3668.1,413.57142857142856,410.1808016640799,3775.1,413.57142857142856,410.1808016640799,3883.1,413.57142857142856,410.1808016640799,3986.1,413.57142857142856,410.1808016640799,4087.7,413.57142857142856,410.1808016640799,4190.1,413.57142857142856,410.1808016640799,4298.6,413.57142857142856,410.1808016640799,4399.2,413.57142857142856,410.1808016640799,4499.9,413.57142857142856,410.1808016640799,4607,413.57142857142856,410.1808016640799,4709.8,413.57142857142856,410.1808016640799,4819,413.57142857142856,410.1808016640799,4925.1]","[1504.7,1504.7,1000,0,504.7,""smooth"",""up"",""up"",""bad_move"",8758.9,7253.4,3325.6,4974.7,458.6,""smooth"",""right"",""right"",""bad_move"",11708.6,2949.1,2424.6,8759.5,524.5,""smooth"",""up"",""up"",""bad_move"",14357.6,2648.5,2270.9,11709.1,377.6,""oops"",""right"",""down"",""good_move"",17546.3,3188.1,2634.6,14358.2,553.5,""smooth"",""up"",""up"",""bad_move"",20508.9,2962.1,2480.1,17546.8,482,""smooth"",""right"",""right"",""bad_move"",23949.4,3440.4,2694.2,20509.1,746.2,""smooth"",""up"",""up"",""bad_move"",26834.9,2885.2,2442.8,23949.7,442.4,""smooth"",""right"",""right"",""bad_move""]","",""
"6468","","<div style=""width:500px;"">
  <p>What determined the result of this run?</p>
  </div>","46","html-slider-response","49","868948","0.0-10.0-1.1","115","1","2025-07-02 10:19:46","80fe4187154257d5fb01684ea91b68b9","41.150.35.137","Mozilla/5.0 (Windows NT 10.0; Win64; x64) AppleWebKit/537.36 (KHTML, like Gecko) Chrome/138.0.0.0 Safari/537.36 Edg/138.0.0.0","WebKit","Edge","138.0.0.0","Windows","10.0","https://app.prolific.com/","en-US,en;q=0.9,en-ZA;q=0.8","673493f39318451e1c97abac","683db6dfa200031b80f2a654","6865076e9de707a5d9defd2b","673493f39318451e1c97abac","2025-07-02T10:34:06.571Z","","","","","","AttribQ","","","","","","","","","","","","","","","","","","","","","","","","","","","","","","","","","","","","","","50"
"4943","","<div style=""width:500px;"">
  <p>How much control did you have over the ball?</p>
  </div>","33","html-slider-response","50","873893","0.0-10.0-2.1","115","1","2025-07-02 10:19:46","80fe4187154257d5fb01684ea91b68b9","41.150.35.137","Mozilla/5.0 (Windows NT 10.0; Win64; x64) AppleWebKit/537.36 (KHTML, like Gecko) Chrome/138.0.0.0 Safari/537.36 Edg/138.0.0.0","WebKit","Edge","138.0.0.0","Windows","10.0","https://app.prolific.com/","en-US,en;q=0.9,en-ZA;q=0.8","673493f39318451e1c97abac","683db6dfa200031b80f2a654","6865076e9de707a5d9defd2b","673493f39318451e1c97abac","2025-07-02T10:34:11.516Z","","","","","","ControlQ","","","","","","","","","","","","","","","","","","","","","","","","","","","","","","","","","","","","","","50"
"5645","","<div style=""width:500px;"">
  <p>How would you describe your current emotional state?</p>
  </div>","41","html-slider-response","51","879540","0.0-10.0-3.1","115","1","2025-07-02 10:19:46","80fe4187154257d5fb01684ea91b68b9","41.150.35.137","Mozilla/5.0 (Windows NT 10.0; Win64; x64) AppleWebKit/537.36 (KHTML, like Gecko) Chrome/138.0.0.0 Safari/537.36 Edg/138.0.0.0","WebKit","Edge","138.0.0.0","Windows","10.0","https://app.prolific.com/","en-US,en;q=0.9,en-ZA;q=0.8","673493f39318451e1c97abac","683db6dfa200031b80f2a654","6865076e9de707a5d9defd2b","673493f39318451e1c97abac","2025-07-02T10:34:17.163Z","","","","","","StressQ","","","","","","","","","","","","","","","","","","","","","","","","","","","","","","","","","","","","","","50"
"4988","","<div style=""width:500px;"">
  <p>What best describes how you currently feel?</p>
  </div>","59","html-slider-response","52","884529","0.0-10.0-4.1","115","1","2025-07-02 10:19:46","80fe4187154257d5fb01684ea91b68b9","41.150.35.137","Mozilla/5.0 (Windows NT 10.0; Win64; x64) AppleWebKit/537.36 (KHTML, like Gecko) Chrome/138.0.0.0 Safari/537.36 Edg/138.0.0.0","WebKit","Edge","138.0.0.0","Windows","10.0","https://app.prolific.com/","en-US,en;q=0.9,en-ZA;q=0.8","673493f39318451e1c97abac","683db6dfa200031b80f2a654","6865076e9de707a5d9defd2b","673493f39318451e1c97abac","2025-07-02T10:34:22.152Z","","","","","","MotivationQ","","","","","","","","","","","","","","","","","","","","","","","","","","","","","","","","","","","","","","50"
"","","","","ctl-task-cpt","53","927005","0.0-10.0-0.2","115","1","2025-07-02 10:19:46","80fe4187154257d5fb01684ea91b68b9","41.150.35.137","Mozilla/5.0 (Windows NT 10.0; Win64; x64) AppleWebKit/537.36 (KHTML, like Gecko) Chrome/138.0.0.0 Safari/537.36 Edg/138.0.0.0","WebKit","Edge","138.0.0.0","Windows","10.0","https://app.prolific.com/","en-US,en;q=0.9,en-ZA;q=0.8","673493f39318451e1c97abac","683db6dfa200031b80f2a654","6865076e9de707a5d9defd2b","673493f39318451e1c97abac","2025-07-02T10:35:04.628Z","","","","","","","","","","","","","","","","win-only","0","g1:NW,g2:SE","0.8","3","0","891946.1","2845.7","7848.9","39465.6","1","4","4","6","1","1","1","1","0","0.007575757575757576","5003.2","3000","900","[""left"",""up""]","{""num_key_presses"":6,""num_perfect"":5,""num_errors"":0,""num_randdir"":1,""num_randdir_good_moves"":0,""num_whilered"":0,""num_whileblue"":0,""num_blue"":4,""num_good_moves"":5}","[416.57142857142856,420.6808016640799,0.3,416.57142857142856,420.6808016640799,100.4,416.57142857142856,420.6808016640799,205.8,416.57142857142856,420.6808016640799,313.8,416.57142857142856,420.6808016640799,414.5,416.57142857142856,420.6808016640799,523.2,416.57142857142856,420.6808016640799,629,416.57142857142856,420.6808016640799,730.4,416.57142857142856,420.6808016640799,834,416.57142857142856,420.6808016640799,938.5,416.57142857142856,420.6808016640799,1039.2,416.57142857142856,420.6808016640799,1139.8,416.57142857142856,420.6808016640799,1241.7,416.57142857142856,420.6808016640799,1349.1,416.57142857142856,420.6808016640799,1455.9,416.57142857142856,420.6808016640799,1564.3,416.57142857142856,420.6808016640799,1665.5,416.57142857142856,420.6808016640799,1767.3,416.57142857142856,420.6808016640799,1871.8,416.57142857142856,420.6808016640799,1972.6,416.57142857142856,420.6808016640799,2080.1,416.57142857142856,420.6808016640799,2189.1,416.57142857142856,420.6808016640799,2289.4,416.57142857142856,420.6808016640799,2395.9,416.57142857142856,420.6808016640799,2498.8,416.57142857142856,420.6808016640799,2606.8,416.57142857142856,420.6808016640799,2714.3,416.57142857142856,420.6808016640799,2818.7,416.57142857142856,420.6808016640799,2922.3,416.57142857142856,420.6808016640799,3023.5,416.57142857142856,420.6808016640799,3128.4,416.57142857142856,420.6808016640799,3235.3,416.57142857142856,420.6808016640799,3337.5,416.57142857142856,420.6808016640799,3439.3,416.57142857142856,420.6808016640799,3547.3,416.57142857142856,420.6808016640799,3663.4,416.57142857142856,420.6808016640799,3773.4,416.57142857142856,420.6808016640799,3874.7,416.57142857142856,420.6808016640799,3978.3,416.57142857142856,420.6808016640799,4078.6,416.57142857142856,420.6808016640799,4180.8,416.57142857142856,420.6808016640799,4290,416.57142857142856,420.6808016640799,4397.4,416.57142857142856,420.6808016640799,4506.2,416.57142857142856,420.6808016640799,4609.7,416.57142857142856,420.6808016640799,4715.9,416.57142857142856,420.6808016640799,4816.7,416.57142857142856,420.6808016640799,4919.8]","[8325.1,8325.1,2636,5259.6,429.5,""smooth"",""up"",""up"",""good_move"",14858.4,6533,2331.5,12029.5,497.4,""smooth"",""left"",""left"",""good_move"",21903,7044.3,3188,18308.7,406.3,""smooth"",""up"",""up"",""good_move"",25044,3140.7,2321.8,21903.3,818.9,""oops"",""left"",""down"",""bad_move"",28091.4,3047,2518.1,25044.4,528.9,""smooth"",""up"",""up"",""good_move"",31494.7,3403,3011.5,28091.7,391.5,""smooth"",""left"",""left"",""good_move""]","",""
"5981","","<div style=""width:500px;"">
  <p>What determined the result of this run?</p>
  </div>","84","html-slider-response","54","932987","0.0-10.0-1.2","115","1","2025-07-02 10:19:46","80fe4187154257d5fb01684ea91b68b9","41.150.35.137","Mozilla/5.0 (Windows NT 10.0; Win64; x64) AppleWebKit/537.36 (KHTML, like Gecko) Chrome/138.0.0.0 Safari/537.36 Edg/138.0.0.0","WebKit","Edge","138.0.0.0","Windows","10.0","https://app.prolific.com/","en-US,en;q=0.9,en-ZA;q=0.8","673493f39318451e1c97abac","683db6dfa200031b80f2a654","6865076e9de707a5d9defd2b","673493f39318451e1c97abac","2025-07-02T10:35:10.610Z","","","","","","AttribQ","","","","","","","","","","","","","","","","","","","","","","","","","","","","","","","","","","","","","","50"
"6668","","<div style=""width:500px;"">
  <p>How much control did you have over the ball?</p>
  </div>","76","html-slider-response","55","939658","0.0-10.0-2.2","115","1","2025-07-02 10:19:46","80fe4187154257d5fb01684ea91b68b9","41.150.35.137","Mozilla/5.0 (Windows NT 10.0; Win64; x64) AppleWebKit/537.36 (KHTML, like Gecko) Chrome/138.0.0.0 Safari/537.36 Edg/138.0.0.0","WebKit","Edge","138.0.0.0","Windows","10.0","https://app.prolific.com/","en-US,en;q=0.9,en-ZA;q=0.8","673493f39318451e1c97abac","683db6dfa200031b80f2a654","6865076e9de707a5d9defd2b","673493f39318451e1c97abac","2025-07-02T10:35:17.282Z","","","","","","ControlQ","","","","","","","","","","","","","","","","","","","","","","","","","","","","","","","","","","","","","","50"
"5490","","<div style=""width:500px;"">
  <p>How would you describe your current emotional state?</p>
  </div>","30","html-slider-response","56","945159","0.0-10.0-3.2","115","1","2025-07-02 10:19:46","80fe4187154257d5fb01684ea91b68b9","41.150.35.137","Mozilla/5.0 (Windows NT 10.0; Win64; x64) AppleWebKit/537.36 (KHTML, like Gecko) Chrome/138.0.0.0 Safari/537.36 Edg/138.0.0.0","WebKit","Edge","138.0.0.0","Windows","10.0","https://app.prolific.com/","en-US,en;q=0.9,en-ZA;q=0.8","673493f39318451e1c97abac","683db6dfa200031b80f2a654","6865076e9de707a5d9defd2b","673493f39318451e1c97abac","2025-07-02T10:35:22.784Z","","","","","","StressQ","","","","","","","","","","","","","","","","","","","","","","","","","","","","","","","","","","","","","","50"
"6920","","<div style=""width:500px;"">
  <p>What best describes how you currently feel?</p>
  </div>","76","html-slider-response","57","952086","0.0-10.0-4.2","115","1","2025-07-02 10:19:46","80fe4187154257d5fb01684ea91b68b9","41.150.35.137","Mozilla/5.0 (Windows NT 10.0; Win64; x64) AppleWebKit/537.36 (KHTML, like Gecko) Chrome/138.0.0.0 Safari/537.36 Edg/138.0.0.0","WebKit","Edge","138.0.0.0","Windows","10.0","https://app.prolific.com/","en-US,en;q=0.9,en-ZA;q=0.8","673493f39318451e1c97abac","683db6dfa200031b80f2a654","6865076e9de707a5d9defd2b","673493f39318451e1c97abac","2025-07-02T10:35:29.710Z","","","","","","MotivationQ","","","","","","","","","","","","","","","","","","","","","","","","","","","","","","","","","","","","","","50"
"","","","","ctl-task-cpt","58","989178","0.0-10.0-0.3","115","1","2025-07-02 10:19:46","80fe4187154257d5fb01684ea91b68b9","41.150.35.137","Mozilla/5.0 (Windows NT 10.0; Win64; x64) AppleWebKit/537.36 (KHTML, like Gecko) Chrome/138.0.0.0 Safari/537.36 Edg/138.0.0.0","WebKit","Edge","138.0.0.0","Windows","10.0","https://app.prolific.com/","en-US,en;q=0.9,en-ZA;q=0.8","673493f39318451e1c97abac","683db6dfa200031b80f2a654","6865076e9de707a5d9defd2b","673493f39318451e1c97abac","2025-07-02T10:36:06.802Z","","","","","","","","","","","","","","","","win-only","2","g1:SE,g2:NW","0.7","4","0","959513.8","2087.7","7090.2","34069.5","1","4","8","6","1","-1","-1","0","1","0","5002.5","3000","-1970","[""down"",""right""]","{""num_key_presses"":8,""num_perfect"":5,""num_errors"":0,""num_randdir"":3,""num_randdir_good_moves"":0,""num_whilered"":0,""num_whileblue"":0,""num_blue"":0,""num_good_moves"":5}","[413.57142857142856,408.6808016640799,0.2,413.57142857142856,408.6808016640799,109.2,413.57142857142856,408.6808016640799,216.7,413.57142857142856,408.6808016640799,321.7,413.57142857142856,408.6808016640799,422.8,413.57142857142856,408.6808016640799,522.8,413.57142857142856,408.6808016640799,633,413.57142857142856,408.6808016640799,743.5,413.57142857142856,408.6808016640799,848.1,413.57142857142856,408.6808016640799,948.4,413.57142857142856,408.6808016640799,1054.7,413.57142857142856,408.6808016640799,1155.3,413.57142857142856,408.6808016640799,1263,413.57142857142856,408.6808016640799,1367,413.57142857142856,408.6808016640799,1471.6,413.57142857142856,408.6808016640799,1573.4,413.57142857142856,408.6808016640799,1678.7,413.57142857142856,408.6808016640799,1781.8,413.57142857142856,408.6808016640799,1883.3,413.57142857142856,408.6808016640799,1983.6,413.57142857142856,408.6808016640799,2084.8,413.57142857142856,408.6808016640799,2195.1,413.57142857142856,408.6808016640799,2298.8,413.57142857142856,408.6808016640799,2403.4,413.57142857142856,408.6808016640799,2503.8,413.57142857142856,408.6808016640799,2604.6,413.57142857142856,408.6808016640799,2713.5,413.57142857142856,408.6808016640799,2821,413.57142857142856,408.6808016640799,2922.9,413.57142857142856,408.6808016640799,3022.9,413.57142857142856,408.6808016640799,3128.2,413.57142857142856,408.6808016640799,3230.5,413.57142857142856,408.6808016640799,3332.1,413.57142857142856,408.6808016640799,3432.6,413.57142857142856,408.6808016640799,3539.5,413.57142857142856,408.6808016640799,3643.9,413.57142857142856,408.6808016640799,3747.2,413.57142857142856,408.6808016640799,3848.4,413.57142857142856,408.6808016640799,3948.4,413.57142857142856,408.6808016640799,4053.9,413.57142857142856,408.6808016640799,4164.2,413.57142857142856,408.6808016640799,4265,413.57142857142856,408.6808016640799,4375,413.57142857142856,408.6808016640799,4477.9,413.57142857142856,408.6808016640799,4581.9,413.57142857142856,408.6808016640799,4685.4,413.57142857142856,408.6808016640799,4788.7,413.57142857142856,408.6808016640799,4888.8,413.57142857142856,408.6808016640799,4995.8]","[2230.1,2230.1,1000,0,1230.1,""smooth"",""down"",""down"",""good_move"",4835.3,2604.8,2136.2,2230.5,468.6,""smooth"",""right"",""right"",""good_move"",7926.6,3091.1,2564.4,4835.5,526.7,""oops"",""down"",""left"",""bad_move"",10508.4,2581.4,2118.4,7927,463,""oops"",""down"",""up"",""bad_move"",13997.7,3488.8,2994.9,10508.9,493.9,""smooth"",""right"",""right"",""good_move"",17007.2,3009.3,2663.7,13997.9,345.6,""smooth"",""down"",""down"",""good_move"",20037.4,3029.8,2708.1,17007.6,321.7,""smooth"",""right"",""right"",""good_move"",23671.4,3633.5,3102,20037.9,531.5,""oops"",""down"",""left"",""bad_move""]","",""
"8477","","<div style=""width:500px;"">
  <p>What determined the result of this run?</p>
  </div>","26","html-slider-response","59","997657","0.0-10.0-1.3","115","1","2025-07-02 10:19:46","80fe4187154257d5fb01684ea91b68b9","41.150.35.137","Mozilla/5.0 (Windows NT 10.0; Win64; x64) AppleWebKit/537.36 (KHTML, like Gecko) Chrome/138.0.0.0 Safari/537.36 Edg/138.0.0.0","WebKit","Edge","138.0.0.0","Windows","10.0","https://app.prolific.com/","en-US,en;q=0.9,en-ZA;q=0.8","673493f39318451e1c97abac","683db6dfa200031b80f2a654","6865076e9de707a5d9defd2b","673493f39318451e1c97abac","2025-07-02T10:36:15.281Z","","","","","","AttribQ","","","","","","","","","","","","","","","","","","","","","","","","","","","","","","","","","","","","","","50"
"6645","","<div style=""width:500px;"">
  <p>How much control did you have over the ball?</p>
  </div>","28","html-slider-response","60","1004305","0.0-10.0-2.3","115","1","2025-07-02 10:19:46","80fe4187154257d5fb01684ea91b68b9","41.150.35.137","Mozilla/5.0 (Windows NT 10.0; Win64; x64) AppleWebKit/537.36 (KHTML, like Gecko) Chrome/138.0.0.0 Safari/537.36 Edg/138.0.0.0","WebKit","Edge","138.0.0.0","Windows","10.0","https://app.prolific.com/","en-US,en;q=0.9,en-ZA;q=0.8","673493f39318451e1c97abac","683db6dfa200031b80f2a654","6865076e9de707a5d9defd2b","673493f39318451e1c97abac","2025-07-02T10:36:21.929Z","","","","","","ControlQ","","","","","","","","","","","","","","","","","","","","","","","","","","","","","","","","","","","","","","50"
"5266","","<div style=""width:500px;"">
  <p>How would you describe your current emotional state?</p>
  </div>","28","html-slider-response","61","1009581","0.0-10.0-3.3","115","1","2025-07-02 10:19:46","80fe4187154257d5fb01684ea91b68b9","41.150.35.137","Mozilla/5.0 (Windows NT 10.0; Win64; x64) AppleWebKit/537.36 (KHTML, like Gecko) Chrome/138.0.0.0 Safari/537.36 Edg/138.0.0.0","WebKit","Edge","138.0.0.0","Windows","10.0","https://app.prolific.com/","en-US,en;q=0.9,en-ZA;q=0.8","673493f39318451e1c97abac","683db6dfa200031b80f2a654","6865076e9de707a5d9defd2b","673493f39318451e1c97abac","2025-07-02T10:36:27.205Z","","","","","","StressQ","","","","","","","","","","","","","","","","","","","","","","","","","","","","","","","","","","","","","","50"
"4686","","<div style=""width:500px;"">
  <p>What best describes how you currently feel?</p>
  </div>","68","html-slider-response","62","1014279","0.0-10.0-4.3","115","1","2025-07-02 10:19:46","80fe4187154257d5fb01684ea91b68b9","41.150.35.137","Mozilla/5.0 (Windows NT 10.0; Win64; x64) AppleWebKit/537.36 (KHTML, like Gecko) Chrome/138.0.0.0 Safari/537.36 Edg/138.0.0.0","WebKit","Edge","138.0.0.0","Windows","10.0","https://app.prolific.com/","en-US,en;q=0.9,en-ZA;q=0.8","673493f39318451e1c97abac","683db6dfa200031b80f2a654","6865076e9de707a5d9defd2b","673493f39318451e1c97abac","2025-07-02T10:36:31.904Z","","","","","","MotivationQ","","","","","","","","","","","","","","","","","","","","","","","","","","","","","","","","","","","","","","50"
"","","","","ctl-task-cpt","63","1063541","0.0-10.0-0.4","115","1","2025-07-02 10:19:46","80fe4187154257d5fb01684ea91b68b9","41.150.35.137","Mozilla/5.0 (Windows NT 10.0; Win64; x64) AppleWebKit/537.36 (KHTML, like Gecko) Chrome/138.0.0.0 Safari/537.36 Edg/138.0.0.0","WebKit","Edge","138.0.0.0","Windows","10.0","https://app.prolific.com/","en-US,en;q=0.9,en-ZA;q=0.8","673493f39318451e1c97abac","683db6dfa200031b80f2a654","6865076e9de707a5d9defd2b","673493f39318451e1c97abac","2025-07-02T10:37:21.164Z","","","","","","","","","","","","","","","","win-only","2","g1:SE,g2:NW","0.6","5","0","1021707.9","1882.3","6893.5","46232.4","1","4","8","6","2","-8","-10","0","0","0","5011.2","3000","-2020","[""left"",""up""]","{""num_key_presses"":11,""num_perfect"":5,""num_errors"":2,""num_randdir"":4,""num_randdir_good_moves"":2,""num_whilered"":0,""num_whileblue"":1,""num_blue"":2,""num_good_moves"":6}","[419.57142857142856,414.6808016640799,0.4,419.57142857142856,414.6808016640799,118.4,419.57142857142856,414.6808016640799,225.5,419.57142857142856,414.6808016640799,333,419.57142857142856,414.6808016640799,436.8,419.57142857142856,414.6808016640799,540.9,419.57142857142856,414.6808016640799,646.9,419.57142857142856,414.6808016640799,749,419.57142857142856,414.6808016640799,858.3,419.57142857142856,414.6808016640799,965.8,419.57142857142856,414.6808016640799,1067.9,419.57142857142856,414.6808016640799,1170.2,419.57142857142856,414.6808016640799,1273.1,419.57142857142856,414.6808016640799,1385.5,419.57142857142856,414.6808016640799,1488.6,419.57142857142856,414.6808016640799,1602,419.57142857142856,414.6808016640799,1704.2,419.57142857142856,414.6808016640799,1808.1,419.57142857142856,414.6808016640799,1908.5,419.57142857142856,414.6808016640799,2023.6,419.57142857142856,414.6808016640799,2124.2,419.57142857142856,414.6808016640799,2225.8,419.57142857142856,414.6808016640799,2333.7,419.57142857142856,414.6808016640799,2436.3,419.57142857142856,414.6808016640799,2536.6,419.57142857142856,414.6808016640799,2654.2,419.57142857142856,414.6808016640799,2755.8,419.57142857142856,414.6808016640799,2871.7,419.57142857142856,414.6808016640799,2975.1,419.57142857142856,414.6808016640799,3083,419.57142857142856,414.6808016640799,3187,419.57142857142856,414.6808016640799,3290.8,419.57142857142856,414.6808016640799,3404.9,419.57142857142856,414.6808016640799,3520.9,419.57142857142856,414.6808016640799,3636.6,419.57142857142856,414.6808016640799,3736.9,419.57142857142856,414.6808016640799,3839.6,419.57142857142856,414.6808016640799,3947,419.57142857142856,414.6808016640799,4051.2,419.57142857142856,414.6808016640799,4168.7,419.57142857142856,414.6808016640799,4269.2,419.57142857142856,414.6808016640799,4373.4,419.57142857142856,414.6808016640799,4474.5,419.57142857142856,414.6808016640799,4579.4,419.57142857142856,414.6808016640799,4685,419.57142857142856,414.6808016640799,4788,419.57142857142856,414.6808016640799,4893.7,419.57142857142856,414.6808016640799,4998.5]","[1956.6,1956.6,1000,0,956.6,""smooth"",""down"",""down"",""bad_move"",4123.4,2165.1,2660.2,1958.4,-495.2,""error"",""-"",""-"",""no_move"",7939.7,3816.1,2319.7,5124.6,495.4,""oops"",""up"",""down"",""bad_move"",12106,4166.1,3718.6,7939.9,447.5,""smooth"",""left"",""left"",""good_move"",15409,3302.5,2874.2,12106.5,428.3,""smooth"",""up"",""up"",""good_move"",18039.5,2630.1,2180.9,15409.4,449.2,""smooth"",""up"",""up"",""good_move"",24861.4,6821.5,2732.6,21818.1,310.7,""smooth"",""up"",""up"",""good_move"",27960.1,3098.4,2701.2,24861.7,397.2,""oops"",""up"",""down"",""bad_move"",31183.8,3223.3,2837.2,27960.5,386.2,""oops"",""left"",""left"",""good_move"",33887,2702.7,2335,31184.3,367.7,""oops"",""up"",""left"",""good_move"",36580.9,2693.9,2302.7,33887.2,391.2,""while_blue"",""up"",""down"",""bad_move""]","",""
"6215","","<div style=""width:500px;"">
  <p>What determined the result of this run?</p>
  </div>","24","html-slider-response","64","1069758","0.0-10.0-1.4","115","1","2025-07-02 10:19:46","80fe4187154257d5fb01684ea91b68b9","41.150.35.137","Mozilla/5.0 (Windows NT 10.0; Win64; x64) AppleWebKit/537.36 (KHTML, like Gecko) Chrome/138.0.0.0 Safari/537.36 Edg/138.0.0.0","WebKit","Edge","138.0.0.0","Windows","10.0","https://app.prolific.com/","en-US,en;q=0.9,en-ZA;q=0.8","673493f39318451e1c97abac","683db6dfa200031b80f2a654","6865076e9de707a5d9defd2b","673493f39318451e1c97abac","2025-07-02T10:37:27.381Z","","","","","","AttribQ","","","","","","","","","","","","","","","","","","","","","","","","","","","","","","","","","","","","","","50"
"5095","","<div style=""width:500px;"">
  <p>How much control did you have over the ball?</p>
  </div>","28","html-slider-response","65","1074855","0.0-10.0-2.4","115","1","2025-07-02 10:19:46","80fe4187154257d5fb01684ea91b68b9","41.150.35.137","Mozilla/5.0 (Windows NT 10.0; Win64; x64) AppleWebKit/537.36 (KHTML, like Gecko) Chrome/138.0.0.0 Safari/537.36 Edg/138.0.0.0","WebKit","Edge","138.0.0.0","Windows","10.0","https://app.prolific.com/","en-US,en;q=0.9,en-ZA;q=0.8","673493f39318451e1c97abac","683db6dfa200031b80f2a654","6865076e9de707a5d9defd2b","673493f39318451e1c97abac","2025-07-02T10:37:32.479Z","","","","","","ControlQ","","","","","","","","","","","","","","","","","","","","","","","","","","","","","","","","","","","","","","50"
"5207","","<div style=""width:500px;"">
  <p>How would you describe your current emotional state?</p>
  </div>","38","html-slider-response","66","1080072","0.0-10.0-3.4","115","1","2025-07-02 10:19:46","80fe4187154257d5fb01684ea91b68b9","41.150.35.137","Mozilla/5.0 (Windows NT 10.0; Win64; x64) AppleWebKit/537.36 (KHTML, like Gecko) Chrome/138.0.0.0 Safari/537.36 Edg/138.0.0.0","WebKit","Edge","138.0.0.0","Windows","10.0","https://app.prolific.com/","en-US,en;q=0.9,en-ZA;q=0.8","673493f39318451e1c97abac","683db6dfa200031b80f2a654","6865076e9de707a5d9defd2b","673493f39318451e1c97abac","2025-07-02T10:37:37.696Z","","","","","","StressQ","","","","","","","","","","","","","","","","","","","","","","","","","","","","","","","","","","","","","","50"
"6653","","<div style=""width:500px;"">
  <p>What best describes how you currently feel?</p>
  </div>","65","html-slider-response","67","1086738","0.0-10.0-4.4","115","1","2025-07-02 10:19:46","80fe4187154257d5fb01684ea91b68b9","41.150.35.137","Mozilla/5.0 (Windows NT 10.0; Win64; x64) AppleWebKit/537.36 (KHTML, like Gecko) Chrome/138.0.0.0 Safari/537.36 Edg/138.0.0.0","WebKit","Edge","138.0.0.0","Windows","10.0","https://app.prolific.com/","en-US,en;q=0.9,en-ZA;q=0.8","673493f39318451e1c97abac","683db6dfa200031b80f2a654","6865076e9de707a5d9defd2b","673493f39318451e1c97abac","2025-07-02T10:37:44.361Z","","","","","","MotivationQ","","","","","","","","","","","","","","","","","","","","","","","","","","","","","","","","","","","","","","50"
"","","","","ctl-task-cpt","68","1125781","0.0-10.0-0.5","115","1","2025-07-02 10:19:46","80fe4187154257d5fb01684ea91b68b9","41.150.35.137","Mozilla/5.0 (Windows NT 10.0; Win64; x64) AppleWebKit/537.36 (KHTML, like Gecko) Chrome/138.0.0.0 Safari/537.36 Edg/138.0.0.0","WebKit","Edge","138.0.0.0","Windows","10.0","https://app.prolific.com/","en-US,en;q=0.9,en-ZA;q=0.8","673493f39318451e1c97abac","683db6dfa200031b80f2a654","6865076e9de707a5d9defd2b","673493f39318451e1c97abac","2025-07-02T10:38:23.404Z","","","","","","","","","","","","","","","","win-only","0","g1:NW,g2:SE","0.5","6","0","1094166.3","2469.6","7472.9","36025.7","1","4","4","6","2","-4","-4","0","0","0","5003.3","3000","-1980","[""down"",""right""]","{""num_key_presses"":8,""num_perfect"":5,""num_errors"":0,""num_randdir"":3,""num_randdir_good_moves"":1,""num_whilered"":0,""num_whileblue"":0,""num_blue"":1,""num_good_moves"":6}","[412.07142857142856,410.1808016640799,0.2,412.07142857142856,410.1808016640799,106.4,412.07142857142856,410.1808016640799,217.4,412.07142857142856,410.1808016640799,321,412.07142857142856,410.1808016640799,428.7,412.07142857142856,410.1808016640799,535.5,412.07142857142856,410.1808016640799,636.6,412.07142857142856,410.1808016640799,747.3,412.07142857142856,410.1808016640799,848,412.07142857142856,410.1808016640799,948.8,412.07142857142856,410.1808016640799,1055.3,412.07142857142856,410.1808016640799,1163.7,412.07142857142856,410.1808016640799,1264.5,412.07142857142856,410.1808016640799,1365.2,412.07142857142856,410.1808016640799,1468,412.07142857142856,410.1808016640799,1568.9,412.07142857142856,410.1808016640799,1670.6,412.07142857142856,410.1808016640799,1772.3,412.07142857142856,410.1808016640799,1882.1,412.07142857142856,410.1808016640799,1984.1,412.07142857142856,410.1808016640799,2090.1,412.07142857142856,410.1808016640799,2195.5,412.07142857142856,410.1808016640799,2298.8,412.07142857142856,410.1808016640799,2401.5,412.07142857142856,410.1808016640799,2507.7,412.07142857142856,410.1808016640799,2611.7,412.07142857142856,410.1808016640799,2716.8,412.07142857142856,410.1808016640799,2817.5,412.07142857142856,410.1808016640799,2932.4,412.07142857142856,410.1808016640799,3036.1,412.07142857142856,410.1808016640799,3146.1,412.07142857142856,410.1808016640799,3247.3,412.07142857142856,410.1808016640799,3352.8,412.07142857142856,410.1808016640799,3463.2,412.07142857142856,410.1808016640799,3563.3,412.07142857142856,410.1808016640799,3664,412.07142857142856,410.1808016640799,3768.9,412.07142857142856,410.1808016640799,3882.1,412.07142857142856,410.1808016640799,3982.6,412.07142857142856,410.1808016640799,4085.9,412.07142857142856,410.1808016640799,4186.1,412.07142857142856,410.1808016640799,4296.1,412.07142857142856,410.1808016640799,4400,412.07142857142856,410.1808016640799,4502.7,412.07142857142856,410.1808016640799,4607.8,412.07142857142856,410.1808016640799,4714.4,412.07142857142856,410.1808016640799,4818.4,412.07142857142856,410.1808016640799,4929]","[1524.3,1524.3,1000,0,524.3,""smooth"",""down"",""down"",""good_move"",5542.9,4018.2,2416.9,1524.8,1601.3,""smooth"",""right"",""right"",""good_move"",11891.3,6348,2303.5,9122.1,465.7,""smooth"",""down"",""down"",""good_move"",15211.4,3319.6,2855.1,11891.8,464.5,""smooth"",""right"",""right"",""good_move"",18511.1,3299.4,2894.3,15211.7,405.1,""oops"",""right"",""down"",""good_move"",20743.9,2232.4,1771.6,18511.5,460.8,""oops"",""right"",""left"",""bad_move"",22758.9,2014.7,1630,20744.2,384.7,""oops"",""right"",""left"",""bad_move"",25397.4,2638.1,2280.7,22759.3,357.4,""smooth"",""right"",""right"",""good_move""]","",""
"5588","","<div style=""width:500px;"">
  <p>What determined the result of this run?</p>
  </div>","31","html-slider-response","69","1131373","0.0-10.0-1.5","115","1","2025-07-02 10:19:46","80fe4187154257d5fb01684ea91b68b9","41.150.35.137","Mozilla/5.0 (Windows NT 10.0; Win64; x64) AppleWebKit/537.36 (KHTML, like Gecko) Chrome/138.0.0.0 Safari/537.36 Edg/138.0.0.0","WebKit","Edge","138.0.0.0","Windows","10.0","https://app.prolific.com/","en-US,en;q=0.9,en-ZA;q=0.8","673493f39318451e1c97abac","683db6dfa200031b80f2a654","6865076e9de707a5d9defd2b","673493f39318451e1c97abac","2025-07-02T10:38:28.997Z","","","","","","AttribQ","","","","","","","","","","","","","","","","","","","","","","","","","","","","","","","","","","","","","","50"
"6070","","<div style=""width:500px;"">
  <p>How much control did you have over the ball?</p>
  </div>","25","html-slider-response","70","1137454","0.0-10.0-2.5","115","1","2025-07-02 10:19:46","80fe4187154257d5fb01684ea91b68b9","41.150.35.137","Mozilla/5.0 (Windows NT 10.0; Win64; x64) AppleWebKit/537.36 (KHTML, like Gecko) Chrome/138.0.0.0 Safari/537.36 Edg/138.0.0.0","WebKit","Edge","138.0.0.0","Windows","10.0","https://app.prolific.com/","en-US,en;q=0.9,en-ZA;q=0.8","673493f39318451e1c97abac","683db6dfa200031b80f2a654","6865076e9de707a5d9defd2b","673493f39318451e1c97abac","2025-07-02T10:38:35.078Z","","","","","","ControlQ","","","","","","","","","","","","","","","","","","","","","","","","","","","","","","","","","","","","","","50"
"4658","","<div style=""width:500px;"">
  <p>How would you describe your current emotional state?</p>
  </div>","79","html-slider-response","71","1142122","0.0-10.0-3.5","115","1","2025-07-02 10:19:46","80fe4187154257d5fb01684ea91b68b9","41.150.35.137","Mozilla/5.0 (Windows NT 10.0; Win64; x64) AppleWebKit/537.36 (KHTML, like Gecko) Chrome/138.0.0.0 Safari/537.36 Edg/138.0.0.0","WebKit","Edge","138.0.0.0","Windows","10.0","https://app.prolific.com/","en-US,en;q=0.9,en-ZA;q=0.8","673493f39318451e1c97abac","683db6dfa200031b80f2a654","6865076e9de707a5d9defd2b","673493f39318451e1c97abac","2025-07-02T10:38:39.746Z","","","","","","StressQ","","","","","","","","","","","","","","","","","","","","","","","","","","","","","","","","","","","","","","50"
"7263","","<div style=""width:500px;"">
  <p>What best describes how you currently feel?</p>
  </div>","54","html-slider-response","72","1149394","0.0-10.0-4.5","115","1","2025-07-02 10:19:46","80fe4187154257d5fb01684ea91b68b9","41.150.35.137","Mozilla/5.0 (Windows NT 10.0; Win64; x64) AppleWebKit/537.36 (KHTML, like Gecko) Chrome/138.0.0.0 Safari/537.36 Edg/138.0.0.0","WebKit","Edge","138.0.0.0","Windows","10.0","https://app.prolific.com/","en-US,en;q=0.9,en-ZA;q=0.8","673493f39318451e1c97abac","683db6dfa200031b80f2a654","6865076e9de707a5d9defd2b","673493f39318451e1c97abac","2025-07-02T10:38:47.018Z","","","","","","MotivationQ","","","","","","","","","","","","","","","","","","","","","","","","","","","","","","","","","","","","","","50"
"","","","","ctl-task-cpt","73","1374908","0.0-10.0-0.6","115","1","2025-07-02 10:19:46","80fe4187154257d5fb01684ea91b68b9","41.150.35.137","Mozilla/5.0 (Windows NT 10.0; Win64; x64) AppleWebKit/537.36 (KHTML, like Gecko) Chrome/138.0.0.0 Safari/537.36 Edg/138.0.0.0","WebKit","Edge","138.0.0.0","Windows","10.0","https://app.prolific.com/","en-US,en;q=0.9,en-ZA;q=0.8","673493f39318451e1c97abac","683db6dfa200031b80f2a654","6865076e9de707a5d9defd2b","673493f39318451e1c97abac","2025-07-02T10:42:32.531Z","","","","","","","","","","","","","","","","win-only","3","g1:SW,g2:NE","0.4","7","0","1156823.6","184165.2","189169.3","222477.6","1","4","4","6","2","4","3","3","0","0.022727272727272728","5004.1","3000","785","[""up"",""right""]","{""num_key_presses"":10,""num_perfect"":4,""num_errors"":1,""num_randdir"":5,""num_randdir_good_moves"":3,""num_whilered"":0,""num_whileblue"":1,""num_blue"":2,""num_good_moves"":8}","[410.57142857142856,413.1808016640799,1.9,410.57142857142856,413.1808016640799,100.5,410.57142857142856,413.1808016640799,203.1,410.57142857142856,413.1808016640799,315,410.57142857142856,413.1808016640799,418.6,410.57142857142856,413.1808016640799,524.9,410.57142857142856,413.1808016640799,624.9,410.57142857142856,413.1808016640799,728.9,410.57142857142856,413.1808016640799,829.5,410.57142857142856,413.1808016640799,932.8,410.57142857142856,413.1808016640799,1036.3,410.57142857142856,413.1808016640799,1137.1,410.57142857142856,413.1808016640799,1242.5,410.57142857142856,413.1808016640799,1347.7,410.57142857142856,413.1808016640799,1462.4,410.57142857142856,413.1808016640799,1564.5,410.57142857142856,413.1808016640799,1668.9,410.57142857142856,413.1808016640799,1783.3,410.57142857142856,413.1808016640799,1883.8,410.57142857142856,413.1808016640799,1985.4,410.57142857142856,413.1808016640799,2094.9,410.57142857142856,413.1808016640799,2202.2,410.57142857142856,413.1808016640799,2302.3,410.57142857142856,413.1808016640799,2412,410.57142857142856,413.1808016640799,2518.3,410.57142857142856,413.1808016640799,2621.4,410.57142857142856,413.1808016640799,2725.8,410.57142857142856,413.1808016640799,2832.3,410.57142857142856,413.1808016640799,2939.3,410.57142857142856,413.1808016640799,3054.6,410.57142857142856,413.1808016640799,3169.4,410.57142857142856,413.1808016640799,3284.3,410.57142857142856,413.1808016640799,3385.7,410.57142857142856,413.1808016640799,3486.9,410.57142857142856,413.1808016640799,3599.2,410.57142857142856,413.1808016640799,3702.7,410.57142857142856,413.1808016640799,3819.3,410.57142857142856,413.1808016640799,3929.7,410.57142857142856,413.1808016640799,4039.2,410.57142857142856,413.1808016640799,4139.2,410.57142857142856,413.1808016640799,4243.1,410.57142857142856,413.1808016640799,4345.4,410.57142857142856,413.1808016640799,4448.6,410.57142857142856,413.1808016640799,4549.3,410.57142857142856,413.1808016640799,4652.5,410.57142857142856,413.1808016640799,4758,410.57142857142856,413.1808016640799,4865.5,410.57142857142856,413.1808016640799,4967.2]","[1443.4,1443.4,1000,0,443.4,""oops"",""up"",""right"",""good_move"",5511.2,4067.3,3577,1443.9,490.3,""oops"",""up"",""left"",""bad_move"",8982.1,3470.6,3053.2,5511.5,417.4,""oops"",""up"",""right"",""good_move"",15511.6,6529.3,2483.3,12613.3,415,""smooth"",""right"",""right"",""good_move"",18528.9,3017.1,2519.3,15511.9,497.8,""smooth"",""up"",""up"",""good_move"",21891.4,3361.7,2851,18529.7,510.7,""oops"",""right"",""right"",""good_move"",24170.5,2278.7,1934.8,21891.8,343.9,""oops"",""up"",""down"",""bad_move"",27222.1,3051.2,2709.6,24170.9,341.6,""smooth"",""up"",""up"",""good_move"",30259.1,3036.6,2691.9,27222.5,344.7,""while_blue"",""up"",""up"",""good_move"",33155.6,2895.4,2469.3,30260.2,426.1,""smooth"",""up"",""up"",""good_move""]","",""
"6305","","<div style=""width:500px;"">
  <p>What determined the result of this run?</p>
  </div>","36","html-slider-response","74","1381214","0.0-10.0-1.6","115","1","2025-07-02 10:19:46","80fe4187154257d5fb01684ea91b68b9","41.150.35.137","Mozilla/5.0 (Windows NT 10.0; Win64; x64) AppleWebKit/537.36 (KHTML, like Gecko) Chrome/138.0.0.0 Safari/537.36 Edg/138.0.0.0","WebKit","Edge","138.0.0.0","Windows","10.0","https://app.prolific.com/","en-US,en;q=0.9,en-ZA;q=0.8","673493f39318451e1c97abac","683db6dfa200031b80f2a654","6865076e9de707a5d9defd2b","673493f39318451e1c97abac","2025-07-02T10:42:38.837Z","","","","","","AttribQ","","","","","","","","","","","","","","","","","","","","","","","","","","","","","","","","","","","","","","50"
"6467","","<div style=""width:500px;"">
  <p>How much control did you have over the ball?</p>
  </div>","61","html-slider-response","75","1387684","0.0-10.0-2.6","115","1","2025-07-02 10:19:46","80fe4187154257d5fb01684ea91b68b9","41.150.35.137","Mozilla/5.0 (Windows NT 10.0; Win64; x64) AppleWebKit/537.36 (KHTML, like Gecko) Chrome/138.0.0.0 Safari/537.36 Edg/138.0.0.0","WebKit","Edge","138.0.0.0","Windows","10.0","https://app.prolific.com/","en-US,en;q=0.9,en-ZA;q=0.8","673493f39318451e1c97abac","683db6dfa200031b80f2a654","6865076e9de707a5d9defd2b","673493f39318451e1c97abac","2025-07-02T10:42:45.308Z","","","","","","ControlQ","","","","","","","","","","","","","","","","","","","","","","","","","","","","","","","","","","","","","","50"
"6486","","<div style=""width:500px;"">
  <p>How would you describe your current emotional state?</p>
  </div>","34","html-slider-response","76","1394180","0.0-10.0-3.6","115","1","2025-07-02 10:19:46","80fe4187154257d5fb01684ea91b68b9","41.150.35.137","Mozilla/5.0 (Windows NT 10.0; Win64; x64) AppleWebKit/537.36 (KHTML, like Gecko) Chrome/138.0.0.0 Safari/537.36 Edg/138.0.0.0","WebKit","Edge","138.0.0.0","Windows","10.0","https://app.prolific.com/","en-US,en;q=0.9,en-ZA;q=0.8","673493f39318451e1c97abac","683db6dfa200031b80f2a654","6865076e9de707a5d9defd2b","673493f39318451e1c97abac","2025-07-02T10:42:51.805Z","","","","","","StressQ","","","","","","","","","","","","","","","","","","","","","","","","","","","","","","","","","","","","","","50"
"4789","","<div style=""width:500px;"">
  <p>What best describes how you currently feel?</p>
  </div>","64","html-slider-response","77","1398981","0.0-10.0-4.6","115","1","2025-07-02 10:19:46","80fe4187154257d5fb01684ea91b68b9","41.150.35.137","Mozilla/5.0 (Windows NT 10.0; Win64; x64) AppleWebKit/537.36 (KHTML, like Gecko) Chrome/138.0.0.0 Safari/537.36 Edg/138.0.0.0","WebKit","Edge","138.0.0.0","Windows","10.0","https://app.prolific.com/","en-US,en;q=0.9,en-ZA;q=0.8","673493f39318451e1c97abac","683db6dfa200031b80f2a654","6865076e9de707a5d9defd2b","673493f39318451e1c97abac","2025-07-02T10:42:56.606Z","","","","","","MotivationQ","","","","","","","","","","","","","","","","","","","","","","","","","","","","","","","","","","","","","","50"
"","","","","ctl-task-cpt","78","1434493","0.0-10.0-0.7","115","1","2025-07-02 10:19:46","80fe4187154257d5fb01684ea91b68b9","41.150.35.137","Mozilla/5.0 (Windows NT 10.0; Win64; x64) AppleWebKit/537.36 (KHTML, like Gecko) Chrome/138.0.0.0 Safari/537.36 Edg/138.0.0.0","WebKit","Edge","138.0.0.0","Windows","10.0","https://app.prolific.com/","en-US,en;q=0.9,en-ZA;q=0.8","673493f39318451e1c97abac","683db6dfa200031b80f2a654","6865076e9de707a5d9defd2b","673493f39318451e1c97abac","2025-07-02T10:43:32.116Z","","","","","","","","","","","","","","","","win-only","1","g1:NE,g2:SW","0.3","8","0","1406412.2","4570.7","9576.8","32472.9","1","4","8","6","2","8","8","11","3","0.08333333333333333","5006.1","3000","920","[""down"",""left""]","{""num_key_presses"":8,""num_perfect"":3,""num_errors"":0,""num_randdir"":5,""num_randdir_good_moves"":4,""num_whilered"":0,""num_whileblue"":0,""num_blue"":0,""num_good_moves"":7}","[407.57142857142856,416.1808016640799,0.3,407.57142857142856,416.1808016640799,115.6,407.57142857142856,416.1808016640799,226.7,407.57142857142856,416.1808016640799,329.9,407.57142857142856,416.1808016640799,434.2,407.57142857142856,416.1808016640799,536.5,407.57142857142856,416.1808016640799,641.5,407.57142857142856,416.1808016640799,744,407.57142857142856,416.1808016640799,849.5,407.57142857142856,416.1808016640799,951.2,407.57142857142856,416.1808016640799,1065.7,407.57142857142856,416.1808016640799,1180.5,407.57142857142856,416.1808016640799,1280.6,407.57142857142856,416.1808016640799,1382.2,407.57142857142856,416.1808016640799,1500.5,407.57142857142856,416.1808016640799,1600.8,407.57142857142856,416.1808016640799,1701.4,407.57142857142856,416.1808016640799,1816.8,407.57142857142856,416.1808016640799,1929.4,407.57142857142856,416.1808016640799,2030.6,407.57142857142856,416.1808016640799,2135.6,407.57142857142856,416.1808016640799,2237,407.57142857142856,416.1808016640799,2344,407.57142857142856,416.1808016640799,2446.2,407.57142857142856,416.1808016640799,2567.4,407.57142857142856,416.1808016640799,2682.3,407.57142857142856,416.1808016640799,2786.6,407.57142857142856,416.1808016640799,2897.3,407.57142857142856,416.1808016640799,3002.7,407.57142857142856,416.1808016640799,3109.6,407.57142857142856,416.1808016640799,3212.1,407.57142857142856,416.1808016640799,3323.6,407.57142857142856,416.1808016640799,3434.7,407.57142857142856,416.1808016640799,3549,407.57142857142856,416.1808016640799,3651.2,407.57142857142856,416.1808016640799,3756,407.57142857142856,416.1808016640799,3859.1,407.57142857142856,416.1808016640799,3964.2,407.57142857142856,416.1808016640799,4064.9,407.57142857142856,416.1808016640799,4179,407.57142857142856,416.1808016640799,4297.8,407.57142857142856,416.1808016640799,4400.5,407.57142857142856,416.1808016640799,4513.2,407.57142857142856,416.1808016640799,4614.3,407.57142857142856,416.1808016640799,4715.5,407.57142857142856,416.1808016640799,4815.7,407.57142857142856,416.1808016640799,4918.8]","[1422.7,1422.7,1000,0,422.7,""oops"",""down"",""down"",""good_move"",4201.2,2778.1,2346.2,1423.1,431.9,""smooth"",""left"",""left"",""good_move"",7570.4,3367.2,2781.6,4203.3,585.5,""smooth"",""down"",""down"",""good_move"",10738.5,3167.8,2798.8,7570.7,369,""oops"",""left"",""left"",""good_move"",13432.4,2693.7,2188.8,10738.8,504.9,""oops"",""down"",""down"",""good_move"",16843.2,3410.5,3074.4,13432.7,336.1,""oops"",""left"",""right"",""bad_move"",19612.2,2768.7,2404.7,16843.5,364,""smooth"",""left"",""left"",""good_move"",22753.7,3140.8,2650.1,19613,490.6,""oops"",""left"",""left"",""good_move""]","",""
"5650","","<div style=""width:500px;"">
  <p>What determined the result of this run?</p>
  </div>","27","html-slider-response","79","1440146","0.0-10.0-1.7","115","1","2025-07-02 10:19:46","80fe4187154257d5fb01684ea91b68b9","41.150.35.137","Mozilla/5.0 (Windows NT 10.0; Win64; x64) AppleWebKit/537.36 (KHTML, like Gecko) Chrome/138.0.0.0 Safari/537.36 Edg/138.0.0.0","WebKit","Edge","138.0.0.0","Windows","10.0","https://app.prolific.com/","en-US,en;q=0.9,en-ZA;q=0.8","673493f39318451e1c97abac","683db6dfa200031b80f2a654","6865076e9de707a5d9defd2b","673493f39318451e1c97abac","2025-07-02T10:43:37.770Z","","","","","","AttribQ","","","","","","","","","","","","","","","","","","","","","","","","","","","","","","","","","","","","","","50"
"8055","","<div style=""width:500px;"">
  <p>How much control did you have over the ball?</p>
  </div>","70","html-slider-response","80","1448213","0.0-10.0-2.7","115","1","2025-07-02 10:19:46","80fe4187154257d5fb01684ea91b68b9","41.150.35.137","Mozilla/5.0 (Windows NT 10.0; Win64; x64) AppleWebKit/537.36 (KHTML, like Gecko) Chrome/138.0.0.0 Safari/537.36 Edg/138.0.0.0","WebKit","Edge","138.0.0.0","Windows","10.0","https://app.prolific.com/","en-US,en;q=0.9,en-ZA;q=0.8","673493f39318451e1c97abac","683db6dfa200031b80f2a654","6865076e9de707a5d9defd2b","673493f39318451e1c97abac","2025-07-02T10:43:45.838Z","","","","","","ControlQ","","","","","","","","","","","","","","","","","","","","","","","","","","","","","","","","","","","","","","50"
"5465","","<div style=""width:500px;"">
  <p>How would you describe your current emotional state?</p>
  </div>","29","html-slider-response","81","1453690","0.0-10.0-3.7","115","1","2025-07-02 10:19:46","80fe4187154257d5fb01684ea91b68b9","41.150.35.137","Mozilla/5.0 (Windows NT 10.0; Win64; x64) AppleWebKit/537.36 (KHTML, like Gecko) Chrome/138.0.0.0 Safari/537.36 Edg/138.0.0.0","WebKit","Edge","138.0.0.0","Windows","10.0","https://app.prolific.com/","en-US,en;q=0.9,en-ZA;q=0.8","673493f39318451e1c97abac","683db6dfa200031b80f2a654","6865076e9de707a5d9defd2b","673493f39318451e1c97abac","2025-07-02T10:43:51.314Z","","","","","","StressQ","","","","","","","","","","","","","","","","","","","","","","","","","","","","","","","","","","","","","","50"
"5510","","<div style=""width:500px;"">
  <p>What best describes how you currently feel?</p>
  </div>","59","html-slider-response","82","1459212","0.0-10.0-4.7","115","1","2025-07-02 10:19:46","80fe4187154257d5fb01684ea91b68b9","41.150.35.137","Mozilla/5.0 (Windows NT 10.0; Win64; x64) AppleWebKit/537.36 (KHTML, like Gecko) Chrome/138.0.0.0 Safari/537.36 Edg/138.0.0.0","WebKit","Edge","138.0.0.0","Windows","10.0","https://app.prolific.com/","en-US,en;q=0.9,en-ZA;q=0.8","673493f39318451e1c97abac","683db6dfa200031b80f2a654","6865076e9de707a5d9defd2b","673493f39318451e1c97abac","2025-07-02T10:43:56.837Z","","","","","","MotivationQ","","","","","","","","","","","","","","","","","","","","","","","","","","","","","","","","","","","","","","50"
"","","","","ctl-task-cpt","83","1514617","0.0-10.0-0.8","115","1","2025-07-02 10:19:46","80fe4187154257d5fb01684ea91b68b9","41.150.35.137","Mozilla/5.0 (Windows NT 10.0; Win64; x64) AppleWebKit/537.36 (KHTML, like Gecko) Chrome/138.0.0.0 Safari/537.36 Edg/138.0.0.0","WebKit","Edge","138.0.0.0","Windows","10.0","https://app.prolific.com/","en-US,en;q=0.9,en-ZA;q=0.8","673493f39318451e1c97abac","683db6dfa200031b80f2a654","6865076e9de707a5d9defd2b","673493f39318451e1c97abac","2025-07-02T10:44:52.240Z","","","","","","","","","","","","","","","","win-only","3","g1:SW,g2:NE","0.4","9","0","1466643","2498.1","7502.3","52385.2","1","4","8","6","1","1","0","11","11","0.08333333333333333","5004.2","3000","930","[""down"",""left""]","{""num_key_presses"":9,""num_perfect"":4,""num_errors"":1,""num_randdir"":4,""num_randdir_good_moves"":2,""num_whilered"":0,""num_whileblue"":0,""num_blue"":5,""num_good_moves"":6}","[415.07142857142856,414.6808016640799,0.7,415.07142857142856,414.6808016640799,100.1,415.07142857142856,414.6808016640799,215.2,415.07142857142856,414.6808016640799,324.2,415.07142857142856,414.6808016640799,431.8,415.07142857142856,414.6808016640799,535.9,415.07142857142856,414.6808016640799,651.2,415.07142857142856,414.6808016640799,757.8,415.07142857142856,414.6808016640799,862.1,415.07142857142856,414.6808016640799,977.8,415.07142857142856,414.6808016640799,1081.8,415.07142857142856,414.6808016640799,1186.2,415.07142857142856,414.6808016640799,1297.1,415.07142857142856,414.6808016640799,1400.9,415.07142857142856,414.6808016640799,1504.1,415.07142857142856,414.6808016640799,1608.2,415.07142857142856,414.6808016640799,1710.3,415.07142857142856,414.6808016640799,1823.2,415.07142857142856,414.6808016640799,1930,415.07142857142856,414.6808016640799,2034.1,415.07142857142856,414.6808016640799,2139.7,415.07142857142856,414.6808016640799,2247.2,415.07142857142856,414.6808016640799,2351.4,415.07142857142856,414.6808016640799,2454.9,415.07142857142856,414.6808016640799,2568.1,415.07142857142856,414.6808016640799,2674.1,415.07142857142856,414.6808016640799,2778,415.07142857142856,414.6808016640799,2888.9,415.07142857142856,414.6808016640799,2993.5,415.07142857142856,414.6808016640799,3097.9,415.07142857142856,414.6808016640799,3204.5,415.07142857142856,414.6808016640799,3306.6,415.07142857142856,414.6808016640799,3410.8,415.07142857142856,414.6808016640799,3513.3,415.07142857142856,414.6808016640799,3620.6,415.07142857142856,414.6808016640799,3723.7,415.07142857142856,414.6808016640799,3823.8,415.07142857142856,414.6808016640799,3926.4,415.07142857142856,414.6808016640799,4030.3,415.07142857142856,414.6808016640799,4130.9,415.07142857142856,414.6808016640799,4234,415.07142857142856,414.6808016640799,4344.8,415.07142857142856,414.6808016640799,4448,415.07142857142856,414.6808016640799,4567.7,415.07142857142856,414.6808016640799,4673.7,415.07142857142856,414.6808016640799,4783.5,415.07142857142856,414.6808016640799,4902.8]","[8658.5,8658.5,2440.7,5612.1,605.7,""smooth"",""left"",""left"",""good_move"",16213.6,7554.8,3713.2,11984.4,516,""oops"",""down"",""left"",""good_move"",19281.4,3067.6,2459.6,16213.8,608,""oops"",""down"",""up"",""bad_move"",22488.2,3206.4,2662.1,19281.8,544.3,""oops"",""down"",""up"",""bad_move"",23312.2,822.5,2056.3,22489.7,-1233.8,""error"",""-"",""-"",""no_move"",36263.8,12951.2,2970.5,32726.2,567.1,""smooth"",""down"",""down"",""good_move"",38912.1,2648,2198.4,36264.1,449.6,""oops"",""down"",""down"",""good_move"",42023.9,3111.6,2741.9,38912.3,369.7,""smooth"",""down"",""down"",""good_move"",44726.8,2702.4,2302.9,42024.4,399.5,""smooth"",""down"",""down"",""good_move""]","",""
"5437","","<div style=""width:500px;"">
  <p>What determined the result of this run?</p>
  </div>","37","html-slider-response","84","1520057","0.0-10.0-1.8","115","1","2025-07-02 10:19:46","80fe4187154257d5fb01684ea91b68b9","41.150.35.137","Mozilla/5.0 (Windows NT 10.0; Win64; x64) AppleWebKit/537.36 (KHTML, like Gecko) Chrome/138.0.0.0 Safari/537.36 Edg/138.0.0.0","WebKit","Edge","138.0.0.0","Windows","10.0","https://app.prolific.com/","en-US,en;q=0.9,en-ZA;q=0.8","673493f39318451e1c97abac","683db6dfa200031b80f2a654","6865076e9de707a5d9defd2b","673493f39318451e1c97abac","2025-07-02T10:44:57.681Z","","","","","","AttribQ","","","","","","","","","","","","","","","","","","","","","","","","","","","","","","","","","","","","","","50"
"5361","","<div style=""width:500px;"">
  <p>How much control did you have over the ball?</p>
  </div>","42","html-slider-response","85","1525429","0.0-10.0-2.8","115","1","2025-07-02 10:19:46","80fe4187154257d5fb01684ea91b68b9","41.150.35.137","Mozilla/5.0 (Windows NT 10.0; Win64; x64) AppleWebKit/537.36 (KHTML, like Gecko) Chrome/138.0.0.0 Safari/537.36 Edg/138.0.0.0","WebKit","Edge","138.0.0.0","Windows","10.0","https://app.prolific.com/","en-US,en;q=0.9,en-ZA;q=0.8","673493f39318451e1c97abac","683db6dfa200031b80f2a654","6865076e9de707a5d9defd2b","673493f39318451e1c97abac","2025-07-02T10:45:03.053Z","","","","","","ControlQ","","","","","","","","","","","","","","","","","","","","","","","","","","","","","","","","","","","","","","50"
"5339","","<div style=""width:500px;"">
  <p>How would you describe your current emotional state?</p>
  </div>","31","html-slider-response","86","1530780","0.0-10.0-3.8","115","1","2025-07-02 10:19:46","80fe4187154257d5fb01684ea91b68b9","41.150.35.137","Mozilla/5.0 (Windows NT 10.0; Win64; x64) AppleWebKit/537.36 (KHTML, like Gecko) Chrome/138.0.0.0 Safari/537.36 Edg/138.0.0.0","WebKit","Edge","138.0.0.0","Windows","10.0","https://app.prolific.com/","en-US,en;q=0.9,en-ZA;q=0.8","673493f39318451e1c97abac","683db6dfa200031b80f2a654","6865076e9de707a5d9defd2b","673493f39318451e1c97abac","2025-07-02T10:45:08.403Z","","","","","","StressQ","","","","","","","","","","","","","","","","","","","","","","","","","","","","","","","","","","","","","","50"
"4500","","<div style=""width:500px;"">
  <p>What best describes how you currently feel?</p>
  </div>","58","html-slider-response","87","1535289","0.0-10.0-4.8","115","1","2025-07-02 10:19:46","80fe4187154257d5fb01684ea91b68b9","41.150.35.137","Mozilla/5.0 (Windows NT 10.0; Win64; x64) AppleWebKit/537.36 (KHTML, like Gecko) Chrome/138.0.0.0 Safari/537.36 Edg/138.0.0.0","WebKit","Edge","138.0.0.0","Windows","10.0","https://app.prolific.com/","en-US,en;q=0.9,en-ZA;q=0.8","673493f39318451e1c97abac","683db6dfa200031b80f2a654","6865076e9de707a5d9defd2b","673493f39318451e1c97abac","2025-07-02T10:45:12.913Z","","","","","","MotivationQ","","","","","","","","","","","","","","","","","","","","","","","","","","","","","","","","","","","","","","50"
