"rt","response_timestamp","stimulus","response","trial_type","trial_index","time_elapsed","internal_node_id","run_id","condition","recorded_at","source_code_version","ip","user_agent","device","browser","browser_version","platform","platform_version","referer","accept_language","PROLIFIC_PID","STUDY_ID","SESSION_ID","prolific_id","realtime","view_history","question_order","consent","success","question_id","eventType","responses","item_order","radio_event_ids","radio_event_times","key_event_times","mouse_event_times","straightlining","zigzagging","honeypot","which_type","canvas_config","goals_layout","control_level","trial_number","tutorial_trial_number","trial_start_time","phase1_start_time","phase2_start_time","phase3_start_time","goal_1_value","goal_1_distance","goal_2_value","goal_2_distance","goal_selected","outcome","outcome_total","participant_final_score","participant_initial_score","participant_final_score_prop","goal_choice_rt","allocated_time","allocated_time_remaining","goal_direction","counts","mouse_movements","key_presses","correct","slider_start"
"84743","1751451777305","<p style='font-size:40px;line-height:1.25'><strong>Welcome to the experiment!</strong></p><p style='font-size:1.1em;line-height:1.25'>Thank you for your interest in our experiment! Before you begin, it is important that we obtain your informed consent to participate in the study.</p><p style='font-size:1.1em;line-height:1.25'>On the next screen will be an <strong>information sheet</strong> for you to read. To participate in the study we need you to read this information sheet and the following consent form carefully. If you agree with all the statements, please click the <strong>I agree</strong> button.</p><p style='font-size:1.1em;line-height:1.25'>Press <strong>Next</strong> to read the information sheet.</p>","0","custom-html-button-response","0","84747","0.0-0.0","144","1","2025-07-02 10:20:56","80fe4187154257d5fb01684ea91b68b9","82.23.98.22","Mozilla/5.0 (Windows NT 10.0; Win64; x64) AppleWebKit/537.36 (KHTML, like Gecko) Chrome/137.0.0.0 Safari/537.36","WebKit","Chrome","137.0.0.0","Windows","10.0","https://app.prolific.com/","en-US,en;q=0.9","67356f7cf6ff16fe3322a837","683db6dfa200031b80f2a654","6865079263f3ca337eb5ab89","67356f7cf6ff16fe3322a837","2025-07-02T10:22:57.306Z","","","","","","","","","","","","","","","","","","","","","","","","","","","","","","","","","","","","","","","","","","","",""
"28154","","","","instructions","1","112902","0.0-1.0","144","1","2025-07-02 10:20:56","80fe4187154257d5fb01684ea91b68b9","82.23.98.22","Mozilla/5.0 (Windows NT 10.0; Win64; x64) AppleWebKit/537.36 (KHTML, like Gecko) Chrome/137.0.0.0 Safari/537.36","WebKit","Chrome","137.0.0.0","Windows","10.0","https://app.prolific.com/","en-US,en;q=0.9","67356f7cf6ff16fe3322a837","683db6dfa200031b80f2a654","6865079263f3ca337eb5ab89","67356f7cf6ff16fe3322a837","","[{""page_index"":0,""viewing_time"":8208},{""page_index"":1,""viewing_time"":19945}]","","","","","","","","","","","","","","","","","","","","","","","","","","","","","","","","","","","","","","","","","","",""
"9480","","","{""Q0"":"""",""Q1"":"""",""Q2"":"""",""Q3"":"""",""Q4"":"""",""Q5"":"""",""Q6"":""I agree""}","survey-multi-choice","2","122385","0.0-2.0","144","1","2025-07-02 10:20:56","80fe4187154257d5fb01684ea91b68b9","82.23.98.22","Mozilla/5.0 (Windows NT 10.0; Win64; x64) AppleWebKit/537.36 (KHTML, like Gecko) Chrome/137.0.0.0 Safari/537.36","WebKit","Chrome","137.0.0.0","Windows","10.0","https://app.prolific.com/","en-US,en;q=0.9","67356f7cf6ff16fe3322a837","683db6dfa200031b80f2a654","6865079263f3ca337eb5ab89","67356f7cf6ff16fe3322a837","","","[0,1,2,3,4,5,6]","true","","","","","","","","","","","","","","","","","","","","","","","","","","","","","","","","","","","","","","","","",""
"8815","","","","fullscreen","3","132214","0.0-4.0","144","1","2025-07-02 10:20:56","80fe4187154257d5fb01684ea91b68b9","82.23.98.22","Mozilla/5.0 (Windows NT 10.0; Win64; x64) AppleWebKit/537.36 (KHTML, like Gecko) Chrome/137.0.0.0 Safari/537.36","WebKit","Chrome","137.0.0.0","Windows","10.0","https://app.prolific.com/","en-US,en;q=0.9","67356f7cf6ff16fe3322a837","683db6dfa200031b80f2a654","6865079263f3ca337eb5ab89","67356f7cf6ff16fe3322a837","","","","","true","","","","","","","","","","","","","","","","","","","","","","","","","","","","","","","","","","","","","","","",""
"12266","1751451837041"," <p style='font-size:1.1em;line-height:1.25'>Thank you for completing the consent form and closing all other tabs.</p><p style='font-size:1.1em;line-height:1.25'>We will now invite you to fill in some demographic information and questionnaires, before starting the game.<br>This will take about 5 minutes.<br></p><p style='font-size:1.1em;line-height:1.25'>Press the <strong>Next</strong> button to continue.</p>","0","custom-html-button-response","4","144482","0.0-5.0","144","1","2025-07-02 10:20:56","80fe4187154257d5fb01684ea91b68b9","82.23.98.22","Mozilla/5.0 (Windows NT 10.0; Win64; x64) AppleWebKit/537.36 (KHTML, like Gecko) Chrome/137.0.0.0 Safari/537.36","WebKit","Chrome","137.0.0.0","Windows","10.0","https://app.prolific.com/","en-US,en;q=0.9","67356f7cf6ff16fe3322a837","683db6dfa200031b80f2a654","6865079263f3ca337eb5ab89","67356f7cf6ff16fe3322a837","2025-07-02T10:23:57.042Z","","","","","","","","","","","","","","","","","","","","","","","","","","","","","","","","","","","","","","","","","","","",""
"6956","","","{""age"":""38""}","survey-text","5","151443","0.0-6.0-0.0","144","1","2025-07-02 10:20:56","80fe4187154257d5fb01684ea91b68b9","82.23.98.22","Mozilla/5.0 (Windows NT 10.0; Win64; x64) AppleWebKit/537.36 (KHTML, like Gecko) Chrome/137.0.0.0 Safari/537.36","WebKit","Chrome","137.0.0.0","Windows","10.0","https://app.prolific.com/","en-US,en;q=0.9","67356f7cf6ff16fe3322a837","683db6dfa200031b80f2a654","6865079263f3ca337eb5ab89","67356f7cf6ff16fe3322a837","","","","","","0","demographics","","","","","","","","","","","","","","","","","","","","","","","","","","","","","","","","","","","","","",""
"2744","","","{""gender_identity"":""female/woman""}","survey-multi-choice","6","154188","0.0-6.0-1.0","144","1","2025-07-02 10:20:56","80fe4187154257d5fb01684ea91b68b9","82.23.98.22","Mozilla/5.0 (Windows NT 10.0; Win64; x64) AppleWebKit/537.36 (KHTML, like Gecko) Chrome/137.0.0.0 Safari/537.36","WebKit","Chrome","137.0.0.0","Windows","10.0","https://app.prolific.com/","en-US,en;q=0.9","67356f7cf6ff16fe3322a837","683db6dfa200031b80f2a654","6865079263f3ca337eb5ab89","67356f7cf6ff16fe3322a837","","","[0]","","","1","demographics","","","","","","","","","","","","","","","","","","","","","","","","","","","","","","","","","","","","","",""
"2561","","","{""assigned_sex"":""female""}","survey-multi-choice","7","156751","0.0-6.0-2.0","144","1","2025-07-02 10:20:56","80fe4187154257d5fb01684ea91b68b9","82.23.98.22","Mozilla/5.0 (Windows NT 10.0; Win64; x64) AppleWebKit/537.36 (KHTML, like Gecko) Chrome/137.0.0.0 Safari/537.36","WebKit","Chrome","137.0.0.0","Windows","10.0","https://app.prolific.com/","en-US,en;q=0.9","67356f7cf6ff16fe3322a837","683db6dfa200031b80f2a654","6865079263f3ca337eb5ab89","67356f7cf6ff16fe3322a837","","","[0]","","","2","demographics","","","","","","","","","","","","","","","","","","","","","","","","","","","","","","","","","","","","","",""
"12486","","","{""menstrual_cycle"":""No""}","survey-multi-choice","8","169238","0.0-6.0-3.0","144","1","2025-07-02 10:20:56","80fe4187154257d5fb01684ea91b68b9","82.23.98.22","Mozilla/5.0 (Windows NT 10.0; Win64; x64) AppleWebKit/537.36 (KHTML, like Gecko) Chrome/137.0.0.0 Safari/537.36","WebKit","Chrome","137.0.0.0","Windows","10.0","https://app.prolific.com/","en-US,en;q=0.9","67356f7cf6ff16fe3322a837","683db6dfa200031b80f2a654","6865079263f3ca337eb5ab89","67356f7cf6ff16fe3322a837","","","[0]","","","4","demographics","","","","","","","","","","","","","","","","","","","","","","","","","","","","","","","","","","","","","",""
"3524","","","{""education"":""Bachelor's Degree (e.g., BA)""}","survey-multi-choice","9","172765","0.0-6.0-4.0","144","1","2025-07-02 10:20:56","80fe4187154257d5fb01684ea91b68b9","82.23.98.22","Mozilla/5.0 (Windows NT 10.0; Win64; x64) AppleWebKit/537.36 (KHTML, like Gecko) Chrome/137.0.0.0 Safari/537.36","WebKit","Chrome","137.0.0.0","Windows","10.0","https://app.prolific.com/","en-US,en;q=0.9","67356f7cf6ff16fe3322a837","683db6dfa200031b80f2a654","6865079263f3ca337eb5ab89","67356f7cf6ff16fe3322a837","","","[0]","","","5","demographics","","","","","","","","","","","","","","","","","","","","","","","","","","","","","","","","","","","","","",""
"4403","","","{""education"":""Bachelor's Degree (e.g., BA)""}","survey-multi-choice","10","177169","0.0-6.0-5.0","144","1","2025-07-02 10:20:56","80fe4187154257d5fb01684ea91b68b9","82.23.98.22","Mozilla/5.0 (Windows NT 10.0; Win64; x64) AppleWebKit/537.36 (KHTML, like Gecko) Chrome/137.0.0.0 Safari/537.36","WebKit","Chrome","137.0.0.0","Windows","10.0","https://app.prolific.com/","en-US,en;q=0.9","67356f7cf6ff16fe3322a837","683db6dfa200031b80f2a654","6865079263f3ca337eb5ab89","67356f7cf6ff16fe3322a837","2025-07-02T10:24:29.728Z","","[0]","","","6","demographics","","","","","","","","","","","","","","","","","","","","","","","","","","","","","","","","","","","","","",""
"23157","","","{""mental_health_condition"":""None"",""mental_health_treatment"":""No"",""psychiatric_medication"":""None""}","survey-text","11","200329","0.0-7.0-0.0","144","1","2025-07-02 10:20:56","80fe4187154257d5fb01684ea91b68b9","82.23.98.22","Mozilla/5.0 (Windows NT 10.0; Win64; x64) AppleWebKit/537.36 (KHTML, like Gecko) Chrome/137.0.0.0 Safari/537.36","WebKit","Chrome","137.0.0.0","Windows","10.0","https://app.prolific.com/","en-US,en;q=0.9","67356f7cf6ff16fe3322a837","683db6dfa200031b80f2a654","6865079263f3ca337eb5ab89","67356f7cf6ff16fe3322a837","2025-07-02T10:24:52.889Z","","","","","1","mental_health","","","","","","","","","","","","","","","","","","","","","","","","","","","","","","","","","","","","","",""
"29686","","","{""depression_history"":[""Yes""]}","survey-multi-select","12","230018","0.0-7.0-1.0","144","1","2025-07-02 10:20:56","80fe4187154257d5fb01684ea91b68b9","82.23.98.22","Mozilla/5.0 (Windows NT 10.0; Win64; x64) AppleWebKit/537.36 (KHTML, like Gecko) Chrome/137.0.0.0 Safari/537.36","WebKit","Chrome","137.0.0.0","Windows","10.0","https://app.prolific.com/","en-US,en;q=0.9","67356f7cf6ff16fe3322a837","683db6dfa200031b80f2a654","6865079263f3ca337eb5ab89","67356f7cf6ff16fe3322a837","","","[0]","","","","mental_health","","","","","","","","","","","","","","","","","","","","","","","","","","","","","","","","","","","","","",""
"8530","","","{""depression_episodes"":""1-2"",""depression_recent"":""More than 1 year ago""}","survey-multi-choice","13","238550","0.0-7.0-2.0-0.0","144","1","2025-07-02 10:20:56","80fe4187154257d5fb01684ea91b68b9","82.23.98.22","Mozilla/5.0 (Windows NT 10.0; Win64; x64) AppleWebKit/537.36 (KHTML, like Gecko) Chrome/137.0.0.0 Safari/537.36","WebKit","Chrome","137.0.0.0","Windows","10.0","https://app.prolific.com/","en-US,en;q=0.9","67356f7cf6ff16fe3322a837","683db6dfa200031b80f2a654","6865079263f3ca337eb5ab89","67356f7cf6ff16fe3322a837","2025-07-02T10:25:31.109Z","","[0,1]","","","3","mental_health","","","","","","","","","","","","","","","","","","","","","","","","","","","","","","","","","","","","","",""
"137342","","","","survey-template","14","375896","0.0-7.0-3.0","144","1","2025-07-02 10:20:56","80fe4187154257d5fb01684ea91b68b9","82.23.98.22","Mozilla/5.0 (Windows NT 10.0; Win64; x64) AppleWebKit/537.36 (KHTML, like Gecko) Chrome/137.0.0.0 Safari/537.36","WebKit","Chrome","137.0.0.0","Windows","10.0","https://app.prolific.com/","en-US,en;q=0.9","67356f7cf6ff16fe3322a837","683db6dfa200031b80f2a654","6865079263f3ca337eb5ab89","67356f7cf6ff16fe3322a837","2025-07-02T10:27:48.455Z","","","","","","ius","{""Q01"":""4"",""Q02"":""4"",""Q03"":""4"",""Q04"":""3"",""Q05"":""4"",""Q06"":""4"",""Q07"":""3"",""Q08"":""0"",""Q09"":""3"",""Q10"":""2"",""Q11"":""1"",""Q12"":""3"",""Q13"":""1""}","[0,1,2,3,4,5,6,7,8,9,10,11,12]","[""Q01"",""Q02"",""Q03"",""Q04"",""Q05"",""Q06"",""Q07"",""Q08"",""Q09"",""Q10"",""Q12"",""Q11"",""Q13""]","[9623.59999999404,11212.199999988079,18597.19999998808,37156.19999998808,38355.40000000596,54011.29999998212,65320.29999998212,79986.09999999404,93178.29999998212,99628.5,117354.29999998212,118700.69999998808,134170.40000000596]","[]","[4386.4000000059605,9623.59999999404,11212.199999988079,14909.299999982119,18597.19999998808,33921.09999999404,37156.19999998808,38355.40000000596,40376.59999999404,54011.29999998212,65320.29999998212,79986.09999999404,93178.29999998212,99628.5,115187.90000000596,116432.69999998808,117354.29999998212,118700.69999998808,134170.40000000596,137336.69999998808]","0.38461538461538464","0.4166666666666667","0","","","","","","","","","","","","","","","","","","","","","","","","","","","","",""
"14564","1751452083020","<p style='font-size:1.1em;line-height:1.25'>In the following, we will ask you a few questions relating to your experiences over the past month.<br></p><p style='font-size:1.1em;line-height:1.25'>Press the <strong>Next</strong> button to continue.</p>","0","custom-html-button-response","15","390462","0.0-7.0-4.0","144","1","2025-07-02 10:20:56","80fe4187154257d5fb01684ea91b68b9","82.23.98.22","Mozilla/5.0 (Windows NT 10.0; Win64; x64) AppleWebKit/537.36 (KHTML, like Gecko) Chrome/137.0.0.0 Safari/537.36","WebKit","Chrome","137.0.0.0","Windows","10.0","https://app.prolific.com/","en-US,en;q=0.9","67356f7cf6ff16fe3322a837","683db6dfa200031b80f2a654","6865079263f3ca337eb5ab89","67356f7cf6ff16fe3322a837","2025-07-02T10:28:03.021Z","","","","","","","","","","","","","","","","","","","","","","","","","","","","","","","","","","","","","","","","","","","",""
"76395.10000002384","","","","survey-template","16","466860","0.0-7.0-5.0","144","1","2025-07-02 10:20:56","80fe4187154257d5fb01684ea91b68b9","82.23.98.22","Mozilla/5.0 (Windows NT 10.0; Win64; x64) AppleWebKit/537.36 (KHTML, like Gecko) Chrome/137.0.0.0 Safari/537.36","WebKit","Chrome","137.0.0.0","Windows","10.0","https://app.prolific.com/","en-US,en;q=0.9","67356f7cf6ff16fe3322a837","683db6dfa200031b80f2a654","6865079263f3ca337eb5ab89","67356f7cf6ff16fe3322a837","2025-07-02T10:29:19.419Z","","","","","","pss","{""Q01"":""1"",""Q02"":""1"",""Q03"":""1"",""Q04"":""3"",""Q05"":""3"",""Q06"":""0"",""Q07"":""4"",""Q08"":""1"",""Q09"":""1"",""Q10"":""1""}","[0,1,2,3,4,5,6,7,8,9]","[""Q01"",""Q01"",""Q02"",""Q05"",""Q04"",""Q06"",""Q07"",""Q08"",""Q09"",""Q10"",""Q03"",""Q03""]","[12336.800000011921,13990,18812.100000023842,28728.90000000596,29853.30000001192,33687.40000000596,36714.5,41837.90000000596,53648.30000001192,55835.20000001788,64460.80000001192,67073.20000001788]","[]","[0,8985.5,12336.800000011921,13990,15505.5,18164.100000023842,18812.100000023842,20897.40000000596,21535.40000000596,22628.600000023842,24360.100000023842,25675.40000000596,28728.90000000596,29853.30000001192,33687.40000000596,36097,36714.5,37484.40000000596,39164.70000001788,41837.90000000596,53648.30000001192,54589.80000001192,55835.20000001788,57789.40000000596,64460.80000001192,67073.20000001788,76391.90000000596]","0.7","0.1111111111111111","0","","","","","","","","","","","","","","","","","","","","","","","","","","","","",""
"12655","1751452172075","<p style='font-size:1.1em;line-height:1.25'>Thank you for your answers! Now we will ask you a few more questions relating to your feelings in the last 24 hours.<br></p><p style='font-size:1.1em;line-height:1.25'>Press the <strong>Next</strong> button to continue.</p>","0","custom-html-button-response","17","479516","0.0-7.0-6.0","144","1","2025-07-02 10:20:56","80fe4187154257d5fb01684ea91b68b9","82.23.98.22","Mozilla/5.0 (Windows NT 10.0; Win64; x64) AppleWebKit/537.36 (KHTML, like Gecko) Chrome/137.0.0.0 Safari/537.36","WebKit","Chrome","137.0.0.0","Windows","10.0","https://app.prolific.com/","en-US,en;q=0.9","67356f7cf6ff16fe3322a837","683db6dfa200031b80f2a654","6865079263f3ca337eb5ab89","67356f7cf6ff16fe3322a837","2025-07-02T10:29:32.075Z","","","","","","","","","","","","","","","","","","","","","","","","","","","","","","","","","","","","","","","","","","","",""
"78353.5","","","","survey-template","18","557874","0.0-7.0-7.0","144","1","2025-07-02 10:20:56","80fe4187154257d5fb01684ea91b68b9","82.23.98.22","Mozilla/5.0 (Windows NT 10.0; Win64; x64) AppleWebKit/537.36 (KHTML, like Gecko) Chrome/137.0.0.0 Safari/537.36","WebKit","Chrome","137.0.0.0","Windows","10.0","https://app.prolific.com/","en-US,en;q=0.9","67356f7cf6ff16fe3322a837","683db6dfa200031b80f2a654","6865079263f3ca337eb5ab89","67356f7cf6ff16fe3322a837","2025-07-02T10:30:50.433Z","","","","","","drsp","{""Q01"":""0"",""Q02"":""0"",""Q03"":""0"",""Q04"":""0"",""Q05"":""1"",""Q06"":""0"",""Q07"":""0"",""Q08"":""0"",""Q09"":""0"",""Q10"":""1"",""Q11"":""1"",""Q12"":""1"",""Q13"":""2"",""Q14"":""1"",""Q15"":""0"",""Q16"":""1"",""Q17"":""0"",""Q18"":""0"",""Q19"":""1"",""Q20"":""0"",""Q21"":""0""}","[0,1,2,3,4,5,6,7,8,9,10,11,12,13,14,15,16,17,18,19,20]","[""Q01"",""Q02"",""Q03"",""Q04"",""Q05"",""Q06"",""Q07"",""Q08"",""Q09"",""Q10"",""Q10"",""Q11"",""Q12"",""Q13"",""Q14"",""Q15"",""Q17"",""Q18"",""Q16"",""Q19"",""Q20"",""Q21"",""Q19""]","[11109.90000000596,12385.5,13236.699999988079,14774.799999982119,17315.59999999404,20707,22964.29999998212,24776,26244,27347.90000000596,28096.29999998212,37662.09999999404,38715.09999999404,41246.09999999404,45467,48848.29999998212,51439.79999998212,53312.19999998808,59709.40000000596,65564.19999998808,70738.90000000596,71395.69999998808,72387.69999998808]","[]","[0,11109.90000000596,12385.5,13236.699999988079,14774.799999982119,17315.59999999404,19117.69999998808,20707,21466.5,22964.29999998212,23956.40000000596,24776,25566.40000000596,26244,27347.90000000596,28096.29999998212,32571.19999998808,35283.59999999404,35880.79999998212,36559,37662.09999999404,38715.09999999404,40679,41246.09999999404,45467,48848.29999998212,49506.59999999404,50335.79999998212,51439.79999998212,52168.40000000596,53312.19999998808,57827.59999999404,57887.5,58930.09999999404,59709.40000000596,65564.19999998808,68520.09999999404,70738.90000000596,71395.69999998808,72387.69999998808,78348]","0.6190476190476191","0.5","0","","","","","","","","","","","","","","","","","","","","","","","","","","","","",""
"14393.5","","","","survey-template","19","572270","0.0-7.0-8.0","144","1","2025-07-02 10:20:56","80fe4187154257d5fb01684ea91b68b9","82.23.98.22","Mozilla/5.0 (Windows NT 10.0; Win64; x64) AppleWebKit/537.36 (KHTML, like Gecko) Chrome/137.0.0.0 Safari/537.36","WebKit","Chrome","137.0.0.0","Windows","10.0","https://app.prolific.com/","en-US,en;q=0.9","67356f7cf6ff16fe3322a837","683db6dfa200031b80f2a654","6865079263f3ca337eb5ab89","67356f7cf6ff16fe3322a837","2025-07-02T10:31:04.829Z","","","","","","stress","{""Q01"":""0"",""Q02"":""0"",""Q03"":""1""}","[0,1,2]","[""Q01"",""Q02"",""Q02"",""Q02"",""Q03""]","[5002.200000017881,6481.0999999940395,8672.09999999404,11365.200000017881,13176.90000000596]","[]","[4040.5999999940395,5002.200000017881,6481.0999999940395,8672.09999999404,11365.200000017881,13176.90000000596,14391.800000011921]","0.3333333333333333","0.5","0","","","","","","","","","","","","","","","","","","","","","","","","","","","","",""
"220799","","","","instructions","20","793070","0.0-8.0-0.0","144","1","2025-07-02 10:20:56","80fe4187154257d5fb01684ea91b68b9","82.23.98.22","Mozilla/5.0 (Windows NT 10.0; Win64; x64) AppleWebKit/537.36 (KHTML, like Gecko) Chrome/137.0.0.0 Safari/537.36","WebKit","Chrome","137.0.0.0","Windows","10.0","https://app.prolific.com/","en-US,en;q=0.9","67356f7cf6ff16fe3322a837","683db6dfa200031b80f2a654","6865079263f3ca337eb5ab89","67356f7cf6ff16fe3322a837","","[{""page_index"":0,""viewing_time"":110151},{""page_index"":1,""viewing_time"":48539},{""page_index"":2,""viewing_time"":19495},{""page_index"":3,""viewing_time"":42614}]","","","","","","","","","","","","","","","","","","","","","","","","","","","","","","","","","","","","","","","","","","",""
"","","","","ctl-task-cpt","21","814585","0.0-8.0-1.0","144","1","2025-07-02 10:20:56","80fe4187154257d5fb01684ea91b68b9","82.23.98.22","Mozilla/5.0 (Windows NT 10.0; Win64; x64) AppleWebKit/537.36 (KHTML, like Gecko) Chrome/137.0.0.0 Safari/537.36","WebKit","Chrome","137.0.0.0","Windows","10.0","https://app.prolific.com/","en-US,en;q=0.9","67356f7cf6ff16fe3322a837","683db6dfa200031b80f2a654","6865079263f3ca337eb5ab89","67356f7cf6ff16fe3322a837","","","","","","","","","","","","","","","","","win-only","3","g1:SW,g2:NE","1","0","1","832328.6","5541.4","9546.5","18510.2","2","4","4","6","2","-4","-5","0","0","0","4005.1","4000","-2955","[""up"",""right""]","{""num_key_presses"":2,""num_perfect"":1,""num_errors"":1,""num_randdir"":0,""num_randdir_good_moves"":0,""num_whilered"":0,""num_whileblue"":0,""num_blue"":0,""num_good_moves"":0}","[351.14285714285717,342.04910714285717,0.3,351.14285714285717,342.04910714285717,100,351.14285714285717,342.04910714285717,204.5,351.14285714285717,342.04910714285717,309.8,351.14285714285717,342.04910714285717,410,351.14285714285717,342.04910714285717,511,351.14285714285717,342.04910714285717,615.6,351.14285714285717,342.04910714285717,720.5,349.14285714285717,342.04910714285717,820.8,345.14285714285717,348.04910714285717,924.8,336.14285714285717,356.04910714285717,1029.4,323.14285714285717,370.04910714285717,1130.7,317.14285714285717,380.04910714285717,1230.7,298.14285714285717,408.04910714285717,1335.7,241.14285714285714,481.04910714285717,1435.9,199.14285714285714,537.0491071428571,1539.1,157.14285714285714,576.0491071428571,1640.2,157.14285714285714,576.0491071428571,1740.5,157.14285714285714,576.0491071428571,1844.8,199.14285714285714,545.0491071428571,1950.6,225.14285714285714,540.0491071428571,2054.5,230.14285714285714,546.0491071428571,2160.8,274.14285714285717,528.0491071428571,2264.3,285.14285714285717,526.0491071428571,2364.6,287.14285714285717,524.0491071428571,2465.4,285.14285714285717,521.0491071428571,2570.9,285.14285714285717,521.0491071428571,2674.3,285.14285714285717,522.0491071428571,2779.9,285.14285714285717,522.0491071428571,2884.3,291.14285714285717,484.04910714285717,2984.9,329.14285714285717,395.04910714285717,3090.6,329.14285714285717,390.04910714285717,3194.9,328.14285714285717,389.04910714285717,3300.1,312.14285714285717,394.04910714285717,3404.1,305.14285714285717,401.04910714285717,3504.6,305.14285714285717,401.04910714285717,3609.8,304.14285714285717,404.04910714285717,3714.2,304.14285714285717,412.04910714285717,3814.9,304.14285714285717,472.04910714285717,3920.2]","[4727.5,4727.4,1000,0.1,3727.4,""smooth"",""left"",""left"",""bad_move"",5227.5,499.5,2717.3,4728,-2217.8,""error"",""-"",""-"",""no_move""]","",""
"15061","","","","instructions","22","829647","0.0-8.0-2.0","144","1","2025-07-02 10:20:56","80fe4187154257d5fb01684ea91b68b9","82.23.98.22","Mozilla/5.0 (Windows NT 10.0; Win64; x64) AppleWebKit/537.36 (KHTML, like Gecko) Chrome/137.0.0.0 Safari/537.36","WebKit","Chrome","137.0.0.0","Windows","10.0","https://app.prolific.com/","en-US,en;q=0.9","67356f7cf6ff16fe3322a837","683db6dfa200031b80f2a654","6865079263f3ca337eb5ab89","67356f7cf6ff16fe3322a837","","[{""page_index"":0,""viewing_time"":15061}]","","","","","","","","","","","","","","","","","","","","","","","","","","","","","","","","","","","","","","","","","","",""
"","","","","ctl-task-cpt","23","854060","0.0-8.0-3.0","144","1","2025-07-02 10:20:56","80fe4187154257d5fb01684ea91b68b9","82.23.98.22","Mozilla/5.0 (Windows NT 10.0; Win64; x64) AppleWebKit/537.36 (KHTML, like Gecko) Chrome/137.0.0.0 Safari/537.36","WebKit","Chrome","137.0.0.0","Windows","10.0","https://app.prolific.com/","en-US,en;q=0.9","67356f7cf6ff16fe3322a837","683db6dfa200031b80f2a654","6865079263f3ca337eb5ab89","67356f7cf6ff16fe3322a837","","","","","","","","","","","","","","","","","win-only","3","g1:SW,g2:NE","0.35","0","3","868904.8","2967.8","6971.5","21397.4","2","4","8","6","1","2","0","0","0","0","4003.7","4000","2510","[""down"",""left""]","{""num_key_presses"":6,""num_perfect"":2,""num_errors"":2,""num_randdir"":2,""num_randdir_good_moves"":2,""num_whilered"":0,""num_whileblue"":0,""num_blue"":0,""num_good_moves"":4}","[353.14285714285717,345.04910714285717,0.3,353.14285714285717,345.04910714285717,108.6,353.14285714285717,345.04910714285717,213.1,353.14285714285717,345.04910714285717,314.1,353.14285714285717,345.04910714285717,417.5,353.14285714285717,345.04910714285717,518.7,353.14285714285717,345.04910714285717,626.3,353.14285714285717,345.04910714285717,727,353.14285714285717,345.04910714285717,828.5,353.14285714285717,345.04910714285717,932.7,353.14285714285717,345.04910714285717,1033.4,353.14285714285717,345.04910714285717,1133.5,353.14285714285717,345.04910714285717,1237.9,353.14285714285717,345.04910714285717,1344.5,353.14285714285717,345.04910714285717,1447.6,353.14285714285717,345.04910714285717,1547.6,353.14285714285717,345.04910714285717,1647.7,353.14285714285717,345.04910714285717,1753.4,353.14285714285717,345.04910714285717,1853.4,353.14285714285717,345.04910714285717,1960.7,353.14285714285717,345.04910714285717,2062.9,353.14285714285717,345.04910714285717,2169,353.14285714285717,345.04910714285717,2273.4,353.14285714285717,345.04910714285717,2379.9,353.14285714285717,345.04910714285717,2483.5,353.14285714285717,345.04910714285717,2588.6,353.14285714285717,345.04910714285717,2688.8,353.14285714285717,345.04910714285717,2789.8,353.14285714285717,345.04910714285717,2897.5,353.14285714285717,345.04910714285717,2998.9,353.14285714285717,345.04910714285717,3103.5,353.14285714285717,345.04910714285717,3211.1,353.14285714285717,345.04910714285717,3311.3,353.14285714285717,345.04910714285717,3412.8,353.14285714285717,345.04910714285717,3513.4,353.14285714285717,345.04910714285717,3613.6,353.14285714285717,345.04910714285717,3718.7,353.14285714285717,345.04910714285717,3827.1,353.14285714285717,345.04910714285717,3928.5]","[1341.2,1341.2,1000,0,341.3,""oops"",""up"",""down"",""good_move"",1888.3,546.5,2442.6,1341.9,-1896.1,""error"",""-"",""-"",""no_move"",3794.5,1905.6,2206.1,2891.9,-1303.5,""error"",""-"",""-"",""no_move"",7260.8,3466,2104.3,4795.2,361.4,""smooth"",""down"",""down"",""good_move"",11575,4313.8,3804.4,7261.2,509.4,""smooth"",""left"",""left"",""good_move"",14338.8,2763,2439.8,11575.8,323.2,""oops"",""left"",""left"",""good_move""]","",""
"63482","","","","instructions","24","917543","0.0-8.0-4.0","144","1","2025-07-02 10:20:56","80fe4187154257d5fb01684ea91b68b9","82.23.98.22","Mozilla/5.0 (Windows NT 10.0; Win64; x64) AppleWebKit/537.36 (KHTML, like Gecko) Chrome/137.0.0.0 Safari/537.36","WebKit","Chrome","137.0.0.0","Windows","10.0","https://app.prolific.com/","en-US,en;q=0.9","67356f7cf6ff16fe3322a837","683db6dfa200031b80f2a654","6865079263f3ca337eb5ab89","67356f7cf6ff16fe3322a837","","[{""page_index"":0,""viewing_time"":13636},{""page_index"":1,""viewing_time"":49846}]","","","","","","","","","","","","","","","","","","","","","","","","","","","","","","","","","","","","","","","","","","",""
"17491","","","{""green_ball"":[""Ball always moves in the direction I press""]}","survey-multi-select","25","935054","0.0-8.0-5.0-0.0","144","1","2025-07-02 10:20:56","80fe4187154257d5fb01684ea91b68b9","82.23.98.22","Mozilla/5.0 (Windows NT 10.0; Win64; x64) AppleWebKit/537.36 (KHTML, like Gecko) Chrome/137.0.0.0 Safari/537.36","WebKit","Chrome","137.0.0.0","Windows","10.0","https://app.prolific.com/","en-US,en;q=0.9","67356f7cf6ff16fe3322a837","683db6dfa200031b80f2a654","6865079263f3ca337eb5ab89","67356f7cf6ff16fe3322a837","","","[0]","","","","quiz","","","","","","","","","","","","","","","","","","","","","","","","","","","","","","","","","","","","","false",""
"11726","","<p align='center'><b>INCORRECT.</b> Usually the green ball moves in the indicated direction, but sometimes it shakes and moves randomly. </p>","0","html-button-response","26","946782","0.0-8.0-5.0-1.0","144","1","2025-07-02 10:20:56","80fe4187154257d5fb01684ea91b68b9","82.23.98.22","Mozilla/5.0 (Windows NT 10.0; Win64; x64) AppleWebKit/537.36 (KHTML, like Gecko) Chrome/137.0.0.0 Safari/537.36","WebKit","Chrome","137.0.0.0","Windows","10.0","https://app.prolific.com/","en-US,en;q=0.9","67356f7cf6ff16fe3322a837","683db6dfa200031b80f2a654","6865079263f3ca337eb5ab89","67356f7cf6ff16fe3322a837","","","","","","","","","","","","","","","","","","","","","","","","","","","","","","","","","","","","","","","","","","","","",""
"5314","","","{""green_ball"":[""Ball always moves in the direction I press"",""Ball sometimes shakes and moves in a random direction""]}","survey-multi-select","27","952098","0.0-8.0-5.1-0.1","144","1","2025-07-02 10:20:56","80fe4187154257d5fb01684ea91b68b9","82.23.98.22","Mozilla/5.0 (Windows NT 10.0; Win64; x64) AppleWebKit/537.36 (KHTML, like Gecko) Chrome/137.0.0.0 Safari/537.36","WebKit","Chrome","137.0.0.0","Windows","10.0","https://app.prolific.com/","en-US,en;q=0.9","67356f7cf6ff16fe3322a837","683db6dfa200031b80f2a654","6865079263f3ca337eb5ab89","67356f7cf6ff16fe3322a837","","","[0]","","","","quiz","","","","","","","","","","","","","","","","","","","","","","","","","","","","","","","","","","","","","false",""
"7539","","<p align='center'><b>INCORRECT.</b> Usually the green ball moves in the indicated direction, but sometimes it shakes and moves randomly. </p>","0","html-button-response","28","959638","0.0-8.0-5.1-1.1","144","1","2025-07-02 10:20:56","80fe4187154257d5fb01684ea91b68b9","82.23.98.22","Mozilla/5.0 (Windows NT 10.0; Win64; x64) AppleWebKit/537.36 (KHTML, like Gecko) Chrome/137.0.0.0 Safari/537.36","WebKit","Chrome","137.0.0.0","Windows","10.0","https://app.prolific.com/","en-US,en;q=0.9","67356f7cf6ff16fe3322a837","683db6dfa200031b80f2a654","6865079263f3ca337eb5ab89","67356f7cf6ff16fe3322a837","","","","","","","","","","","","","","","","","","","","","","","","","","","","","","","","","","","","","","","","","","","","",""
"24434","","","{""green_ball"":[""Ball always shakes and moves in a random direction"",""Ball always moves in the direction I press"",""Ball sometimes shakes and moves in a random direction""]}","survey-multi-select","29","984074","0.0-8.0-5.2-0.2","144","1","2025-07-02 10:20:56","80fe4187154257d5fb01684ea91b68b9","82.23.98.22","Mozilla/5.0 (Windows NT 10.0; Win64; x64) AppleWebKit/537.36 (KHTML, like Gecko) Chrome/137.0.0.0 Safari/537.36","WebKit","Chrome","137.0.0.0","Windows","10.0","https://app.prolific.com/","en-US,en;q=0.9","67356f7cf6ff16fe3322a837","683db6dfa200031b80f2a654","6865079263f3ca337eb5ab89","67356f7cf6ff16fe3322a837","","","[0]","","","","quiz","","","","","","","","","","","","","","","","","","","","","","","","","","","","","","","","","","","","","false",""
"11304","","<p align='center'><b>INCORRECT.</b> Usually the green ball moves in the indicated direction, but sometimes it shakes and moves randomly. </p>","0","html-button-response","30","995381","0.0-8.0-5.2-1.2","144","1","2025-07-02 10:20:56","80fe4187154257d5fb01684ea91b68b9","82.23.98.22","Mozilla/5.0 (Windows NT 10.0; Win64; x64) AppleWebKit/537.36 (KHTML, like Gecko) Chrome/137.0.0.0 Safari/537.36","WebKit","Chrome","137.0.0.0","Windows","10.0","https://app.prolific.com/","en-US,en;q=0.9","67356f7cf6ff16fe3322a837","683db6dfa200031b80f2a654","6865079263f3ca337eb5ab89","67356f7cf6ff16fe3322a837","","","","","","","","","","","","","","","","","","","","","","","","","","","","","","","","","","","","","","","","","","","","",""
"42649","","","{""green_ball"":[""Ball sometimes shakes and moves in a random direction""]}","survey-multi-select","31","1038032","0.0-8.0-5.3-0.3","144","1","2025-07-02 10:20:56","80fe4187154257d5fb01684ea91b68b9","82.23.98.22","Mozilla/5.0 (Windows NT 10.0; Win64; x64) AppleWebKit/537.36 (KHTML, like Gecko) Chrome/137.0.0.0 Safari/537.36","WebKit","Chrome","137.0.0.0","Windows","10.0","https://app.prolific.com/","en-US,en;q=0.9","67356f7cf6ff16fe3322a837","683db6dfa200031b80f2a654","6865079263f3ca337eb5ab89","67356f7cf6ff16fe3322a837","","","[0]","","","","quiz","","","","","","","","","","","","","","","","","","","","","","","","","","","","","","","","","","","","","true",""
"4177","","<p align='center'><b>CORRECT!</b> Indeed, the green ball may sometimes shake and move in a random direction.</p>","0","html-button-response","32","1042211","0.0-8.0-5.3-1.3","144","1","2025-07-02 10:20:56","80fe4187154257d5fb01684ea91b68b9","82.23.98.22","Mozilla/5.0 (Windows NT 10.0; Win64; x64) AppleWebKit/537.36 (KHTML, like Gecko) Chrome/137.0.0.0 Safari/537.36","WebKit","Chrome","137.0.0.0","Windows","10.0","https://app.prolific.com/","en-US,en;q=0.9","67356f7cf6ff16fe3322a837","683db6dfa200031b80f2a654","6865079263f3ca337eb5ab89","67356f7cf6ff16fe3322a837","","","","","","","","","","","","","","","","","","","","","","","","","","","","","","","","","","","","","","","","","","","","",""
"10037","","","{""yellow_ball"":[""Ball doesn‘t move and I get -1 penalty point""]}","survey-multi-select","33","1052250","0.0-8.0-6.0-0.0","144","1","2025-07-02 10:20:56","80fe4187154257d5fb01684ea91b68b9","82.23.98.22","Mozilla/5.0 (Windows NT 10.0; Win64; x64) AppleWebKit/537.36 (KHTML, like Gecko) Chrome/137.0.0.0 Safari/537.36","WebKit","Chrome","137.0.0.0","Windows","10.0","https://app.prolific.com/","en-US,en;q=0.9","67356f7cf6ff16fe3322a837","683db6dfa200031b80f2a654","6865079263f3ca337eb5ab89","67356f7cf6ff16fe3322a837","","","[0]","","","","quiz","","","","","","","","","","","","","","","","","","","","","","","","","","","","","","","","","","","","","true",""
"1757","","<p align='center'><b>CORRECT!</b> Indeed, the yellow ball never moves and you receive a penalty.</p>","0","html-button-response","34","1054009","0.0-8.0-6.0-1.0","144","1","2025-07-02 10:20:56","80fe4187154257d5fb01684ea91b68b9","82.23.98.22","Mozilla/5.0 (Windows NT 10.0; Win64; x64) AppleWebKit/537.36 (KHTML, like Gecko) Chrome/137.0.0.0 Safari/537.36","WebKit","Chrome","137.0.0.0","Windows","10.0","https://app.prolific.com/","en-US,en;q=0.9","67356f7cf6ff16fe3322a837","683db6dfa200031b80f2a654","6865079263f3ca337eb5ab89","67356f7cf6ff16fe3322a837","","","","","","","","","","","","","","","","","","","","","","","","","","","","","","","","","","","","","","","","","","","","",""
"6599","","","{""blue_ball"":[""Ball always shakes and moves in a random direction"",""Ball doesn‘t move and I get -1 penalty point""]}","survey-multi-select","35","1060610","0.0-8.0-7.0-0.0","144","1","2025-07-02 10:20:56","80fe4187154257d5fb01684ea91b68b9","82.23.98.22","Mozilla/5.0 (Windows NT 10.0; Win64; x64) AppleWebKit/537.36 (KHTML, like Gecko) Chrome/137.0.0.0 Safari/537.36","WebKit","Chrome","137.0.0.0","Windows","10.0","https://app.prolific.com/","en-US,en;q=0.9","67356f7cf6ff16fe3322a837","683db6dfa200031b80f2a654","6865079263f3ca337eb5ab89","67356f7cf6ff16fe3322a837","","","[0]","","","","quiz","","","","","","","","","","","","","","","","","","","","","","","","","","","","","","","","","","","","","false",""
"6779","","<p align='center'><b>INCORRECT.</b> The blue ball always shakes and moves randomly.</p>","0","html-button-response","36","1067390","0.0-8.0-7.0-1.0","144","1","2025-07-02 10:20:56","80fe4187154257d5fb01684ea91b68b9","82.23.98.22","Mozilla/5.0 (Windows NT 10.0; Win64; x64) AppleWebKit/537.36 (KHTML, like Gecko) Chrome/137.0.0.0 Safari/537.36","WebKit","Chrome","137.0.0.0","Windows","10.0","https://app.prolific.com/","en-US,en;q=0.9","67356f7cf6ff16fe3322a837","683db6dfa200031b80f2a654","6865079263f3ca337eb5ab89","67356f7cf6ff16fe3322a837","","","","","","","","","","","","","","","","","","","","","","","","","","","","","","","","","","","","","","","","","","","","",""
"3502","","","{""blue_ball"":[""Ball always shakes and moves in a random direction""]}","survey-multi-select","37","1070895","0.0-8.0-7.1-0.1","144","1","2025-07-02 10:20:56","80fe4187154257d5fb01684ea91b68b9","82.23.98.22","Mozilla/5.0 (Windows NT 10.0; Win64; x64) AppleWebKit/537.36 (KHTML, like Gecko) Chrome/137.0.0.0 Safari/537.36","WebKit","Chrome","137.0.0.0","Windows","10.0","https://app.prolific.com/","en-US,en;q=0.9","67356f7cf6ff16fe3322a837","683db6dfa200031b80f2a654","6865079263f3ca337eb5ab89","67356f7cf6ff16fe3322a837","","","[0]","","","","quiz","","","","","","","","","","","","","","","","","","","","","","","","","","","","","","","","","","","","","true",""
"2141","","<p align='center'><b>CORRECT!</b> Indeed, the blue ball always shakes and moves in a random direction. Also there is a penalty of -1 point.</p>","0","html-button-response","38","1073037","0.0-8.0-7.1-1.1","144","1","2025-07-02 10:20:56","80fe4187154257d5fb01684ea91b68b9","82.23.98.22","Mozilla/5.0 (Windows NT 10.0; Win64; x64) AppleWebKit/537.36 (KHTML, like Gecko) Chrome/137.0.0.0 Safari/537.36","WebKit","Chrome","137.0.0.0","Windows","10.0","https://app.prolific.com/","en-US,en;q=0.9","67356f7cf6ff16fe3322a837","683db6dfa200031b80f2a654","6865079263f3ca337eb5ab89","67356f7cf6ff16fe3322a837","","","","","","","","","","","","","","","","","","","","","","","","","","","","","","","","","","","","","","","","","","","","",""
"4322","","","{""bonus"":[""When I reach 50% of points""]}","survey-multi-select","39","1077360","0.0-8.0-8.0-0.0","144","1","2025-07-02 10:20:56","80fe4187154257d5fb01684ea91b68b9","82.23.98.22","Mozilla/5.0 (Windows NT 10.0; Win64; x64) AppleWebKit/537.36 (KHTML, like Gecko) Chrome/137.0.0.0 Safari/537.36","WebKit","Chrome","137.0.0.0","Windows","10.0","https://app.prolific.com/","en-US,en;q=0.9","67356f7cf6ff16fe3322a837","683db6dfa200031b80f2a654","6865079263f3ca337eb5ab89","67356f7cf6ff16fe3322a837","","","[0]","","","","quiz","","","","","","","","","","","","","","","","","","","","","","","","","","","","","","","","","","","","","true",""
"1945","","<p align='center'><b>CORRECT!</b> Indeed, you receive 2 pounds extra when you reach 50% of points.</p>","0","html-button-response","40","1079307","0.0-8.0-8.0-1.0","144","1","2025-07-02 10:20:56","80fe4187154257d5fb01684ea91b68b9","82.23.98.22","Mozilla/5.0 (Windows NT 10.0; Win64; x64) AppleWebKit/537.36 (KHTML, like Gecko) Chrome/137.0.0.0 Safari/537.36","WebKit","Chrome","137.0.0.0","Windows","10.0","https://app.prolific.com/","en-US,en;q=0.9","67356f7cf6ff16fe3322a837","683db6dfa200031b80f2a654","6865079263f3ca337eb5ab89","67356f7cf6ff16fe3322a837","","","","","","","","","","","","","","","","","","","","","","","","","","","","","","","","","","","","","","","","","","","","",""
"7171","","","","instructions","41","1086479","0.0-8.0-9.0","144","1","2025-07-02 10:20:56","80fe4187154257d5fb01684ea91b68b9","82.23.98.22","Mozilla/5.0 (Windows NT 10.0; Win64; x64) AppleWebKit/537.36 (KHTML, like Gecko) Chrome/137.0.0.0 Safari/537.36","WebKit","Chrome","137.0.0.0","Windows","10.0","https://app.prolific.com/","en-US,en;q=0.9","67356f7cf6ff16fe3322a837","683db6dfa200031b80f2a654","6865079263f3ca337eb5ab89","67356f7cf6ff16fe3322a837","","[{""page_index"":0,""viewing_time"":7171}]","","","","","","","","","","","","","","","","","","","","","","","","","","","","","","","","","","","","","","","","","","",""
"16546","","<p>Before you start with this game please answer the following three questions yourself. </p>
  <p>Through this game, we measure several aspects of your cognitive performance, such as reaction times, multi-tasking capabilities </p>
  <p>and the ability to assess the situation you are in.</p>
  <p></p>
  <p><b>How good do you usually are in such tasks?</b></p>","73","html-slider-response","42","1103027","0.0-9.0-0.0","144","1","2025-07-02 10:20:56","80fe4187154257d5fb01684ea91b68b9","82.23.98.22","Mozilla/5.0 (Windows NT 10.0; Win64; x64) AppleWebKit/537.36 (KHTML, like Gecko) Chrome/137.0.0.0 Safari/537.36","WebKit","Chrome","137.0.0.0","Windows","10.0","https://app.prolific.com/","en-US,en;q=0.9","67356f7cf6ff16fe3322a837","683db6dfa200031b80f2a654","6865079263f3ca337eb5ab89","67356f7cf6ff16fe3322a837","2025-07-02T10:39:55.586Z","","","","","","PreSkillQ","","","","","","","","","","","","","","","","","","","","","","","","","","","","","","","","","","","","","","50"
"10233","","<div style=""width:500px;"">
  <p>How well do you think you will perform in this task compared to other participants?</p>
  </div>","72","html-slider-response","43","1113261","0.0-9.0-1.0","144","1","2025-07-02 10:20:56","80fe4187154257d5fb01684ea91b68b9","82.23.98.22","Mozilla/5.0 (Windows NT 10.0; Win64; x64) AppleWebKit/537.36 (KHTML, like Gecko) Chrome/137.0.0.0 Safari/537.36","WebKit","Chrome","137.0.0.0","Windows","10.0","https://app.prolific.com/","en-US,en;q=0.9","67356f7cf6ff16fe3322a837","683db6dfa200031b80f2a654","6865079263f3ca337eb5ab89","67356f7cf6ff16fe3322a837","2025-07-02T10:40:05.820Z","","","","","","PrePerfQ","","","","","","","","","","","","","","","","","","","","","","","","","","","","","","","","","","","","","","50"
"4568","","<div style=""width:500px;"">
  <p>What best describes how you currently feel?</p>
  </div>","95","html-slider-response","44","1117831","0.0-9.0-2.0","144","1","2025-07-02 10:20:56","80fe4187154257d5fb01684ea91b68b9","82.23.98.22","Mozilla/5.0 (Windows NT 10.0; Win64; x64) AppleWebKit/537.36 (KHTML, like Gecko) Chrome/137.0.0.0 Safari/537.36","WebKit","Chrome","137.0.0.0","Windows","10.0","https://app.prolific.com/","en-US,en;q=0.9","67356f7cf6ff16fe3322a837","683db6dfa200031b80f2a654","6865079263f3ca337eb5ab89","67356f7cf6ff16fe3322a837","2025-07-02T10:40:10.390Z","","","","","","PreMotivationQ","","","","","","","","","","","","","","","","","","","","","","","","","","","","","","","","","","","","","","50"
"","","","","ctl-task-cpt","45","1158282","0.0-10.0-0.0","144","1","2025-07-02 10:20:56","80fe4187154257d5fb01684ea91b68b9","82.23.98.22","Mozilla/5.0 (Windows NT 10.0; Win64; x64) AppleWebKit/537.36 (KHTML, like Gecko) Chrome/137.0.0.0 Safari/537.36","WebKit","Chrome","137.0.0.0","Windows","10.0","https://app.prolific.com/","en-US,en;q=0.9","67356f7cf6ff16fe3322a837","683db6dfa200031b80f2a654","6865079263f3ca337eb5ab89","67356f7cf6ff16fe3322a837","2025-07-02T10:40:50.841Z","","","","","","","","","","","","","","","","win-only","3","g1:SW,g2:NE","1","1","0","1157090.1","2850.4","7854.2","37431.9","1","4","4","6","1","-1","-2","0","0","0","5003.8","3000","-2235","[""down"",""left""]","{""num_key_presses"":8,""num_perfect"":7,""num_errors"":1,""num_randdir"":0,""num_randdir_good_moves"":0,""num_whilered"":0,""num_whileblue"":1,""num_blue"":3,""num_good_moves"":1}","[351.14285714285717,354.04910714285717,0.4,351.14285714285717,355.04910714285717,102.2,351.14285714285717,355.04910714285717,216.4,350.14285714285717,355.04910714285717,318.3,350.14285714285717,355.04910714285717,420.9,350.14285714285717,355.04910714285717,535.3,350.14285714285717,355.04910714285717,636,350.14285714285717,355.04910714285717,736.5,350.14285714285717,355.04910714285717,843.3,350.14285714285717,355.04910714285717,952.6,350.14285714285717,355.04910714285717,1053.4,350.14285714285717,355.04910714285717,1155.2,350.14285714285717,355.04910714285717,1266.8,350.14285714285717,355.04910714285717,1370.4,350.14285714285717,355.04910714285717,1470.4,350.14285714285717,355.04910714285717,1576.3,350.14285714285717,355.04910714285717,1685,350.14285714285717,355.04910714285717,1785.1,350.14285714285717,355.04910714285717,1885.4,350.14285714285717,355.04910714285717,1992.2,350.14285714285717,355.04910714285717,2092.3,350.14285714285717,355.04910714285717,2196.2,350.14285714285717,355.04910714285717,2296.6,350.14285714285717,355.04910714285717,2400.5,350.14285714285717,355.04910714285717,2500.7,350.14285714285717,355.04910714285717,2616.8,350.14285714285717,355.04910714285717,2720.9,350.14285714285717,355.04910714285717,2834.2,350.14285714285717,355.04910714285717,2935.7,350.14285714285717,355.04910714285717,3036.6,350.14285714285717,355.04910714285717,3148.2,350.14285714285717,355.04910714285717,3250.4,350.14285714285717,355.04910714285717,3350.5,350.14285714285717,355.04910714285717,3451.5,350.14285714285717,355.04910714285717,3566.9,350.14285714285717,355.04910714285717,3667.4,350.14285714285717,355.04910714285717,3771,350.14285714285717,355.04910714285717,3876,350.14285714285717,355.04910714285717,3985.1,350.14285714285717,355.04910714285717,4098.3,350.14285714285717,355.04910714285717,4200.9,350.14285714285717,355.04910714285717,4301,350.14285714285717,355.04910714285717,4401.7,350.14285714285717,355.04910714285717,4502.8,350.14285714285717,355.04910714285717,4606.9,350.14285714285717,355.04910714285717,4717.3,350.14285714285717,355.04910714285717,4817.9,350.14285714285717,355.04910714285717,4921.9]","[1327.8,1327.8,1000,0,327.8,""smooth"",""up"",""up"",""bad_move"",4145.3,2816.7,2448.1,1328.7,368.5,""smooth"",""up"",""up"",""bad_move"",6638,2492.1,2149.2,4145.9,342.9,""smooth"",""up"",""up"",""bad_move"",9340.5,2701.9,2375.5,6638.6,326.5,""smooth"",""right"",""right"",""bad_move"",11698.3,2357,2002.2,9341.4,354.7,""smooth"",""right"",""right"",""bad_move"",14231.1,2532.5,2248.7,11698.6,283.8,""while_blue"",""right"",""left"",""good_move"",16955.8,2724.1,2244.8,14231.7,479.4,""smooth"",""right"",""right"",""bad_move"",19340.2,2383.9,1917.7,16956.3,466.2,""smooth"",""right"",""right"",""bad_move""]","",""
"3749","","<div style=""width:500px;"">
  <p>What determined the result of this run?</p>
  </div>","84","html-slider-response","46","1162032","0.0-10.0-1.0","144","1","2025-07-02 10:20:56","80fe4187154257d5fb01684ea91b68b9","82.23.98.22","Mozilla/5.0 (Windows NT 10.0; Win64; x64) AppleWebKit/537.36 (KHTML, like Gecko) Chrome/137.0.0.0 Safari/537.36","WebKit","Chrome","137.0.0.0","Windows","10.0","https://app.prolific.com/","en-US,en;q=0.9","67356f7cf6ff16fe3322a837","683db6dfa200031b80f2a654","6865079263f3ca337eb5ab89","67356f7cf6ff16fe3322a837","2025-07-02T10:40:54.592Z","","","","","","AttribQ","","","","","","","","","","","","","","","","","","","","","","","","","","","","","","","","","","","","","","50"
"1959","","<div style=""width:500px;"">
  <p>How much control did you have over the ball?</p>
  </div>","77","html-slider-response","47","1163993","0.0-10.0-2.0","144","1","2025-07-02 10:20:56","80fe4187154257d5fb01684ea91b68b9","82.23.98.22","Mozilla/5.0 (Windows NT 10.0; Win64; x64) AppleWebKit/537.36 (KHTML, like Gecko) Chrome/137.0.0.0 Safari/537.36","WebKit","Chrome","137.0.0.0","Windows","10.0","https://app.prolific.com/","en-US,en;q=0.9","67356f7cf6ff16fe3322a837","683db6dfa200031b80f2a654","6865079263f3ca337eb5ab89","67356f7cf6ff16fe3322a837","2025-07-02T10:40:56.553Z","","","","","","ControlQ","","","","","","","","","","","","","","","","","","","","","","","","","","","","","","","","","","","","","","50"
"5179","","<div style=""width:500px;"">
  <p>How would you describe your current emotional state?</p>
  </div>","0","html-slider-response","48","1169174","0.0-10.0-3.0","144","1","2025-07-02 10:20:56","80fe4187154257d5fb01684ea91b68b9","82.23.98.22","Mozilla/5.0 (Windows NT 10.0; Win64; x64) AppleWebKit/537.36 (KHTML, like Gecko) Chrome/137.0.0.0 Safari/537.36","WebKit","Chrome","137.0.0.0","Windows","10.0","https://app.prolific.com/","en-US,en;q=0.9","67356f7cf6ff16fe3322a837","683db6dfa200031b80f2a654","6865079263f3ca337eb5ab89","67356f7cf6ff16fe3322a837","2025-07-02T10:41:01.734Z","","","","","","StressQ","","","","","","","","","","","","","","","","","","","","","","","","","","","","","","","","","","","","","","50"
"3734","","<div style=""width:500px;"">
  <p>What best describes how you currently feel?</p>
  </div>","100","html-slider-response","49","1172911","0.0-10.0-4.0","144","1","2025-07-02 10:20:56","80fe4187154257d5fb01684ea91b68b9","82.23.98.22","Mozilla/5.0 (Windows NT 10.0; Win64; x64) AppleWebKit/537.36 (KHTML, like Gecko) Chrome/137.0.0.0 Safari/537.36","WebKit","Chrome","137.0.0.0","Windows","10.0","https://app.prolific.com/","en-US,en;q=0.9","67356f7cf6ff16fe3322a837","683db6dfa200031b80f2a654","6865079263f3ca337eb5ab89","67356f7cf6ff16fe3322a837","2025-07-02T10:41:05.470Z","","","","","","MotivationQ","","","","","","","","","","","","","","","","","","","","","","","","","","","","","","","","","","","","","","50"
"","","","","ctl-task-cpt","50","1220357","0.0-10.0-0.1","144","1","2025-07-02 10:20:56","80fe4187154257d5fb01684ea91b68b9","82.23.98.22","Mozilla/5.0 (Windows NT 10.0; Win64; x64) AppleWebKit/537.36 (KHTML, like Gecko) Chrome/137.0.0.0 Safari/537.36","WebKit","Chrome","137.0.0.0","Windows","10.0","https://app.prolific.com/","en-US,en;q=0.9","67356f7cf6ff16fe3322a837","683db6dfa200031b80f2a654","6865079263f3ca337eb5ab89","67356f7cf6ff16fe3322a837","2025-07-02T10:41:52.916Z","","","","","","","","","","","","","","","","win-only","2","g1:SE,g2:NW","0.9","2","0","1212171","2177.4","7181.4","44425.4","1","4","8","6","1","-1","-1","0","0","0","5004","3000","-2305","[""down"",""right""]","{""num_key_presses"":6,""num_perfect"":5,""num_errors"":0,""num_randdir"":1,""num_randdir_good_moves"":0,""num_whilered"":0,""num_whileblue"":0,""num_blue"":5,""num_good_moves"":0}","[343.14285714285717,347.04910714285717,0.6,343.14285714285717,347.04910714285717,108.2,343.14285714285717,347.04910714285717,208.3,343.14285714285717,347.04910714285717,322,343.14285714285717,347.04910714285717,423.3,343.14285714285717,347.04910714285717,523.4,343.14285714285717,347.04910714285717,623.5,343.14285714285717,347.04910714285717,724.6,343.14285714285717,347.04910714285717,832.2,343.14285714285717,347.04910714285717,933.5,343.14285714285717,347.04910714285717,1035.2,343.14285714285717,347.04910714285717,1138,343.14285714285717,347.04910714285717,1238.3,343.14285714285717,347.04910714285717,1353.2,343.14285714285717,347.04910714285717,1454.4,343.14285714285717,347.04910714285717,1569.6,343.14285714285717,347.04910714285717,1673.1,343.14285714285717,347.04910714285717,1773.1,343.14285714285717,347.04910714285717,1873.4,343.14285714285717,347.04910714285717,1973.8,343.14285714285717,347.04910714285717,2083.1,343.14285714285717,347.04910714285717,2186,343.14285714285717,347.04910714285717,2289.9,343.14285714285717,347.04910714285717,2390.2,343.14285714285717,347.04910714285717,2507,343.14285714285717,347.04910714285717,2608,343.14285714285717,347.04910714285717,2716.7,343.14285714285717,347.04910714285717,2819,343.14285714285717,347.04910714285717,2937.4,343.14285714285717,347.04910714285717,3040.6,343.14285714285717,347.04910714285717,3145.5,343.14285714285717,347.04910714285717,3245.5,343.14285714285717,347.04910714285717,3348.6,343.14285714285717,347.04910714285717,3457.3,343.14285714285717,347.04910714285717,3559.6,343.14285714285717,347.04910714285717,3660.7,343.14285714285717,347.04910714285717,3772.4,343.14285714285717,347.04910714285717,3873.3,343.14285714285717,347.04910714285717,3983.8,343.14285714285717,347.04910714285717,4087,343.14285714285717,347.04910714285717,4188.6,343.14285714285717,347.04910714285717,4288.6,343.14285714285717,347.04910714285717,4407.7,343.14285714285717,347.04910714285717,4508.5,343.14285714285717,347.04910714285717,4608.7,343.14285714285717,347.04910714285717,4721.9,343.14285714285717,347.04910714285717,4824.4,343.14285714285717,347.04910714285717,4928.6]","[1382.6,1382.7,1000,0,382.7,""oops"",""up"",""left"",""bad_move"",5331.4,3947.3,3567.6,1384.1,379.7,""smooth"",""left"",""left"",""bad_move"",11461.4,6129.6,2554.3,8383.1,524,""smooth"",""left"",""left"",""bad_move"",14524.2,3062.5,2638.6,11461.8,423.8,""smooth"",""up"",""up"",""bad_move"",27296.7,12771.8,2543,24264.8,488.9,""smooth"",""up"",""up"",""bad_move"",33808.5,6511.6,2743.5,30499.7,565.3,""smooth"",""up"",""up"",""bad_move""]","",""
"4308","","<div style=""width:500px;"">
  <p>What determined the result of this run?</p>
  </div>","100","html-slider-response","51","1224668","0.0-10.0-1.1","144","1","2025-07-02 10:20:56","80fe4187154257d5fb01684ea91b68b9","82.23.98.22","Mozilla/5.0 (Windows NT 10.0; Win64; x64) AppleWebKit/537.36 (KHTML, like Gecko) Chrome/137.0.0.0 Safari/537.36","WebKit","Chrome","137.0.0.0","Windows","10.0","https://app.prolific.com/","en-US,en;q=0.9","67356f7cf6ff16fe3322a837","683db6dfa200031b80f2a654","6865079263f3ca337eb5ab89","67356f7cf6ff16fe3322a837","2025-07-02T10:41:57.227Z","","","","","","AttribQ","","","","","","","","","","","","","","","","","","","","","","","","","","","","","","","","","","","","","","50"
"2855","","<div style=""width:500px;"">
  <p>How much control did you have over the ball?</p>
  </div>","86","html-slider-response","52","1227525","0.0-10.0-2.1","144","1","2025-07-02 10:20:56","80fe4187154257d5fb01684ea91b68b9","82.23.98.22","Mozilla/5.0 (Windows NT 10.0; Win64; x64) AppleWebKit/537.36 (KHTML, like Gecko) Chrome/137.0.0.0 Safari/537.36","WebKit","Chrome","137.0.0.0","Windows","10.0","https://app.prolific.com/","en-US,en;q=0.9","67356f7cf6ff16fe3322a837","683db6dfa200031b80f2a654","6865079263f3ca337eb5ab89","67356f7cf6ff16fe3322a837","2025-07-02T10:42:00.084Z","","","","","","ControlQ","","","","","","","","","","","","","","","","","","","","","","","","","","","","","","","","","","","","","","50"
"3885","","<div style=""width:500px;"">
  <p>How would you describe your current emotional state?</p>
  </div>","1","html-slider-response","53","1231413","0.0-10.0-3.1","144","1","2025-07-02 10:20:56","80fe4187154257d5fb01684ea91b68b9","82.23.98.22","Mozilla/5.0 (Windows NT 10.0; Win64; x64) AppleWebKit/537.36 (KHTML, like Gecko) Chrome/137.0.0.0 Safari/537.36","WebKit","Chrome","137.0.0.0","Windows","10.0","https://app.prolific.com/","en-US,en;q=0.9","67356f7cf6ff16fe3322a837","683db6dfa200031b80f2a654","6865079263f3ca337eb5ab89","67356f7cf6ff16fe3322a837","2025-07-02T10:42:03.972Z","","","","","","StressQ","","","","","","","","","","","","","","","","","","","","","","","","","","","","","","","","","","","","","","50"
"3169","","<div style=""width:500px;"">
  <p>What best describes how you currently feel?</p>
  </div>","100","html-slider-response","54","1234584","0.0-10.0-4.1","144","1","2025-07-02 10:20:56","80fe4187154257d5fb01684ea91b68b9","82.23.98.22","Mozilla/5.0 (Windows NT 10.0; Win64; x64) AppleWebKit/537.36 (KHTML, like Gecko) Chrome/137.0.0.0 Safari/537.36","WebKit","Chrome","137.0.0.0","Windows","10.0","https://app.prolific.com/","en-US,en;q=0.9","67356f7cf6ff16fe3322a837","683db6dfa200031b80f2a654","6865079263f3ca337eb5ab89","67356f7cf6ff16fe3322a837","2025-07-02T10:42:07.143Z","","","","","","MotivationQ","","","","","","","","","","","","","","","","","","","","","","","","","","","","","","","","","","","","","","50"
"","","","","ctl-task-cpt","55","1283572","0.0-10.0-0.2","144","1","2025-07-02 10:20:56","80fe4187154257d5fb01684ea91b68b9","82.23.98.22","Mozilla/5.0 (Windows NT 10.0; Win64; x64) AppleWebKit/537.36 (KHTML, like Gecko) Chrome/137.0.0.0 Safari/537.36","WebKit","Chrome","137.0.0.0","Windows","10.0","https://app.prolific.com/","en-US,en;q=0.9","67356f7cf6ff16fe3322a837","683db6dfa200031b80f2a654","6865079263f3ca337eb5ab89","67356f7cf6ff16fe3322a837","2025-07-02T10:42:56.131Z","","","","","","","","","","","","","","","","win-only","1","g1:NE,g2:SW","0.8","3","0","1273845.4","2687.2","7694.9","45979.4","1","4","8","6","2","8","8","8","0","0.06060606060606061","5007.7","3000","475","[""down"",""left""]","{""num_key_presses"":8,""num_perfect"":7,""num_errors"":0,""num_randdir"":1,""num_randdir_good_moves"":0,""num_whilered"":0,""num_whileblue"":0,""num_blue"":5,""num_good_moves"":7}","[345.14285714285717,345.04910714285717,0.3,345.14285714285717,345.04910714285717,105.2,345.14285714285717,345.04910714285717,209.4,345.14285714285717,346.04910714285717,321.1,345.14285714285717,346.04910714285717,425,345.14285714285717,346.04910714285717,528.9,345.14285714285717,346.04910714285717,630.4,345.14285714285717,346.04910714285717,738.3,345.14285714285717,346.04910714285717,852.7,345.14285714285717,346.04910714285717,955.5,345.14285714285717,346.04910714285717,1059.3,345.14285714285717,346.04910714285717,1164.9,345.14285714285717,346.04910714285717,1281.2,345.14285714285717,346.04910714285717,1391.1,345.14285714285717,346.04910714285717,1496.4,345.14285714285717,346.04910714285717,1611.1,345.14285714285717,346.04910714285717,1713.7,345.14285714285717,346.04910714285717,1823.5,345.14285714285717,346.04910714285717,1924.4,345.14285714285717,346.04910714285717,2030,345.14285714285717,346.04910714285717,2130.2,345.14285714285717,346.04910714285717,2230.5,345.14285714285717,346.04910714285717,2349.7,345.14285714285717,346.04910714285717,2454.9,345.14285714285717,346.04910714285717,2555.3,345.14285714285717,347.04910714285717,2655.5,345.14285714285717,347.04910714285717,2760.7,345.14285714285717,347.04910714285717,2864.7,345.14285714285717,347.04910714285717,2982.1,345.14285714285717,347.04910714285717,3082.4,345.14285714285717,347.04910714285717,3185.6,345.14285714285717,347.04910714285717,3288.9,345.14285714285717,347.04910714285717,3391.3,345.14285714285717,347.04910714285717,3495.6,345.14285714285717,347.04910714285717,3599.3,345.14285714285717,347.04910714285717,3714,345.14285714285717,347.04910714285717,3815.9,345.14285714285717,347.04910714285717,3920.7,345.14285714285717,347.04910714285717,4037.3,345.14285714285717,347.04910714285717,4138.9,345.14285714285717,347.04910714285717,4244.2,345.14285714285717,347.04910714285717,4348.4,345.14285714285717,347.04910714285717,4448.9,345.14285714285717,347.04910714285717,4555,345.14285714285717,347.04910714285717,4656.3,345.14285714285717,347.04910714285717,4758.8,345.14285714285717,347.04910714285717,4865.8,345.14285714285717,347.04910714285717,4973.8]","[4990.4,4990.4,2545.1,2008.4,436.9,""smooth"",""down"",""down"",""good_move"",11427.8,6436.7,2453.6,8503.3,470.9,""smooth"",""down"",""down"",""good_move"",21334.4,9905.9,2867.5,17952,514.9,""smooth"",""down"",""down"",""good_move"",23727.3,2391.7,1741.2,21335.6,650.5,""smooth"",""left"",""left"",""good_move"",26586.7,2858.6,2416.3,23728.1,442.3,""smooth"",""left"",""left"",""good_move"",29687.7,3100.1,2592.5,26587.6,507.7,""oops"",""left"",""right"",""bad_move"",34966.3,5278,2347.9,32197.3,421.1,""smooth"",""left"",""left"",""good_move"",38165.2,3198.5,2746.6,34966.7,451.9,""smooth"",""left"",""left"",""good_move""]","",""
"3711","","<div style=""width:500px;"">
  <p>What determined the result of this run?</p>
  </div>","100","html-slider-response","56","1287288","0.0-10.0-1.2","144","1","2025-07-02 10:20:56","80fe4187154257d5fb01684ea91b68b9","82.23.98.22","Mozilla/5.0 (Windows NT 10.0; Win64; x64) AppleWebKit/537.36 (KHTML, like Gecko) Chrome/137.0.0.0 Safari/537.36","WebKit","Chrome","137.0.0.0","Windows","10.0","https://app.prolific.com/","en-US,en;q=0.9","67356f7cf6ff16fe3322a837","683db6dfa200031b80f2a654","6865079263f3ca337eb5ab89","67356f7cf6ff16fe3322a837","2025-07-02T10:42:59.848Z","","","","","","AttribQ","","","","","","","","","","","","","","","","","","","","","","","","","","","","","","","","","","","","","","50"
"2162","","<div style=""width:500px;"">
  <p>How much control did you have over the ball?</p>
  </div>","97","html-slider-response","57","1289453","0.0-10.0-2.2","144","1","2025-07-02 10:20:56","80fe4187154257d5fb01684ea91b68b9","82.23.98.22","Mozilla/5.0 (Windows NT 10.0; Win64; x64) AppleWebKit/537.36 (KHTML, like Gecko) Chrome/137.0.0.0 Safari/537.36","WebKit","Chrome","137.0.0.0","Windows","10.0","https://app.prolific.com/","en-US,en;q=0.9","67356f7cf6ff16fe3322a837","683db6dfa200031b80f2a654","6865079263f3ca337eb5ab89","67356f7cf6ff16fe3322a837","2025-07-02T10:43:02.012Z","","","","","","ControlQ","","","","","","","","","","","","","","","","","","","","","","","","","","","","","","","","","","","","","","50"
"2823","","<div style=""width:500px;"">
  <p>How would you describe your current emotional state?</p>
  </div>","1","html-slider-response","58","1292279","0.0-10.0-3.2","144","1","2025-07-02 10:20:56","80fe4187154257d5fb01684ea91b68b9","82.23.98.22","Mozilla/5.0 (Windows NT 10.0; Win64; x64) AppleWebKit/537.36 (KHTML, like Gecko) Chrome/137.0.0.0 Safari/537.36","WebKit","Chrome","137.0.0.0","Windows","10.0","https://app.prolific.com/","en-US,en;q=0.9","67356f7cf6ff16fe3322a837","683db6dfa200031b80f2a654","6865079263f3ca337eb5ab89","67356f7cf6ff16fe3322a837","2025-07-02T10:43:04.838Z","","","","","","StressQ","","","","","","","","","","","","","","","","","","","","","","","","","","","","","","","","","","","","","","50"
"2864","","<div style=""width:500px;"">
  <p>What best describes how you currently feel?</p>
  </div>","100","html-slider-response","59","1295144","0.0-10.0-4.2","144","1","2025-07-02 10:20:56","80fe4187154257d5fb01684ea91b68b9","82.23.98.22","Mozilla/5.0 (Windows NT 10.0; Win64; x64) AppleWebKit/537.36 (KHTML, like Gecko) Chrome/137.0.0.0 Safari/537.36","WebKit","Chrome","137.0.0.0","Windows","10.0","https://app.prolific.com/","en-US,en;q=0.9","67356f7cf6ff16fe3322a837","683db6dfa200031b80f2a654","6865079263f3ca337eb5ab89","67356f7cf6ff16fe3322a837","2025-07-02T10:43:07.704Z","","","","","","MotivationQ","","","","","","","","","","","","","","","","","","","","","","","","","","","","","","","","","","","","","","50"
"","","","","ctl-task-cpt","60","1343860","0.0-10.0-0.3","144","1","2025-07-02 10:20:56","80fe4187154257d5fb01684ea91b68b9","82.23.98.22","Mozilla/5.0 (Windows NT 10.0; Win64; x64) AppleWebKit/537.36 (KHTML, like Gecko) Chrome/137.0.0.0 Safari/537.36","WebKit","Chrome","137.0.0.0","Windows","10.0","https://app.prolific.com/","en-US,en;q=0.9","67356f7cf6ff16fe3322a837","683db6dfa200031b80f2a654","6865079263f3ca337eb5ab89","67356f7cf6ff16fe3322a837","2025-07-02T10:43:56.419Z","","","","","","","","","","","","","","","","win-only","1","g1:NE,g2:SW","0.7","4","0","1334404.4","2485.5","7502.1","45702.7","1","4","4","6","2","4","3","11","8","0.08333333333333333","5016.6","3000","175","[""down"",""left""]","{""num_key_presses"":12,""num_perfect"":7,""num_errors"":1,""num_randdir"":4,""num_randdir_good_moves"":2,""num_whilered"":0,""num_whileblue"":1,""num_blue"":2,""num_good_moves"":9}","[352.14285714285717,349.04910714285717,0.5,352.14285714285717,349.04910714285717,107.3,352.14285714285717,349.04910714285717,209,352.14285714285717,350.04910714285717,311.6,397.14285714285717,419.04910714285717,415.6,485.14285714285717,508.04910714285717,516.1,485.14285714285717,508.04910714285717,616.7,485.14285714285717,508.04910714285717,716.7,485.14285714285717,507.04910714285717,822.9,485.14285714285717,507.04910714285717,926,485.14285714285717,507.04910714285717,1026.7,485.14285714285717,507.04910714285717,1130.7,485.14285714285717,507.04910714285717,1237.6,485.14285714285717,507.04910714285717,1340.3,485.14285714285717,507.04910714285717,1447.6,485.14285714285717,507.04910714285717,1556.6,485.14285714285717,507.04910714285717,1673.5,485.14285714285717,507.04910714285717,1789.3,485.14285714285717,507.04910714285717,1898.1,485.14285714285717,507.04910714285717,2003.5,485.14285714285717,507.04910714285717,2106.1,485.14285714285717,507.04910714285717,2211,485.14285714285717,507.04910714285717,2315.3,485.14285714285717,507.04910714285717,2415.5,485.14285714285717,507.04910714285717,2515.6,485.14285714285717,507.04910714285717,2621,485.14285714285717,507.04910714285717,2723.3,485.14285714285717,507.04910714285717,2836.4,485.14285714285717,507.04910714285717,2957.3,485.14285714285717,507.04910714285717,3063.3,485.14285714285717,507.04910714285717,3167,485.14285714285717,507.04910714285717,3283.1,485.14285714285717,507.04910714285717,3387.5,485.14285714285717,507.04910714285717,3488.2,485.14285714285717,507.04910714285717,3591.2,485.14285714285717,507.04910714285717,3695.7,485.14285714285717,507.04910714285717,3809.1,485.14285714285717,507.04910714285717,3910.9,485.14285714285717,507.04910714285717,4011.6,485.14285714285717,507.04910714285717,4116.2,485.14285714285717,507.04910714285717,4222.6,485.14285714285717,507.04910714285717,4327.4,485.14285714285717,507.04910714285717,4429.3,485.14285714285717,507.04910714285717,4533.2,485.14285714285717,507.04910714285717,4638.5,485.14285714285717,507.04910714285717,4739.9,485.14285714285717,507.04910714285717,4857.7,485.14285714285717,507.04910714285717,4964.4]","[1784.8,1784.8,1000,0,784.8,""smooth"",""down"",""down"",""good_move"",4799.1,3012.2,2654.9,1787.4,356.8,""smooth"",""down"",""down"",""good_move"",7449.6,2649.9,2306.5,4799.7,343.4,""smooth"",""down"",""down"",""good_move"",10575.8,3125.7,2797.9,7450.1,327.8,""oops"",""left"",""up"",""bad_move"",14695.4,4119.2,3737.3,10576.2,381.9,""while_blue"",""left"",""right"",""bad_move"",17514.1,2817.3,2435.2,14696.8,382.1,""smooth"",""down"",""down"",""good_move"",20564.5,3050.1,2720.6,17514.4,329.5,""oops"",""left"",""up"",""bad_move"",23334.6,2769.4,2426.7,20565.2,342.7,""oops"",""left"",""down"",""good_move"",26354.6,3018.9,2654.6,23335.7,364.3,""smooth"",""left"",""left"",""good_move"",32803.8,6448.3,2524.3,29873.6,405.9,""smooth"",""left"",""left"",""good_move"",35257.5,2453.4,2065,32804.1,388.4,""smooth"",""left"",""left"",""good_move"",38081.2,2822.7,2476.2,35258.6,346.4,""oops"",""left"",""left"",""good_move""]","",""
"2737","","<div style=""width:500px;"">
  <p>What determined the result of this run?</p>
  </div>","80","html-slider-response","61","1346600","0.0-10.0-1.3","144","1","2025-07-02 10:20:56","80fe4187154257d5fb01684ea91b68b9","82.23.98.22","Mozilla/5.0 (Windows NT 10.0; Win64; x64) AppleWebKit/537.36 (KHTML, like Gecko) Chrome/137.0.0.0 Safari/537.36","WebKit","Chrome","137.0.0.0","Windows","10.0","https://app.prolific.com/","en-US,en;q=0.9","67356f7cf6ff16fe3322a837","683db6dfa200031b80f2a654","6865079263f3ca337eb5ab89","67356f7cf6ff16fe3322a837","2025-07-02T10:43:59.160Z","","","","","","AttribQ","","","","","","","","","","","","","","","","","","","","","","","","","","","","","","","","","","","","","","50"
"31574","","<div style=""width:500px;"">
  <p>How much control did you have over the ball?</p>
  </div>","87","html-slider-response","62","1378177","0.0-10.0-2.3","144","1","2025-07-02 10:20:56","80fe4187154257d5fb01684ea91b68b9","82.23.98.22","Mozilla/5.0 (Windows NT 10.0; Win64; x64) AppleWebKit/537.36 (KHTML, like Gecko) Chrome/137.0.0.0 Safari/537.36","WebKit","Chrome","137.0.0.0","Windows","10.0","https://app.prolific.com/","en-US,en;q=0.9","67356f7cf6ff16fe3322a837","683db6dfa200031b80f2a654","6865079263f3ca337eb5ab89","67356f7cf6ff16fe3322a837","2025-07-02T10:44:30.736Z","","","","","","ControlQ","","","","","","","","","","","","","","","","","","","","","","","","","","","","","","","","","","","","","","50"
"3418","","<div style=""width:500px;"">
  <p>How would you describe your current emotional state?</p>
  </div>","2","html-slider-response","63","1381598","0.0-10.0-3.3","144","1","2025-07-02 10:20:56","80fe4187154257d5fb01684ea91b68b9","82.23.98.22","Mozilla/5.0 (Windows NT 10.0; Win64; x64) AppleWebKit/537.36 (KHTML, like Gecko) Chrome/137.0.0.0 Safari/537.36","WebKit","Chrome","137.0.0.0","Windows","10.0","https://app.prolific.com/","en-US,en;q=0.9","67356f7cf6ff16fe3322a837","683db6dfa200031b80f2a654","6865079263f3ca337eb5ab89","67356f7cf6ff16fe3322a837","2025-07-02T10:44:34.157Z","","","","","","StressQ","","","","","","","","","","","","","","","","","","","","","","","","","","","","","","","","","","","","","","50"
"2464","","<div style=""width:500px;"">
  <p>What best describes how you currently feel?</p>
  </div>","95","html-slider-response","64","1384064","0.0-10.0-4.3","144","1","2025-07-02 10:20:56","80fe4187154257d5fb01684ea91b68b9","82.23.98.22","Mozilla/5.0 (Windows NT 10.0; Win64; x64) AppleWebKit/537.36 (KHTML, like Gecko) Chrome/137.0.0.0 Safari/537.36","WebKit","Chrome","137.0.0.0","Windows","10.0","https://app.prolific.com/","en-US,en;q=0.9","67356f7cf6ff16fe3322a837","683db6dfa200031b80f2a654","6865079263f3ca337eb5ab89","67356f7cf6ff16fe3322a837","2025-07-02T10:44:36.623Z","","","","","","MotivationQ","","","","","","","","","","","","","","","","","","","","","","","","","","","","","","","","","","","","","","50"
"","","","","ctl-task-cpt","65","1432398","0.0-10.0-0.4","144","1","2025-07-02 10:20:56","80fe4187154257d5fb01684ea91b68b9","82.23.98.22","Mozilla/5.0 (Windows NT 10.0; Win64; x64) AppleWebKit/537.36 (KHTML, like Gecko) Chrome/137.0.0.0 Safari/537.36","WebKit","Chrome","137.0.0.0","Windows","10.0","https://app.prolific.com/","en-US,en;q=0.9","67356f7cf6ff16fe3322a837","683db6dfa200031b80f2a654","6865079263f3ca337eb5ab89","67356f7cf6ff16fe3322a837","2025-07-02T10:45:24.957Z","","","","","","","","","","","","","","","","win-only","3","g1:SW,g2:NE","0.6","5","0","1423324.8","1441.8","6457.4","45311.2","1","4","4","6","1","-1","-1","10","11","0.07575757575757576","5015.6","3000","-1715","[""down"",""left""]","{""num_key_presses"":12,""num_perfect"":8,""num_errors"":0,""num_randdir"":4,""num_randdir_good_moves"":3,""num_whilered"":0,""num_whileblue"":0,""num_blue"":1,""num_good_moves"":3}","[340.14285714285717,347.04910714285717,0.6,341.14285714285717,347.04910714285717,105,341.14285714285717,348.04910714285717,221.2,341.14285714285717,348.04910714285717,322.9,341.14285714285717,348.04910714285717,424.3,341.14285714285717,348.04910714285717,533.9,341.14285714285717,348.04910714285717,638.3,341.14285714285717,348.04910714285717,749.4,341.14285714285717,348.04910714285717,867,341.14285714285717,348.04910714285717,973.3,341.14285714285717,348.04910714285717,1076.2,341.14285714285717,348.04910714285717,1179.1,341.14285714285717,348.04910714285717,1280.9,341.14285714285717,348.04910714285717,1387,341.14285714285717,348.04910714285717,1496.6,341.14285714285717,348.04910714285717,1603.4,341.14285714285717,348.04910714285717,1725.7,341.14285714285717,348.04910714285717,1835.7,341.14285714285717,348.04910714285717,1936.2,341.14285714285717,348.04910714285717,2046.5,341.14285714285717,348.04910714285717,2151,341.14285714285717,348.04910714285717,2252,341.14285714285717,348.04910714285717,2352.6,341.14285714285717,348.04910714285717,2452.9,341.14285714285717,348.04910714285717,2559.4,341.14285714285717,348.04910714285717,2671.6,341.14285714285717,348.04910714285717,2790.2,341.14285714285717,348.04910714285717,2896.6,341.14285714285717,348.04910714285717,3015.4,341.14285714285717,348.04910714285717,3118.9,341.14285714285717,348.04910714285717,3220.9,341.14285714285717,348.04910714285717,3324.1,341.14285714285717,348.04910714285717,3424.1,341.14285714285717,348.04910714285717,3537.2,341.14285714285717,348.04910714285717,3637.8,341.14285714285717,348.04910714285717,3742.6,341.14285714285717,348.04910714285717,3851.5,341.14285714285717,348.04910714285717,3970.5,341.14285714285717,348.04910714285717,4076,341.14285714285717,348.04910714285717,4178.5,341.14285714285717,348.04910714285717,4279.5,341.14285714285717,348.04910714285717,4379.8,341.14285714285717,348.04910714285717,4481.7,341.14285714285717,348.04910714285717,4591.6,341.14285714285717,348.04910714285717,4692,341.14285714285717,348.04910714285717,4796.5,341.14285714285717,348.04910714285717,4922.2]","[1547.4,1547.4,1000,0,547.4,""smooth"",""up"",""up"",""bad_move"",4608.4,3059.9,2649,1548.6,410.9,""oops"",""up"",""down"",""good_move"",6861.5,2252.1,1787,4609.4,465.1,""smooth"",""up"",""up"",""bad_move"",13374.5,6512.5,2202,10722.3,450.2,""smooth"",""up"",""up"",""bad_move"",16108.5,2733.5,2283.6,13375.1,449.8,""smooth"",""up"",""up"",""bad_move"",18720.9,2612.2,2232.6,16108.8,379.5,""oops"",""right"",""down"",""good_move"",21701.8,2980.4,2628.9,18721.5,351.5,""smooth"",""right"",""right"",""bad_move"",24472.6,2769.2,2397.3,21703.5,371.8,""oops"",""right"",""right"",""bad_move"",26840.8,2367.5,1998.7,24473.3,368.8,""oops"",""right"",""left"",""good_move"",29862.6,3021,2689.7,26841.6,331.3,""smooth"",""right"",""right"",""bad_move"",32862.3,2999.1,2654.9,29863.2,344.2,""smooth"",""right"",""right"",""bad_move"",36367.4,3504.5,2799.2,32863.1,705.2,""smooth"",""up"",""up"",""bad_move""]","",""
"2669","","<div style=""width:500px;"">
  <p>What determined the result of this run?</p>
  </div>","98","html-slider-response","66","1435069","0.0-10.0-1.4","144","1","2025-07-02 10:20:56","80fe4187154257d5fb01684ea91b68b9","82.23.98.22","Mozilla/5.0 (Windows NT 10.0; Win64; x64) AppleWebKit/537.36 (KHTML, like Gecko) Chrome/137.0.0.0 Safari/537.36","WebKit","Chrome","137.0.0.0","Windows","10.0","https://app.prolific.com/","en-US,en;q=0.9","67356f7cf6ff16fe3322a837","683db6dfa200031b80f2a654","6865079263f3ca337eb5ab89","67356f7cf6ff16fe3322a837","2025-07-02T10:45:27.628Z","","","","","","AttribQ","","","","","","","","","","","","","","","","","","","","","","","","","","","","","","","","","","","","","","50"
"2508","","<div style=""width:500px;"">
  <p>How much control did you have over the ball?</p>
  </div>","89","html-slider-response","67","1437580","0.0-10.0-2.4","144","1","2025-07-02 10:20:56","80fe4187154257d5fb01684ea91b68b9","82.23.98.22","Mozilla/5.0 (Windows NT 10.0; Win64; x64) AppleWebKit/537.36 (KHTML, like Gecko) Chrome/137.0.0.0 Safari/537.36","WebKit","Chrome","137.0.0.0","Windows","10.0","https://app.prolific.com/","en-US,en;q=0.9","67356f7cf6ff16fe3322a837","683db6dfa200031b80f2a654","6865079263f3ca337eb5ab89","67356f7cf6ff16fe3322a837","2025-07-02T10:45:30.139Z","","","","","","ControlQ","","","","","","","","","","","","","","","","","","","","","","","","","","","","","","","","","","","","","","50"
"2554","","<div style=""width:500px;"">
  <p>How would you describe your current emotional state?</p>
  </div>","0","html-slider-response","68","1440136","0.0-10.0-3.4","144","1","2025-07-02 10:20:56","80fe4187154257d5fb01684ea91b68b9","82.23.98.22","Mozilla/5.0 (Windows NT 10.0; Win64; x64) AppleWebKit/537.36 (KHTML, like Gecko) Chrome/137.0.0.0 Safari/537.36","WebKit","Chrome","137.0.0.0","Windows","10.0","https://app.prolific.com/","en-US,en;q=0.9","67356f7cf6ff16fe3322a837","683db6dfa200031b80f2a654","6865079263f3ca337eb5ab89","67356f7cf6ff16fe3322a837","2025-07-02T10:45:32.695Z","","","","","","StressQ","","","","","","","","","","","","","","","","","","","","","","","","","","","","","","","","","","","","","","50"
"5245","","<div style=""width:500px;"">
  <p>What best describes how you currently feel?</p>
  </div>","91","html-slider-response","69","1445384","0.0-10.0-4.4","144","1","2025-07-02 10:20:56","80fe4187154257d5fb01684ea91b68b9","82.23.98.22","Mozilla/5.0 (Windows NT 10.0; Win64; x64) AppleWebKit/537.36 (KHTML, like Gecko) Chrome/137.0.0.0 Safari/537.36","WebKit","Chrome","137.0.0.0","Windows","10.0","https://app.prolific.com/","en-US,en;q=0.9","67356f7cf6ff16fe3322a837","683db6dfa200031b80f2a654","6865079263f3ca337eb5ab89","67356f7cf6ff16fe3322a837","2025-07-02T10:45:37.943Z","","","","","","MotivationQ","","","","","","","","","","","","","","","","","","","","","","","","","","","","","","","","","","","","","","50"
"","","","","ctl-task-cpt","70","1506838","0.0-10.0-0.5","144","1","2025-07-02 10:20:56","80fe4187154257d5fb01684ea91b68b9","82.23.98.22","Mozilla/5.0 (Windows NT 10.0; Win64; x64) AppleWebKit/537.36 (KHTML, like Gecko) Chrome/137.0.0.0 Safari/537.36","WebKit","Chrome","137.0.0.0","Windows","10.0","https://app.prolific.com/","en-US,en;q=0.9","67356f7cf6ff16fe3322a837","683db6dfa200031b80f2a654","6865079263f3ca337eb5ab89","67356f7cf6ff16fe3322a837","2025-07-02T10:46:39.398Z","","","","","","","","","","","","","","","","win-only","0","g1:NW,g2:SE","0.5","6","0","1484644.2","3622.4","8627.5","58413.2","1","4","8","6","2","8","8","18","10","0.13636363636363635","5005.1","3000","480","[""down"",""right""]","{""num_key_presses"":12,""num_perfect"":7,""num_errors"":0,""num_randdir"":5,""num_randdir_good_moves"":2,""num_whilered"":0,""num_whileblue"":0,""num_blue"":5,""num_good_moves"":9}","[350.14285714285717,350.04910714285717,0.5,350.14285714285717,350.04910714285717,115.7,350.14285714285717,350.04910714285717,216.5,430.14285714285717,387.04910714285717,318.8,1146.142857142857,461.04910714285717,428.5,1146.142857142857,450.04910714285717,531.1,1146.142857142857,450.04910714285717,653.5,1146.142857142857,450.04910714285717,761.8,1146.142857142857,450.04910714285717,872.8,1146.142857142857,450.04910714285717,979.3,1146.142857142857,450.04910714285717,1085.9,1146.142857142857,450.04910714285717,1191.1,1146.142857142857,450.04910714285717,1296.8,1146.142857142857,450.04910714285717,1398.2,1146.142857142857,450.04910714285717,1498.7,1146.142857142857,450.04910714285717,1599,1146.142857142857,450.04910714285717,1707.3,1146.142857142857,450.04910714285717,1808.9,1146.142857142857,450.04910714285717,1912.7,1146.142857142857,450.04910714285717,2033.3,1146.142857142857,450.04910714285717,2139.6,1146.142857142857,450.04910714285717,2246.5,1146.142857142857,450.04910714285717,2350.2,1146.142857142857,450.04910714285717,2461,1146.142857142857,450.04910714285717,2580.4,1146.142857142857,450.04910714285717,2687.6,1146.142857142857,450.04910714285717,2794.9,1146.142857142857,450.04910714285717,2898.8,1146.142857142857,450.04910714285717,3001.4,1146.142857142857,450.04910714285717,3105.6,1146.142857142857,450.04910714285717,3231.1,1146.142857142857,450.04910714285717,3332.4,1146.142857142857,450.04910714285717,3436,1146.142857142857,450.04910714285717,3540.7,1146.142857142857,450.04910714285717,3668.7,1146.142857142857,450.04910714285717,3772.1,1146.142857142857,450.04910714285717,3886.1,1146.142857142857,450.04910714285717,3988.9,1146.142857142857,450.04910714285717,4091.3,1146.142857142857,450.04910714285717,4196.9,1146.142857142857,450.04910714285717,4299.3,1146.142857142857,450.04910714285717,4401,1146.142857142857,450.04910714285717,4521.4,1146.142857142857,450.04910714285717,4624.5,1146.142857142857,450.04910714285717,4724.6,1146.142857142857,450.04910714285717,4831.5,1146.142857142857,450.04910714285717,4934.6]","[1403.7,1403.7,1000,0,403.7,""oops"",""down"",""left"",""bad_move"",7666.8,6261.2,2609.6,4667.4,389.8,""smooth"",""down"",""down"",""good_move"",10450.4,2783,2369.2,7667.4,413.8,""smooth"",""down"",""down"",""good_move"",13654.9,3204.4,2796.5,10450.7,407.8,""oops"",""down"",""right"",""good_move"",16483.2,2826.6,2412.1,13656.6,414.5,""oops"",""down"",""up"",""bad_move"",22164.8,5680.4,1892.8,19867.3,404.7,""smooth"",""down"",""down"",""good_move"",24299.4,2134.2,1714.1,22165.3,420.1,""oops"",""down"",""up"",""bad_move"",26972.7,2672.5,2273.4,24300.2,399.1,""smooth"",""down"",""down"",""good_move"",37369.9,10396.7,3005.6,34002.7,361.6,""oops"",""down"",""down"",""good_move"",40456.8,3086.3,2713.3,37370.5,373,""smooth"",""right"",""right"",""good_move"",42930,2471.6,2078.2,40458.4,393.4,""smooth"",""right"",""right"",""good_move"",49630.4,6700.1,2286.7,46945.7,398,""smooth"",""right"",""right"",""good_move""]","",""
"1636","","<div style=""width:500px;"">
  <p>What determined the result of this run?</p>
  </div>","100","html-slider-response","71","1508478","0.0-10.0-1.5","144","1","2025-07-02 10:20:56","80fe4187154257d5fb01684ea91b68b9","82.23.98.22","Mozilla/5.0 (Windows NT 10.0; Win64; x64) AppleWebKit/537.36 (KHTML, like Gecko) Chrome/137.0.0.0 Safari/537.36","WebKit","Chrome","137.0.0.0","Windows","10.0","https://app.prolific.com/","en-US,en;q=0.9","67356f7cf6ff16fe3322a837","683db6dfa200031b80f2a654","6865079263f3ca337eb5ab89","67356f7cf6ff16fe3322a837","2025-07-02T10:46:41.037Z","","","","","","AttribQ","","","","","","","","","","","","","","","","","","","","","","","","","","","","","","","","","","","","","","50"
"3351","","<div style=""width:500px;"">
  <p>How much control did you have over the ball?</p>
  </div>","91","html-slider-response","72","1511831","0.0-10.0-2.5","144","1","2025-07-02 10:20:56","80fe4187154257d5fb01684ea91b68b9","82.23.98.22","Mozilla/5.0 (Windows NT 10.0; Win64; x64) AppleWebKit/537.36 (KHTML, like Gecko) Chrome/137.0.0.0 Safari/537.36","WebKit","Chrome","137.0.0.0","Windows","10.0","https://app.prolific.com/","en-US,en;q=0.9","67356f7cf6ff16fe3322a837","683db6dfa200031b80f2a654","6865079263f3ca337eb5ab89","67356f7cf6ff16fe3322a837","2025-07-02T10:46:44.390Z","","","","","","ControlQ","","","","","","","","","","","","","","","","","","","","","","","","","","","","","","","","","","","","","","50"
"2065","","<div style=""width:500px;"">
  <p>How would you describe your current emotional state?</p>
  </div>","4","html-slider-response","73","1513898","0.0-10.0-3.5","144","1","2025-07-02 10:20:56","80fe4187154257d5fb01684ea91b68b9","82.23.98.22","Mozilla/5.0 (Windows NT 10.0; Win64; x64) AppleWebKit/537.36 (KHTML, like Gecko) Chrome/137.0.0.0 Safari/537.36","WebKit","Chrome","137.0.0.0","Windows","10.0","https://app.prolific.com/","en-US,en;q=0.9","67356f7cf6ff16fe3322a837","683db6dfa200031b80f2a654","6865079263f3ca337eb5ab89","67356f7cf6ff16fe3322a837","2025-07-02T10:46:46.457Z","","","","","","StressQ","","","","","","","","","","","","","","","","","","","","","","","","","","","","","","","","","","","","","","50"
"3495","","<div style=""width:500px;"">
  <p>What best describes how you currently feel?</p>
  </div>","89","html-slider-response","74","1517396","0.0-10.0-4.5","144","1","2025-07-02 10:20:56","80fe4187154257d5fb01684ea91b68b9","82.23.98.22","Mozilla/5.0 (Windows NT 10.0; Win64; x64) AppleWebKit/537.36 (KHTML, like Gecko) Chrome/137.0.0.0 Safari/537.36","WebKit","Chrome","137.0.0.0","Windows","10.0","https://app.prolific.com/","en-US,en;q=0.9","67356f7cf6ff16fe3322a837","683db6dfa200031b80f2a654","6865079263f3ca337eb5ab89","67356f7cf6ff16fe3322a837","2025-07-02T10:46:49.956Z","","","","","","MotivationQ","","","","","","","","","","","","","","","","","","","","","","","","","","","","","","","","","","","","","","50"
"","","","","ctl-task-cpt","75","1553734","0.0-10.0-0.6","144","1","2025-07-02 10:20:56","80fe4187154257d5fb01684ea91b68b9","82.23.98.22","Mozilla/5.0 (Windows NT 10.0; Win64; x64) AppleWebKit/537.36 (KHTML, like Gecko) Chrome/137.0.0.0 Safari/537.36","WebKit","Chrome","137.0.0.0","Windows","10.0","https://app.prolific.com/","en-US,en;q=0.9","67356f7cf6ff16fe3322a837","683db6dfa200031b80f2a654","6865079263f3ca337eb5ab89","67356f7cf6ff16fe3322a837","2025-07-02T10:47:26.293Z","","","","","","","","","","","","","","","","win-only","0","g1:NW,g2:SE","0.4","7","0","1556658.5","6910","11911.9","33310.6","1","4","4","6","2","4","3","21","18","0.1590909090909091","5001.9","3000","1485","[""down"",""right""]","{""num_key_presses"":8,""num_perfect"":4,""num_errors"":1,""num_randdir"":3,""num_randdir_good_moves"":2,""num_whilered"":0,""num_whileblue"":1,""num_blue"":1,""num_good_moves"":7}","[352.14285714285717,346.04910714285717,1.5,352.14285714285717,346.04910714285717,101.8,352.14285714285717,346.04910714285717,237.3,352.14285714285717,346.04910714285717,354.7,352.14285714285717,346.04910714285717,457.2,352.14285714285717,346.04910714285717,557.8,352.14285714285717,346.04910714285717,658.3,352.14285714285717,346.04910714285717,766.8,352.14285714285717,346.04910714285717,890.1,352.14285714285717,346.04910714285717,992.7,352.14285714285717,346.04910714285717,1093.3,352.14285714285717,346.04910714285717,1194.2,352.14285714285717,346.04910714285717,1297.1,352.14285714285717,346.04910714285717,1409.1,352.14285714285717,346.04910714285717,1514.1,352.14285714285717,346.04910714285717,1641.4,352.14285714285717,346.04910714285717,1745.6,352.14285714285717,346.04910714285717,1854.3,352.14285714285717,346.04910714285717,1972.2,352.14285714285717,346.04910714285717,2075.5,352.14285714285717,346.04910714285717,2176,352.14285714285717,346.04910714285717,2287.3,352.14285714285717,346.04910714285717,2402,352.14285714285717,346.04910714285717,2503.9,352.14285714285717,346.04910714285717,2606,352.14285714285717,346.04910714285717,2706.8,352.14285714285717,346.04910714285717,2810.8,352.14285714285717,346.04910714285717,2922.8,352.14285714285717,346.04910714285717,3051.6,352.14285714285717,346.04910714285717,3152.4,352.14285714285717,346.04910714285717,3253.1,352.14285714285717,346.04910714285717,3357.4,352.14285714285717,346.04910714285717,3460.9,352.14285714285717,346.04910714285717,3561.2,352.14285714285717,346.04910714285717,3670.5,352.14285714285717,346.04910714285717,3772.8,352.14285714285717,346.04910714285717,3874.8,352.14285714285717,346.04910714285717,3977,352.14285714285717,346.04910714285717,4077.8,352.14285714285717,346.04910714285717,4181,352.14285714285717,346.04910714285717,4289.5,352.14285714285717,346.04910714285717,4391.5,352.14285714285717,346.04910714285717,4510.5,352.14285714285717,346.04910714285717,4611.4,352.14285714285717,346.04910714285717,4716.2,352.14285714285717,346.04910714285717,4838.8,352.14285714285717,346.04910714285717,4940]","[1471.3,1471.4,1000,0,471.4,""smooth"",""down"",""down"",""good_move"",4153.9,2681.4,2266,1472.6,415.3,""smooth"",""down"",""down"",""good_move"",6903.8,2747.7,2364.7,4156.1,383,""oops"",""down"",""right"",""good_move"",9510.4,2605.8,2255.7,6904.6,350.1,""oops"",""down"",""left"",""bad_move"",12226.6,2715.4,2369.9,9511.4,345.4,""oops"",""down"",""down"",""good_move"",15515.3,3288.3,2910.8,12227,377.5,""smooth"",""right"",""right"",""good_move"",18018.2,2502.2,2143.7,15516,358.6,""while_blue"",""right"",""right"",""good_move"",21204.2,3184.8,2650.6,18019.4,534.2,""smooth"",""right"",""right"",""good_move""]","",""
"3145","","<div style=""width:500px;"">
  <p>What determined the result of this run?</p>
  </div>","95","html-slider-response","76","1556881","0.0-10.0-1.6","144","1","2025-07-02 10:20:56","80fe4187154257d5fb01684ea91b68b9","82.23.98.22","Mozilla/5.0 (Windows NT 10.0; Win64; x64) AppleWebKit/537.36 (KHTML, like Gecko) Chrome/137.0.0.0 Safari/537.36","WebKit","Chrome","137.0.0.0","Windows","10.0","https://app.prolific.com/","en-US,en;q=0.9","67356f7cf6ff16fe3322a837","683db6dfa200031b80f2a654","6865079263f3ca337eb5ab89","67356f7cf6ff16fe3322a837","2025-07-02T10:47:29.440Z","","","","","","AttribQ","","","","","","","","","","","","","","","","","","","","","","","","","","","","","","","","","","","","","","50"
"3360","","<div style=""width:500px;"">
  <p>How much control did you have over the ball?</p>
  </div>","94","html-slider-response","77","1560242","0.0-10.0-2.6","144","1","2025-07-02 10:20:56","80fe4187154257d5fb01684ea91b68b9","82.23.98.22","Mozilla/5.0 (Windows NT 10.0; Win64; x64) AppleWebKit/537.36 (KHTML, like Gecko) Chrome/137.0.0.0 Safari/537.36","WebKit","Chrome","137.0.0.0","Windows","10.0","https://app.prolific.com/","en-US,en;q=0.9","67356f7cf6ff16fe3322a837","683db6dfa200031b80f2a654","6865079263f3ca337eb5ab89","67356f7cf6ff16fe3322a837","2025-07-02T10:47:32.801Z","","","","","","ControlQ","","","","","","","","","","","","","","","","","","","","","","","","","","","","","","","","","","","","","","50"
"2726","","<div style=""width:500px;"">
  <p>How would you describe your current emotional state?</p>
  </div>","2","html-slider-response","78","1562971","0.0-10.0-3.6","144","1","2025-07-02 10:20:56","80fe4187154257d5fb01684ea91b68b9","82.23.98.22","Mozilla/5.0 (Windows NT 10.0; Win64; x64) AppleWebKit/537.36 (KHTML, like Gecko) Chrome/137.0.0.0 Safari/537.36","WebKit","Chrome","137.0.0.0","Windows","10.0","https://app.prolific.com/","en-US,en;q=0.9","67356f7cf6ff16fe3322a837","683db6dfa200031b80f2a654","6865079263f3ca337eb5ab89","67356f7cf6ff16fe3322a837","2025-07-02T10:47:35.530Z","","","","","","StressQ","","","","","","","","","","","","","","","","","","","","","","","","","","","","","","","","","","","","","","50"
"3020","","<div style=""width:500px;"">
  <p>What best describes how you currently feel?</p>
  </div>","97","html-slider-response","79","1565992","0.0-10.0-4.6","144","1","2025-07-02 10:20:56","80fe4187154257d5fb01684ea91b68b9","82.23.98.22","Mozilla/5.0 (Windows NT 10.0; Win64; x64) AppleWebKit/537.36 (KHTML, like Gecko) Chrome/137.0.0.0 Safari/537.36","WebKit","Chrome","137.0.0.0","Windows","10.0","https://app.prolific.com/","en-US,en;q=0.9","67356f7cf6ff16fe3322a837","683db6dfa200031b80f2a654","6865079263f3ca337eb5ab89","67356f7cf6ff16fe3322a837","2025-07-02T10:47:38.552Z","","","","","","MotivationQ","","","","","","","","","","","","","","","","","","","","","","","","","","","","","","","","","","","","","","50"
"","","","","ctl-task-cpt","80","1602306","0.0-10.0-0.7","144","1","2025-07-02 10:20:56","80fe4187154257d5fb01684ea91b68b9","82.23.98.22","Mozilla/5.0 (Windows NT 10.0; Win64; x64) AppleWebKit/537.36 (KHTML, like Gecko) Chrome/137.0.0.0 Safari/537.36","WebKit","Chrome","137.0.0.0","Windows","10.0","https://app.prolific.com/","en-US,en;q=0.9","67356f7cf6ff16fe3322a837","683db6dfa200031b80f2a654","6865079263f3ca337eb5ab89","67356f7cf6ff16fe3322a837","2025-07-02T10:48:14.866Z","","","","","","","","","","","","","","","","win-only","3","g1:SW,g2:NE","0.3","8","0","1605252.3","5170","10174.1","33284.2","1","4","8","6","1","-1","-1","20","21","0.15151515151515152","5004.1","3000","-990","[""down"",""left""]","{""num_key_presses"":6,""num_perfect"":3,""num_errors"":0,""num_randdir"":3,""num_randdir_good_moves"":0,""num_whilered"":0,""num_whileblue"":0,""num_blue"":0,""num_good_moves"":0}","[356.14285714285717,346.04910714285717,0.6,356.14285714285717,346.04910714285717,120,356.14285714285717,346.04910714285717,222.7,356.14285714285717,346.04910714285717,322.8,344.14285714285717,346.04910714285717,433.1,333.14285714285717,338.04910714285717,535.8,257.14285714285717,313.04910714285717,639.9,177.14285714285714,304.04910714285717,742.7,177.14285714285714,304.04910714285717,845.7,177.14285714285714,304.04910714285717,952.7,177.14285714285714,304.04910714285717,1055.6,177.14285714285714,304.04910714285717,1160,177.14285714285714,304.04910714285717,1262.2,177.14285714285714,304.04910714285717,1365.8,177.14285714285714,304.04910714285717,1467.8,177.14285714285714,304.04910714285717,1579.5,177.14285714285714,304.04910714285717,1690.2,177.14285714285714,304.04910714285717,1798.1,177.14285714285714,304.04910714285717,1904.3,177.14285714285714,304.04910714285717,2005.7,177.14285714285714,304.04910714285717,2121,177.14285714285714,304.04910714285717,2229.1,177.14285714285714,304.04910714285717,2330.2,177.14285714285714,304.04910714285717,2433.7,177.14285714285714,304.04910714285717,2538.7,177.14285714285714,304.04910714285717,2642.8,177.14285714285714,304.04910714285717,2744.9,177.14285714285714,304.04910714285717,2847.6,177.14285714285714,304.04910714285717,2948,177.14285714285714,304.04910714285717,3084.6,177.14285714285714,304.04910714285717,3208.1,177.14285714285714,304.04910714285717,3310.7,177.14285714285714,304.04910714285717,3415.3,177.14285714285714,304.04910714285717,3532.5,177.14285714285714,304.04910714285717,3636,177.14285714285714,304.04910714285717,3742.3,177.14285714285714,304.04910714285717,3849.9,177.14285714285714,304.04910714285717,3954.7,177.14285714285714,304.04910714285717,4073.5,177.14285714285714,304.04910714285717,4181.2,177.14285714285714,304.04910714285717,4332.5,177.14285714285714,304.04910714285717,4438,177.14285714285714,304.04910714285717,4543.6,177.14285714285714,304.04910714285717,4685.1,177.14285714285714,304.04910714285717,4788.5,177.14285714285714,304.04910714285717,4895.4,177.14285714285714,304.04910714285717,4999.2]","[1432.9,1432.9,1000,0,432.9,""oops"",""up"",""right"",""bad_move"",3863.9,2429.1,2010.5,1435.6,417.8,""oops"",""up"",""right"",""bad_move"",6453.7,2589.1,2199.7,3864.7,389.3,""smooth"",""up"",""up"",""bad_move"",9690,3235.4,2885.5,6454.6,349.9,""smooth"",""up"",""up"",""bad_move"",12326,2635.8,1695.8,9690.2,940,""oops"",""up"",""up"",""bad_move"",15438.1,3111.6,2773.5,12326.7,338,""smooth"",""right"",""right"",""bad_move""]","",""
"2419","","<div style=""width:500px;"">
  <p>What determined the result of this run?</p>
  </div>","85","html-slider-response","81","1604728","0.0-10.0-1.7","144","1","2025-07-02 10:20:56","80fe4187154257d5fb01684ea91b68b9","82.23.98.22","Mozilla/5.0 (Windows NT 10.0; Win64; x64) AppleWebKit/537.36 (KHTML, like Gecko) Chrome/137.0.0.0 Safari/537.36","WebKit","Chrome","137.0.0.0","Windows","10.0","https://app.prolific.com/","en-US,en;q=0.9","67356f7cf6ff16fe3322a837","683db6dfa200031b80f2a654","6865079263f3ca337eb5ab89","67356f7cf6ff16fe3322a837","2025-07-02T10:48:17.287Z","","","","","","AttribQ","","","","","","","","","","","","","","","","","","","","","","","","","","","","","","","","","","","","","","50"
"3959","","<div style=""width:500px;"">
  <p>How much control did you have over the ball?</p>
  </div>","24","html-slider-response","82","1608689","0.0-10.0-2.7","144","1","2025-07-02 10:20:56","80fe4187154257d5fb01684ea91b68b9","82.23.98.22","Mozilla/5.0 (Windows NT 10.0; Win64; x64) AppleWebKit/537.36 (KHTML, like Gecko) Chrome/137.0.0.0 Safari/537.36","WebKit","Chrome","137.0.0.0","Windows","10.0","https://app.prolific.com/","en-US,en;q=0.9","67356f7cf6ff16fe3322a837","683db6dfa200031b80f2a654","6865079263f3ca337eb5ab89","67356f7cf6ff16fe3322a837","2025-07-02T10:48:21.249Z","","","","","","ControlQ","","","","","","","","","","","","","","","","","","","","","","","","","","","","","","","","","","","","","","50"
"2608","","<div style=""width:500px;"">
  <p>How would you describe your current emotional state?</p>
  </div>","1","html-slider-response","83","1611300","0.0-10.0-3.7","144","1","2025-07-02 10:20:56","80fe4187154257d5fb01684ea91b68b9","82.23.98.22","Mozilla/5.0 (Windows NT 10.0; Win64; x64) AppleWebKit/537.36 (KHTML, like Gecko) Chrome/137.0.0.0 Safari/537.36","WebKit","Chrome","137.0.0.0","Windows","10.0","https://app.prolific.com/","en-US,en;q=0.9","67356f7cf6ff16fe3322a837","683db6dfa200031b80f2a654","6865079263f3ca337eb5ab89","67356f7cf6ff16fe3322a837","2025-07-02T10:48:23.859Z","","","","","","StressQ","","","","","","","","","","","","","","","","","","","","","","","","","","","","","","","","","","","","","","50"
"2348","","<div style=""width:500px;"">
  <p>What best describes how you currently feel?</p>
  </div>","91","html-slider-response","84","1613653","0.0-10.0-4.7","144","1","2025-07-02 10:20:56","80fe4187154257d5fb01684ea91b68b9","82.23.98.22","Mozilla/5.0 (Windows NT 10.0; Win64; x64) AppleWebKit/537.36 (KHTML, like Gecko) Chrome/137.0.0.0 Safari/537.36","WebKit","Chrome","137.0.0.0","Windows","10.0","https://app.prolific.com/","en-US,en;q=0.9","67356f7cf6ff16fe3322a837","683db6dfa200031b80f2a654","6865079263f3ca337eb5ab89","67356f7cf6ff16fe3322a837","2025-07-02T10:48:26.213Z","","","","","","MotivationQ","","","","","","","","","","","","","","","","","","","","","","","","","","","","","","","","","","","","","","50"
"","","","","ctl-task-cpt","85","1759773","0.0-10.0-0.8","144","1","2025-07-02 10:20:56","80fe4187154257d5fb01684ea91b68b9","82.23.98.22","Mozilla/5.0 (Windows NT 10.0; Win64; x64) AppleWebKit/537.36 (KHTML, like Gecko) Chrome/137.0.0.0 Safari/537.36","WebKit","Chrome","137.0.0.0","Windows","10.0","https://app.prolific.com/","en-US,en;q=0.9","67356f7cf6ff16fe3322a837","683db6dfa200031b80f2a654","6865079263f3ca337eb5ab89","67356f7cf6ff16fe3322a837","2025-07-02T10:50:52.332Z","","","","","","","","","","","","","","","","win-only","3","g1:SW,g2:NE","0.4","9","0","1652914.8","10955","15967.7","143096.5","1","4","4","6","1","-1","-2","18","20","0.13636363636363635","5012.6","3000","-1015","[""down"",""left""]","{""num_key_presses"":29,""num_perfect"":11,""num_errors"":1,""num_randdir"":17,""num_randdir_good_moves"":12,""num_whilered"":0,""num_whileblue"":1,""num_blue"":9,""num_good_moves"":13}","[349.14285714285717,342.04910714285717,0.5,349.14285714285717,343.04910714285717,125.9,349.14285714285717,343.04910714285717,233.5,349.14285714285717,343.04910714285717,347.2,349.14285714285717,343.04910714285717,460.4,349.14285714285717,343.04910714285717,562,349.14285714285717,343.04910714285717,671,349.14285714285717,343.04910714285717,774.6,349.14285714285717,343.04910714285717,878.7,349.14285714285717,343.04910714285717,990.8,349.14285714285717,343.04910714285717,1098.2,349.14285714285717,343.04910714285717,1209.7,349.14285714285717,343.04910714285717,1314.6,349.14285714285717,343.04910714285717,1422.8,349.14285714285717,343.04910714285717,1526.1,349.14285714285717,343.04910714285717,1640.2,349.14285714285717,343.04910714285717,1748.5,349.14285714285717,343.04910714285717,1858.7,349.14285714285717,343.04910714285717,1967.3,349.14285714285717,343.04910714285717,2084,349.14285714285717,343.04910714285717,2194.6,349.14285714285717,343.04910714285717,2301.1,349.14285714285717,343.04910714285717,2411.8,349.14285714285717,343.04910714285717,2513.2,349.14285714285717,343.04910714285717,2627.7,349.14285714285717,343.04910714285717,2734,349.14285714285717,343.04910714285717,2847,349.14285714285717,343.04910714285717,2947.1,349.14285714285717,343.04910714285717,3068.2,349.14285714285717,343.04910714285717,3176,349.14285714285717,343.04910714285717,3285.5,349.14285714285717,343.04910714285717,3400.6,349.14285714285717,343.04910714285717,3509.9,349.14285714285717,343.04910714285717,3616.9,349.14285714285717,343.04910714285717,3727,349.14285714285717,343.04910714285717,3838.3,349.14285714285717,343.04910714285717,3943,349.14285714285717,343.04910714285717,4055.5,349.14285714285717,343.04910714285717,4167.2,349.14285714285717,343.04910714285717,4282.8,349.14285714285717,343.04910714285717,4390.9,349.14285714285717,343.04910714285717,4499.9,349.14285714285717,343.04910714285717,4621.6,349.14285714285717,343.04910714285717,4727.2,349.14285714285717,343.04910714285717,4842.9,349.14285714285717,343.04910714285717,4953.6]","[1478.4,1478.4,1000,0,478.4,""oops"",""up"",""right"",""bad_move"",4677.9,3198.8,2798.8,1479.2,399.9,""smooth"",""up"",""up"",""bad_move"",7499.6,2820.8,2455.5,4678.8,365.3,""smooth"",""up"",""up"",""bad_move"",10633,3132.9,2778.1,7500.1,354.8,""smooth"",""up"",""up"",""bad_move"",13748.5,3114.8,1856.4,10633.7,1258.4,""oops"",""right"",""right"",""bad_move"",16639.1,2890.2,2516.4,13748.9,373.8,""oops"",""right"",""down"",""good_move"",23149.8,6510.3,2565.6,20157.4,426.8,""oops"",""right"",""down"",""good_move"",26193.7,3043.3,2634.1,23150.4,409.2,""oops"",""right"",""left"",""good_move"",30548,4353.6,2684.2,26194.5,1669.3,""smooth"",""right"",""right"",""bad_move"",37144.7,6596.2,2758.1,33940.5,446.1,""oops"",""right"",""left"",""good_move"",42361.3,5216.2,3132.7,37145.1,2083.5,""oops"",""up"",""up"",""bad_move"",46647.9,4285.6,2833.8,42362.3,1451.8,""oops"",""up"",""down"",""good_move"",49622.6,2973.7,2395.7,46648.9,578,""oops"",""right"",""down"",""good_move"",52881,3257.7,2871.1,49623.3,386.6,""oops"",""up"",""up"",""bad_move"",55743.8,2862.2,2375.1,52881.6,487.1,""smooth"",""up"",""up"",""bad_move"",58719.1,2974.7,2611.7,55744.4,363,""smooth"",""up"",""up"",""bad_move"",61539.9,2820.5,2227.2,58719.4,593.3,""smooth"",""right"",""right"",""bad_move"",64406.1,2865.1,2462.4,61541,402.7,""oops"",""right"",""left"",""good_move"",71821.9,7415.1,2854.7,68609.1,358.1,""oops"",""right"",""left"",""good_move"",75068.4,3244.7,2873.9,71823.8,370.7,""while_blue"",""right"",""left"",""good_move"",88147,13077.8,2050.6,85571,525.4,""smooth"",""right"",""right"",""bad_move"",94261.1,6112.2,2443.6,91434.5,383,""oops"",""right"",""left"",""good_move"",97968.1,3706.4,1745.2,94261.7,1961.2,""oops"",""right"",""left"",""good_move"",101951.1,3982.7,2035.8,97968.4,1946.9,""smooth"",""right"",""right"",""bad_move"",105158.6,3207.3,2799.5,101951.3,407.8,""smooth"",""right"",""right"",""bad_move"",108509.1,3350.2,2966.4,105158.9,383.8,""oops"",""right"",""down"",""good_move"",111688.1,3178.3,2774.1,108509.8,404.2,""oops"",""right"",""left"",""good_move"",117016.7,5328,1831.1,111688.7,3496.9,""oops"",""right"",""up"",""bad_move"",124307.4,7290.1,2813.7,121097.3,396.4,""smooth"",""right"",""right"",""bad_move""]","",""
"4913","","<div style=""width:500px;"">
  <p>What determined the result of this run?</p>
