"rt","response_timestamp","stimulus","response","trial_type","trial_index","time_elapsed","internal_node_id","run_id","condition","recorded_at","source_code_version","ip","user_agent","device","browser","browser_version","platform","platform_version","referer","accept_language","PROLIFIC_PID","STUDY_ID","SESSION_ID","prolific_id","realtime","view_history","question_order","consent","success","question_id","eventType","responses","item_order","radio_event_ids","radio_event_times","key_event_times","mouse_event_times","straightlining","zigzagging","honeypot","which_type","canvas_config","goals_layout","control_level","trial_number","tutorial_trial_number","trial_start_time","phase1_start_time","phase2_start_time","phase3_start_time","goal_1_value","goal_1_distance","goal_2_value","goal_2_distance","goal_selected","outcome","outcome_total","participant_final_score","participant_initial_score","participant_final_score_prop","goal_choice_rt","allocated_time","allocated_time_remaining","goal_direction","counts","mouse_movements","key_presses","correct","slider_start"
"9001","1751451927798","<p style='font-size:40px;line-height:1.25'><strong>Welcome to the experiment!</strong></p><p style='font-size:1.1em;line-height:1.25'>Thank you for your interest in our experiment! Before you begin, it is important that we obtain your informed consent to participate in the study.</p><p style='font-size:1.1em;line-height:1.25'>On the next screen will be an <strong>information sheet</strong> for you to read. To participate in the study we need you to read this information sheet and the following consent form carefully. If you agree with all the statements, please click the <strong>I agree</strong> button.</p><p style='font-size:1.1em;line-height:1.25'>Press <strong>Next</strong> to read the information sheet.</p>","0","custom-html-button-response","0","9006","0.0-0.0","184","1","2025-07-02 10:25:02","80fe4187154257d5fb01684ea91b68b9","105.1.161.232","Mozilla/5.0 (Windows NT 10.0; Win64; x64) AppleWebKit/537.36 (KHTML, like Gecko) Chrome/137.0.0.0 Safari/537.36","WebKit","Chrome","137.0.0.0","Windows","10.0","https://app.prolific.com/","en-GB,en-US;q=0.9,en;q=0.8","67417cd21e7e37b5843c3ac2","683db6dfa200031b80f2a654","6865076adbb731f98bdfb30d","67417cd21e7e37b5843c3ac2","2025-07-02T10:25:27.800Z","","","","","","","","","","","","","","","","","","","","","","","","","","","","","","","","","","","","","","","","","","","",""
"405452","","","","instructions","1","414463","0.0-1.0","184","1","2025-07-02 10:25:02","80fe4187154257d5fb01684ea91b68b9","105.1.161.232","Mozilla/5.0 (Windows NT 10.0; Win64; x64) AppleWebKit/537.36 (KHTML, like Gecko) Chrome/137.0.0.0 Safari/537.36","WebKit","Chrome","137.0.0.0","Windows","10.0","https://app.prolific.com/","en-GB,en-US;q=0.9,en;q=0.8","67417cd21e7e37b5843c3ac2","683db6dfa200031b80f2a654","6865076adbb731f98bdfb30d","67417cd21e7e37b5843c3ac2","","[{""page_index"":0,""viewing_time"":398411},{""page_index"":1,""viewing_time"":7024}]","","","","","","","","","","","","","","","","","","","","","","","","","","","","","","","","","","","","","","","","","","",""
"14588","","","{""Q0"":"""",""Q1"":"""",""Q2"":"""",""Q3"":"""",""Q4"":"""",""Q5"":"""",""Q6"":""I agree""}","survey-multi-choice","2","429139","0.0-2.0","184","1","2025-07-02 10:25:02","80fe4187154257d5fb01684ea91b68b9","105.1.161.232","Mozilla/5.0 (Windows NT 10.0; Win64; x64) AppleWebKit/537.36 (KHTML, like Gecko) Chrome/137.0.0.0 Safari/537.36","WebKit","Chrome","137.0.0.0","Windows","10.0","https://app.prolific.com/","en-GB,en-US;q=0.9,en;q=0.8","67417cd21e7e37b5843c3ac2","683db6dfa200031b80f2a654","6865076adbb731f98bdfb30d","67417cd21e7e37b5843c3ac2","","","[0,1,2,3,4,5,6]","true","","","","","","","","","","","","","","","","","","","","","","","","","","","","","","","","","","","","","","","","",""
"121388","","","","fullscreen","3","551588","0.0-4.0","184","1","2025-07-02 10:25:02","80fe4187154257d5fb01684ea91b68b9","105.1.161.232","Mozilla/5.0 (Windows NT 10.0; Win64; x64) AppleWebKit/537.36 (KHTML, like Gecko) Chrome/137.0.0.0 Safari/537.36","WebKit","Chrome","137.0.0.0","Windows","10.0","https://app.prolific.com/","en-GB,en-US;q=0.9,en;q=0.8","67417cd21e7e37b5843c3ac2","683db6dfa200031b80f2a654","6865076adbb731f98bdfb30d","67417cd21e7e37b5843c3ac2","","","","","true","","","","","","","","","","","","","","","","","","","","","","","","","","","","","","","","","","","","","","","",""
"602622","1751453073067"," <p style='font-size:1.1em;line-height:1.25'>Thank you for completing the consent form and closing all other tabs.</p><p style='font-size:1.1em;line-height:1.25'>We will now invite you to fill in some demographic information and questionnaires, before starting the game.<br>This will take about 5 minutes.<br></p><p style='font-size:1.1em;line-height:1.25'>Press the <strong>Next</strong> button to continue.</p>","0","custom-html-button-response","4","1154297","0.0-5.0","184","1","2025-07-02 10:25:02","80fe4187154257d5fb01684ea91b68b9","105.1.161.232","Mozilla/5.0 (Windows NT 10.0; Win64; x64) AppleWebKit/537.36 (KHTML, like Gecko) Chrome/137.0.0.0 Safari/537.36","WebKit","Chrome","137.0.0.0","Windows","10.0","https://app.prolific.com/","en-GB,en-US;q=0.9,en;q=0.8","67417cd21e7e37b5843c3ac2","683db6dfa200031b80f2a654","6865076adbb731f98bdfb30d","67417cd21e7e37b5843c3ac2","2025-07-02T10:44:33.097Z","","","","","","","","","","","","","","","","","","","","","","","","","","","","","","","","","","","","","","","","","","","",""
"20388","","","{""age"":""27""}","survey-text","5","1174834","0.0-6.0-0.0","184","1","2025-07-02 10:25:02","80fe4187154257d5fb01684ea91b68b9","105.1.161.232","Mozilla/5.0 (Windows NT 10.0; Win64; x64) AppleWebKit/537.36 (KHTML, like Gecko) Chrome/137.0.0.0 Safari/537.36","WebKit","Chrome","137.0.0.0","Windows","10.0","https://app.prolific.com/","en-GB,en-US;q=0.9,en;q=0.8","67417cd21e7e37b5843c3ac2","683db6dfa200031b80f2a654","6865076adbb731f98bdfb30d","67417cd21e7e37b5843c3ac2","","","","","","0","demographics","","","","","","","","","","","","","","","","","","","","","","","","","","","","","","","","","","","","","",""
"2852","","","{""gender_identity"":""male/man""}","survey-multi-choice","6","1177705","0.0-6.0-1.0","184","1","2025-07-02 10:25:02","80fe4187154257d5fb01684ea91b68b9","105.1.161.232","Mozilla/5.0 (Windows NT 10.0; Win64; x64) AppleWebKit/537.36 (KHTML, like Gecko) Chrome/137.0.0.0 Safari/537.36","WebKit","Chrome","137.0.0.0","Windows","10.0","https://app.prolific.com/","en-GB,en-US;q=0.9,en;q=0.8","67417cd21e7e37b5843c3ac2","683db6dfa200031b80f2a654","6865076adbb731f98bdfb30d","67417cd21e7e37b5843c3ac2","","","[0]","","","1","demographics","","","","","","","","","","","","","","","","","","","","","","","","","","","","","","","","","","","","","",""
"4685","","","{""assigned_sex"":""male""}","survey-multi-choice","7","1182398","0.0-6.0-2.0","184","1","2025-07-02 10:25:02","80fe4187154257d5fb01684ea91b68b9","105.1.161.232","Mozilla/5.0 (Windows NT 10.0; Win64; x64) AppleWebKit/537.36 (KHTML, like Gecko) Chrome/137.0.0.0 Safari/537.36","WebKit","Chrome","137.0.0.0","Windows","10.0","https://app.prolific.com/","en-GB,en-US;q=0.9,en;q=0.8","67417cd21e7e37b5843c3ac2","683db6dfa200031b80f2a654","6865076adbb731f98bdfb30d","67417cd21e7e37b5843c3ac2","","","[0]","","","2","demographics","","","","","","","","","","","","","","","","","","","","","","","","","","","","","","","","","","","","","",""
"6693","","","{""menstrual_cycle"":""No""}","survey-multi-choice","8","1189096","0.0-6.0-3.0","184","1","2025-07-02 10:25:02","80fe4187154257d5fb01684ea91b68b9","105.1.161.232","Mozilla/5.0 (Windows NT 10.0; Win64; x64) AppleWebKit/537.36 (KHTML, like Gecko) Chrome/137.0.0.0 Safari/537.36","WebKit","Chrome","137.0.0.0","Windows","10.0","https://app.prolific.com/","en-GB,en-US;q=0.9,en;q=0.8","67417cd21e7e37b5843c3ac2","683db6dfa200031b80f2a654","6865076adbb731f98bdfb30d","67417cd21e7e37b5843c3ac2","","","[0]","","","4","demographics","","","","","","","","","","","","","","","","","","","","","","","","","","","","","","","","","","","","","",""
"14500","","","{""education"":""Bachelor's Degree (e.g., BA)""}","survey-multi-choice","9","1203600","0.0-6.0-4.0","184","1","2025-07-02 10:25:02","80fe4187154257d5fb01684ea91b68b9","105.1.161.232","Mozilla/5.0 (Windows NT 10.0; Win64; x64) AppleWebKit/537.36 (KHTML, like Gecko) Chrome/137.0.0.0 Safari/537.36","WebKit","Chrome","137.0.0.0","Windows","10.0","https://app.prolific.com/","en-GB,en-US;q=0.9,en;q=0.8","67417cd21e7e37b5843c3ac2","683db6dfa200031b80f2a654","6865076adbb731f98bdfb30d","67417cd21e7e37b5843c3ac2","","","[0]","","","5","demographics","","","","","","","","","","","","","","","","","","","","","","","","","","","","","","","","","","","","","",""
"6851","","","{""education"":""Master's Degree (e.g., MSc)""}","survey-multi-choice","10","1210455","0.0-6.0-5.0","184","1","2025-07-02 10:25:02","80fe4187154257d5fb01684ea91b68b9","105.1.161.232","Mozilla/5.0 (Windows NT 10.0; Win64; x64) AppleWebKit/537.36 (KHTML, like Gecko) Chrome/137.0.0.0 Safari/537.36","WebKit","Chrome","137.0.0.0","Windows","10.0","https://app.prolific.com/","en-GB,en-US;q=0.9,en;q=0.8","67417cd21e7e37b5843c3ac2","683db6dfa200031b80f2a654","6865076adbb731f98bdfb30d","67417cd21e7e37b5843c3ac2","2025-07-02T10:45:29.250Z","","[0]","","","6","demographics","","","","","","","","","","","","","","","","","","","","","","","","","","","","","","","","","","","","","",""
"10979","","","{""mental_health_condition"":""no"",""mental_health_treatment"":""no"",""psychiatric_medication"":""no""}","survey-text","11","1221442","0.0-7.0-0.0","184","1","2025-07-02 10:25:02","80fe4187154257d5fb01684ea91b68b9","105.1.161.232","Mozilla/5.0 (Windows NT 10.0; Win64; x64) AppleWebKit/537.36 (KHTML, like Gecko) Chrome/137.0.0.0 Safari/537.36","WebKit","Chrome","137.0.0.0","Windows","10.0","https://app.prolific.com/","en-GB,en-US;q=0.9,en;q=0.8","67417cd21e7e37b5843c3ac2","683db6dfa200031b80f2a654","6865076adbb731f98bdfb30d","67417cd21e7e37b5843c3ac2","2025-07-02T10:45:40.236Z","","","","","1","mental_health","","","","","","","","","","","","","","","","","","","","","","","","","","","","","","","","","","","","","",""
"18358","","","{""depression_history"":[""Yes""]}","survey-multi-select","12","1239825","0.0-7.0-1.0","184","1","2025-07-02 10:25:02","80fe4187154257d5fb01684ea91b68b9","105.1.161.232","Mozilla/5.0 (Windows NT 10.0; Win64; x64) AppleWebKit/537.36 (KHTML, like Gecko) Chrome/137.0.0.0 Safari/537.36","WebKit","Chrome","137.0.0.0","Windows","10.0","https://app.prolific.com/","en-GB,en-US;q=0.9,en;q=0.8","67417cd21e7e37b5843c3ac2","683db6dfa200031b80f2a654","6865076adbb731f98bdfb30d","67417cd21e7e37b5843c3ac2","","","[0]","","","","mental_health","","","","","","","","","","","","","","","","","","","","","","","","","","","","","","","","","","","","","",""
"17320","","","{""depression_episodes"":""1-2"",""depression_recent"":""More than 1 year ago""}","survey-multi-choice","13","1257148","0.0-7.0-2.0-0.0","184","1","2025-07-02 10:25:02","80fe4187154257d5fb01684ea91b68b9","105.1.161.232","Mozilla/5.0 (Windows NT 10.0; Win64; x64) AppleWebKit/537.36 (KHTML, like Gecko) Chrome/137.0.0.0 Safari/537.36","WebKit","Chrome","137.0.0.0","Windows","10.0","https://app.prolific.com/","en-GB,en-US;q=0.9,en;q=0.8","67417cd21e7e37b5843c3ac2","683db6dfa200031b80f2a654","6865076adbb731f98bdfb30d","67417cd21e7e37b5843c3ac2","2025-07-02T10:46:15.943Z","","[0,1]","","","3","mental_health","","","","","","","","","","","","","","","","","","","","","","","","","","","","","","","","","","","","","",""
"59642.5","","","","survey-template","14","1316826","0.0-7.0-3.0","184","1","2025-07-02 10:25:02","80fe4187154257d5fb01684ea91b68b9","105.1.161.232","Mozilla/5.0 (Windows NT 10.0; Win64; x64) AppleWebKit/537.36 (KHTML, like Gecko) Chrome/137.0.0.0 Safari/537.36","WebKit","Chrome","137.0.0.0","Windows","10.0","https://app.prolific.com/","en-GB,en-US;q=0.9,en;q=0.8","67417cd21e7e37b5843c3ac2","683db6dfa200031b80f2a654","6865076adbb731f98bdfb30d","67417cd21e7e37b5843c3ac2","2025-07-02T10:47:15.620Z","","","","","","ius","{""Q01"":""2"",""Q02"":""3"",""Q03"":""2"",""Q04"":""3"",""Q05"":""2"",""Q06"":""1"",""Q07"":""1"",""Q08"":""0"",""Q09"":""2"",""Q10"":""3"",""Q11"":""1"",""Q12"":""4"",""Q13"":""3""}","[0,1,2,3,4,5,6,7,8,9,10,11,12]","[""Q01"",""Q02"",""Q03"",""Q04"",""Q05"",""Q06"",""Q07"",""Q08"",""Q09"",""Q10"",""Q11"",""Q12"",""Q13"",""Q13""]","[11355.5,13016.199999999953,15746.199999999953,20278.399999999907,22032.5,26421.399999999907,28374.399999999907,36440.69999999995,38360.30000000005,42495.30000000005,46614.60000000009,50900.80000000005,55778.89999999991,58223.69999999995]","[]","[8413.399999999907,11355.5,13016.199999999953,15746.199999999953,20278.399999999907,22032.5,26421.399999999907,28374.399999999907,30714.100000000093,36440.69999999995,38360.30000000005,42495.30000000005,46614.60000000009,49459.30000000005,50900.80000000005,55778.89999999991,58223.69999999995,59638.89999999991]","0.3076923076923077","0.6666666666666666","0","","","","","","","","","","","","","","","","","","","","","","","","","","","","",""
"3808","1751453239437","<p style='font-size:1.1em;line-height:1.25'>In the following, we will ask you a few questions relating to your experiences over the past month.<br></p><p style='font-size:1.1em;line-height:1.25'>Press the <strong>Next</strong> button to continue.</p>","0","custom-html-button-response","15","1320644","0.0-7.0-4.0","184","1","2025-07-02 10:25:02","80fe4187154257d5fb01684ea91b68b9","105.1.161.232","Mozilla/5.0 (Windows NT 10.0; Win64; x64) AppleWebKit/537.36 (KHTML, like Gecko) Chrome/137.0.0.0 Safari/537.36","WebKit","Chrome","137.0.0.0","Windows","10.0","https://app.prolific.com/","en-GB,en-US;q=0.9,en;q=0.8","67417cd21e7e37b5843c3ac2","683db6dfa200031b80f2a654","6865076adbb731f98bdfb30d","67417cd21e7e37b5843c3ac2","2025-07-02T10:47:19.438Z","","","","","","","","","","","","","","","","","","","","","","","","","","","","","","","","","","","","","","","","","","","",""
"34321.80000000005","","","","survey-template","16","1354973","0.0-7.0-5.0","184","1","2025-07-02 10:25:02","80fe4187154257d5fb01684ea91b68b9","105.1.161.232","Mozilla/5.0 (Windows NT 10.0; Win64; x64) AppleWebKit/537.36 (KHTML, like Gecko) Chrome/137.0.0.0 Safari/537.36","WebKit","Chrome","137.0.0.0","Windows","10.0","https://app.prolific.com/","en-GB,en-US;q=0.9,en;q=0.8","67417cd21e7e37b5843c3ac2","683db6dfa200031b80f2a654","6865076adbb731f98bdfb30d","67417cd21e7e37b5843c3ac2","2025-07-02T10:47:53.767Z","","","","","","pss","{""Q01"":""1"",""Q02"":""2"",""Q03"":""1"",""Q04"":""3"",""Q05"":""2"",""Q06"":""1"",""Q07"":""3"",""Q08"":""4"",""Q09"":""1"",""Q10"":""0""}","[0,1,2,3,4,5,6,7,8,9]","[""Q01"",""Q02"",""Q03"",""Q04"",""Q05"",""Q06"",""Q07"",""Q08"",""Q09"",""Q10""]","[4646.90000000014,8199.40000000014,12166.600000000093,14022.199999999953,16553.100000000093,18475.40000000014,20627.199999999953,22792.300000000047,24829.699999999953,27290.600000000093]","[]","[0.19999999995343387,4646.90000000014,6068.199999999953,8199.40000000014,10728.800000000047,12166.600000000093,14022.199999999953,16553.100000000093,18475.40000000014,20627.199999999953,22792.300000000047,24829.699999999953,27290.600000000093,34317.80000000005]","0.6","0.7777777777777778","0","","","","","","","","","","","","","","","","","","","","","","","","","","","","",""
"4836","1751453278605","<p style='font-size:1.1em;line-height:1.25'>Thank you for your answers! Now we will ask you a few more questions relating to your feelings in the last 24 hours.<br></p><p style='font-size:1.1em;line-height:1.25'>Press the <strong>Next</strong> button to continue.</p>","0","custom-html-button-response","17","1359812","0.0-7.0-6.0","184","1","2025-07-02 10:25:02","80fe4187154257d5fb01684ea91b68b9","105.1.161.232","Mozilla/5.0 (Windows NT 10.0; Win64; x64) AppleWebKit/537.36 (KHTML, like Gecko) Chrome/137.0.0.0 Safari/537.36","WebKit","Chrome","137.0.0.0","Windows","10.0","https://app.prolific.com/","en-GB,en-US;q=0.9,en;q=0.8","67417cd21e7e37b5843c3ac2","683db6dfa200031b80f2a654","6865076adbb731f98bdfb30d","67417cd21e7e37b5843c3ac2","2025-07-02T10:47:58.607Z","","","","","","","","","","","","","","","","","","","","","","","","","","","","","","","","","","","","","","","","","","","",""
"55466.69999999995","","","","survey-template","18","1415291","0.0-7.0-7.0","184","1","2025-07-02 10:25:02","80fe4187154257d5fb01684ea91b68b9","105.1.161.232","Mozilla/5.0 (Windows NT 10.0; Win64; x64) AppleWebKit/537.36 (KHTML, like Gecko) Chrome/137.0.0.0 Safari/537.36","WebKit","Chrome","137.0.0.0","Windows","10.0","https://app.prolific.com/","en-GB,en-US;q=0.9,en;q=0.8","67417cd21e7e37b5843c3ac2","683db6dfa200031b80f2a654","6865076adbb731f98bdfb30d","67417cd21e7e37b5843c3ac2","2025-07-02T10:48:54.085Z","","","","","","drsp","{""Q01"":""0"",""Q02"":""0"",""Q03"":""0"",""Q04"":""0"",""Q05"":""0"",""Q06"":""0"",""Q07"":""0"",""Q08"":""0"",""Q09"":""0"",""Q10"":""0"",""Q11"":""0"",""Q12"":""3"",""Q13"":""2"",""Q14"":""2"",""Q15"":""1"",""Q16"":""0"",""Q17"":""0"",""Q18"":""0"",""Q19"":""0"",""Q20"":""0"",""Q21"":""0""}","[0,1,2,3,4,5,6,7,8,9,10,11,12,13,14,15,16,17,18,19,20]","[""Q01"",""Q02"",""Q03"",""Q04"",""Q05"",""Q06"",""Q07"",""Q08"",""Q09"",""Q10"",""Q11"",""Q12"",""Q13"",""Q14"",""Q15"",""Q16"",""Q17"",""Q18"",""Q19"",""Q20"",""Q21""]","[2766,4134,5510.199999999953,6788.100000000093,8131.5,9506.100000000093,12137,14098.899999999907,16486.600000000093,18463,19837.800000000047,27024.800000000047,29881.800000000047,38462.69999999995,39911.30000000005,42710.89999999991,43974.39999999991,46610.19999999995,48609.30000000005,51060.39999999991,53551.30000000005]","[]","[0.10000000009313226,2766,4134,5510.199999999953,6788.100000000093,8131.5,9506.100000000093,12137,14098.899999999907,16486.600000000093,18463,19837.800000000047,27024.800000000047,29881.800000000047,37005,38462.69999999995,39911.30000000005,42710.89999999991,43974.39999999991,46610.19999999995,48609.30000000005,51060.39999999991,53551.30000000005,55462.19999999995]","0.8095238095238095","0.15","0","","","","","","","","","","","","","","","","","","","","","","","","","","","","",""
"13211.300000000047","","","","survey-template","19","1428507","0.0-7.0-8.0","184","1","2025-07-02 10:25:02","80fe4187154257d5fb01684ea91b68b9","105.1.161.232","Mozilla/5.0 (Windows NT 10.0; Win64; x64) AppleWebKit/537.36 (KHTML, like Gecko) Chrome/137.0.0.0 Safari/537.36","WebKit","Chrome","137.0.0.0","Windows","10.0","https://app.prolific.com/","en-GB,en-US;q=0.9,en;q=0.8","67417cd21e7e37b5843c3ac2","683db6dfa200031b80f2a654","6865076adbb731f98bdfb30d","67417cd21e7e37b5843c3ac2","2025-07-02T10:49:07.301Z","","","","","","stress","{""Q01"":""0"",""Q02"":""1"",""Q03"":""0""}","[0,1,2]","[""Q01"",""Q02"",""Q02"",""Q03""]","[4768.600000000093,6092,8483,11453.600000000093]","[]","[3574.8000000000466,4768.600000000093,6092,8483,11453.600000000093,13209.899999999907]","0.6666666666666666","0","0","","","","","","","","","","","","","","","","","","","","","","","","","","","","",""
"198168","","","","instructions","20","1626683","0.0-8.0-0.0","184","1","2025-07-02 10:25:02","80fe4187154257d5fb01684ea91b68b9","105.1.161.232","Mozilla/5.0 (Windows NT 10.0; Win64; x64) AppleWebKit/537.36 (KHTML, like Gecko) Chrome/137.0.0.0 Safari/537.36","WebKit","Chrome","137.0.0.0","Windows","10.0","https://app.prolific.com/","en-GB,en-US;q=0.9,en;q=0.8","67417cd21e7e37b5843c3ac2","683db6dfa200031b80f2a654","6865076adbb731f98bdfb30d","67417cd21e7e37b5843c3ac2","","[{""page_index"":0,""viewing_time"":57621},{""page_index"":1,""viewing_time"":65573},{""page_index"":2,""viewing_time"":34142},{""page_index"":3,""viewing_time"":40831}]","","","","","","","","","","","","","","","","","","","","","","","","","","","","","","","","","","","","","","","","","","",""
"","","","","ctl-task-cpt","21","1643391","0.0-8.0-1.0","184","1","2025-07-02 10:25:02","80fe4187154257d5fb01684ea91b68b9","105.1.161.232","Mozilla/5.0 (Windows NT 10.0; Win64; x64) AppleWebKit/537.36 (KHTML, like Gecko) Chrome/137.0.0.0 Safari/537.36","WebKit","Chrome","137.0.0.0","Windows","10.0","https://app.prolific.com/","en-GB,en-US;q=0.9,en;q=0.8","67417cd21e7e37b5843c3ac2","683db6dfa200031b80f2a654","6865076adbb731f98bdfb30d","67417cd21e7e37b5843c3ac2","","","","","","","","","","","","","","","","","win-only","0","g1:NW,g2:SE","1","0","1","1640957.5","3265.1","7273.8","13655.8","2","4","4","6","2","-4","-4","0","0","0","4008.6","4000","-2235","[""down"",""right""]","{""num_key_presses"":0,""num_perfect"":0,""num_errors"":0,""num_randdir"":0,""num_randdir_good_moves"":0,""num_whilered"":0,""num_whileblue"":0,""num_blue"":0,""num_good_moves"":0}","[297.22232142857143,291.12857142857143,3.4,297.22232142857143,291.12857142857143,110.5,297.22232142857143,291.12857142857143,211,297.22232142857143,291.12857142857143,323.1,297.22232142857143,291.12857142857143,427.4,297.22232142857143,291.12857142857143,528.8,297.22232142857143,291.12857142857143,633.3,297.22232142857143,291.12857142857143,735.9,297.22232142857143,291.12857142857143,840.1,297.22232142857143,291.12857142857143,944,297.22232142857143,291.12857142857143,1045.9,297.22232142857143,291.12857142857143,1152.2,297.22232142857143,291.12857142857143,1252.8,297.22232142857143,291.12857142857143,1356.5,297.22232142857143,291.12857142857143,1460.7,297.22232142857143,291.12857142857143,1560.9,297.22232142857143,291.12857142857143,1661.6,297.22232142857143,291.12857142857143,1765.7,297.22232142857143,291.12857142857143,1867.1,297.22232142857143,291.12857142857143,1970.5,297.22232142857143,291.12857142857143,2071,296.22232142857143,289.12857142857143,2174.5,291.22232142857143,278.12857142857143,2279.8,289.22232142857143,273.12857142857143,2382,283.22232142857143,259.12857142857143,2482.4,242.22232142857143,235.12857142857143,2588,242.22232142857143,235.12857142857143,2692.2,242.22232142857143,235.12857142857143,2793.3,242.22232142857143,235.12857142857143,2893.4,242.22232142857143,235.12857142857143,2999.6,242.22232142857143,235.12857142857143,3104.6,242.22232142857143,235.12857142857143,3207.5,242.22232142857143,235.12857142857143,3308.2,242.22232142857143,235.12857142857143,3409.6,242.22232142857143,235.12857142857143,3511.6,242.22232142857143,235.12857142857143,3614.4,242.22232142857143,235.12857142857143,3725.3,242.22232142857143,235.12857142857143,3826.3,242.22232142857143,235.12857142857143,3933]","[]","",""
"22024","","","","instructions","22","1665416","0.0-8.0-2.0","184","1","2025-07-02 10:25:02","80fe4187154257d5fb01684ea91b68b9","105.1.161.232","Mozilla/5.0 (Windows NT 10.0; Win64; x64) AppleWebKit/537.36 (KHTML, like Gecko) Chrome/137.0.0.0 Safari/537.36","WebKit","Chrome","137.0.0.0","Windows","10.0","https://app.prolific.com/","en-GB,en-US;q=0.9,en;q=0.8","67417cd21e7e37b5843c3ac2","683db6dfa200031b80f2a654","6865076adbb731f98bdfb30d","67417cd21e7e37b5843c3ac2","","[{""page_index"":0,""viewing_time"":22024}]","","","","","","","","","","","","","","","","","","","","","","","","","","","","","","","","","","","","","","","","","","",""
"","","","","ctl-task-cpt","23","1709079","0.0-8.0-3.0","184","1","2025-07-02 10:25:02","80fe4187154257d5fb01684ea91b68b9","105.1.161.232","Mozilla/5.0 (Windows NT 10.0; Win64; x64) AppleWebKit/537.36 (KHTML, like Gecko) Chrome/137.0.0.0 Safari/537.36","WebKit","Chrome","137.0.0.0","Windows","10.0","https://app.prolific.com/","en-GB,en-US;q=0.9,en;q=0.8","67417cd21e7e37b5843c3ac2","683db6dfa200031b80f2a654","6865076adbb731f98bdfb30d","67417cd21e7e37b5843c3ac2","","","","","","","","","","","","","","","","","win-only","0","g1:NW,g2:SE","0.35","0","3","1679655","2032.9","6042.4","40642.7","2","4","8","6","2","-8","-11","0","0","0","4009.5","4000","-2250","[""down"",""right""]","{""num_key_presses"":11,""num_perfect"":4,""num_errors"":3,""num_randdir"":3,""num_randdir_good_moves"":2,""num_whilered"":1,""num_whileblue"":0,""num_blue"":2,""num_good_moves"":6}","[298.22232142857143,299.12857142857143,1.1,298.22232142857143,299.12857142857143,104.7,298.22232142857143,299.12857142857143,208.1,298.22232142857143,299.12857142857143,308.5,298.22232142857143,299.12857142857143,409.1,298.22232142857143,299.12857142857143,509.2,298.22232142857143,299.12857142857143,612.6,298.22232142857143,299.12857142857143,713.9,298.22232142857143,299.12857142857143,814.7,298.22232142857143,299.12857142857143,918.5,298.22232142857143,299.12857142857143,1024.8,298.22232142857143,299.12857142857143,1126.2,298.22232142857143,299.12857142857143,1226.4,298.22232142857143,299.12857142857143,1329.8,298.22232142857143,299.12857142857143,1431.3,298.22232142857143,299.12857142857143,1531.7,298.22232142857143,299.12857142857143,1632.7,298.22232142857143,299.12857142857143,1742.5,298.22232142857143,299.12857142857143,1844,298.22232142857143,299.12857142857143,1950.4,298.22232142857143,299.12857142857143,2058.2,298.22232142857143,299.12857142857143,2169.7,298.22232142857143,299.12857142857143,2270.4,298.22232142857143,299.12857142857143,2373.5,298.22232142857143,299.12857142857143,2477.8,298.22232142857143,299.12857142857143,2583.4,298.22232142857143,299.12857142857143,2691.7,298.22232142857143,299.12857142857143,2791.9,298.22232142857143,299.12857142857143,2895.7,298.22232142857143,299.12857142857143,2998.6,298.22232142857143,299.12857142857143,3105.5,298.22232142857143,299.12857142857143,3207.9,298.22232142857143,299.12857142857143,3312.6,298.22232142857143,299.12857142857143,3423.6,298.22232142857143,299.12857142857143,3527.6,298.22232142857143,299.12857142857143,3629.7,298.22232142857143,299.12857142857143,3730.4,298.22232142857143,299.12857142857143,3830.5,298.22232142857143,299.12857142857143,3931]","[1590.7,1590.7,1000,0,590.7,""smooth"",""right"",""right"",""good_move"",2144.3,549,2443.8,1595.3,-1894.8,""error"",""-"",""-"",""no_move"",3718.3,1573.3,2248,3151.3,-1681,""error"",""-"",""-"",""no_move"",4009.9,290.8,2248,3151.3,-1389.3,""while_red"",""-"",""-"",""no_move"",5115.8,1396.7,2599,4728.4,-2211.6,""error"",""-"",""-"",""no_move"",9258.2,4141.5,2437.2,6123.4,697.6,""oops"",""right"",""down"",""good_move"",13429.3,4170.2,3111.3,9259.1,1058.9,""oops"",""down"",""left"",""bad_move"",16775.7,3342.3,2610.4,13433.5,731.8,""oops"",""down"",""right"",""good_move"",21929.8,5151.5,1856.5,19594.5,478.8,""smooth"",""right"",""right"",""good_move"",25426.1,3495.3,2693.9,21930.8,801.4,""smooth"",""down"",""down"",""good_move"",28584.4,3156.6,2284.1,25427.8,872.5,""smooth"",""down"",""down"",""good_move""]","",""
"78851","","","","instructions","24","1787931","0.0-8.0-4.0","184","1","2025-07-02 10:25:02","80fe4187154257d5fb01684ea91b68b9","105.1.161.232","Mozilla/5.0 (Windows NT 10.0; Win64; x64) AppleWebKit/537.36 (KHTML, like Gecko) Chrome/137.0.0.0 Safari/537.36","WebKit","Chrome","137.0.0.0","Windows","10.0","https://app.prolific.com/","en-GB,en-US;q=0.9,en;q=0.8","67417cd21e7e37b5843c3ac2","683db6dfa200031b80f2a654","6865076adbb731f98bdfb30d","67417cd21e7e37b5843c3ac2","","[{""page_index"":0,""viewing_time"":9618},{""page_index"":1,""viewing_time"":69232}]","","","","","","","","","","","","","","","","","","","","","","","","","","","","","","","","","","","","","","","","","","",""
"71838","","","{""green_ball"":[""Ball always moves in the direction I press"",""Ball sometimes shakes and moves in a random direction""]}","survey-multi-select","25","1859777","0.0-8.0-5.0-0.0","184","1","2025-07-02 10:25:02","80fe4187154257d5fb01684ea91b68b9","105.1.161.232","Mozilla/5.0 (Windows NT 10.0; Win64; x64) AppleWebKit/537.36 (KHTML, like Gecko) Chrome/137.0.0.0 Safari/537.36","WebKit","Chrome","137.0.0.0","Windows","10.0","https://app.prolific.com/","en-GB,en-US;q=0.9,en;q=0.8","67417cd21e7e37b5843c3ac2","683db6dfa200031b80f2a654","6865076adbb731f98bdfb30d","67417cd21e7e37b5843c3ac2","","","[0]","","","","quiz","","","","","","","","","","","","","","","","","","","","","","","","","","","","","","","","","","","","","false",""
"11398","","<p align='center'><b>INCORRECT.</b> Usually the green ball moves in the indicated direction, but sometimes it shakes and moves randomly. </p>","0","html-button-response","26","1871182","0.0-8.0-5.0-1.0","184","1","2025-07-02 10:25:02","80fe4187154257d5fb01684ea91b68b9","105.1.161.232","Mozilla/5.0 (Windows NT 10.0; Win64; x64) AppleWebKit/537.36 (KHTML, like Gecko) Chrome/137.0.0.0 Safari/537.36","WebKit","Chrome","137.0.0.0","Windows","10.0","https://app.prolific.com/","en-GB,en-US;q=0.9,en;q=0.8","67417cd21e7e37b5843c3ac2","683db6dfa200031b80f2a654","6865076adbb731f98bdfb30d","67417cd21e7e37b5843c3ac2","","","","","","","","","","","","","","","","","","","","","","","","","","","","","","","","","","","","","","","","","","","","",""
"9147","","","{""green_ball"":[""Ball sometimes shakes and moves in a random direction""]}","survey-multi-select","27","1880341","0.0-8.0-5.1-0.1","184","1","2025-07-02 10:25:02","80fe4187154257d5fb01684ea91b68b9","105.1.161.232","Mozilla/5.0 (Windows NT 10.0; Win64; x64) AppleWebKit/537.36 (KHTML, like Gecko) Chrome/137.0.0.0 Safari/537.36","WebKit","Chrome","137.0.0.0","Windows","10.0","https://app.prolific.com/","en-GB,en-US;q=0.9,en;q=0.8","67417cd21e7e37b5843c3ac2","683db6dfa200031b80f2a654","6865076adbb731f98bdfb30d","67417cd21e7e37b5843c3ac2","","","[0]","","","","quiz","","","","","","","","","","","","","","","","","","","","","","","","","","","","","","","","","","","","","true",""
"2950","","<p align='center'><b>CORRECT!</b> Indeed, the green ball may sometimes shake and move in a random direction.</p>","0","html-button-response","28","1883294","0.0-8.0-5.1-1.1","184","1","2025-07-02 10:25:02","80fe4187154257d5fb01684ea91b68b9","105.1.161.232","Mozilla/5.0 (Windows NT 10.0; Win64; x64) AppleWebKit/537.36 (KHTML, like Gecko) Chrome/137.0.0.0 Safari/537.36","WebKit","Chrome","137.0.0.0","Windows","10.0","https://app.prolific.com/","en-GB,en-US;q=0.9,en;q=0.8","67417cd21e7e37b5843c3ac2","683db6dfa200031b80f2a654","6865076adbb731f98bdfb30d","67417cd21e7e37b5843c3ac2","","","","","","","","","","","","","","","","","","","","","","","","","","","","","","","","","","","","","","","","","","","","",""
"16288","","","{""yellow_ball"":[""Ball doesn‘t move and I get -1 penalty point""]}","survey-multi-select","29","1899588","0.0-8.0-6.0-0.0","184","1","2025-07-02 10:25:02","80fe4187154257d5fb01684ea91b68b9","105.1.161.232","Mozilla/5.0 (Windows NT 10.0; Win64; x64) AppleWebKit/537.36 (KHTML, like Gecko) Chrome/137.0.0.0 Safari/537.36","WebKit","Chrome","137.0.0.0","Windows","10.0","https://app.prolific.com/","en-GB,en-US;q=0.9,en;q=0.8","67417cd21e7e37b5843c3ac2","683db6dfa200031b80f2a654","6865076adbb731f98bdfb30d","67417cd21e7e37b5843c3ac2","","","[0]","","","","quiz","","","","","","","","","","","","","","","","","","","","","","","","","","","","","","","","","","","","","true",""
"1705","","<p align='center'><b>CORRECT!</b> Indeed, the yellow ball never moves and you receive a penalty.</p>","0","html-button-response","30","1901296","0.0-8.0-6.0-1.0","184","1","2025-07-02 10:25:02","80fe4187154257d5fb01684ea91b68b9","105.1.161.232","Mozilla/5.0 (Windows NT 10.0; Win64; x64) AppleWebKit/537.36 (KHTML, like Gecko) Chrome/137.0.0.0 Safari/537.36","WebKit","Chrome","137.0.0.0","Windows","10.0","https://app.prolific.com/","en-GB,en-US;q=0.9,en;q=0.8","67417cd21e7e37b5843c3ac2","683db6dfa200031b80f2a654","6865076adbb731f98bdfb30d","67417cd21e7e37b5843c3ac2","","","","","","","","","","","","","","","","","","","","","","","","","","","","","","","","","","","","","","","","","","","","",""
"14857","","","{""blue_ball"":[""Ball doesn‘t move and I get -1 penalty point""]}","survey-multi-select","31","1916160","0.0-8.0-7.0-0.0","184","1","2025-07-02 10:25:02","80fe4187154257d5fb01684ea91b68b9","105.1.161.232","Mozilla/5.0 (Windows NT 10.0; Win64; x64) AppleWebKit/537.36 (KHTML, like Gecko) Chrome/137.0.0.0 Safari/537.36","WebKit","Chrome","137.0.0.0","Windows","10.0","https://app.prolific.com/","en-GB,en-US;q=0.9,en;q=0.8","67417cd21e7e37b5843c3ac2","683db6dfa200031b80f2a654","6865076adbb731f98bdfb30d","67417cd21e7e37b5843c3ac2","","","[0]","","","","quiz","","","","","","","","","","","","","","","","","","","","","","","","","","","","","","","","","","","","","false",""
"2467","","<p align='center'><b>INCORRECT.</b> The blue ball always shakes and moves randomly.</p>","0","html-button-response","32","1918634","0.0-8.0-7.0-1.0","184","1","2025-07-02 10:25:02","80fe4187154257d5fb01684ea91b68b9","105.1.161.232","Mozilla/5.0 (Windows NT 10.0; Win64; x64) AppleWebKit/537.36 (KHTML, like Gecko) Chrome/137.0.0.0 Safari/537.36","WebKit","Chrome","137.0.0.0","Windows","10.0","https://app.prolific.com/","en-GB,en-US;q=0.9,en;q=0.8","67417cd21e7e37b5843c3ac2","683db6dfa200031b80f2a654","6865076adbb731f98bdfb30d","67417cd21e7e37b5843c3ac2","","","","","","","","","","","","","","","","","","","","","","","","","","","","","","","","","","","","","","","","","","","","",""
"4250","","","{""blue_ball"":[""Ball always shakes and moves in a random direction""]}","survey-multi-select","33","1922891","0.0-8.0-7.1-0.1","184","1","2025-07-02 10:25:02","80fe4187154257d5fb01684ea91b68b9","105.1.161.232","Mozilla/5.0 (Windows NT 10.0; Win64; x64) AppleWebKit/537.36 (KHTML, like Gecko) Chrome/137.0.0.0 Safari/537.36","WebKit","Chrome","137.0.0.0","Windows","10.0","https://app.prolific.com/","en-GB,en-US;q=0.9,en;q=0.8","67417cd21e7e37b5843c3ac2","683db6dfa200031b80f2a654","6865076adbb731f98bdfb30d","67417cd21e7e37b5843c3ac2","","","[0]","","","","quiz","","","","","","","","","","","","","","","","","","","","","","","","","","","","","","","","","","","","","true",""
"1882","","<p align='center'><b>CORRECT!</b> Indeed, the blue ball always shakes and moves in a random direction. Also there is a penalty of -1 point.</p>","0","html-button-response","34","1924776","0.0-8.0-7.1-1.1","184","1","2025-07-02 10:25:02","80fe4187154257d5fb01684ea91b68b9","105.1.161.232","Mozilla/5.0 (Windows NT 10.0; Win64; x64) AppleWebKit/537.36 (KHTML, like Gecko) Chrome/137.0.0.0 Safari/537.36","WebKit","Chrome","137.0.0.0","Windows","10.0","https://app.prolific.com/","en-GB,en-US;q=0.9,en;q=0.8","67417cd21e7e37b5843c3ac2","683db6dfa200031b80f2a654","6865076adbb731f98bdfb30d","67417cd21e7e37b5843c3ac2","","","","","","","","","","","","","","","","","","","","","","","","","","","","","","","","","","","","","","","","","","","","",""
"4351","","","{""bonus"":[""When I reach 50% of points""]}","survey-multi-select","35","1929131","0.0-8.0-8.0-0.0","184","1","2025-07-02 10:25:02","80fe4187154257d5fb01684ea91b68b9","105.1.161.232","Mozilla/5.0 (Windows NT 10.0; Win64; x64) AppleWebKit/537.36 (KHTML, like Gecko) Chrome/137.0.0.0 Safari/537.36","WebKit","Chrome","137.0.0.0","Windows","10.0","https://app.prolific.com/","en-GB,en-US;q=0.9,en;q=0.8","67417cd21e7e37b5843c3ac2","683db6dfa200031b80f2a654","6865076adbb731f98bdfb30d","67417cd21e7e37b5843c3ac2","","","[0]","","","","quiz","","","","","","","","","","","","","","","","","","","","","","","","","","","","","","","","","","","","","true",""
"1696","","<p align='center'><b>CORRECT!</b> Indeed, you receive 2 pounds extra when you reach 50% of points.</p>","0","html-button-response","36","1930829","0.0-8.0-8.0-1.0","184","1","2025-07-02 10:25:02","80fe4187154257d5fb01684ea91b68b9","105.1.161.232","Mozilla/5.0 (Windows NT 10.0; Win64; x64) AppleWebKit/537.36 (KHTML, like Gecko) Chrome/137.0.0.0 Safari/537.36","WebKit","Chrome","137.0.0.0","Windows","10.0","https://app.prolific.com/","en-GB,en-US;q=0.9,en;q=0.8","67417cd21e7e37b5843c3ac2","683db6dfa200031b80f2a654","6865076adbb731f98bdfb30d","67417cd21e7e37b5843c3ac2","","","","","","","","","","","","","","","","","","","","","","","","","","","","","","","","","","","","","","","","","","","","",""
"12170","","","","instructions","37","1943002","0.0-8.0-9.0","184","1","2025-07-02 10:25:02","80fe4187154257d5fb01684ea91b68b9","105.1.161.232","Mozilla/5.0 (Windows NT 10.0; Win64; x64) AppleWebKit/537.36 (KHTML, like Gecko) Chrome/137.0.0.0 Safari/537.36","WebKit","Chrome","137.0.0.0","Windows","10.0","https://app.prolific.com/","en-GB,en-US;q=0.9,en;q=0.8","67417cd21e7e37b5843c3ac2","683db6dfa200031b80f2a654","6865076adbb731f98bdfb30d","67417cd21e7e37b5843c3ac2","","[{""page_index"":0,""viewing_time"":12169}]","","","","","","","","","","","","","","","","","","","","","","","","","","","","","","","","","","","","","","","","","","",""
"11290","","<p>Before you start with this game please answer the following three questions yourself. </p>
  <p>Through this game, we measure several aspects of your cognitive performance, such as reaction times, multi-tasking capabilities </p>
  <p>and the ability to assess the situation you are in.</p>
  <p></p>
  <p><b>How good do you usually are in such tasks?</b></p>","100","html-slider-response","38","1954301","0.0-9.0-0.0","184","1","2025-07-02 10:25:02","80fe4187154257d5fb01684ea91b68b9","105.1.161.232","Mozilla/5.0 (Windows NT 10.0; Win64; x64) AppleWebKit/537.36 (KHTML, like Gecko) Chrome/137.0.0.0 Safari/537.36","WebKit","Chrome","137.0.0.0","Windows","10.0","https://app.prolific.com/","en-GB,en-US;q=0.9,en;q=0.8","67417cd21e7e37b5843c3ac2","683db6dfa200031b80f2a654","6865076adbb731f98bdfb30d","67417cd21e7e37b5843c3ac2","2025-07-02T10:57:53.095Z","","","","","","PreSkillQ","","","","","","","","","","","","","","","","","","","","","","","","","","","","","","","","","","","","","","50"
"5076","","<div style=""width:500px;"">
  <p>How well do you think you will perform in this task compared to other participants?</p>
  </div>","100","html-slider-response","39","1959380","0.0-9.0-1.0","184","1","2025-07-02 10:25:02","80fe4187154257d5fb01684ea91b68b9","105.1.161.232","Mozilla/5.0 (Windows NT 10.0; Win64; x64) AppleWebKit/537.36 (KHTML, like Gecko) Chrome/137.0.0.0 Safari/537.36","WebKit","Chrome","137.0.0.0","Windows","10.0","https://app.prolific.com/","en-GB,en-US;q=0.9,en;q=0.8","67417cd21e7e37b5843c3ac2","683db6dfa200031b80f2a654","6865076adbb731f98bdfb30d","67417cd21e7e37b5843c3ac2","2025-07-02T10:57:58.174Z","","","","","","PrePerfQ","","","","","","","","","","","","","","","","","","","","","","","","","","","","","","","","","","","","","","50"
"4463","","<div style=""width:500px;"">
  <p>What best describes how you currently feel?</p>
  </div>","100","html-slider-response","40","1963847","0.0-9.0-2.0","184","1","2025-07-02 10:25:02","80fe4187154257d5fb01684ea91b68b9","105.1.161.232","Mozilla/5.0 (Windows NT 10.0; Win64; x64) AppleWebKit/537.36 (KHTML, like Gecko) Chrome/137.0.0.0 Safari/537.36","WebKit","Chrome","137.0.0.0","Windows","10.0","https://app.prolific.com/","en-GB,en-US;q=0.9,en;q=0.8","67417cd21e7e37b5843c3ac2","683db6dfa200031b80f2a654","6865076adbb731f98bdfb30d","67417cd21e7e37b5843c3ac2","2025-07-02T10:58:02.642Z","","","","","","PreMotivationQ","","","","","","","","","","","","","","","","","","","","","","","","","","","","","","","","","","","","","","50"
"","","","","ctl-task-cpt","41","1998114","0.0-10.0-0.0","184","1","2025-07-02 10:25:02","80fe4187154257d5fb01684ea91b68b9","105.1.161.232","Mozilla/5.0 (Windows NT 10.0; Win64; x64) AppleWebKit/537.36 (KHTML, like Gecko) Chrome/137.0.0.0 Safari/537.36","WebKit","Chrome","137.0.0.0","Windows","10.0","https://app.prolific.com/","en-GB,en-US;q=0.9,en;q=0.8","67417cd21e7e37b5843c3ac2","683db6dfa200031b80f2a654","6865076adbb731f98bdfb30d","67417cd21e7e37b5843c3ac2","2025-07-02T10:58:36.908Z","","","","","","","","","","","","","","","","win-only","0","g1:NW,g2:SE","1","1","0","1978094.5","3899.8","8908.2","31248","1","4","4","6","2","4","4","4","0","0.030303030303030304","2282.6","3000","260","[""down"",""right""]","{""num_key_presses"":6,""num_perfect"":6,""num_errors"":0,""num_randdir"":0,""num_randdir_good_moves"":0,""num_whilered"":0,""num_whileblue"":0,""num_blue"":1,""num_good_moves"":6}","[298.22232142857143,293.12857142857143,1.5,298.22232142857143,293.12857142857143,104.2,298.22232142857143,293.12857142857143,210.6,298.22232142857143,293.12857142857143,316.6,298.22232142857143,293.12857142857143,426,298.22232142857143,293.12857142857143,526.9,298.22232142857143,293.12857142857143,629.4,298.22232142857143,293.12857142857143,736.5,298.22232142857143,293.12857142857143,840.2,298.22232142857143,293.12857142857143,941.5,298.22232142857143,293.12857142857143,1050.1,298.22232142857143,293.12857142857143,1154,298.22232142857143,293.12857142857143,1262.7,298.22232142857143,293.12857142857143,1373.8,298.22232142857143,293.12857142857143,1477.3,298.22232142857143,293.12857142857143,1577.5,363.22232142857143,362.12857142857143,1678.2,489.22232142857143,489.12857142857143,1781.6,533.2223214285714,518.1285714285714,1882.8,536.2223214285714,520.1285714285714,1983.1,538.2223214285714,523.1285714285714,2090.3,538.2223214285714,522.1285714285714,2192,538.2223214285714,522.1285714285714,2296.8,538.2223214285714,522.1285714285714,2403.6,538.2223214285714,522.1285714285714,2510.6,538.2223214285714,522.1285714285714,2611,538.2223214285714,522.1285714285714,2714.4,538.2223214285714,522.1285714285714,2823.4,538.2223214285714,522.1285714285714,2925.9,538.2223214285714,522.1285714285714,3026.2,538.2223214285714,522.1285714285714,3129.1,538.2223214285714,522.1285714285714,3234.9,538.2223214285714,522.1285714285714,3335.9,538.2223214285714,522.1285714285714,3438.5,538.2223214285714,522.1285714285714,3542.1,538.2223214285714,522.1285714285714,3646,538.2223214285714,522.1285714285714,3755.1,538.2223214285714,522.1285714285714,3855.2,538.2223214285714,522.1285714285714,3955.6,538.2223214285714,522.1285714285714,4056.4,538.2223214285714,522.1285714285714,4159.7,538.2223214285714,522.1285714285714,4261.4,538.2223214285714,522.1285714285714,4361.9,538.2223214285714,522.1285714285714,4462.6,538.2223214285714,522.1285714285714,4564.8,538.2223214285714,522.1285714285714,4672.7,538.2223214285714,522.1285714285714,4778.6,538.2223214285714,522.1285714285714,4880.1,538.2223214285714,522.1285714285714,4982.2]","[1673.9,1674,1000,0,674,""smooth"",""right"",""right"",""good_move"",5230.3,3552.9,2766.9,1677.7,785.8,""smooth"",""right"",""right"",""good_move"",12228.3,6996.9,3043.6,8743.6,441.1,""smooth"",""right"",""right"",""good_move"",15134.4,2904.4,2125.3,12230.1,779,""smooth"",""down"",""down"",""good_move"",18367.7,3229.3,2665.1,15138.4,564.2,""smooth"",""down"",""down"",""good_move"",22220.7,3851.3,3389,18369.6,462.2,""smooth"",""down"",""down"",""good_move""]","",""
"6739","","<div style=""width:500px;"">
  <p>What determined the result of this run?</p>
  </div>","100","html-slider-response","42","2004856","0.0-10.0-1.0","184","1","2025-07-02 10:25:02","80fe4187154257d5fb01684ea91b68b9","105.1.161.232","Mozilla/5.0 (Windows NT 10.0; Win64; x64) AppleWebKit/537.36 (KHTML, like Gecko) Chrome/137.0.0.0 Safari/537.36","WebKit","Chrome","137.0.0.0","Windows","10.0","https://app.prolific.com/","en-GB,en-US;q=0.9,en;q=0.8","67417cd21e7e37b5843c3ac2","683db6dfa200031b80f2a654","6865076adbb731f98bdfb30d","67417cd21e7e37b5843c3ac2","2025-07-02T10:58:43.650Z","","","","","","AttribQ","","","","","","","","","","","","","","","","","","","","","","","","","","","","","","","","","","","","","","50"
"24075","","<div style=""width:500px;"">
  <p>How much control did you have over the ball?</p>
  </div>","71","html-slider-response","43","2028934","0.0-10.0-2.0","184","1","2025-07-02 10:25:02","80fe4187154257d5fb01684ea91b68b9","105.1.161.232","Mozilla/5.0 (Windows NT 10.0; Win64; x64) AppleWebKit/537.36 (KHTML, like Gecko) Chrome/137.0.0.0 Safari/537.36","WebKit","Chrome","137.0.0.0","Windows","10.0","https://app.prolific.com/","en-GB,en-US;q=0.9,en;q=0.8","67417cd21e7e37b5843c3ac2","683db6dfa200031b80f2a654","6865076adbb731f98bdfb30d","67417cd21e7e37b5843c3ac2","2025-07-02T10:59:07.729Z","","","","","","ControlQ","","","","","","","","","","","","","","","","","","","","","","","","","","","","","","","","","","","","","","50"
"4851","","<div style=""width:500px;"">
  <p>How would you describe your current emotional state?</p>
  </div>","0","html-slider-response","44","2033790","0.0-10.0-3.0","184","1","2025-07-02 10:25:02","80fe4187154257d5fb01684ea91b68b9","105.1.161.232","Mozilla/5.0 (Windows NT 10.0; Win64; x64) AppleWebKit/537.36 (KHTML, like Gecko) Chrome/137.0.0.0 Safari/537.36","WebKit","Chrome","137.0.0.0","Windows","10.0","https://app.prolific.com/","en-GB,en-US;q=0.9,en;q=0.8","67417cd21e7e37b5843c3ac2","683db6dfa200031b80f2a654","6865076adbb731f98bdfb30d","67417cd21e7e37b5843c3ac2","2025-07-02T10:59:12.584Z","","","","","","StressQ","","","","","","","","","","","","","","","","","","","","","","","","","","","","","","","","","","","","","","50"
"4016","","<div style=""width:500px;"">
  <p>What best describes how you currently feel?</p>
  </div>","100","html-slider-response","45","2037809","0.0-10.0-4.0","184","1","2025-07-02 10:25:02","80fe4187154257d5fb01684ea91b68b9","105.1.161.232","Mozilla/5.0 (Windows NT 10.0; Win64; x64) AppleWebKit/537.36 (KHTML, like Gecko) Chrome/137.0.0.0 Safari/537.36","WebKit","Chrome","137.0.0.0","Windows","10.0","https://app.prolific.com/","en-GB,en-US;q=0.9,en;q=0.8","67417cd21e7e37b5843c3ac2","683db6dfa200031b80f2a654","6865076adbb731f98bdfb30d","67417cd21e7e37b5843c3ac2","2025-07-02T10:59:16.603Z","","","","","","MotivationQ","","","","","","","","","","","","","","","","","","","","","","","","","","","","","","","","","","","","","","50"
"","","","","ctl-task-cpt","46","2064243","0.0-10.0-0.1","184","1","2025-07-02 10:25:02","80fe4187154257d5fb01684ea91b68b9","105.1.161.232","Mozilla/5.0 (Windows NT 10.0; Win64; x64) AppleWebKit/537.36 (KHTML, like Gecko) Chrome/137.0.0.0 Safari/537.36","WebKit","Chrome","137.0.0.0","Windows","10.0","https://app.prolific.com/","en-GB,en-US;q=0.9,en;q=0.8","67417cd21e7e37b5843c3ac2","683db6dfa200031b80f2a654","6865076adbb731f98bdfb30d","67417cd21e7e37b5843c3ac2","2025-07-02T10:59:43.037Z","","","","","","","","","","","","","","","","win-only","3","g1:SW,g2:NE","0.9","2","0","2052050.4","1978","6985.4","23408.2","1","4","8","6","2","8","8","12","4","0.09090909090909091","1628.1","3000","1135","[""up"",""right""]","{""num_key_presses"":6,""num_perfect"":6,""num_errors"":0,""num_randdir"":0,""num_randdir_good_moves"":0,""num_whilered"":0,""num_whileblue"":0,""num_blue"":0,""num_good_moves"":6}","[291.22232142857143,296.12857142857143,0.7,291.22232142857143,296.12857142857143,109.1,291.22232142857143,296.12857142857143,214.2,291.22232142857143,296.12857142857143,325.8,291.22232142857143,296.12857142857143,426,291.22232142857143,296.12857142857143,526.7,291.22232142857143,296.12857142857143,638.6,312.22232142857143,254.12857142857143,748.2,389.22232142857143,199.12857142857143,848.8,521.2223214285714,124.12857142857143,961.9,527.2223214285714,117.12857142857143,1071.7,527.2223214285714,115.12857142857143,1174.6,528.2223214285714,79.12857142857143,1295.5,528.2223214285714,70.12857142857143,1404.5,528.2223214285714,69.12857142857143,1516.6,528.2223214285714,69.12857142857143,1639.5,528.2223214285714,69.12857142857143,1741,528.2223214285714,69.12857142857143,1844.4,528.2223214285714,69.12857142857143,1946.7,528.2223214285714,69.12857142857143,2051.5,528.2223214285714,69.12857142857143,2160.7,528.2223214285714,69.12857142857143,2266.9,528.2223214285714,69.12857142857143,2382,528.2223214285714,69.12857142857143,2490.8,528.2223214285714,69.12857142857143,2596.2,528.2223214285714,69.12857142857143,2697.9,528.2223214285714,69.12857142857143,2805.1,528.2223214285714,69.12857142857143,2905.7,528.2223214285714,69.12857142857143,3008.8,528.2223214285714,69.12857142857143,3117.8,528.2223214285714,69.12857142857143,3231.3,528.2223214285714,69.12857142857143,3337.6,528.2223214285714,69.12857142857143,3447.1,528.2223214285714,69.12857142857143,3547.4,528.2223214285714,69.12857142857143,3651.5,528.2223214285714,69.12857142857143,3761.2,528.2223214285714,69.12857142857143,3863.4,528.2223214285714,69.12857142857143,3966.3,528.2223214285714,69.12857142857143,4070.1,528.2223214285714,69.12857142857143,4174.1,528.2223214285714,69.12857142857143,4275.2,528.2223214285714,69.12857142857143,4380.3,528.2223214285714,69.12857142857143,4488.6,528.2223214285714,69.12857142857143,4589.4,528.2223214285714,69.12857142857143,4689.9,528.2223214285714,69.12857142857143,4792.7,528.2223214285714,69.12857142857143,4902.3]","[1444.7,1444.8,1000,0,444.8,""smooth"",""up"",""up"",""good_move"",4198.3,2752.1,2285.2,1446.3,466.8,""smooth"",""up"",""up"",""good_move"",7643.6,3444.2,2957.4,4199.5,486.7,""smooth"",""up"",""up"",""good_move"",10949.5,3304.5,2716.3,7645,588.2,""smooth"",""right"",""right"",""good_move"",14148.9,3197.7,2648.3,10951.2,549.4,""smooth"",""right"",""right"",""good_move"",16295.8,2145.9,1622.9,14149.9,523,""smooth"",""right"",""right"",""good_move""]","",""
"5425","","<div style=""width:500px;"">
  <p>What determined the result of this run?</p>
  </div>","100","html-slider-response","47","2069672","0.0-10.0-1.1","184","1","2025-07-02 10:25:02","80fe4187154257d5fb01684ea91b68b9","105.1.161.232","Mozilla/5.0 (Windows NT 10.0; Win64; x64) AppleWebKit/537.36 (KHTML, like Gecko) Chrome/137.0.0.0 Safari/537.36","WebKit","Chrome","137.0.0.0","Windows","10.0","https://app.prolific.com/","en-GB,en-US;q=0.9,en;q=0.8","67417cd21e7e37b5843c3ac2","683db6dfa200031b80f2a654","6865076adbb731f98bdfb30d","67417cd21e7e37b5843c3ac2","2025-07-02T10:59:48.466Z","","","","","","AttribQ","","","","","","","","","","","","","","","","","","","","","","","","","","","","","","","","","","","","","","50"
"3019","","<div style=""width:500px;"">
  <p>How much control did you have over the ball?</p>
  </div>","100","html-slider-response","48","2072695","0.0-10.0-2.1","184","1","2025-07-02 10:25:02","80fe4187154257d5fb01684ea91b68b9","105.1.161.232","Mozilla/5.0 (Windows NT 10.0; Win64; x64) AppleWebKit/537.36 (KHTML, like Gecko) Chrome/137.0.0.0 Safari/537.36","WebKit","Chrome","137.0.0.0","Windows","10.0","https://app.prolific.com/","en-GB,en-US;q=0.9,en;q=0.8","67417cd21e7e37b5843c3ac2","683db6dfa200031b80f2a654","6865076adbb731f98bdfb30d","67417cd21e7e37b5843c3ac2","2025-07-02T10:59:51.490Z","","","","","","ControlQ","","","","","","","","","","","","","","","","","","","","","","","","","","","","","","","","","","","","","","50"
"2999","","<div style=""width:500px;"">
  <p>How would you describe your current emotional state?</p>
  </div>","0","html-slider-response","49","2075700","0.0-10.0-3.1","184","1","2025-07-02 10:25:02","80fe4187154257d5fb01684ea91b68b9","105.1.161.232","Mozilla/5.0 (Windows NT 10.0; Win64; x64) AppleWebKit/537.36 (KHTML, like Gecko) Chrome/137.0.0.0 Safari/537.36","WebKit","Chrome","137.0.0.0","Windows","10.0","https://app.prolific.com/","en-GB,en-US;q=0.9,en;q=0.8","67417cd21e7e37b5843c3ac2","683db6dfa200031b80f2a654","6865076adbb731f98bdfb30d","67417cd21e7e37b5843c3ac2","2025-07-02T10:59:54.495Z","","","","","","StressQ","","","","","","","","","","","","","","","","","","","","","","","","","","","","","","","","","","","","","","50"
"2880","","<div style=""width:500px;"">
  <p>What best describes how you currently feel?</p>
  </div>","100","html-slider-response","50","2078584","0.0-10.0-4.1","184","1","2025-07-02 10:25:02","80fe4187154257d5fb01684ea91b68b9","105.1.161.232","Mozilla/5.0 (Windows NT 10.0; Win64; x64) AppleWebKit/537.36 (KHTML, like Gecko) Chrome/137.0.0.0 Safari/537.36","WebKit","Chrome","137.0.0.0","Windows","10.0","https://app.prolific.com/","en-GB,en-US;q=0.9,en;q=0.8","67417cd21e7e37b5843c3ac2","683db6dfa200031b80f2a654","6865076adbb731f98bdfb30d","67417cd21e7e37b5843c3ac2","2025-07-02T10:59:57.378Z","","","","","","MotivationQ","","","","","","","","","","","","","","","","","","","","","","","","","","","","","","","","","","","","","","50"
"","","","","ctl-task-cpt","51","2120880","0.0-10.0-0.2","184","1","2025-07-02 10:25:02","80fe4187154257d5fb01684ea91b68b9","105.1.161.232","Mozilla/5.0 (Windows NT 10.0; Win64; x64) AppleWebKit/537.36 (KHTML, like Gecko) Chrome/137.0.0.0 Safari/537.36","WebKit","Chrome","137.0.0.0","Windows","10.0","https://app.prolific.com/","en-GB,en-US;q=0.9,en;q=0.8","67417cd21e7e37b5843c3ac2","683db6dfa200031b80f2a654","6865076adbb731f98bdfb30d","67417cd21e7e37b5843c3ac2","2025-07-02T11:00:39.675Z","","","","","","","","","","","","","","","","win-only","3","g1:SW,g2:NE","0.8","3","0","2092824.7","1536.9","6544.2","39277.2","1","4","4","6","2","4","4","16","12","0.12121212121212122","1443","3000","285","[""up"",""right""]","{""num_key_presses"":8,""num_perfect"":6,""num_errors"":0,""num_randdir"":2,""num_randdir_good_moves"":1,""num_whilered"":0,""num_whileblue"":0,""num_blue"":3,""num_good_moves"":7}","[296.22232142857143,298.12857142857143,1.9,296.22232142857143,298.12857142857143,128.8,296.22232142857143,298.12857142857143,240.4,296.22232142857143,298.12857142857143,351.4,296.22232142857143,298.12857142857143,455.4,296.22232142857143,298.12857142857143,564.2,294.22232142857143,297.12857142857143,674.6,445.22232142857143,153.12857142857143,797.8,521.2223214285714,115.12857142857143,899.3,530.2223214285714,108.12857142857143,1000.8,540.2223214285714,93.12857142857143,1104.8,542.2223214285714,83.12857142857143,1222.9,542.2223214285714,80.12857142857143,1329.7,542.2223214285714,80.12857142857143,1434.2,542.2223214285714,80.12857142857143,1536,542.2223214285714,80.12857142857143,1640,542.2223214285714,80.12857142857143,1742.6,542.2223214285714,80.12857142857143,1851.2,542.2223214285714,80.12857142857143,1957.8,542.2223214285714,80.12857142857143,2063.4,542.2223214285714,80.12857142857143,2166.4,542.2223214285714,80.12857142857143,2273.4,542.2223214285714,80.12857142857143,2374.9,542.2223214285714,80.12857142857143,2475,542.2223214285714,80.12857142857143,2576.3,542.2223214285714,80.12857142857143,2678.6,542.2223214285714,80.12857142857143,2781.7,542.2223214285714,80.12857142857143,2886.6,542.2223214285714,80.12857142857143,2992.5,542.2223214285714,80.12857142857143,3100.4,542.2223214285714,80.12857142857143,3202,542.2223214285714,80.12857142857143,3302.1,542.2223214285714,80.12857142857143,3414,542.2223214285714,80.12857142857143,3517.5,542.2223214285714,80.12857142857143,3618.8,542.2223214285714,80.12857142857143,3720,542.2223214285714,80.12857142857143,3820.7,542.2223214285714,80.12857142857143,3929.5,542.2223214285714,80.12857142857143,4029.9,542.2223214285714,80.12857142857143,4136.2,542.2223214285714,80.12857142857143,4239,542.2223214285714,80.12857142857143,4353.7,542.2223214285714,80.12857142857143,4459.6,542.2223214285714,80.12857142857143,4561.3,542.2223214285714,80.12857142857143,4669.8,542.2223214285714,80.12857142857143,4771.1,542.2223214285714,80.12857142857143,4872.1,542.2223214285714,80.12857142857143,4978.1]","[1430.9,1430.9,1000,0,430.9,""oops"",""up"",""right"",""good_move"",4295.3,2863,2244.2,1432.3,618.8,""smooth"",""up"",""up"",""good_move"",6832.9,2532.6,2043.9,4300.4,488.6,""smooth"",""up"",""up"",""good_move"",9701.9,2867.5,2419.1,6834.5,448.3,""oops"",""up"",""down"",""bad_move"",13304.6,3601.2,2100.7,9703.5,1500.4,""smooth"",""right"",""right"",""good_move"",19416.1,6109.5,2658,16376,382.1,""smooth"",""up"",""up"",""good_move"",25972.6,6556,2410.6,23142.7,419.3,""smooth"",""up"",""up"",""good_move"",32581.5,6608,2950.7,29243.9,386.9,""smooth"",""right"",""right"",""good_move""]","",""
"4579","","<div style=""width:500px;"">
  <p>What determined the result of this run?</p>
  </div>","100","html-slider-response","52","2125466","0.0-10.0-1.2","184","1","2025-07-02 10:25:02","80fe4187154257d5fb01684ea91b68b9","105.1.161.232","Mozilla/5.0 (Windows NT 10.0; Win64; x64) AppleWebKit/537.36 (KHTML, like Gecko) Chrome/137.0.0.0 Safari/537.36","WebKit","Chrome","137.0.0.0","Windows","10.0","https://app.prolific.com/","en-GB,en-US;q=0.9,en;q=0.8","67417cd21e7e37b5843c3ac2","683db6dfa200031b80f2a654","6865076adbb731f98bdfb30d","67417cd21e7e37b5843c3ac2","2025-07-02T11:00:44.260Z","","","","","","AttribQ","","","","","","","","","","","","","","","","","","","","","","","","","","","","","","","","","","","","","","50"
"5876","","<div style=""width:500px;"">
  <p>How much control did you have over the ball?</p>
  </div>","100","html-slider-response","53","2131345","0.0-10.0-2.2","184","1","2025-07-02 10:25:02","80fe4187154257d5fb01684ea91b68b9","105.1.161.232","Mozilla/5.0 (Windows NT 10.0; Win64; x64) AppleWebKit/537.36 (KHTML, like Gecko) Chrome/137.0.0.0 Safari/537.36","WebKit","Chrome","137.0.0.0","Windows","10.0","https://app.prolific.com/","en-GB,en-US;q=0.9,en;q=0.8","67417cd21e7e37b5843c3ac2","683db6dfa200031b80f2a654","6865076adbb731f98bdfb30d","67417cd21e7e37b5843c3ac2","2025-07-02T11:00:50.140Z","","","","","","ControlQ","","","","","","","","","","","","","","","","","","","","","","","","","","","","","","","","","","","","","","50"
"4372","","<div style=""width:500px;"">
  <p>How would you describe your current emotional state?</p>
  </div>","0","html-slider-response","54","2135722","0.0-10.0-3.2","184","1","2025-07-02 10:25:02","80fe4187154257d5fb01684ea91b68b9","105.1.161.232","Mozilla/5.0 (Windows NT 10.0; Win64; x64) AppleWebKit/537.36 (KHTML, like Gecko) Chrome/137.0.0.0 Safari/537.36","WebKit","Chrome","137.0.0.0","Windows","10.0","https://app.prolific.com/","en-GB,en-US;q=0.9,en;q=0.8","67417cd21e7e37b5843c3ac2","683db6dfa200031b80f2a654","6865076adbb731f98bdfb30d","67417cd21e7e37b5843c3ac2","2025-07-02T11:00:54.516Z","","","","","","StressQ","","","","","","","","","","","","","","","","","","","","","","","","","","","","","","","","","","","","","","50"
"56489","","<div style=""width:500px;"">
  <p>What best describes how you currently feel?</p>
  </div>","100","html-slider-response","55","2192216","0.0-10.0-4.2","184","1","2025-07-02 10:25:02","80fe4187154257d5fb01684ea91b68b9","105.1.161.232","Mozilla/5.0 (Windows NT 10.0; Win64; x64) AppleWebKit/537.36 (KHTML, like Gecko) Chrome/137.0.0.0 Safari/537.36","WebKit","Chrome","137.0.0.0","Windows","10.0","https://app.prolific.com/","en-GB,en-US;q=0.9,en;q=0.8","67417cd21e7e37b5843c3ac2","683db6dfa200031b80f2a654","6865076adbb731f98bdfb30d","67417cd21e7e37b5843c3ac2","2025-07-02T11:01:51.010Z","","","","","","MotivationQ","","","","","","","","","","","","","","","","","","","","","","","","","","","","","","","","","","","","","","50"
"","","","","ctl-task-cpt","56","2252925","0.0-10.0-0.3","184","1","2025-07-02 10:25:02","80fe4187154257d5fb01684ea91b68b9","105.1.161.232","Mozilla/5.0 (Windows NT 10.0; Win64; x64) AppleWebKit/537.36 (KHTML, like Gecko) Chrome/137.0.0.0 Safari/537.36","WebKit","Chrome","137.0.0.0","Windows","10.0","https://app.prolific.com/","en-GB,en-US;q=0.9,en;q=0.8","67417cd21e7e37b5843c3ac2","683db6dfa200031b80f2a654","6865076adbb731f98bdfb30d","67417cd21e7e37b5843c3ac2","2025-07-02T11:02:51.720Z","","","","","","","","","","","","","","","","win-only","2","g1:SE,g2:NW","0.7","4","0","2206457.1","5916.6","10928.8","57682.3","1","4","8","6","2","-8","-8","8","16","0.06060606060606061","1752.8","3000","-1745","[""left"",""up""]","{""num_key_presses"":9,""num_perfect"":6,""num_errors"":0,""num_randdir"":3,""num_randdir_good_moves"":1,""num_whilered"":0,""num_whileblue"":0,""num_blue"":5,""num_good_moves"":7}","[290.22232142857143,301.12857142857143,1.2,290.22232142857143,301.12857142857143,108,290.22232142857143,301.12857142857143,209,290.22232142857143,301.12857142857143,334.5,290.22232142857143,301.12857142857143,437,274.22232142857143,294.12857142857143,547.6,-29.777678571428574,263.12857142857143,648.2,-193.77767857142857,253.12857142857143,752.4,-193.77767857142857,253.12857142857143,860.6,-193.77767857142857,253.12857142857143,965.5,-103.77767857142857,126.12857142857143,1078.9,48.222321428571426,-46.871428571428574,1181.3,52.222321428571426,-55.871428571428574,1287.2,55.222321428571426,-22.871428571428574,1388.8,51.222321428571426,6.128571428571426,1492.4,51.222321428571426,6.128571428571426,1597,51.222321428571426,6.128571428571426,1702.4,51.222321428571426,6.128571428571426,1811.5,51.222321428571426,6.128571428571426,1914.8,51.222321428571426,6.128571428571426,2023.8,51.222321428571426,6.128571428571426,2128.6,51.222321428571426,6.128571428571426,2231.3,51.222321428571426,6.128571428571426,2355.5,51.222321428571426,6.128571428571426,2459,51.222321428571426,6.128571428571426,2563.2,51.222321428571426,6.128571428571426,2665.3,51.222321428571426,6.128571428571426,2770.1,51.222321428571426,6.128571428571426,2873.8,51.222321428571426,6.128571428571426,2976.8,51.222321428571426,6.128571428571426,3094.8,51.222321428571426,6.128571428571426,3196.2,51.222321428571426,6.128571428571426,3306.3,51.222321428571426,6.128571428571426,3412,51.222321428571426,6.128571428571426,3518.1,51.222321428571426,6.128571428571426,3624.7,51.222321428571426,6.128571428571426,3724.9,51.222321428571426,6.128571428571426,3826.7,51.222321428571426,6.128571428571426,3936.7,51.222321428571426,6.128571428571426,4039.1,51.222321428571426,6.128571428571426,4142.4,51.222321428571426,6.128571428571426,4243.7,51.222321428571426,6.128571428571426,4345,51.222321428571426,6.128571428571426,4455.8,51.222321428571426,6.128571428571426,4558.3,51.222321428571426,6.128571428571426,4659.1,51.222321428571426,6.128571428571426,4762.5,51.222321428571426,6.128571428571426,4863.4,51.222321428571426,6.128571428571426,4964.9]","[1569.4,1569.4,1000,0,569.4,""smooth"",""up"",""up"",""good_move"",4445,2874.4,2329.9,1570.7,544.4,""smooth"",""up"",""up"",""good_move"",21167.2,16721.1,2378.6,18216.8,571.8,""smooth"",""left"",""left"",""good_move"",24726.1,3557.1,2779.7,21169,777.4,""oops"",""left"",""left"",""good_move"",27979.3,3250.7,2619.2,24728.6,631.5,""oops"",""up"",""right"",""bad_move"",31475.7,3493.4,2652.7,27982.3,840.7,""smooth"",""left"",""left"",""good_move"",37584.4,6107.4,2608.1,34465,511.3,""smooth"",""left"",""left"",""good_move"",40809.8,3224.6,2664.9,37585.4,559.6,""oops"",""up"",""down"",""bad_move"",44336,3524.7,3023.6,40811.4,501.1,""smooth"",""up"",""up"",""good_move""]","",""
"5018","","<div style=""width:500px;"">
  <p>What determined the result of this run?</p>
  </div>","100","html-slider-response","57","2257947","0.0-10.0-1.3","184","1","2025-07-02 10:25:02","80fe4187154257d5fb01684ea91b68b9","105.1.161.232","Mozilla/5.0 (Windows NT 10.0; Win64; x64) AppleWebKit/537.36 (KHTML, like Gecko) Chrome/137.0.0.0 Safari/537.36","WebKit","Chrome","137.0.0.0","Windows","10.0","https://app.prolific.com/","en-GB,en-US;q=0.9,en;q=0.8","67417cd21e7e37b5843c3ac2","683db6dfa200031b80f2a654","6865076adbb731f98bdfb30d","67417cd21e7e37b5843c3ac2","2025-07-02T11:02:56.741Z","","","","","","AttribQ","","","","","","","","","","","","","","","","","","","","","","","","","","","","","","","","","","","","","","50"
"2779","","<div style=""width:500px;"">
  <p>How much control did you have over the ball?</p>
  </div>","100","html-slider-response","58","2260732","0.0-10.0-2.3","184","1","2025-07-02 10:25:02","80fe4187154257d5fb01684ea91b68b9","105.1.161.232","Mozilla/5.0 (Windows NT 10.0; Win64; x64) AppleWebKit/537.36 (KHTML, like Gecko) Chrome/137.0.0.0 Safari/537.36","WebKit","Chrome","137.0.0.0","Windows","10.0","https://app.prolific.com/","en-GB,en-US;q=0.9,en;q=0.8","67417cd21e7e37b5843c3ac2","683db6dfa200031b80f2a654","6865076adbb731f98bdfb30d","67417cd21e7e37b5843c3ac2","2025-07-02T11:02:59.526Z","","","","","","ControlQ","","","","","","","","","","","","","","","","","","","","","","","","","","","","","","","","","","","","","","50"
"3339","","<div style=""width:500px;"">
  <p>How would you describe your current emotional state?</p>
  </div>","0","html-slider-response","59","2264075","0.0-10.0-3.3","184","1","2025-07-02 10:25:02","80fe4187154257d5fb01684ea91b68b9","105.1.161.232","Mozilla/5.0 (Windows NT 10.0; Win64; x64) AppleWebKit/537.36 (KHTML, like Gecko) Chrome/137.0.0.0 Safari/537.36","WebKit","Chrome","137.0.0.0","Windows","10.0","https://app.prolific.com/","en-GB,en-US;q=0.9,en;q=0.8","67417cd21e7e37b5843c3ac2","683db6dfa200031b80f2a654","6865076adbb731f98bdfb30d","67417cd21e7e37b5843c3ac2","2025-07-02T11:03:02.869Z","","","","","","StressQ","","","","","","","","","","","","","","","","","","","","","","","","","","","","","","","","","","","","","","50"
"2773","","<div style=""width:500px;"">
  <p>What best describes how you currently feel?</p>
  </div>","100","html-slider-response","60","2266852","0.0-10.0-4.3","184","1","2025-07-02 10:25:02","80fe4187154257d5fb01684ea91b68b9","105.1.161.232","Mozilla/5.0 (Windows NT 10.0; Win64; x64) AppleWebKit/537.36 (KHTML, like Gecko) Chrome/137.0.0.0 Safari/537.36","WebKit","Chrome","137.0.0.0","Windows","10.0","https://app.prolific.com/","en-GB,en-US;q=0.9,en;q=0.8","67417cd21e7e37b5843c3ac2","683db6dfa200031b80f2a654","6865076adbb731f98bdfb30d","67417cd21e7e37b5843c3ac2","2025-07-02T11:03:05.646Z","","","","","","MotivationQ","","","","","","","","","","","","","","","","","","","","","","","","","","","","","","","","","","","","","","50"
"","","","","ctl-task-cpt","61","2319532","0.0-10.0-0.4","184","1","2025-07-02 10:25:02","80fe4187154257d5fb01684ea91b68b9","105.1.161.232","Mozilla/5.0 (Windows NT 10.0; Win64; x64) AppleWebKit/537.36 (KHTML, like Gecko) Chrome/137.0.0.0 Safari/537.36","WebKit","Chrome","137.0.0.0","Windows","10.0","https://app.prolific.com/","en-GB,en-US;q=0.9,en;q=0.8","67417cd21e7e37b5843c3ac2","683db6dfa200031b80f2a654","6865076adbb731f98bdfb30d","67417cd21e7e37b5843c3ac2","2025-07-02T11:03:58.326Z","","","","","","","","","","","","","","","","win-only","2","g1:SE,g2:NW","0.6","5","0","2281093.7","1391.5","6401","49648.9","1","4","8","6","2","8","8","16","8","0.12121212121212122","1223.9","3000","1610","[""left"",""up""]","{""num_key_presses"":10,""num_perfect"":6,""num_errors"":0,""num_randdir"":4,""num_randdir_good_moves"":2,""num_whilered"":0,""num_whileblue"":0,""num_blue"":3,""num_good_moves"":8}","[289.22232142857143,293.12857142857143,1.1,289.22232142857143,293.12857142857143,108.3,289.22232142857143,293.12857142857143,218.5,289.22232142857143,293.12857142857143,324.9,289.22232142857143,293.12857142857143,447.5,289.22232142857143,293.12857142857143,566.8,289.22232142857143,293.12857142857143,670.2,229.22232142857143,238.12857142857143,776.2,37.222321428571426,77.12857142857143,885.4,21.222321428571426,55.128571428571426,986.3,21.222321428571426,53.128571428571426,1091.8,21.222321428571426,53.128571428571426,1192.2,21.222321428571426,53.128571428571426,1299,21.222321428571426,53.128571428571426,1399.9,21.222321428571426,53.128571428571426,1502.6,21.222321428571426,53.128571428571426,1609.1,21.222321428571426,53.128571428571426,1715.6,21.222321428571426,53.128571428571426,1823.6,21.222321428571426,53.128571428571426,1924.4,21.222321428571426,53.128571428571426,2030.7,21.222321428571426,53.128571428571426,2132.8,21.222321428571426,53.128571428571426,2247,21.222321428571426,53.128571428571426,2364.6,21.222321428571426,53.128571428571426,2475.1,21.222321428571426,53.128571428571426,2579.2,21.222321428571426,53.128571428571426,2681.1,21.222321428571426,53.128571428571426,2782.3,21.222321428571426,53.128571428571426,2892.3,21.222321428571426,53.128571428571426,3015.2,21.222321428571426,53.128571428571426,3117.7,21.222321428571426,53.128571428571426,3230.2,21.222321428571426,53.128571428571426,3332.4,21.222321428571426,53.128571428571426,3434.5,21.222321428571426,53.128571428571426,3545,21.222321428571426,53.128571428571426,3676.5,21.222321428571426,53.128571428571426,3781.1,21.222321428571426,53.128571428571426,3888.4,21.222321428571426,53.128571428571426,3991.1,243.22232142857143,141.12857142857143,4103.6,324.22232142857143,233.12857142857143,4209.6,318.22232142857143,302.12857142857143,4320.1,313.22232142857143,303.12857142857143,4424.6,313.22232142857143,303.12857142857143,4530.3,286.22232142857143,259.12857142857143,4633.7,230.22232142857143,187.12857142857143,4743,195.22232142857143,158.12857142857143,4845,121.22232142857143,104.12857142857143,4956.9]","[1469.5,1469.5,1000,0,469.5,""smooth"",""left"",""left"",""good_move"",3980.9,2509.4,2093.2,1471.5,416.2,""smooth"",""up"",""up"",""good_move"",7478.9,3496.1,3048,3982.8,448.1,""smooth"",""up"",""up"",""good_move"",13742.1,6260.5,2162.4,11046,533.7,""oops"",""up"",""right"",""bad_move"",16468.2,2724.3,2167,13743.9,557.3,""oops"",""up"",""up"",""good_move"",19868.5,3399.2,2562.3,16469.3,836.9,""smooth"",""left"",""left"",""good_move"",24601.5,4725.6,2447.7,19875.9,2278,""oops"",""left"",""left"",""good_move"",29288.4,4685.7,2196.2,24602.7,2489.5,""oops"",""left"",""right"",""bad_move"",39506.1,10216.4,2393.9,36621.3,490.9,""smooth"",""left"",""left"",""good_move"",42893.2,3386,2998.7,39507.3,387.2,""smooth"",""left"",""left"",""good_move""]","",""
"3359","","<div style=""width:500px;"">
  <p>What determined the result of this run?</p>
  </div>","100","html-slider-response","62","2322895","0.0-10.0-1.4","184","1","2025-07-02 10:25:02","80fe4187154257d5fb01684ea91b68b9","105.1.161.232","Mozilla/5.0 (Windows NT 10.0; Win64; x64) AppleWebKit/537.36 (KHTML, like Gecko) Chrome/137.0.0.0 Safari/537.36","WebKit","Chrome","137.0.0.0","Windows","10.0","https://app.prolific.com/","en-GB,en-US;q=0.9,en;q=0.8","67417cd21e7e37b5843c3ac2","683db6dfa200031b80f2a654","6865076adbb731f98bdfb30d","67417cd21e7e37b5843c3ac2","2025-07-02T11:04:01.690Z","","","","","","AttribQ","","","","","","","","","","","","","","","","","","","","","","","","","","","","","","","","","","","","","","50"
"2448","","<div style=""width:500px;"">
  <p>How much control did you have over the ball?</p>
  </div>","100","html-slider-response","63","2325348","0.0-10.0-2.4","184","1","2025-07-02 10:25:02","80fe4187154257d5fb01684ea91b68b9","105.1.161.232","Mozilla/5.0 (Windows NT 10.0; Win64; x64) AppleWebKit/537.36 (KHTML, like Gecko) Chrome/137.0.0.0 Safari/537.36","WebKit","Chrome","137.0.0.0","Windows","10.0","https://app.prolific.com/","en-GB,en-US;q=0.9,en;q=0.8","67417cd21e7e37b5843c3ac2","683db6dfa200031b80f2a654","6865076adbb731f98bdfb30d","67417cd21e7e37b5843c3ac2","2025-07-02T11:04:04.142Z","","","","","","ControlQ","","","","","","","","","","","","","","","","","","","","","","","","","","","","","","","","","","","","","","50"
"2780","","<div style=""width:500px;"">
  <p>How would you describe your current emotional state?</p>
  </div>","0","html-slider-response","64","2328136","0.0-10.0-3.4","184","1","2025-07-02 10:25:02","80fe4187154257d5fb01684ea91b68b9","105.1.161.232","Mozilla/5.0 (Windows NT 10.0; Win64; x64) AppleWebKit/537.36 (KHTML, like Gecko) Chrome/137.0.0.0 Safari/537.36","WebKit","Chrome","137.0.0.0","Windows","10.0","https://app.prolific.com/","en-GB,en-US;q=0.9,en;q=0.8","67417cd21e7e37b5843c3ac2","683db6dfa200031b80f2a654","6865076adbb731f98bdfb30d","67417cd21e7e37b5843c3ac2","2025-07-02T11:04:06.931Z","","","","","","StressQ","","","","","","","","","","","","","","","","","","","","","","","","","","","","","","","","","","","","","","50"
"2784","","<div style=""width:500px;"">
  <p>What best describes how you currently feel?</p>
  </div>","100","html-slider-response","65","2330925","0.0-10.0-4.4","184","1","2025-07-02 10:25:02","80fe4187154257d5fb01684ea91b68b9","105.1.161.232","Mozilla/5.0 (Windows NT 10.0; Win64; x64) AppleWebKit/537.36 (KHTML, like Gecko) Chrome/137.0.0.0 Safari/537.36","WebKit","Chrome","137.0.0.0","Windows","10.0","https://app.prolific.com/","en-GB,en-US;q=0.9,en;q=0.8","67417cd21e7e37b5843c3ac2","683db6dfa200031b80f2a654","6865076adbb731f98bdfb30d","67417cd21e7e37b5843c3ac2","2025-07-02T11:04:09.720Z","","","","","","MotivationQ","","","","","","","","","","","","","","","","","","","","","","","","","","","","","","","","","","","","","","50"
"","","","","ctl-task-cpt","66","2387518","0.0-10.0-0.5","184","1","2025-07-02 10:25:02","80fe4187154257d5fb01684ea91b68b9","105.1.161.232","Mozilla/5.0 (Windows NT 10.0; Win64; x64) AppleWebKit/537.36 (KHTML, like Gecko) Chrome/137.0.0.0 Safari/537.36","WebKit","Chrome","137.0.0.0","Windows","10.0","https://app.prolific.com/","en-GB,en-US;q=0.9,en;q=0.8","67417cd21e7e37b5843c3ac2","683db6dfa200031b80f2a654","6865076adbb731f98bdfb30d","67417cd21e7e37b5843c3ac2","2025-07-02T11:05:06.312Z","","","","","","","","","","","","","","","","win-only","0","g1:NW,g2:SE","0.5","6","0","2345169.7","1374","6382.4","53566","1","4","4","6","2","4","4","20","16","0.15151515151515152","1355.3","3000","1260","[""down"",""right""]","{""num_key_presses"":12,""num_perfect"":6,""num_errors"":0,""num_randdir"":6,""num_randdir_good_moves"":3,""num_whilered"":0,""num_whileblue"":0,""num_blue"":3,""num_good_moves"":9}","[298.22232142857143,287.12857142857143,4.5,298.22232142857143,287.12857142857143,113.8,298.22232142857143,287.12857142857143,239,298.22232142857143,287.12857142857143,353.7,298.22232142857143,287.12857142857143,476.6,298.22232142857143,287.12857142857143,596.9,362.22232142857143,340.12857142857143,697.5,447.22232142857143,431.12857142857143,810.5,508.22232142857143,496.12857142857143,917.7,535.2223214285714,526.1285714285714,1028.7,540.2223214285714,538.1285714285714,1135.2,539.2223214285714,538.1285714285714,1256.4,539.2223214285714,538.1285714285714,1357.3,539.2223214285714,538.1285714285714,1487.8,539.2223214285714,538.1285714285714,1611,539.2223214285714,538.1285714285714,1727,539.2223214285714,538.1285714285714,1850,539.2223214285714,538.1285714285714,1971.5,539.2223214285714,538.1285714285714,2146.1,539.2223214285714,538.1285714285714,2280.6,539.2223214285714,538.1285714285714,2408.4,539.2223214285714,538.1285714285714,2528.3,539.2223214285714,538.1285714285714,2656,539.2223214285714,538.1285714285714,2778.6,539.2223214285714,538.1285714285714,2886.7,539.2223214285714,538.1285714285714,3008.6,539.2223214285714,538.1285714285714,3137.8,539.2223214285714,538.1285714285714,3266.7,539.2223214285714,538.1285714285714,3374.3,539.2223214285714,538.1285714285714,3476.9,539.2223214285714,538.1285714285714,3577.2,539.2223214285714,538.1285714285714,3678.4,539.2223214285714,538.1285714285714,3779.4,539.2223214285714,538.1285714285714,3882.9,539.2223214285714,538.1285714285714,3990.9,539.2223214285714,538.1285714285714,4128.1,539.2223214285714,538.1285714285714,4243.3,539.2223214285714,538.1285714285714,4396.2,539.2223214285714,538.1285714285714,4507.1,539.2223214285714,538.1285714285714,4613.4,539.2223214285714,538.1285714285714,4720.7,539.2223214285714,538.1285714285714,4826.2,539.2223214285714,538.1285714285714,4928.9]","[1508,1508,1000,0,508,""smooth"",""down"",""down"",""good_move"",7235.1,5725.7,1834.9,4929.6,470.6,""smooth"",""down"",""down"",""good_move"",9889.8,2653.4,1731.6,7236.5,921.8,""smooth"",""down"",""down"",""good_move"",16526.4,6635.4,2558.6,13562.1,405.7,""oops"",""right"",""right"",""good_move"",20072.7,3544.1,3118.1,16528.6,426,""smooth"",""right"",""right"",""good_move"",23594,3518.2,3032.1,20075.8,486.1,""oops"",""right"",""left"",""bad_move"",30822.6,7226.8,3346.1,27068.9,407.6,""oops"",""right"",""left"",""bad_move"",34481.8,3658.2,2742.7,30823.6,915.5,""oops"",""right"",""right"",""good_move"",37421.1,2936.6,2466.2,34484.5,470.4,""smooth"",""right"",""right"",""good_move"",40547.3,3124.8,2659.8,37422.5,465,""oops"",""right"",""up"",""bad_move"",43655.7,3103,2697.2,40552.7,405.8,""smooth"",""right"",""right"",""good_move"",46806.2,3148.9,2798.4,43657.4,350.4,""oops"",""down"",""down"",""good_move""]","",""
"4260","","<div style=""width:500px;"">
  <p>What determined the result of this run?</p>
  </div>","100","html-slider-response","67","2391783","0.0-10.0-1.5","184","1","2025-07-02 10:25:02","80fe4187154257d5fb01684ea91b68b9","105.1.161.232","Mozilla/5.0 (Windows NT 10.0; Win64; x64) AppleWebKit/537.36 (KHTML, like Gecko) Chrome/137.0.0.0 Safari/537.36","WebKit","Chrome","137.0.0.0","Windows","10.0","https://app.prolific.com/","en-GB,en-US;q=0.9,en;q=0.8","67417cd21e7e37b5843c3ac2","683db6dfa200031b80f2a654","6865076adbb731f98bdfb30d","67417cd21e7e37b5843c3ac2","2025-07-02T11:05:10.577Z","","","","","","AttribQ","","","","","","","","","","","","","","","","","","","","","","","","","","","","","","","","","","","","","","50"
"2435","","<div style=""width:500px;"">
  <p>How much control did you have over the ball?</p>
  </div>","100","html-slider-response","68","2394230","0.0-10.0-2.5","184","1","2025-07-02 10:25:02","80fe4187154257d5fb01684ea91b68b9","105.1.161.232","Mozilla/5.0 (Windows NT 10.0; Win64; x64) AppleWebKit/537.36 (KHTML, like Gecko) Chrome/137.0.0.0 Safari/537.36","WebKit","Chrome","137.0.0.0","Windows","10.0","https://app.prolific.com/","en-GB,en-US;q=0.9,en;q=0.8","67417cd21e7e37b5843c3ac2","683db6dfa200031b80f2a654","6865076adbb731f98bdfb30d","67417cd21e7e37b5843c3ac2","2025-07-02T11:05:13.025Z","","","","","","ControlQ","","","","","","","","","","","","","","","","","","","","","","","","","","","","","","","","","","","","","","50"
"2782","","<div style=""width:500px;"">
  <p>How would you describe your current emotional state?</p>
  </div>","0","html-slider-response","69","2397023","0.0-10.0-3.5","184","1","2025-07-02 10:25:02","80fe4187154257d5fb01684ea91b68b9","105.1.161.232","Mozilla/5.0 (Windows NT 10.0; Win64; x64) AppleWebKit/537.36 (KHTML, like Gecko) Chrome/137.0.0.0 Safari/537.36","WebKit","Chrome","137.0.0.0","Windows","10.0","https://app.prolific.com/","en-GB,en-US;q=0.9,en;q=0.8","67417cd21e7e37b5843c3ac2","683db6dfa200031b80f2a654","6865076adbb731f98bdfb30d","67417cd21e7e37b5843c3ac2","2025-07-02T11:05:15.817Z","","","","","","StressQ","","","","","","","","","","","","","","","","","","","","","","","","","","","","","","","","","","","","","","50"
"3123","","<div style=""width:500px;"">
  <p>What best describes how you currently feel?</p>
  </div>","100","html-slider-response","70","2400151","0.0-10.0-4.5","184","1","2025-07-02 10:25:02","80fe4187154257d5fb01684ea91b68b9","105.1.161.232","Mozilla/5.0 (Windows NT 10.0; Win64; x64) AppleWebKit/537.36 (KHTML, like Gecko) Chrome/137.0.0.0 Safari/537.36","WebKit","Chrome","137.0.0.0","Windows","10.0","https://app.prolific.com/","en-GB,en-US;q=0.9,en;q=0.8","67417cd21e7e37b5843c3ac2","683db6dfa200031b80f2a654","6865076adbb731f98bdfb30d","67417cd21e7e37b5843c3ac2","2025-07-02T11:05:18.945Z","","","","","","MotivationQ","","","","","","","","","","","","","","","","","","","","","","","","","","","","","","","","","","","","","","50"
"","","","","ctl-task-cpt","71","2534021","0.0-10.0-0.6","184","1","2025-07-02 10:25:02","80fe4187154257d5fb01684ea91b68b9","105.1.161.232","Mozilla/5.0 (Windows NT 10.0; Win64; x64) AppleWebKit/537.36 (KHTML, like Gecko) Chrome/137.0.0.0 Safari/537.36","WebKit","Chrome","137.0.0.0","Windows","10.0","https://app.prolific.com/","en-GB,en-US;q=0.9,en;q=0.8","67417cd21e7e37b5843c3ac2","683db6dfa200031b80f2a654","6865076adbb731f98bdfb30d","67417cd21e7e37b5843c3ac2","2025-07-02T11:07:32.815Z","","","","","","","","","","","","","","","","win-only","3","g1:SW,g2:NE","0.4","7","0","2414393.3","1989","7000.3","130827.8","1","4","4","6","1","-1","-3","17","20","0.12878787878787878","1657","3000","-580","[""down"",""left""]","{""num_key_presses"":22,""num_perfect"":8,""num_errors"":2,""num_randdir"":12,""num_randdir_good_moves"":3,""num_whilered"":0,""num_whileblue"":1,""num_blue"":6,""num_good_moves"":9}","[292.22232142857143,296.12857142857143,0.5,292.22232142857143,296.12857142857143,109.3,292.22232142857143,296.12857142857143,209.8,292.22232142857143,296.12857142857143,319.8,292.22232142857143,296.12857142857143,420.9,292.22232142857143,296.12857142857143,530.8,292.22232142857143,296.12857142857143,636.9,278.22232142857143,309.12857142857143,744.7,233.22232142857143,331.12857142857143,844.7,192.22232142857143,357.12857142857143,953.4,124.22232142857143,469.12857142857143,1064.8,110.22232142857143,533.1285714285714,1169.4,85.22232142857143,587.1285714285714,1273.9,66.22232142857143,582.1285714285714,1383.1,37.222321428571426,569.1285714285714,1490.5,37.222321428571426,569.1285714285714,1599.8,37.222321428571426,569.1285714285714,1714.2,37.222321428571426,569.1285714285714,1854,37.222321428571426,569.1285714285714,1957,37.222321428571426,569.1285714285714,2062.3,37.222321428571426,569.1285714285714,2162.5,37.222321428571426,569.1285714285714,2272.8,37.222321428571426,569.1285714285714,2378.8,37.222321428571426,569.1285714285714,2480.9,37.222321428571426,569.1285714285714,2587.7,37.222321428571426,569.1285714285714,2690.9,37.222321428571426,569.1285714285714,2849.8,37.222321428571426,569.1285714285714,2950.9,37.222321428571426,569.1285714285714,3057,37.222321428571426,569.1285714285714,3170,37.222321428571426,569.1285714285714,3272.4,37.222321428571426,569.1285714285714,3373.3,37.222321428571426,569.1285714285714,3480.9,37.222321428571426,569.1285714285714,3591.6,37.222321428571426,569.1285714285714,3709.6,68.22232142857143,536.1285714285714,3832.4,167.22232142857143,445.12857142857143,3933.7,207.22232142857143,415.12857142857143,4036.6,213.22232142857143,404.12857142857143,4149.8,228.22232142857143,375.12857142857143,4272,236.22232142857143,352.12857142857143,4385.7,236.22232142857143,344.12857142857143,4496.5,236.22232142857143,341.12857142857143,4604.2,236.22232142857143,340.12857142857143,4713.6,236.22232142857143,340.12857142857143,4824.7,236.22232142857143,340.12857142857143,4926.8]","[1751.3,1751.3,1000,0,751.3,""oops"",""left"",""up"",""bad_move"",5233.4,3480.7,3042.6,1752.7,438.1,""smooth"",""down"",""down"",""good_move"",11131,5895.7,2410.4,8259.7,460.9,""oops"",""down"",""right"",""bad_move"",14235.9,3103.9,2638,11132,465.9,""smooth"",""down"",""down"",""good_move"",17213.5,2976.2,2485.1,14237.3,491.1,""oops"",""down"",""right"",""bad_move"",20146,2931.4,2480.8,17216.8,448.4,""smooth"",""down"",""down"",""good_move"",22927.9,2780.5,2281.3,20147.5,499.2,""oops"",""left"",""right"",""bad_move"",25529,2599.8,2015.4,22929.2,584.4,""oops"",""left"",""up"",""bad_move"",31636.7,6106.8,2655.2,25530,3451.5,""oops"",""left"",""up"",""bad_move"",37903.8,6266,2446.7,31637.9,3819.2,""smooth"",""right"",""up"",""bad_move"",41702.4,3797.7,2279.2,37904.7,1518.5,""error"",""-"",""-"",""no_move"",45549.4,3842.9,2273.3,42707.6,568.5,""oops"",""up"",""down"",""good_move"",48667.8,3115.9,2363.7,45551.9,752.3,""smooth"",""up"",""up"",""bad_move"",56390.4,7721.4,2996.3,48669.1,4725,""oops"",""left"",""down"",""good_move"",59548.1,3156.9,2494,56391.2,662.9,""smooth"",""left"",""left"",""good_move"",68981.2,9431.9,8847.3,59549.3,584.6,""while_blue"",""left"",""up"",""bad_move"",78646.7,9664.5,1749.2,68982.3,7915.2,""oops"",""left"",""up"",""bad_move"",100267.7,21619.8,2824,96786.4,657.4,""smooth"",""down"",""down"",""good_move"",106462,6193,1897.2,103974.3,590.5,""oops"",""down"",""right"",""bad_move"",109893.6,3430.3,1614.8,106463.3,1815.5,""smooth"",""down"",""down"",""good_move"",113663.8,3766,2688.2,109897.8,1077.8,""oops"",""down"",""down"",""good_move"",117151.3,3484.9,1994.4,113666.4,1490.5,""oops"",""left"",""up"",""bad_move""]","",""
"4233","","<div style=""width:500px;"">
  <p>What determined the result of this run?</p>
  </div>","100","html-slider-response","72","2538262","0.0-10.0-1.6","184","1","2025-07-02 10:25:02","80fe4187154257d5fb01684ea91b68b9","105.1.161.232","Mozilla/5.0 (Windows NT 10.0; Win64; x64) AppleWebKit/537.36 (KHTML, like Gecko) Chrome/137.0.0.0 Safari/537.36","WebKit","Chrome","137.0.0.0","Windows","10.0","https://app.prolific.com/","en-GB,en-US;q=0.9,en;q=0.8","67417cd21e7e37b5843c3ac2","683db6dfa200031b80f2a654","6865076adbb731f98bdfb30d","67417cd21e7e37b5843c3ac2","2025-07-02T11:07:37.056Z","","","","","","AttribQ","","","","","","","","","","","","","","","","","","","","","","","","","","","","","","","","","","","","","","50"
"2953","","<div style=""width:500px;"">
  <p>How much control did you have over the ball?</p>
  </div>","100","html-slider-response","73","2541220","0.0-10.0-2.6","184","1","2025-07-02 10:25:02","80fe4187154257d5fb01684ea91b68b9","105.1.161.232","Mozilla/5.0 (Windows NT 10.0; Win64; x64) AppleWebKit/537.36 (KHTML, like Gecko) Chrome/137.0.0.0 Safari/537.36","WebKit","Chrome","137.0.0.0","Windows","10.0","https://app.prolific.com/","en-GB,en-US;q=0.9,en;q=0.8","67417cd21e7e37b5843c3ac2","683db6dfa200031b80f2a654","6865076adbb731f98bdfb30d","67417cd21e7e37b5843c3ac2","2025-07-02T11:07:40.014Z","","","","","","ControlQ","","","","","","","","","","","","","","","","","","","","","","","","","","","","","","","","","","","","","","50"
"2847","","<div style=""width:500px;"">
  <p>How would you describe your current emotional state?</p>
  </div>","0","html-slider-response","74","2544079","0.0-10.0-3.6","184","1","2025-07-02 10:25:02","80fe4187154257d5fb01684ea91b68b9","105.1.161.232","Mozilla/5.0 (Windows NT 10.0; Win64; x64) AppleWebKit/537.36 (KHTML, like Gecko) Chrome/137.0.0.0 Safari/537.36","WebKit","Chrome","137.0.0.0","Windows","10.0","https://app.prolific.com/","en-GB,en-US;q=0.9,en;q=0.8","67417cd21e7e37b5843c3ac2","683db6dfa200031b80f2a654","6865076adbb731f98bdfb30d","67417cd21e7e37b5843c3ac2","2025-07-02T11:07:42.873Z","","","","","","StressQ","","","","","","","","","","","","","","","","","","","","","","","","","","","","","","","","","","","","","","50"
"3530","","<div style=""width:500px;"">
  <p>What best describes how you currently feel?</p>
  </div>","100","html-slider-response","75","2547614","0.0-10.0-4.6","184","1","2025-07-02 10:25:02","80fe4187154257d5fb01684ea91b68b9","105.1.161.232","Mozilla/5.0 (Windows NT 10.0; Win64; x64) AppleWebKit/537.36 (KHTML, like Gecko) Chrome/137.0.0.0 Safari/537.36","WebKit","Chrome","137.0.0.0","Windows","10.0","https://app.prolific.com/","en-GB,en-US;q=0.9,en;q=0.8","67417cd21e7e37b5843c3ac2","683db6dfa200031b80f2a654","6865076adbb731f98bdfb30d","67417cd21e7e37b5843c3ac2","2025-07-02T11:07:46.409Z","","","","","","MotivationQ","","","","","","","","","","","","","","","","","","","","","","","","","","","","","","","","","","","","","","50"
"","","","","ctl-task-cpt","76","2603220","0.0-10.0-0.7","184","1","2025-07-02 10:25:02","80fe4187154257d5fb01684ea91b68b9","105.1.161.232","Mozilla/5.0 (Windows NT 10.0; Win64; x64) AppleWebKit/537.36 (KHTML, like Gecko) Chrome/137.0.0.0 Safari/537.36","WebKit","Chrome","137.0.0.0","Windows","10.0","https://app.prolific.com/","en-GB,en-US;q=0.9,en;q=0.8","67417cd21e7e37b5843c3ac2","683db6dfa200031b80f2a654","6865076adbb731f98bdfb30d","67417cd21e7e37b5843c3ac2","2025-07-02T11:08:42.015Z","","","","","","","","","","","","","","","","win-only","2","g1:SE,g2:NW","0.3","8","0","2561859.1","1580.7","6588","52566","1","4","8","6","2","8","7","24","17","0.18181818181818182","1713.8","3000","1820","[""left"",""up""]","{""num_key_presses"":10,""num_perfect"":3,""num_errors"":1,""num_randdir"":6,""num_randdir_good_moves"":5,""num_whilered"":0,""num_whileblue"":1,""num_blue"":2,""num_good_moves"":8}","[292.22232142857143,299.12857142857143,1.2,292.22232142857143,299.12857142857143,115.5,292.22232142857143,299.12857142857143,234.8,292.22232142857143,299.12857142857143,352.7,292.22232142857143,299.12857142857143,473.1,292.22232142857143,299.12857142857143,594.6,292.22232142857143,299.12857142857143,716.2,148.22232142857143,158.12857142857143,854.3,121.22232142857143,131.12857142857143,990.8,116.22232142857143,127.12857142857143,1107.5,116.22232142857143,127.12857142857143,1222.2,109.22232142857143,113.12857142857143,1348,66.22232142857143,58.128571428571426,1487.5,59.222321428571426,49.128571428571426,1613.9,59.222321428571426,49.128571428571426,1740.5,59.222321428571426,49.128571428571426,1860.7,59.222321428571426,49.128571428571426,1977.7,59.222321428571426,49.128571428571426,2094.4,59.222321428571426,49.128571428571426,2210.4,59.222321428571426,49.128571428571426,2326.4,59.222321428571426,49.128571428571426,2443.8,59.222321428571426,49.128571428571426,2558.8,59.222321428571426,49.128571428571426,2675.5,59.222321428571426,49.128571428571426,2784.2,59.222321428571426,49.128571428571426,2902,59.222321428571426,49.128571428571426,3038.1,59.222321428571426,49.128571428571426,3145.1,59.222321428571426,49.128571428571426,3249.1,59.222321428571426,49.128571428571426,3365.3,59.222321428571426,49.128571428571426,3472,59.222321428571426,49.128571428571426,3572,59.222321428571426,49.128571428571426,3677.1,59.222321428571426,49.128571428571426,3778,59.222321428571426,49.128571428571426,3892,59.222321428571426,49.128571428571426,3993.3,59.222321428571426,49.128571428571426,4096.2,59.222321428571426,49.128571428571426,4197.5,59.222321428571426,49.128571428571426,4302.3,59.222321428571426,49.128571428571426,4404.6,59.222321428571426,49.128571428571426,4518.5,59.222321428571426,49.128571428571426,4656.1,59.222321428571426,49.128571428571426,4766.4,59.222321428571426,49.128571428571426,4878.5,59.222321428571426,49.128571428571426,4987.4]","[1990.3,1990.3,1000,0,990.4,""smooth"",""up"",""up"",""good_move"",5610.1,3618.6,1929.2,1991.5,1689.4,""smooth"",""up"",""up"",""good_move"",10060.6,4449.5,2841.9,5611.1,1607.6,""oops"",""left"",""left"",""good_move"",14455.4,4393.4,2080,10062,2313.4,""oops"",""up"",""left"",""good_move"",20600.3,6143.7,1857.3,14456.7,4286.3,""oops"",""left"",""left"",""good_move"",27217.6,6616.5,6228.7,20601.2,387.7,""while_blue"",""up"",""down"",""bad_move"",30077.6,2858.7,2159.6,27218.9,699.1,""oops"",""up"",""up"",""good_move"",34765.6,4687,2366.5,30078.7,2320.4,""oops"",""up"",""down"",""bad_move"",41410.2,6643.6,2535.8,38367.1,507.3,""smooth"",""up"",""up"",""good_move"",45595.7,4184.8,2218.9,41411,1965.8,""oops"",""up"",""up"",""good_move""]","",""
"2533","","<div style=""width:500px;"">
  <p>What determined the result of this run?</p>
  </div>","100","html-slider-response","77","2605758","0.0-10.0-1.7","184","1","2025-07-02 10:25:02","80fe4187154257d5fb01684ea91b68b9","105.1.161.232","Mozilla/5.0 (Windows NT 10.0; Win64; x64) AppleWebKit/537.36 (KHTML, like Gecko) Chrome/137.0.0.0 Safari/537.36","WebKit","Chrome","137.0.0.0","Windows","10.0","https://app.prolific.com/","en-GB,en-US;q=0.9,en;q=0.8","67417cd21e7e37b5843c3ac2","683db6dfa200031b80f2a654","6865076adbb731f98bdfb30d","67417cd21e7e37b5843c3ac2","2025-07-02T11:08:44.552Z","","","","","","AttribQ","","","","","","","","","","","","","","","","","","","","","","","","","","","","","","","","","","","","","","50"
"2502","","<div style=""width:500px;"">
  <p>How much control did you have over the ball?</p>
  </div>","100","html-slider-response","78","2608266","0.0-10.0-2.7","184","1","2025-07-02 10:25:02","80fe4187154257d5fb01684ea91b68b9","105.1.161.232","Mozilla/5.0 (Windows NT 10.0; Win64; x64) AppleWebKit/537.36 (KHTML, like Gecko) Chrome/137.0.0.0 Safari/537.36","WebKit","Chrome","137.0.0.0","Windows","10.0","https://app.prolific.com/","en-GB,en-US;q=0.9,en;q=0.8","67417cd21e7e37b5843c3ac2","683db6dfa200031b80f2a654","6865076adbb731f98bdfb30d","67417cd21e7e37b5843c3ac2","2025-07-02T11:08:47.060Z","","","","","","ControlQ","","","","","","","","","","","","","","","","","","","","","","","","","","","","","","","","","","","","","","50"
"6008","","<div style=""width:500px;"">
  <p>How would you describe your current emotional state?</p>
  </div>","0","html-slider-response","79","2614277","0.0-10.0-3.7","184","1","2025-07-02 10:25:02","80fe4187154257d5fb01684ea91b68b9","105.1.161.232","Mozilla/5.0 (Windows NT 10.0; Win64; x64) AppleWebKit/537.36 (KHTML, like Gecko) Chrome/137.0.0.0 Safari/537.36","WebKit","Chrome","137.0.0.0","Windows","10.0","https://app.prolific.com/","en-GB,en-US;q=0.9,en;q=0.8","67417cd21e7e37b5843c3ac2","683db6dfa200031b80f2a654","6865076adbb731f98bdfb30d","67417cd21e7e37b5843c3ac2","2025-07-02T11:08:53.072Z","","","","","","StressQ","","","","","","","","","","","","","","","","","","","","","","","","","","","","","","","","","","","","","","50"
"2583","","<div style=""width:500px;"">
  <p>What best describes how you currently feel?</p>
  </div>","100","html-slider-response","80","2616869","0.0-10.0-4.7","184","1","2025-07-02 10:25:02","80fe4187154257d5fb01684ea91b68b9","105.1.161.232","Mozilla/5.0 (Windows NT 10.0; Win64; x64) AppleWebKit/537.36 (KHTML, like Gecko) Chrome/137.0.0.0 Safari/537.36","WebKit","Chrome","137.0.0.0","Windows","10.0","https://app.prolific.com/","en-GB,en-US;q=0.9,en;q=0.8","67417cd21e7e37b5843c3ac2","683db6dfa200031b80f2a654","6865076adbb731f98bdfb30d","67417cd21e7e37b5843c3ac2","2025-07-02T11:08:55.663Z","","","","","","MotivationQ","","","","","","","","","","","","","","","","","","","","","","","","","","","","","","","","","","","","","","50"
"","","","","ctl-task-cpt","81","2662792","0.0-10.0-0.8","184","1","2025-07-02 10:25:02","80fe4187154257d5fb01684ea91b68b9","105.1.161.232","Mozilla/5.0 (Windows NT 10.0; Win64; x64) AppleWebKit/537.36 (KHTML, like Gecko) Chrome/137.0.0.0 Safari/537.36","WebKit","Chrome","137.0.0.0","Windows","10.0","https://app.prolific.com/","en-GB,en-US;q=0.9,en;q=0.8","67417cd21e7e37b5843c3ac2","683db6dfa200031b80f2a654","6865076adbb731f98bdfb30d","67417cd21e7e37b5843c3ac2","2025-07-02T11:09:41.586Z","","","","","","","","","","","","","","","","win-only","0","g1:NW,g2:SE","0.4","9","0","2631109","3334.9","8346.2","42855","1","4","8","6","2","8","8","32","24","0.24242424242424243","1493.8","3000","2390","[""down"",""right""]","{""num_key_presses"":8,""num_perfect"":3,""num_errors"":0,""num_randdir"":5,""num_randdir_good_moves"":4,""num_whilered"":0,""num_whileblue"":0,""num_blue"":2,""num_good_moves"":7}","[294.22232142857143,290.12857142857143,0.8,294.22232142857143,290.12857142857143,101.2,294.22232142857143,290.12857142857143,212.9,294.22232142857143,290.12857142857143,325.2,294.22232142857143,290.12857142857143,447.6,307.22232142857143,316.12857142857143,562.2,435.22232142857143,476.12857142857143,690.4,602.2223214285714,595.1285714285714,825.8,611.2223214285714,601.1285714285714,940.7,564.2223214285714,580.1285714285714,1064.4,547.2223214285714,568.1285714285714,1171.9,543.2223214285714,563.1285714285714,1282.4,543.2223214285714,561.1285714285714,1390,543.2223214285714,561.1285714285714,1524.2,543.2223214285714,561.1285714285714,1647.3,543.2223214285714,561.1285714285714,1772.4,543.2223214285714,561.1285714285714,1891.2,543.2223214285714,561.1285714285714,2003.9,543.2223214285714,561.1285714285714,2106.5,543.2223214285714,561.1285714285714,2228.3,543.2223214285714,561.1285714285714,2338.8,543.2223214285714,561.1285714285714,2442,543.2223214285714,561.1285714285714,2554.6,543.2223214285714,561.1285714285714,2655.5,543.2223214285714,561.1285714285714,2775.2,543.2223214285714,561.1285714285714,2892.7,543.2223214285714,561.1285714285714,3015.3,543.2223214285714,561.1285714285714,3124.6,543.2223214285714,561.1285714285714,3230.7,543.2223214285714,561.1285714285714,3357,543.2223214285714,561.1285714285714,3457.5,543.2223214285714,561.1285714285714,3559.7,543.2223214285714,561.1285714285714,3671.8,543.2223214285714,561.1285714285714,3809.9,543.2223214285714,561.1285714285714,3929.6,543.2223214285714,561.1285714285714,4036.7,543.2223214285714,561.1285714285714,4154.8,543.2223214285714,561.1285714285714,4273.5,543.2223214285714,561.1285714285714,4375.6,543.2223214285714,561.1285714285714,4478.9,543.2223214285714,561.1285714285714,4592.5,543.2223214285714,561.1285714285714,4700.5,543.2223214285714,561.1285714285714,4808.1,543.2223214285714,561.1285714285714,4929.9]","[1775.5,1775.5,1000,0,775.5,""smooth"",""right"",""right"",""good_move"",4044.4,2267.8,1841.8,1776.6,426,""oops"",""down"",""left"",""bad_move"",14621.7,10575.9,2515.5,11585.1,521.1,""oops"",""down"",""down"",""good_move"",18177.9,3554.3,2805.9,14623.7,748.4,""smooth"",""down"",""down"",""good_move"",21063.4,2883.1,2148.3,18180.3,734.8,""oops"",""down"",""right"",""good_move"",23603.6,2539.2,1975.7,21064.4,563.5,""oops"",""down"",""right"",""good_move"",30010,6404.9,2359.1,27040.4,610.5,""oops"",""right"",""down"",""good_move"",33266.8,3256.1,2672,30010.8,584,""smooth"",""right"",""right"",""good_move""]","",""
"3204","","<div style=""width:500px;"">
  <p>What determined the result of this run?</p>
  </div>","100","html-slider-response","82","2666004","0.0-10.0-1.8","184","1","2025-07-02 10:25:02","80fe4187154257d5fb01684ea91b68b9","105.1.161.232","Mozilla/5.0 (Windows NT 10.0; Win64; x64) AppleWebKit/537.36 (KHTML, like Gecko) Chrome/137.0.0.0 Safari/537.36","WebKit","Chrome","137.0.0.0","Windows","10.0","https://app.prolific.com/","en-GB,en-US;q=0.9,en;q=0.8","67417cd21e7e37b5843c3ac2","683db6dfa200031b80f2a654","6865076adbb731f98bdfb30d","67417cd21e7e37b5843c3ac2","2025-07-02T11:09:44.798Z","","","","","","AttribQ","","","","","","","","","","","","","","","","","","","","","","","","","","","","","","","","","","","","","","50"
"2535","","<div style=""width:500px;"">
  <p>How much control did you have over the ball?</p>
  </div>","100","html-slider-response","83","2668547","0.0-10.0-2.8","184","1","2025-07-02 10:25:02","80fe4187154257d5fb01684ea91b68b9","105.1.161.232","Mozilla/5.0 (Windows NT 10.0; Win64; x64) AppleWebKit/537.36 (KHTML, like Gecko) Chrome/137.0.0.0 Safari/537.36","WebKit","Chrome","137.0.0.0","Windows","10.0","https://app.prolific.com/","en-GB,en-US;q=0.9,en;q=0.8","67417cd21e7e37b5843c3ac2","683db6dfa200031b80f2a654","6865076adbb731f98bdfb30d","67417cd21e7e37b5843c3ac2","2025-07-02T11:09:47.341Z","","","","","","ControlQ","","","","","","","","","","","","","","","","","","","","","","","","","","","","","","","","","","","","","","50"
"8638","","<div style=""width:500px;"">
  <p>How would you describe your current emotional state?</p>
  </div>","0","html-slider-response","84","2677196","0.0-10.0-3.8","184","1","2025-07-02 10:25:02","80fe4187154257d5fb01684ea91b68b9","105.1.161.232","Mozilla/5.0 (Windows NT 10.0; Win64; x64) AppleWebKit/537.36 (KHTML, like Gecko) Chrome/137.0.0.0 Safari/537.36","WebKit","Chrome","137.0.0.0","Windows","10.0","https://app.prolific.com/","en-GB,en-US;q=0.9,en;q=0.8","67417cd21e7e37b5843c3ac2","683db6dfa200031b80f2a654","6865076adbb731f98bdfb30d","67417cd21e7e37b5843c3ac2","2025-07-02T11:09:55.990Z","","","","","","StressQ","","","","","","","","","","","","","","","","","","","","","","","","","","","","","","","","","","","","","","50"
"3059","","<div style=""width:500px;"">
  <p>What best describes how you currently feel?</p>
  </div>","100","html-slider-response","85","2680264","0.0-10.0-4.8","184","1","2025-07-02 10:25:02","80fe4187154257d5fb01684ea91b68b9","105.1.161.232","Mozilla/5.0 (Windows NT 10.0; Win64; x64) AppleWebKit/537.36 (KHTML, like Gecko) Chrome/137.0.0.0 Safari/537.36","WebKit","Chrome","137.0.0.0","Windows","10.0","https://app.prolific.com/","en-GB,en-US;q=0.9,en;q=0.8","67417cd21e7e37b5843c3ac2","683db6dfa200031b80f2a654","6865076adbb731f98bdfb30d","67417cd21e7e37b5843c3ac2","2025-07-02T11:09:59.058Z","","","","","","MotivationQ","","","","","","","","","","","","","","","","","","","","","","","","","","","","","","","","","","","","","","50"
