"rt","response_timestamp","stimulus","response","trial_type","trial_index","time_elapsed","internal_node_id","run_id","condition","recorded_at","source_code_version","ip","user_agent","device","browser","browser_version","platform","platform_version","referer","accept_language","PROLIFIC_PID","STUDY_ID","SESSION_ID","prolific_id","realtime","view_history","question_order","consent","success","question_id","eventType","responses","item_order","radio_event_ids","radio_event_times","key_event_times","mouse_event_times","straightlining","zigzagging","honeypot","which_type","canvas_config","goals_layout","control_level","trial_number","tutorial_trial_number","trial_start_time","phase1_start_time","phase2_start_time","phase3_start_time","goal_1_value","goal_1_distance","goal_2_value","goal_2_distance","goal_selected","outcome","outcome_total","participant_final_score","participant_initial_score","participant_final_score_prop","goal_choice_rt","allocated_time","allocated_time_remaining","goal_direction","counts","mouse_movements","key_presses","correct","slider_start","sub_question"
"12380","1751451618049","<p style='font-size:40px;line-height:1.25'><strong>Welcome to the experiment!</strong></p><p style='font-size:1.1em;line-height:1.25'>Thank you for your interest in our experiment! Before you begin, it is important that we obtain your informed consent to participate in the study.</p><p style='font-size:1.1em;line-height:1.25'>On the next screen will be an <strong>information sheet</strong> for you to read. To participate in the study we need you to read this information sheet and the following consent form carefully. If you agree with all the statements, please click the <strong>I agree</strong> button.</p><p style='font-size:1.1em;line-height:1.25'>Press <strong>Next</strong> to read the information sheet.</p>","0","custom-html-button-response","0","12385","0.0-0.0","123","1","2025-07-02 10:20:03","80fe4187154257d5fb01684ea91b68b9","41.121.107.170","Mozilla/5.0 (Windows NT 10.0; Win64; x64) AppleWebKit/537.36 (KHTML, like Gecko) Chrome/138.0.0.0 Safari/537.36 Edg/138.0.0.0","WebKit","Edge","138.0.0.0","Windows","10.0","https://app.prolific.com/","en-US,en;q=0.9","6742fd0efbb5712e14e693e5","683db6dfa200031b80f2a654","68650764b057c03a103da975","6742fd0efbb5712e14e693e5","2025-07-02T10:20:18.052Z","","","","","","","","","","","","","","","","","","","","","","","","","","","","","","","","","","","","","","","","","","","","",""
"168068","","","","instructions","1","180456","0.0-1.0","123","1","2025-07-02 10:20:03","80fe4187154257d5fb01684ea91b68b9","41.121.107.170","Mozilla/5.0 (Windows NT 10.0; Win64; x64) AppleWebKit/537.36 (KHTML, like Gecko) Chrome/138.0.0.0 Safari/537.36 Edg/138.0.0.0","WebKit","Edge","138.0.0.0","Windows","10.0","https://app.prolific.com/","en-US,en;q=0.9","6742fd0efbb5712e14e693e5","683db6dfa200031b80f2a654","68650764b057c03a103da975","6742fd0efbb5712e14e693e5","","[{""page_index"":0,""viewing_time"":136793},{""page_index"":1,""viewing_time"":31274}]","","","","","","","","","","","","","","","","","","","","","","","","","","","","","","","","","","","","","","","","","","","",""
"11809","","","{""Q0"":"""",""Q1"":"""",""Q2"":"""",""Q3"":"""",""Q4"":"""",""Q5"":"""",""Q6"":""I agree""}","survey-multi-choice","2","192270","0.0-2.0","123","1","2025-07-02 10:20:03","80fe4187154257d5fb01684ea91b68b9","41.121.107.170","Mozilla/5.0 (Windows NT 10.0; Win64; x64) AppleWebKit/537.36 (KHTML, like Gecko) Chrome/138.0.0.0 Safari/537.36 Edg/138.0.0.0","WebKit","Edge","138.0.0.0","Windows","10.0","https://app.prolific.com/","en-US,en;q=0.9","6742fd0efbb5712e14e693e5","683db6dfa200031b80f2a654","68650764b057c03a103da975","6742fd0efbb5712e14e693e5","","","[0,1,2,3,4,5,6]","true","","","","","","","","","","","","","","","","","","","","","","","","","","","","","","","","","","","","","","","","","",""
"18387","","","","fullscreen","3","211661","0.0-4.0","123","1","2025-07-02 10:20:03","80fe4187154257d5fb01684ea91b68b9","41.121.107.170","Mozilla/5.0 (Windows NT 10.0; Win64; x64) AppleWebKit/537.36 (KHTML, like Gecko) Chrome/138.0.0.0 Safari/537.36 Edg/138.0.0.0","WebKit","Edge","138.0.0.0","Windows","10.0","https://app.prolific.com/","en-US,en;q=0.9","6742fd0efbb5712e14e693e5","683db6dfa200031b80f2a654","68650764b057c03a103da975","6742fd0efbb5712e14e693e5","","","","","true","","","","","","","","","","","","","","","","","","","","","","","","","","","","","","","","","","","","","","","","",""
"6717","1751451824047"," <p style='font-size:1.1em;line-height:1.25'>Thank you for completing the consent form and closing all other tabs.</p><p style='font-size:1.1em;line-height:1.25'>We will now invite you to fill in some demographic information and questionnaires, before starting the game.<br>This will take about 5 minutes.<br></p><p style='font-size:1.1em;line-height:1.25'>Press the <strong>Next</strong> button to continue.</p>","0","custom-html-button-response","4","218383","0.0-5.0","123","1","2025-07-02 10:20:03","80fe4187154257d5fb01684ea91b68b9","41.121.107.170","Mozilla/5.0 (Windows NT 10.0; Win64; x64) AppleWebKit/537.36 (KHTML, like Gecko) Chrome/138.0.0.0 Safari/537.36 Edg/138.0.0.0","WebKit","Edge","138.0.0.0","Windows","10.0","https://app.prolific.com/","en-US,en;q=0.9","6742fd0efbb5712e14e693e5","683db6dfa200031b80f2a654","68650764b057c03a103da975","6742fd0efbb5712e14e693e5","2025-07-02T10:23:44.050Z","","","","","","","","","","","","","","","","","","","","","","","","","","","","","","","","","","","","","","","","","","","","",""
"6327","","","{""age"":""21""}","survey-text","5","224718","0.0-6.0-0.0","123","1","2025-07-02 10:20:03","80fe4187154257d5fb01684ea91b68b9","41.121.107.170","Mozilla/5.0 (Windows NT 10.0; Win64; x64) AppleWebKit/537.36 (KHTML, like Gecko) Chrome/138.0.0.0 Safari/537.36 Edg/138.0.0.0","WebKit","Edge","138.0.0.0","Windows","10.0","https://app.prolific.com/","en-US,en;q=0.9","6742fd0efbb5712e14e693e5","683db6dfa200031b80f2a654","68650764b057c03a103da975","6742fd0efbb5712e14e693e5","","","","","","0","demographics","","","","","","","","","","","","","","","","","","","","","","","","","","","","","","","","","","","","","","",""
"4798","","","{""gender_identity"":""female/woman""}","survey-multi-choice","6","229519","0.0-6.0-1.0","123","1","2025-07-02 10:20:03","80fe4187154257d5fb01684ea91b68b9","41.121.107.170","Mozilla/5.0 (Windows NT 10.0; Win64; x64) AppleWebKit/537.36 (KHTML, like Gecko) Chrome/138.0.0.0 Safari/537.36 Edg/138.0.0.0","WebKit","Edge","138.0.0.0","Windows","10.0","https://app.prolific.com/","en-US,en;q=0.9","6742fd0efbb5712e14e693e5","683db6dfa200031b80f2a654","68650764b057c03a103da975","6742fd0efbb5712e14e693e5","","","[0]","","","1","demographics","","","","","","","","","","","","","","","","","","","","","","","","","","","","","","","","","","","","","","",""
"3401","","","{""assigned_sex"":""female""}","survey-multi-choice","7","232922","0.0-6.0-2.0","123","1","2025-07-02 10:20:03","80fe4187154257d5fb01684ea91b68b9","41.121.107.170","Mozilla/5.0 (Windows NT 10.0; Win64; x64) AppleWebKit/537.36 (KHTML, like Gecko) Chrome/138.0.0.0 Safari/537.36 Edg/138.0.0.0","WebKit","Edge","138.0.0.0","Windows","10.0","https://app.prolific.com/","en-US,en;q=0.9","6742fd0efbb5712e14e693e5","683db6dfa200031b80f2a654","68650764b057c03a103da975","6742fd0efbb5712e14e693e5","","","[0]","","","2","demographics","","","","","","","","","","","","","","","","","","","","","","","","","","","","","","","","","","","","","","",""
"3909","","","{""menstrual_cycle"":""Yes""}","survey-multi-choice","8","236834","0.0-6.0-3.0","123","1","2025-07-02 10:20:03","80fe4187154257d5fb01684ea91b68b9","41.121.107.170","Mozilla/5.0 (Windows NT 10.0; Win64; x64) AppleWebKit/537.36 (KHTML, like Gecko) Chrome/138.0.0.0 Safari/537.36 Edg/138.0.0.0","WebKit","Edge","138.0.0.0","Windows","10.0","https://app.prolific.com/","en-US,en;q=0.9","6742fd0efbb5712e14e693e5","683db6dfa200031b80f2a654","68650764b057c03a103da975","6742fd0efbb5712e14e693e5","","","[0]","","","4","demographics","","","","","","","","","","","","","","","","","","","","","","","","","","","","","","","","","","","","","","",""
"11931","","","{""education"":""Bachelor's Degree (e.g., BA)""}","survey-multi-choice","9","248769","0.0-6.0-4.0","123","1","2025-07-02 10:20:03","80fe4187154257d5fb01684ea91b68b9","41.121.107.170","Mozilla/5.0 (Windows NT 10.0; Win64; x64) AppleWebKit/537.36 (KHTML, like Gecko) Chrome/138.0.0.0 Safari/537.36 Edg/138.0.0.0","WebKit","Edge","138.0.0.0","Windows","10.0","https://app.prolific.com/","en-US,en;q=0.9","6742fd0efbb5712e14e693e5","683db6dfa200031b80f2a654","68650764b057c03a103da975","6742fd0efbb5712e14e693e5","","","[0]","","","5","demographics","","","","","","","","","","","","","","","","","","","","","","","","","","","","","","","","","","","","","","",""
"8060","","","{""education"":""Doctoral Degree (e.g., PhD)""}","survey-multi-choice","10","256832","0.0-6.0-5.0","123","1","2025-07-02 10:20:03","80fe4187154257d5fb01684ea91b68b9","41.121.107.170","Mozilla/5.0 (Windows NT 10.0; Win64; x64) AppleWebKit/537.36 (KHTML, like Gecko) Chrome/138.0.0.0 Safari/537.36 Edg/138.0.0.0","WebKit","Edge","138.0.0.0","Windows","10.0","https://app.prolific.com/","en-US,en;q=0.9","6742fd0efbb5712e14e693e5","683db6dfa200031b80f2a654","68650764b057c03a103da975","6742fd0efbb5712e14e693e5","2025-07-02T10:24:22.498Z","","[0]","","","6","demographics","","","","","","","","","","","","","","","","","","","","","","","","","","","","","","","","","","","","","","",""
"55616","","","{""mental_health_condition"":""DEPRESSION"",""mental_health_treatment"":""I AM TAKING TREATMENT AND ALSO THERAPY FOR DEPRESSION"",""psychiatric_medication"":""NO""}","survey-text","11","312454","0.0-7.0-0.0","123","1","2025-07-02 10:20:03","80fe4187154257d5fb01684ea91b68b9","41.121.107.170","Mozilla/5.0 (Windows NT 10.0; Win64; x64) AppleWebKit/537.36 (KHTML, like Gecko) Chrome/138.0.0.0 Safari/537.36 Edg/138.0.0.0","WebKit","Edge","138.0.0.0","Windows","10.0","https://app.prolific.com/","en-US,en;q=0.9","6742fd0efbb5712e14e693e5","683db6dfa200031b80f2a654","68650764b057c03a103da975","6742fd0efbb5712e14e693e5","2025-07-02T10:25:18.120Z","","","","","1","mental_health","","","","","","","","","","","","","","","","","","","","","","","","","","","","","","","","","","","","","","",""
"7488","","","{""depression_history"":[""Yes""]}","survey-multi-select","12","319947","0.0-7.0-1.0","123","1","2025-07-02 10:20:03","80fe4187154257d5fb01684ea91b68b9","41.121.107.170","Mozilla/5.0 (Windows NT 10.0; Win64; x64) AppleWebKit/537.36 (KHTML, like Gecko) Chrome/138.0.0.0 Safari/537.36 Edg/138.0.0.0","WebKit","Edge","138.0.0.0","Windows","10.0","https://app.prolific.com/","en-US,en;q=0.9","6742fd0efbb5712e14e693e5","683db6dfa200031b80f2a654","68650764b057c03a103da975","6742fd0efbb5712e14e693e5","","","[0]","","","","mental_health","","","","","","","","","","","","","","","","","","","","","","","","","","","","","","","","","","","","","","",""
"11128","","","{""depression_episodes"":""more than 5"",""depression_recent"":""Currently experiencing an episode""}","survey-multi-choice","13","331079","0.0-7.0-2.0-0.0","123","1","2025-07-02 10:20:03","80fe4187154257d5fb01684ea91b68b9","41.121.107.170","Mozilla/5.0 (Windows NT 10.0; Win64; x64) AppleWebKit/537.36 (KHTML, like Gecko) Chrome/138.0.0.0 Safari/537.36 Edg/138.0.0.0","WebKit","Edge","138.0.0.0","Windows","10.0","https://app.prolific.com/","en-US,en;q=0.9","6742fd0efbb5712e14e693e5","683db6dfa200031b80f2a654","68650764b057c03a103da975","6742fd0efbb5712e14e693e5","2025-07-02T10:25:36.745Z","","[0,1]","","","3","mental_health","","","","","","","","","","","","","","","","","","","","","","","","","","","","","","","","","","","","","","",""
"76398.60000002384","","","","survey-template","14","407485","0.0-7.0-3.0","123","1","2025-07-02 10:20:03","80fe4187154257d5fb01684ea91b68b9","41.121.107.170","Mozilla/5.0 (Windows NT 10.0; Win64; x64) AppleWebKit/537.36 (KHTML, like Gecko) Chrome/138.0.0.0 Safari/537.36 Edg/138.0.0.0","WebKit","Edge","138.0.0.0","Windows","10.0","https://app.prolific.com/","en-US,en;q=0.9","6742fd0efbb5712e14e693e5","683db6dfa200031b80f2a654","68650764b057c03a103da975","6742fd0efbb5712e14e693e5","2025-07-02T10:26:53.151Z","","","","","","ius","{""Q01"":""4"",""Q02"":""4"",""Q03"":""3"",""Q04"":""4"",""Q05"":""4"",""Q06"":""2"",""Q07"":""4"",""Q08"":""0"",""Q09"":""3"",""Q10"":""4"",""Q11"":""3"",""Q12"":""3"",""Q13"":""4""}","[0,1,2,3,4,5,6,7,8,9,10,11,12]","[""Q01"",""Q02"",""Q03"",""Q04"",""Q05"",""Q06"",""Q07"",""Q08"",""Q09"",""Q10"",""Q11"",""Q12"",""Q13""]","[4439.700000047684,11602.900000095367,33475.200000047684,37537.60000002384,45850.200000047684,53181.700000047684,56075.10000002384,58905.200000047684,62046.300000071526,64679.200000047684,66713,72928,75301]","[]","[4439.700000047684,8468.5,9791,10449.300000071526,11602.900000095367,18380.800000071526,31818.200000047684,33475.200000047684,37537.60000002384,41303,43369.700000047684,44557.5,45850.200000047684,53181.700000047684,56075.10000002384,58905.200000047684,62046.300000071526,64679.200000047684,66713,72928,75301,76395]","0.5384615384615384","0.5","0","","","","","","","","","","","","","","","","","","","","","","","","","","","","","",""
"4948","1751452018100","<p style='font-size:1.1em;line-height:1.25'>In the following, we will ask you a few questions relating to your experiences over the past month.<br></p><p style='font-size:1.1em;line-height:1.25'>Press the <strong>Next</strong> button to continue.</p>","0","custom-html-button-response","15","412435","0.0-7.0-4.0","123","1","2025-07-02 10:20:03","80fe4187154257d5fb01684ea91b68b9","41.121.107.170","Mozilla/5.0 (Windows NT 10.0; Win64; x64) AppleWebKit/537.36 (KHTML, like Gecko) Chrome/138.0.0.0 Safari/537.36 Edg/138.0.0.0","WebKit","Edge","138.0.0.0","Windows","10.0","https://app.prolific.com/","en-US,en;q=0.9","6742fd0efbb5712e14e693e5","683db6dfa200031b80f2a654","68650764b057c03a103da975","6742fd0efbb5712e14e693e5","2025-07-02T10:26:58.101Z","","","","","","","","","","","","","","","","","","","","","","","","","","","","","","","","","","","","","","","","","","","","",""
"56373.300000071526","","","","survey-template","16","468813","0.0-7.0-5.0","123","1","2025-07-02 10:20:03","80fe4187154257d5fb01684ea91b68b9","41.121.107.170","Mozilla/5.0 (Windows NT 10.0; Win64; x64) AppleWebKit/537.36 (KHTML, like Gecko) Chrome/138.0.0.0 Safari/537.36 Edg/138.0.0.0","WebKit","Edge","138.0.0.0","Windows","10.0","https://app.prolific.com/","en-US,en;q=0.9","6742fd0efbb5712e14e693e5","683db6dfa200031b80f2a654","68650764b057c03a103da975","6742fd0efbb5712e14e693e5","2025-07-02T10:27:54.479Z","","","","","","pss","{""Q01"":""4"",""Q02"":""2"",""Q03"":""3"",""Q04"":""0"",""Q05"":""0"",""Q06"":""1"",""Q07"":""1"",""Q08"":""0"",""Q09"":""3"",""Q10"":""2""}","[0,1,2,3,4,5,6,7,8,9]","[""Q01"",""Q02"",""Q03"",""Q04"",""Q05"",""Q06"",""Q07"",""Q08"",""Q09"",""Q10""]","[6106.400000095367,11783.800000071526,16902.800000071526,19852.100000023842,23400.700000047684,30190.100000023842,34043,37277.10000002384,49289.60000002384,55012.800000071526]","[]","[0.10000002384185791,4609.200000047684,6106.400000095367,11783.800000071526,16902.800000071526,19852.100000023842,22008.5,23400.700000047684,30190.100000023842,34043,37277.10000002384,48039,49289.60000002384,55012.800000071526,56370.5]","0.4","0.5555555555555556","0","","","","","","","","","","","","","","","","","","","","","","","","","","","","","",""
"5631","1751452080111","<p style='font-size:1.1em;line-height:1.25'>Thank you for your answers! Now we will ask you a few more questions relating to your feelings in the last 24 hours.<br></p><p style='font-size:1.1em;line-height:1.25'>Press the <strong>Next</strong> button to continue.</p>","0","custom-html-button-response","17","474446","0.0-7.0-6.0","123","1","2025-07-02 10:20:03","80fe4187154257d5fb01684ea91b68b9","41.121.107.170","Mozilla/5.0 (Windows NT 10.0; Win64; x64) AppleWebKit/537.36 (KHTML, like Gecko) Chrome/138.0.0.0 Safari/537.36 Edg/138.0.0.0","WebKit","Edge","138.0.0.0","Windows","10.0","https://app.prolific.com/","en-US,en;q=0.9","6742fd0efbb5712e14e693e5","683db6dfa200031b80f2a654","68650764b057c03a103da975","6742fd0efbb5712e14e693e5","2025-07-02T10:28:00.112Z","","","","","","","","","","","","","","","","","","","","","","","","","","","","","","","","","","","","","","","","","","","","",""
"69381.10000002384","","","","survey-template","18","543832","0.0-7.0-7.0","123","1","2025-07-02 10:20:03","80fe4187154257d5fb01684ea91b68b9","41.121.107.170","Mozilla/5.0 (Windows NT 10.0; Win64; x64) AppleWebKit/537.36 (KHTML, like Gecko) Chrome/138.0.0.0 Safari/537.36 Edg/138.0.0.0","WebKit","Edge","138.0.0.0","Windows","10.0","https://app.prolific.com/","en-US,en;q=0.9","6742fd0efbb5712e14e693e5","683db6dfa200031b80f2a654","68650764b057c03a103da975","6742fd0efbb5712e14e693e5","2025-07-02T10:29:09.498Z","","","","","","drsp","{""Q01"":""0"",""Q02"":""0"",""Q03"":""0"",""Q04"":""1"",""Q05"":""2"",""Q06"":""2"",""Q07"":""1"",""Q08"":""0"",""Q09"":""0"",""Q10"":""0"",""Q11"":""5"",""Q12"":""3"",""Q13"":""3"",""Q14"":""4"",""Q15"":""2"",""Q16"":""5"",""Q17"":""2"",""Q18"":""5"",""Q19"":""3"",""Q20"":""4"",""Q21"":""5""}","[0,1,2,3,4,5,6,7,8,9,10,11,12,13,14,15,16,17,18,19,20]","[""Q01"",""Q02"",""Q03"",""Q04"",""Q05"",""Q06"",""Q07"",""Q08"",""Q09"",""Q10"",""Q11"",""Q12"",""Q13"",""Q14"",""Q15"",""Q15"",""Q15"",""Q16"",""Q17"",""Q18"",""Q19"",""Q20"",""Q21""]","[3719.7000000476837,7236.800000071526,8480.399999976158,9836.700000047684,12367.899999976158,14995.100000023842,18048.700000047684,20787.100000023842,21986.300000071526,23358.899999976158,29507.700000047684,31979.200000047684,33654.200000047684,35741.700000047684,39428,43361.39999997616,44864.10000002384,48226.39999997616,50001,53046,63261,66919,68263.89999997616]","[]","[0.10000002384185791,3719.7000000476837,7236.800000071526,8480.399999976158,9836.700000047684,12367.899999976158,14995.100000023842,16763.399999976158,18048.700000047684,19176.100000023842,20787.100000023842,21986.300000071526,23358.899999976158,29507.700000047684,31979.200000047684,33654.200000047684,35741.700000047684,39428,43361.39999997616,44864.10000002384,46978.10000002384,48226.39999997616,50001,53046,61531,63261,65493.60000002384,66919,68263.89999997616,69375]","0.2857142857142857","0.4","0","","","","","","","","","","","","","","","","","","","","","","","","","","","","","",""
"21197.299999952316","","","","survey-template","19","565033","0.0-7.0-8.0","123","1","2025-07-02 10:20:03","80fe4187154257d5fb01684ea91b68b9","41.121.107.170","Mozilla/5.0 (Windows NT 10.0; Win64; x64) AppleWebKit/537.36 (KHTML, like Gecko) Chrome/138.0.0.0 Safari/537.36 Edg/138.0.0.0","WebKit","Edge","138.0.0.0","Windows","10.0","https://app.prolific.com/","en-US,en;q=0.9","6742fd0efbb5712e14e693e5","683db6dfa200031b80f2a654","68650764b057c03a103da975","6742fd0efbb5712e14e693e5","2025-07-02T10:29:30.700Z","","","","","","stress","{""Q01"":""0"",""Q02"":""0"",""Q03"":""0""}","[0,1,2]","[""Q01"",""Q02"",""Q03"",""Q03""]","[9204.5,13241.099999904633,18402.899999976158,19822.399999976158]","[]","[9204.5,13241.099999904633,18402.899999976158,19822.399999976158,21195.899999976158]","0.6666666666666666","1","0","","","","","","","","","","","","","","","","","","","","","","","","","","","","","",""
"65911","","","","instructions","20","630947","0.0-8.0-0.0","123","1","2025-07-02 10:20:03","80fe4187154257d5fb01684ea91b68b9","41.121.107.170","Mozilla/5.0 (Windows NT 10.0; Win64; x64) AppleWebKit/537.36 (KHTML, like Gecko) Chrome/138.0.0.0 Safari/537.36 Edg/138.0.0.0","WebKit","Edge","138.0.0.0","Windows","10.0","https://app.prolific.com/","en-US,en;q=0.9","6742fd0efbb5712e14e693e5","683db6dfa200031b80f2a654","68650764b057c03a103da975","6742fd0efbb5712e14e693e5","","[{""page_index"":0,""viewing_time"":25181},{""page_index"":1,""viewing_time"":19717},{""page_index"":2,""viewing_time"":6501},{""page_index"":3,""viewing_time"":14511}]","","","","","","","","","","","","","","","","","","","","","","","","","","","","","","","","","","","","","","","","","","","",""
"","","","","ctl-task-cpt","21","661567","0.0-8.0-1.0","123","1","2025-07-02 10:20:03","80fe4187154257d5fb01684ea91b68b9","41.121.107.170","Mozilla/5.0 (Windows NT 10.0; Win64; x64) AppleWebKit/537.36 (KHTML, like Gecko) Chrome/138.0.0.0 Safari/537.36 Edg/138.0.0.0","WebKit","Edge","138.0.0.0","Windows","10.0","https://app.prolific.com/","en-US,en;q=0.9","6742fd0efbb5712e14e693e5","683db6dfa200031b80f2a654","68650764b057c03a103da975","6742fd0efbb5712e14e693e5","","","","","","","","","","","","","","","","","win-only","0","g1:NW,g2:SE","1","0","1","634742.6","4308","8317","27612.9","2","4","4","6","1","2","1","1","0","0.007575757575757576","2963.1","4000","2350","[""left"",""up""]","{""num_key_presses"":5,""num_perfect"":4,""num_errors"":1,""num_randdir"":0,""num_randdir_good_moves"":0,""num_whilered"":0,""num_whileblue"":0,""num_blue"":2,""num_good_moves"":4}","[416.5714133126395,424.07142761775424,0.7,416.5714133126395,424.07142761775424,108.7,416.5714133126395,424.07142761775424,213.1,416.5714133126395,424.07142761775424,313.1,416.5714133126395,424.07142761775424,413.8,416.5714133126395,424.07142761775424,518.3,416.5714133126395,424.07142761775424,625.9,416.5714133126395,424.07142761775424,727.9,416.5714133126395,424.07142761775424,828,416.5714133126395,424.07142761775424,933.9,435.3214133126395,441.57142761775424,1040.3,500.3214133126395,489.07142761775424,1145.6,515.3214133126395,509.07142761775424,1249.6,517.8214133126395,514.0714276177542,1358.6,517.8214133126395,514.0714276177542,1463.5,517.8214133126395,514.0714276177542,1563.9,515.3214133126395,512.8214276177542,1667.8,481.5714133126395,486.57142761775424,1768,451.5714133126395,471.57142761775424,1868.5,436.5714133126395,456.57142761775424,1974,341.5714133126395,402.82142761775424,2078.3,207.8214133126395,316.57142761775424,2178.4,190.3214133126395,292.82142761775424,2283.4,146.5714133126395,226.57142761775424,2383.8,106.5714133126395,142.82142761775424,2494.1,90.3214133126395,104.07142761775425,2596.4,89.0714133126395,96.57142761775425,2699.1,86.5714133126395,94.07142761775425,2810.6,86.5714133126395,94.07142761775425,2913.6,86.5714133126395,94.07142761775425,3018.4,86.5714133126395,94.07142761775425,3118.5,86.5714133126395,94.07142761775425,3218.8,86.5714133126395,94.07142761775425,3319.1,86.5714133126395,94.07142761775425,3427.8,86.5714133126395,94.07142761775425,3527.8,86.5714133126395,94.07142761775425,3629.6,86.5714133126395,94.07142761775425,3734.1,86.5714133126395,94.07142761775425,3839.1,86.5714133126395,94.07142761775425,3942]","[8508.6,8508.5,2274.2,5768.5,466,""smooth"",""up"",""up"",""good_move"",8881.8,372.3,2336,8509.5,-1963.6,""error"",""-"",""-"",""no_move"",12681.5,3798.9,2262.5,9884.3,534.7,""smooth"",""up"",""up"",""good_move"",15720.6,3038.4,2547.5,12682.2,490.9,""smooth"",""left"",""left"",""good_move"",19198.5,3477.1,3129.7,15721.4,347.4,""smooth"",""left"",""left"",""good_move""]","","",""
"12314","","","","instructions","22","673883","0.0-8.0-2.0","123","1","2025-07-02 10:20:03","80fe4187154257d5fb01684ea91b68b9","41.121.107.170","Mozilla/5.0 (Windows NT 10.0; Win64; x64) AppleWebKit/537.36 (KHTML, like Gecko) Chrome/138.0.0.0 Safari/537.36 Edg/138.0.0.0","WebKit","Edge","138.0.0.0","Windows","10.0","https://app.prolific.com/","en-US,en;q=0.9","6742fd0efbb5712e14e693e5","683db6dfa200031b80f2a654","68650764b057c03a103da975","6742fd0efbb5712e14e693e5","","[{""page_index"":0,""viewing_time"":12314}]","","","","","","","","","","","","","","","","","","","","","","","","","","","","","","","","","","","","","","","","","","","",""
"","","","","ctl-task-cpt","23","725040","0.0-8.0-3.0","123","1","2025-07-02 10:20:03","80fe4187154257d5fb01684ea91b68b9","41.121.107.170","Mozilla/5.0 (Windows NT 10.0; Win64; x64) AppleWebKit/537.36 (KHTML, like Gecko) Chrome/138.0.0.0 Safari/537.36 Edg/138.0.0.0","WebKit","Edge","138.0.0.0","Windows","10.0","https://app.prolific.com/","en-US,en;q=0.9","6742fd0efbb5712e14e693e5","683db6dfa200031b80f2a654","68650764b057c03a103da975","6742fd0efbb5712e14e693e5","","","","","","","","","","","","","","","","","win-only","0","g1:NW,g2:SE","0.35","0","3","677676.6","2399.9","6403.1","48137.5","2","4","8","6","2","-8","-9","0","0","0","3698.2","4000","-2485","[""down"",""right""]","{""num_key_presses"":11,""num_perfect"":4,""num_errors"":1,""num_randdir"":6,""num_randdir_good_moves"":1,""num_whilered"":0,""num_whileblue"":1,""num_blue"":3,""num_good_moves"":5}","[426.5714133126395,416.57142761775424,0.6,426.5714133126395,416.57142761775424,100.1,426.5714133126395,416.57142761775424,201.1,426.5714133126395,416.57142761775424,305.7,426.5714133126395,416.57142761775424,406.6,426.5714133126395,416.57142761775424,516.3,462.8214133126395,461.57142761775424,621.8,496.5714133126395,511.57142761775424,726.5,519.0714133126395,554.0714276177542,832,566.5714133126395,606.5714276177542,932.8,591.5714133126395,626.5714276177542,1033.7,594.0714133126395,627.8214276177542,1137.6,594.0714133126395,627.8214276177542,1243.6,594.0714133126395,627.8214276177542,1350.2,546.5714133126395,571.5714276177542,1451.7,515.3214133126395,539.0714276177542,1552.6,502.8214133126395,526.5714276177542,1655.6,445.3214133126395,456.57142761775424,1756.4,341.5714133126395,345.32142761775424,1856.4,246.5714133126395,199.07142761775424,1965.7,239.0714133126395,179.07142761775424,2071.2,236.5714133126395,170.32142761775424,2171.8,234.0714133126395,165.32142761775424,2283.2,229.0714133126395,160.32142761775424,2383.6,226.5714133126395,157.82142761775424,2484.2,226.5714133126395,157.82142761775424,2584.4,226.5714133126395,157.82142761775424,2686.6,226.5714133126395,157.82142761775424,2786.9,594.0714133126395,412.82142761775424,2892.7,862.8214133126395,650.3214276177542,2996.5,871.5714133126395,707.8214276177542,3102.4,870.3214133126395,744.0714276177542,3203.5,859.0714133126395,757.8214276177542,3304.2,836.5714133126395,751.5714276177542,3406.1,826.5714133126395,751.5714276177542,3507.5,826.5714133126395,751.5714276177542,3607.7,826.5714133126395,751.5714276177542,3718,826.5714133126395,751.5714276177542,3818.2,826.5714133126395,751.5714276177542,3922.9]","[1482.1,1482.2,1000,0,482.2,""smooth"",""right"",""right"",""good_move"",4753.2,3269.5,2906.6,1483.7,362.9,""smooth"",""down"",""down"",""good_move"",7383.7,2629.7,2304,4754,325.7,""oops"",""down"",""right"",""good_move"",10257,2872.6,2565.9,7384.4,306.7,""while_blue"",""down"",""right"",""good_move"",13609.3,3351.5,2953.2,10257.8,398.3,""oops"",""down"",""up"",""bad_move"",16385.1,2774.9,2228.7,13610.2,546.2,""smooth"",""left"",""left"",""bad_move"",22942.9,6557.2,2495.3,20113.8,333.8,""oops"",""down"",""up"",""bad_move"",25880.8,2937.1,2422.1,22943.7,515,""oops"",""up"",""left"",""bad_move"",28820.8,2939.5,2272.4,25881.3,667.1,""oops"",""right"",""up"",""bad_move"",32079,3257.5,2797.2,28821.6,460.2,""smooth"",""right"",""right"",""good_move"",35828.1,3748.5,3190.8,32079.7,557.7,""oops"",""down"",""left"",""bad_move""]","","",""
"9573","","","","instructions","24","734614","0.0-8.0-4.0","123","1","2025-07-02 10:20:03","80fe4187154257d5fb01684ea91b68b9","41.121.107.170","Mozilla/5.0 (Windows NT 10.0; Win64; x64) AppleWebKit/537.36 (KHTML, like Gecko) Chrome/138.0.0.0 Safari/537.36 Edg/138.0.0.0","WebKit","Edge","138.0.0.0","Windows","10.0","https://app.prolific.com/","en-US,en;q=0.9","6742fd0efbb5712e14e693e5","683db6dfa200031b80f2a654","68650764b057c03a103da975","6742fd0efbb5712e14e693e5","","[{""page_index"":0,""viewing_time"":8375},{""page_index"":1,""viewing_time"":1197}]","","","","","","","","","","","","","","","","","","","","","","","","","","","","","","","","","","","","","","","","","","","",""
"11026","","","{""green_ball"":[""Ball always moves in the direction I press""]}","survey-multi-select","25","745645","0.0-8.0-5.0-0.0","123","1","2025-07-02 10:20:03","80fe4187154257d5fb01684ea91b68b9","41.121.107.170","Mozilla/5.0 (Windows NT 10.0; Win64; x64) AppleWebKit/537.36 (KHTML, like Gecko) Chrome/138.0.0.0 Safari/537.36 Edg/138.0.0.0","WebKit","Edge","138.0.0.0","Windows","10.0","https://app.prolific.com/","en-US,en;q=0.9","6742fd0efbb5712e14e693e5","683db6dfa200031b80f2a654","68650764b057c03a103da975","6742fd0efbb5712e14e693e5","","","[0]","","","","quiz","","","","","","","","","","","","","","","","","","","","","","","","","","","","","","","","","","","","","false","",""
"4174","","<p align='center'><b>INCORRECT.</b> Usually the green ball moves in the indicated direction, but sometimes it shakes and moves randomly. </p>","0","html-button-response","26","749830","0.0-8.0-5.0-1.0","123","1","2025-07-02 10:20:03","80fe4187154257d5fb01684ea91b68b9","41.121.107.170","Mozilla/5.0 (Windows NT 10.0; Win64; x64) AppleWebKit/537.36 (KHTML, like Gecko) Chrome/138.0.0.0 Safari/537.36 Edg/138.0.0.0","WebKit","Edge","138.0.0.0","Windows","10.0","https://app.prolific.com/","en-US,en;q=0.9","6742fd0efbb5712e14e693e5","683db6dfa200031b80f2a654","68650764b057c03a103da975","6742fd0efbb5712e14e693e5","","","","","","","","","","","","","","","","","","","","","","","","","","","","","","","","","","","","","","","","","","","","","",""
"8678","","","{""green_ball"":[""Ball always moves in the direction I press"",""Ball sometimes shakes and moves in a random direction""]}","survey-multi-select","27","758526","0.0-8.0-5.1-0.1","123","1","2025-07-02 10:20:03","80fe4187154257d5fb01684ea91b68b9","41.121.107.170","Mozilla/5.0 (Windows NT 10.0; Win64; x64) AppleWebKit/537.36 (KHTML, like Gecko) Chrome/138.0.0.0 Safari/537.36 Edg/138.0.0.0","WebKit","Edge","138.0.0.0","Windows","10.0","https://app.prolific.com/","en-US,en;q=0.9","6742fd0efbb5712e14e693e5","683db6dfa200031b80f2a654","68650764b057c03a103da975","6742fd0efbb5712e14e693e5","","","[0]","","","","quiz","","","","","","","","","","","","","","","","","","","","","","","","","","","","","","","","","","","","","false","",""
"4025","","<p align='center'><b>INCORRECT.</b> Usually the green ball moves in the indicated direction, but sometimes it shakes and moves randomly. </p>","0","html-button-response","28","762557","0.0-8.0-5.1-1.1","123","1","2025-07-02 10:20:03","80fe4187154257d5fb01684ea91b68b9","41.121.107.170","Mozilla/5.0 (Windows NT 10.0; Win64; x64) AppleWebKit/537.36 (KHTML, like Gecko) Chrome/138.0.0.0 Safari/537.36 Edg/138.0.0.0","WebKit","Edge","138.0.0.0","Windows","10.0","https://app.prolific.com/","en-US,en;q=0.9","6742fd0efbb5712e14e693e5","683db6dfa200031b80f2a654","68650764b057c03a103da975","6742fd0efbb5712e14e693e5","","","","","","","","","","","","","","","","","","","","","","","","","","","","","","","","","","","","","","","","","","","","","",""
"6905","","","{""green_ball"":[""Ball sometimes shakes and moves in a random direction""]}","survey-multi-select","29","769467","0.0-8.0-5.2-0.2","123","1","2025-07-02 10:20:03","80fe4187154257d5fb01684ea91b68b9","41.121.107.170","Mozilla/5.0 (Windows NT 10.0; Win64; x64) AppleWebKit/537.36 (KHTML, like Gecko) Chrome/138.0.0.0 Safari/537.36 Edg/138.0.0.0","WebKit","Edge","138.0.0.0","Windows","10.0","https://app.prolific.com/","en-US,en;q=0.9","6742fd0efbb5712e14e693e5","683db6dfa200031b80f2a654","68650764b057c03a103da975","6742fd0efbb5712e14e693e5","","","[0]","","","","quiz","","","","","","","","","","","","","","","","","","","","","","","","","","","","","","","","","","","","","true","",""
"3743","","<p align='center'><b>CORRECT!</b> Indeed, the green ball may sometimes shake and move in a random direction.</p>","0","html-button-response","30","773215","0.0-8.0-5.2-1.2","123","1","2025-07-02 10:20:03","80fe4187154257d5fb01684ea91b68b9","41.121.107.170","Mozilla/5.0 (Windows NT 10.0; Win64; x64) AppleWebKit/537.36 (KHTML, like Gecko) Chrome/138.0.0.0 Safari/537.36 Edg/138.0.0.0","WebKit","Edge","138.0.0.0","Windows","10.0","https://app.prolific.com/","en-US,en;q=0.9","6742fd0efbb5712e14e693e5","683db6dfa200031b80f2a654","68650764b057c03a103da975","6742fd0efbb5712e14e693e5","","","","","","","","","","","","","","","","","","","","","","","","","","","","","","","","","","","","","","","","","","","","","",""
"10979","","","{""yellow_ball"":[""Ball doesn‘t move and I get -1 penalty point""]}","survey-multi-select","31","784201","0.0-8.0-6.0-0.0","123","1","2025-07-02 10:20:03","80fe4187154257d5fb01684ea91b68b9","41.121.107.170","Mozilla/5.0 (Windows NT 10.0; Win64; x64) AppleWebKit/537.36 (KHTML, like Gecko) Chrome/138.0.0.0 Safari/537.36 Edg/138.0.0.0","WebKit","Edge","138.0.0.0","Windows","10.0","https://app.prolific.com/","en-US,en;q=0.9","6742fd0efbb5712e14e693e5","683db6dfa200031b80f2a654","68650764b057c03a103da975","6742fd0efbb5712e14e693e5","","","[0]","","","","quiz","","","","","","","","","","","","","","","","","","","","","","","","","","","","","","","","","","","","","true","",""
"3060","","<p align='center'><b>CORRECT!</b> Indeed, the yellow ball never moves and you receive a penalty.</p>","0","html-button-response","32","787264","0.0-8.0-6.0-1.0","123","1","2025-07-02 10:20:03","80fe4187154257d5fb01684ea91b68b9","41.121.107.170","Mozilla/5.0 (Windows NT 10.0; Win64; x64) AppleWebKit/537.36 (KHTML, like Gecko) Chrome/138.0.0.0 Safari/537.36 Edg/138.0.0.0","WebKit","Edge","138.0.0.0","Windows","10.0","https://app.prolific.com/","en-US,en;q=0.9","6742fd0efbb5712e14e693e5","683db6dfa200031b80f2a654","68650764b057c03a103da975","6742fd0efbb5712e14e693e5","","","","","","","","","","","","","","","","","","","","","","","","","","","","","","","","","","","","","","","","","","","","","",""
"10604","","","{""blue_ball"":[""Ball doesn‘t move and I get -1 penalty point""]}","survey-multi-select","33","797872","0.0-8.0-7.0-0.0","123","1","2025-07-02 10:20:03","80fe4187154257d5fb01684ea91b68b9","41.121.107.170","Mozilla/5.0 (Windows NT 10.0; Win64; x64) AppleWebKit/537.36 (KHTML, like Gecko) Chrome/138.0.0.0 Safari/537.36 Edg/138.0.0.0","WebKit","Edge","138.0.0.0","Windows","10.0","https://app.prolific.com/","en-US,en;q=0.9","6742fd0efbb5712e14e693e5","683db6dfa200031b80f2a654","68650764b057c03a103da975","6742fd0efbb5712e14e693e5","","","[0]","","","","quiz","","","","","","","","","","","","","","","","","","","","","","","","","","","","","","","","","","","","","false","",""
"1536","","<p align='center'><b>INCORRECT.</b> The blue ball always shakes and moves randomly.</p>","0","html-button-response","34","799412","0.0-8.0-7.0-1.0","123","1","2025-07-02 10:20:03","80fe4187154257d5fb01684ea91b68b9","41.121.107.170","Mozilla/5.0 (Windows NT 10.0; Win64; x64) AppleWebKit/537.36 (KHTML, like Gecko) Chrome/138.0.0.0 Safari/537.36 Edg/138.0.0.0","WebKit","Edge","138.0.0.0","Windows","10.0","https://app.prolific.com/","en-US,en;q=0.9","6742fd0efbb5712e14e693e5","683db6dfa200031b80f2a654","68650764b057c03a103da975","6742fd0efbb5712e14e693e5","","","","","","","","","","","","","","","","","","","","","","","","","","","","","","","","","","","","","","","","","","","","","",""
"2741","","","{""blue_ball"":[""Ball always shakes and moves in a random direction""]}","survey-multi-select","35","802156","0.0-8.0-7.1-0.1","123","1","2025-07-02 10:20:03","80fe4187154257d5fb01684ea91b68b9","41.121.107.170","Mozilla/5.0 (Windows NT 10.0; Win64; x64) AppleWebKit/537.36 (KHTML, like Gecko) Chrome/138.0.0.0 Safari/537.36 Edg/138.0.0.0","WebKit","Edge","138.0.0.0","Windows","10.0","https://app.prolific.com/","en-US,en;q=0.9","6742fd0efbb5712e14e693e5","683db6dfa200031b80f2a654","68650764b057c03a103da975","6742fd0efbb5712e14e693e5","","","[0]","","","","quiz","","","","","","","","","","","","","","","","","","","","","","","","","","","","","","","","","","","","","true","",""
"2904","","<p align='center'><b>CORRECT!</b> Indeed, the blue ball always shakes and moves in a random direction. Also there is a penalty of -1 point.</p>","0","html-button-response","36","805063","0.0-8.0-7.1-1.1","123","1","2025-07-02 10:20:03","80fe4187154257d5fb01684ea91b68b9","41.121.107.170","Mozilla/5.0 (Windows NT 10.0; Win64; x64) AppleWebKit/537.36 (KHTML, like Gecko) Chrome/138.0.0.0 Safari/537.36 Edg/138.0.0.0","WebKit","Edge","138.0.0.0","Windows","10.0","https://app.prolific.com/","en-US,en;q=0.9","6742fd0efbb5712e14e693e5","683db6dfa200031b80f2a654","68650764b057c03a103da975","6742fd0efbb5712e14e693e5","","","","","","","","","","","","","","","","","","","","","","","","","","","","","","","","","","","","","","","","","","","","","",""
"8003","","","{""bonus"":[""When I reach 80% of points""]}","survey-multi-select","37","813070","0.0-8.0-8.0-0.0","123","1","2025-07-02 10:20:03","80fe4187154257d5fb01684ea91b68b9","41.121.107.170","Mozilla/5.0 (Windows NT 10.0; Win64; x64) AppleWebKit/537.36 (KHTML, like Gecko) Chrome/138.0.0.0 Safari/537.36 Edg/138.0.0.0","WebKit","Edge","138.0.0.0","Windows","10.0","https://app.prolific.com/","en-US,en;q=0.9","6742fd0efbb5712e14e693e5","683db6dfa200031b80f2a654","68650764b057c03a103da975","6742fd0efbb5712e14e693e5","","","[0]","","","","quiz","","","","","","","","","","","","","","","","","","","","","","","","","","","","","","","","","","","","","false","",""
"2192","","<p align='center'><b>INCORRECT.</b> You receive 2 pounds extra when you reach 50% of points </p>","0","html-button-response","38","815270","0.0-8.0-8.0-1.0","123","1","2025-07-02 10:20:03","80fe4187154257d5fb01684ea91b68b9","41.121.107.170","Mozilla/5.0 (Windows NT 10.0; Win64; x64) AppleWebKit/537.36 (KHTML, like Gecko) Chrome/138.0.0.0 Safari/537.36 Edg/138.0.0.0","WebKit","Edge","138.0.0.0","Windows","10.0","https://app.prolific.com/","en-US,en;q=0.9","6742fd0efbb5712e14e693e5","683db6dfa200031b80f2a654","68650764b057c03a103da975","6742fd0efbb5712e14e693e5","","","","","","","","","","","","","","","","","","","","","","","","","","","","","","","","","","","","","","","","","","","","","",""
"2358","","","{""bonus"":[""When I reach 50% of points""]}","survey-multi-select","39","817633","0.0-8.0-8.1-0.1","123","1","2025-07-02 10:20:03","80fe4187154257d5fb01684ea91b68b9","41.121.107.170","Mozilla/5.0 (Windows NT 10.0; Win64; x64) AppleWebKit/537.36 (KHTML, like Gecko) Chrome/138.0.0.0 Safari/537.36 Edg/138.0.0.0","WebKit","Edge","138.0.0.0","Windows","10.0","https://app.prolific.com/","en-US,en;q=0.9","6742fd0efbb5712e14e693e5","683db6dfa200031b80f2a654","68650764b057c03a103da975","6742fd0efbb5712e14e693e5","","","[0]","","","","quiz","","","","","","","","","","","","","","","","","","","","","","","","","","","","","","","","","","","","","true","",""
"2033","","<p align='center'><b>CORRECT!</b> Indeed, you receive 2 pounds extra when you reach 50% of points.</p>","0","html-button-response","40","819669","0.0-8.0-8.1-1.1","123","1","2025-07-02 10:20:03","80fe4187154257d5fb01684ea91b68b9","41.121.107.170","Mozilla/5.0 (Windows NT 10.0; Win64; x64) AppleWebKit/537.36 (KHTML, like Gecko) Chrome/138.0.0.0 Safari/537.36 Edg/138.0.0.0","WebKit","Edge","138.0.0.0","Windows","10.0","https://app.prolific.com/","en-US,en;q=0.9","6742fd0efbb5712e14e693e5","683db6dfa200031b80f2a654","68650764b057c03a103da975","6742fd0efbb5712e14e693e5","","","","","","","","","","","","","","","","","","","","","","","","","","","","","","","","","","","","","","","","","","","","","",""
"4490","","","","instructions","41","824163","0.0-8.0-9.0","123","1","2025-07-02 10:20:03","80fe4187154257d5fb01684ea91b68b9","41.121.107.170","Mozilla/5.0 (Windows NT 10.0; Win64; x64) AppleWebKit/537.36 (KHTML, like Gecko) Chrome/138.0.0.0 Safari/537.36 Edg/138.0.0.0","WebKit","Edge","138.0.0.0","Windows","10.0","https://app.prolific.com/","en-US,en;q=0.9","6742fd0efbb5712e14e693e5","683db6dfa200031b80f2a654","68650764b057c03a103da975","6742fd0efbb5712e14e693e5","","[{""page_index"":0,""viewing_time"":4488}]","","","","","","","","","","","","","","","","","","","","","","","","","","","","","","","","","","","","","","","","","","","",""
"17010","","<p>Before you start with this game please answer the following three questions yourself. </p>
  <p>Through this game, we measure several aspects of your cognitive performance, such as reaction times, multi-tasking capabilities </p>
  <p>and the ability to assess the situation you are in.</p>
  <p></p>
  <p><b>How good do you usually are in such tasks?</b></p>","82","html-slider-response","42","841179","0.0-9.0-0.0","123","1","2025-07-02 10:20:03","80fe4187154257d5fb01684ea91b68b9","41.121.107.170","Mozilla/5.0 (Windows NT 10.0; Win64; x64) AppleWebKit/537.36 (KHTML, like Gecko) Chrome/138.0.0.0 Safari/537.36 Edg/138.0.0.0","WebKit","Edge","138.0.0.0","Windows","10.0","https://app.prolific.com/","en-US,en;q=0.9","6742fd0efbb5712e14e693e5","683db6dfa200031b80f2a654","68650764b057c03a103da975","6742fd0efbb5712e14e693e5","2025-07-02T10:34:06.845Z","","","","","","PreSkillQ","","","","","","","","","","","","","","","","","","","","","","","","","","","","","","","","","","","","","","50",""
"6231","","<div style=""width:500px;"">
  <p>How well do you think you will perform in this task compared to other participants?</p>
  </div>","88","html-slider-response","43","847412","0.0-9.0-1.0","123","1","2025-07-02 10:20:03","80fe4187154257d5fb01684ea91b68b9","41.121.107.170","Mozilla/5.0 (Windows NT 10.0; Win64; x64) AppleWebKit/537.36 (KHTML, like Gecko) Chrome/138.0.0.0 Safari/537.36 Edg/138.0.0.0","WebKit","Edge","138.0.0.0","Windows","10.0","https://app.prolific.com/","en-US,en;q=0.9","6742fd0efbb5712e14e693e5","683db6dfa200031b80f2a654","68650764b057c03a103da975","6742fd0efbb5712e14e693e5","2025-07-02T10:34:13.078Z","","","","","","PrePerfQ","","","","","","","","","","","","","","","","","","","","","","","","","","","","","","","","","","","","","","50",""
"4585","","<div style=""width:500px;"">
  <p>What best describes how you currently feel?</p>
  </div>","100","html-slider-response","44","851999","0.0-9.0-2.0","123","1","2025-07-02 10:20:03","80fe4187154257d5fb01684ea91b68b9","41.121.107.170","Mozilla/5.0 (Windows NT 10.0; Win64; x64) AppleWebKit/537.36 (KHTML, like Gecko) Chrome/138.0.0.0 Safari/537.36 Edg/138.0.0.0","WebKit","Edge","138.0.0.0","Windows","10.0","https://app.prolific.com/","en-US,en;q=0.9","6742fd0efbb5712e14e693e5","683db6dfa200031b80f2a654","68650764b057c03a103da975","6742fd0efbb5712e14e693e5","2025-07-02T10:34:17.665Z","","","","","","PreMotivationQ","","","","","","","","","","","","","","","","","","","","","","","","","","","","","","","","","","","","","","50",""
"","","","","ctl-task-cpt","45","879593","0.0-10.0-0.0","123","1","2025-07-02 10:20:03","80fe4187154257d5fb01684ea91b68b9","41.121.107.170","Mozilla/5.0 (Windows NT 10.0; Win64; x64) AppleWebKit/537.36 (KHTML, like Gecko) Chrome/138.0.0.0 Safari/537.36 Edg/138.0.0.0","WebKit","Edge","138.0.0.0","Windows","10.0","https://app.prolific.com/","en-US,en;q=0.9","6742fd0efbb5712e14e693e5","683db6dfa200031b80f2a654","68650764b057c03a103da975","6742fd0efbb5712e14e693e5","2025-07-02T10:34:45.259Z","","","","","","","","","","","","","","","","win-only","3","g1:SW,g2:NE","1","1","0","855801.7","2683.1","7686","24556.7","1","4","8","6","1","1","1","1","0","0.007575757575757576","1620.3","3000","1640","[""down"",""left""]","{""num_key_presses"":4,""num_perfect"":4,""num_errors"":0,""num_randdir"":0,""num_randdir_good_moves"":0,""num_whilered"":0,""num_whileblue"":0,""num_blue"":2,""num_good_moves"":4}","[410.3214133126395,427.82142761775424,1.1,410.3214133126395,427.82142761775424,102.7,410.3214133126395,427.82142761775424,205.1,410.3214133126395,427.82142761775424,312.7,410.3214133126395,427.82142761775424,414.1,410.3214133126395,427.82142761775424,515,410.3214133126395,427.82142761775424,620.2,410.3214133126395,427.82142761775424,722.2,366.5714133126395,467.82142761775424,824.1,271.5714133126395,552.8214276177542,932.3,179.0714133126395,639.0714276177542,1032.7,81.5714133126395,725.3214276177542,1138.4,66.5714133126395,741.5714276177542,1246,60.32141331263951,756.5714276177542,1360.4,60.32141331263951,760.3214276177542,1460.6,60.32141331263951,760.3214276177542,1561.7,60.32141331263951,760.3214276177542,1668.9,60.32141331263951,760.3214276177542,1768.9,60.32141331263951,760.3214276177542,1869.4,60.32141331263951,760.3214276177542,1974.1,60.32141331263951,760.3214276177542,2084.5,90.3214133126395,766.5714276177542,2186.9,261.5714133126395,789.0714276177542,2288.1,300.3214133126395,796.5714276177542,2391.2,302.8214133126395,796.5714276177542,2495.2,302.8214133126395,796.5714276177542,2605.1,302.8214133126395,796.5714276177542,2708.3,302.8214133126395,796.5714276177542,2811.1,302.8214133126395,796.5714276177542,2914.4,302.8214133126395,796.5714276177542,3015,302.8214133126395,796.5714276177542,3121,302.8214133126395,796.5714276177542,3223.1,302.8214133126395,796.5714276177542,3323.5,302.8214133126395,796.5714276177542,3425.2,302.8214133126395,796.5714276177542,3535.7,302.8214133126395,796.5714276177542,3640,302.8214133126395,796.5714276177542,3752.9,302.8214133126395,796.5714276177542,3854.7,302.8214133126395,796.5714276177542,3960.1,302.8214133126395,796.5714276177542,4070.1,302.8214133126395,796.5714276177542,4171,302.8214133126395,796.5714276177542,4273.7,302.8214133126395,796.5714276177542,4386.2,302.8214133126395,796.5714276177542,4486.7,302.8214133126395,796.5714276177542,4587.5,302.8214133126395,796.5714276177542,4689.5,302.8214133126395,796.5714276177542,4794.4,302.8214133126395,796.5714276177542,4894.9,302.8214133126395,796.5714276177542,4996.7]","[4423,4423,1980.8,2004.6,437.6,""smooth"",""left"",""left"",""good_move"",7732.5,3308.5,2754.6,4424,553.9,""smooth"",""left"",""left"",""good_move"",13799.2,6066.1,2213.5,11135.5,450.2,""smooth"",""down"",""down"",""good_move"",16754.4,2954.4,2607.5,13800,346.9,""smooth"",""down"",""down"",""good_move""]","","",""
"6503","","<div style=""width:500px;"">
  <p>What determined the result of this run?</p>
  </div>","100","html-slider-response","46","886100","0.0-10.0-1.0","123","1","2025-07-02 10:20:03","80fe4187154257d5fb01684ea91b68b9","41.121.107.170","Mozilla/5.0 (Windows NT 10.0; Win64; x64) AppleWebKit/537.36 (KHTML, like Gecko) Chrome/138.0.0.0 Safari/537.36 Edg/138.0.0.0","WebKit","Edge","138.0.0.0","Windows","10.0","https://app.prolific.com/","en-US,en;q=0.9","6742fd0efbb5712e14e693e5","683db6dfa200031b80f2a654","68650764b057c03a103da975","6742fd0efbb5712e14e693e5","2025-07-02T10:34:51.766Z","","","","","","AttribQ","","","","","","","","","","","","","","","","","","","","","","","","","","","","","","","","","","","","","","50",""
"5207","","<div style=""width:500px;"">
  <p>How much control did you have over the ball?</p>
  </div>","100","html-slider-response","47","891312","0.0-10.0-2.0","123","1","2025-07-02 10:20:03","80fe4187154257d5fb01684ea91b68b9","41.121.107.170","Mozilla/5.0 (Windows NT 10.0; Win64; x64) AppleWebKit/537.36 (KHTML, like Gecko) Chrome/138.0.0.0 Safari/537.36 Edg/138.0.0.0","WebKit","Edge","138.0.0.0","Windows","10.0","https://app.prolific.com/","en-US,en;q=0.9","6742fd0efbb5712e14e693e5","683db6dfa200031b80f2a654","68650764b057c03a103da975","6742fd0efbb5712e14e693e5","2025-07-02T10:34:56.979Z","","","","","","ControlQ","","","","","","","","","","","","","","","","","","","","","","","","","","","","","","","","","","","","","","50",""
"6085","","<div style=""width:500px;"">
  <p>How would you describe your current emotional state?</p>
  </div>","0","html-slider-response","48","897401","0.0-10.0-3.0","123","1","2025-07-02 10:20:03","80fe4187154257d5fb01684ea91b68b9","41.121.107.170","Mozilla/5.0 (Windows NT 10.0; Win64; x64) AppleWebKit/537.36 (KHTML, like Gecko) Chrome/138.0.0.0 Safari/537.36 Edg/138.0.0.0","WebKit","Edge","138.0.0.0","Windows","10.0","https://app.prolific.com/","en-US,en;q=0.9","6742fd0efbb5712e14e693e5","683db6dfa200031b80f2a654","68650764b057c03a103da975","6742fd0efbb5712e14e693e5","2025-07-02T10:35:03.068Z","","","","","","StressQ","","","","","","","","","","","","","","","","","","","","","","","","","","","","","","","","","","","","","","50",""
"4217","","<div style=""width:500px;"">
  <p>What best describes how you currently feel?</p>
  </div>","100","html-slider-response","49","901623","0.0-10.0-4.0","123","1","2025-07-02 10:20:03","80fe4187154257d5fb01684ea91b68b9","41.121.107.170","Mozilla/5.0 (Windows NT 10.0; Win64; x64) AppleWebKit/537.36 (KHTML, like Gecko) Chrome/138.0.0.0 Safari/537.36 Edg/138.0.0.0","WebKit","Edge","138.0.0.0","Windows","10.0","https://app.prolific.com/","en-US,en;q=0.9","6742fd0efbb5712e14e693e5","683db6dfa200031b80f2a654","68650764b057c03a103da975","6742fd0efbb5712e14e693e5","2025-07-02T10:35:07.289Z","","","","","","MotivationQ","","","","","","","","","","","","","","","","","","","","","","","","","","","","","","","","","","","","","","50",""
"","","","","ctl-task-cpt","50","942111","0.0-10.0-0.1","123","1","2025-07-02 10:20:03","80fe4187154257d5fb01684ea91b68b9","41.121.107.170","Mozilla/5.0 (Windows NT 10.0; Win64; x64) AppleWebKit/537.36 (KHTML, like Gecko) Chrome/138.0.0.0 Safari/537.36 Edg/138.0.0.0","WebKit","Edge","138.0.0.0","Windows","10.0","https://app.prolific.com/","en-US,en;q=0.9","6742fd0efbb5712e14e693e5","683db6dfa200031b80f2a654","68650764b057c03a103da975","6742fd0efbb5712e14e693e5","2025-07-02T10:35:47.777Z","","","","","","","","","","","","","","","","win-only","3","g1:SW,g2:NE","0.9","2","0","905418.2","2633","7636.4","37477.4","1","4","4","6","1","1","1","2","1","0.015151515151515152","2059.9","3000","325","[""down"",""left""]","{""num_key_presses"":8,""num_perfect"":7,""num_errors"":0,""num_randdir"":1,""num_randdir_good_moves"":0,""num_whilered"":0,""num_whileblue"":0,""num_blue"":2,""num_good_moves"":6}","[420.3214133126395,416.57142761775424,0.8,420.3214133126395,416.57142761775424,104.5,420.3214133126395,416.57142761775424,209.5,420.3214133126395,416.57142761775424,312.4,420.3214133126395,416.57142761775424,420.8,420.3214133126395,416.57142761775424,521.2,415.3214133126395,421.57142761775424,628.2,362.8214133126395,471.57142761775424,730.7,340.3214133126395,490.32142761775424,831.9,310.3214133126395,517.8214276177542,938,254.0714133126395,564.0714276177542,1039.3,226.5714133126395,587.8214276177542,1153.7,226.5714133126395,587.8214276177542,1263.6,216.5714133126395,596.5714276177542,1365,156.5714133126395,636.5714276177542,1475.8,100.3214133126395,701.5714276177542,1579.5,94.0714133126395,712.8214276177542,1689.3,94.0714133126395,721.5714276177542,1789.9,94.0714133126395,727.8214276177542,1891.2,94.0714133126395,727.8214276177542,2006.7,94.0714133126395,727.8214276177542,2120.6,94.0714133126395,727.8214276177542,2222.8,94.0714133126395,727.8214276177542,2327,94.0714133126395,727.8214276177542,2429.5,111.5714133126395,732.8214276177542,2537.5,250.3214133126395,755.3214276177542,2638.6,410.3214133126395,811.5714276177542,2748.5,530.3214133126395,836.5714276177542,2855.2,549.0714133126395,831.5714276177542,2960.8,549.0714133126395,831.5714276177542,3062,549.0714133126395,831.5714276177542,3173.2,549.0714133126395,831.5714276177542,3286.8,549.0714133126395,831.5714276177542,3388,549.0714133126395,831.5714276177542,3489,549.0714133126395,831.5714276177542,3597.2,549.0714133126395,831.5714276177542,3697.5,549.0714133126395,831.5714276177542,3800.7,549.0714133126395,831.5714276177542,3903.9,549.0714133126395,831.5714276177542,4004.8,549.0714133126395,831.5714276177542,4110.2,549.0714133126395,831.5714276177542,4220.6,549.0714133126395,831.5714276177542,4321.2,549.0714133126395,831.5714276177542,4437.3,549.0714133126395,831.5714276177542,4538.8,549.0714133126395,831.5714276177542,4645,549.0714133126395,831.5714276177542,4745.8,549.0714133126395,831.5714276177542,4849.7,549.0714133126395,831.5714276177542,4955]","[1505.9,1505.9,1000,0,505.9,""smooth"",""down"",""down"",""good_move"",4120.4,2613.2,1965.2,1507.2,648,""smooth"",""down"",""down"",""good_move"",7151.8,3030.3,2527.1,4121.6,503.1,""smooth"",""left"",""left"",""good_move"",9811.6,2658.4,2169.2,7153.3,489.1,""oops"",""left"",""right"",""bad_move"",12556.1,2743.4,2075,9812.8,668.3,""smooth"",""left"",""left"",""good_move"",19694.3,7137.3,2960.6,16347.5,386.2,""smooth"",""up"",""up"",""bad_move"",22417.7,2722.2,2252.5,19695.5,469.7,""smooth"",""left"",""left"",""good_move"",29711.1,7292.6,2978.2,26363.3,369.6,""smooth"",""down"",""down"",""good_move""]","","",""
"7319","","<div style=""width:500px;"">
  <p>What determined the result of this run?</p>
  </div>","71","html-slider-response","51","949433","0.0-10.0-1.1","123","1","2025-07-02 10:20:03","80fe4187154257d5fb01684ea91b68b9","41.121.107.170","Mozilla/5.0 (Windows NT 10.0; Win64; x64) AppleWebKit/537.36 (KHTML, like Gecko) Chrome/138.0.0.0 Safari/537.36 Edg/138.0.0.0","WebKit","Edge","138.0.0.0","Windows","10.0","https://app.prolific.com/","en-US,en;q=0.9","6742fd0efbb5712e14e693e5","683db6dfa200031b80f2a654","68650764b057c03a103da975","6742fd0efbb5712e14e693e5","2025-07-02T10:35:55.099Z","","","","","","AttribQ","","","","","","","","","","","","","","","","","","","","","","","","","","","","","","","","","","","","","","50",""
"3963","","<div style=""width:500px;"">
  <p>How much control did you have over the ball?</p>
  </div>","50","html-slider-response","52","953400","0.0-10.0-2.1","123","1","2025-07-02 10:20:03","80fe4187154257d5fb01684ea91b68b9","41.121.107.170","Mozilla/5.0 (Windows NT 10.0; Win64; x64) AppleWebKit/537.36 (KHTML, like Gecko) Chrome/138.0.0.0 Safari/537.36 Edg/138.0.0.0","WebKit","Edge","138.0.0.0","Windows","10.0","https://app.prolific.com/","en-US,en;q=0.9","6742fd0efbb5712e14e693e5","683db6dfa200031b80f2a654","68650764b057c03a103da975","6742fd0efbb5712e14e693e5","2025-07-02T10:35:59.067Z","","","","","","ControlQ","","","","","","","","","","","","","","","","","","","","","","","","","","","","","","","","","","","","","","50",""
"8738","","<div style=""width:500px;"">
  <p>How would you describe your current emotional state?</p>
  </div>","20","html-slider-response","53","962144","0.0-10.0-3.1","123","1","2025-07-02 10:20:03","80fe4187154257d5fb01684ea91b68b9","41.121.107.170","Mozilla/5.0 (Windows NT 10.0; Win64; x64) AppleWebKit/537.36 (KHTML, like Gecko) Chrome/138.0.0.0 Safari/537.36 Edg/138.0.0.0","WebKit","Edge","138.0.0.0","Windows","10.0","https://app.prolific.com/","en-US,en;q=0.9","6742fd0efbb5712e14e693e5","683db6dfa200031b80f2a654","68650764b057c03a103da975","6742fd0efbb5712e14e693e5","2025-07-02T10:36:07.811Z","","","","","","StressQ","","","","","","","","","","","","","","","","","","","","","","","","","","","","","","","","","","","","","","50",""
"4754","","<div style=""width:500px;"">
  <p>What best describes how you currently feel?</p>
  </div>","82","html-slider-response","54","966907","0.0-10.0-4.1","123","1","2025-07-02 10:20:03","80fe4187154257d5fb01684ea91b68b9","41.121.107.170","Mozilla/5.0 (Windows NT 10.0; Win64; x64) AppleWebKit/537.36 (KHTML, like Gecko) Chrome/138.0.0.0 Safari/537.36 Edg/138.0.0.0","WebKit","Edge","138.0.0.0","Windows","10.0","https://app.prolific.com/","en-US,en;q=0.9","6742fd0efbb5712e14e693e5","683db6dfa200031b80f2a654","68650764b057c03a103da975","6742fd0efbb5712e14e693e5","2025-07-02T10:36:12.574Z","","","","","","MotivationQ","","","","","","","","","","","","","","","","","","","","","","","","","","","","","","","","","","","","","","50",""
"","","","","ctl-task-cpt","55","1007244","0.0-10.0-0.2","123","1","2025-07-02 10:20:03","80fe4187154257d5fb01684ea91b68b9","41.121.107.170","Mozilla/5.0 (Windows NT 10.0; Win64; x64) AppleWebKit/537.36 (KHTML, like Gecko) Chrome/138.0.0.0 Safari/537.36 Edg/138.0.0.0","WebKit","Edge","138.0.0.0","Windows","10.0","https://app.prolific.com/","en-US,en;q=0.9","6742fd0efbb5712e14e693e5","683db6dfa200031b80f2a654","68650764b057c03a103da975","6742fd0efbb5712e14e693e5","2025-07-02T10:36:52.910Z","","","","","","","","","","","","","","","","win-only","0","g1:NW,g2:SE","0.8","3","0","970708.6","3119.4","8126.3","37313.4","1","4","8","6","2","8","8","10","2","0.07575757575757576","1986.1","3000","895","[""down"",""right""]","{""num_key_presses"":8,""num_perfect"":7,""num_errors"":0,""num_randdir"":1,""num_randdir_good_moves"":0,""num_whilered"":0,""num_whileblue"":0,""num_blue"":2,""num_good_moves"":7}","[415.3214133126395,420.32142761775424,0.9,415.3214133126395,420.32142761775424,104.2,415.3214133126395,420.32142761775424,206.7,415.3214133126395,420.32142761775424,308,415.3214133126395,420.32142761775424,416.3,415.3214133126395,420.32142761775424,518.8,415.3214133126395,420.32142761775424,619.7,415.3214133126395,420.32142761775424,729.2,415.3214133126395,420.32142761775424,834,415.3214133126395,420.32142761775424,941,415.3214133126395,420.32142761775424,1044.4,486.5714133126395,485.32142761775424,1153,586.5714133126395,566.5714276177542,1255.7,736.5714133126395,666.5714276177542,1367.2,825.3214133126395,749.0714276177542,1474,825.3214133126395,764.0714276177542,1582.2,797.8214133126395,780.3214276177542,1695.8,782.8214133126395,761.5714276177542,1796.9,782.8214133126395,761.5714276177542,1900.9,782.8214133126395,761.5714276177542,2004,782.8214133126395,761.5714276177542,2106.9,782.8214133126395,761.5714276177542,2211,782.8214133126395,761.5714276177542,2314.9,782.8214133126395,761.5714276177542,2421.2,706.5714133126395,776.5714276177542,2527.2,466.5714133126395,836.5714276177542,2640.9,447.8214133126395,854.0714276177542,2747.6,447.8214133126395,859.0714276177542,2850.5,450.3214133126395,862.8214276177542,2951.4,450.3214133126395,862.8214276177542,3054.6,450.3214133126395,862.8214276177542,3159.5,450.3214133126395,862.8214276177542,3259.6,450.3214133126395,862.8214276177542,3365.7,450.3214133126395,862.8214276177542,3470.7,450.3214133126395,862.8214276177542,3579.9,450.3214133126395,862.8214276177542,3686.3,450.3214133126395,862.8214276177542,3792.1,450.3214133126395,862.8214276177542,3894,450.3214133126395,862.8214276177542,4010.8,450.3214133126395,862.8214276177542,4114.1,450.3214133126395,862.8214276177542,4215.1,450.3214133126395,862.8214276177542,4318.8,450.3214133126395,862.8214276177542,4419.8,450.3214133126395,862.8214276177542,4521.9,450.3214133126395,862.8214276177542,4624.8,450.3214133126395,862.8214276177542,4730.5,450.3214133126395,862.8214276177542,4834.8,450.3214133126395,862.8214276177542,4948]","[1413.9,1413.9,1000,0,413.9,""smooth"",""down"",""down"",""good_move"",4540.3,3126,2734.2,1414.3,391.8,""smooth"",""right"",""right"",""good_move"",7336.7,2795,2215.7,4541.8,579.2,""smooth"",""down"",""down"",""good_move"",10200.6,2863.4,2478.5,7337.2,384.9,""oops"",""right"",""left"",""bad_move"",12683.3,2481.6,1907.5,10201.7,574.1,""smooth"",""down"",""down"",""good_move"",22330.5,9646.5,2493.3,19456.1,381.1,""smooth"",""right"",""right"",""good_move"",25695.1,3364,2986.1,22331.1,377.9,""smooth"",""right"",""right"",""good_move"",29033.8,3338.1,2965.5,25695.8,372.5,""smooth"",""right"",""right"",""good_move""]","","",""
"3965","","<div style=""width:500px;"">
  <p>What determined the result of this run?</p>
  </div>","50","html-slider-response","56","1011212","0.0-10.0-1.2","123","1","2025-07-02 10:20:03","80fe4187154257d5fb01684ea91b68b9","41.121.107.170","Mozilla/5.0 (Windows NT 10.0; Win64; x64) AppleWebKit/537.36 (KHTML, like Gecko) Chrome/138.0.0.0 Safari/537.36 Edg/138.0.0.0","WebKit","Edge","138.0.0.0","Windows","10.0","https://app.prolific.com/","en-US,en;q=0.9","6742fd0efbb5712e14e693e5","683db6dfa200031b80f2a654","68650764b057c03a103da975","6742fd0efbb5712e14e693e5","2025-07-02T10:36:56.879Z","","","","","","AttribQ","","","","","","","","","","","","","","","","","","","","","","","","","","","","","","","","","","","","","","50",""
"4940","","<div style=""width:500px;"">
  <p>How much control did you have over the ball?</p>
  </div>","50","html-slider-response","57","1016156","0.0-10.0-2.2","123","1","2025-07-02 10:20:03","80fe4187154257d5fb01684ea91b68b9","41.121.107.170","Mozilla/5.0 (Windows NT 10.0; Win64; x64) AppleWebKit/537.36 (KHTML, like Gecko) Chrome/138.0.0.0 Safari/537.36 Edg/138.0.0.0","WebKit","Edge","138.0.0.0","Windows","10.0","https://app.prolific.com/","en-US,en;q=0.9","6742fd0efbb5712e14e693e5","683db6dfa200031b80f2a654","68650764b057c03a103da975","6742fd0efbb5712e14e693e5","2025-07-02T10:37:01.822Z","","","","","","ControlQ","","","","","","","","","","","","","","","","","","","","","","","","","","","","","","","","","","","","","","50",""
"4945","","<div style=""width:500px;"">
  <p>How would you describe your current emotional state?</p>
  </div>","32","html-slider-response","58","1021104","0.0-10.0-3.2","123","1","2025-07-02 10:20:03","80fe4187154257d5fb01684ea91b68b9","41.121.107.170","Mozilla/5.0 (Windows NT 10.0; Win64; x64) AppleWebKit/537.36 (KHTML, like Gecko) Chrome/138.0.0.0 Safari/537.36 Edg/138.0.0.0","WebKit","Edge","138.0.0.0","Windows","10.0","https://app.prolific.com/","en-US,en;q=0.9","6742fd0efbb5712e14e693e5","683db6dfa200031b80f2a654","68650764b057c03a103da975","6742fd0efbb5712e14e693e5","2025-07-02T10:37:06.770Z","","","","","","StressQ","","","","","","","","","","","","","","","","","","","","","","","","","","","","","","","","","","","","","","50",""
"3756","","<div style=""width:500px;"">
  <p>What best describes how you currently feel?</p>
  </div>","70","html-slider-response","59","1024864","0.0-10.0-4.2","123","1","2025-07-02 10:20:03","80fe4187154257d5fb01684ea91b68b9","41.121.107.170","Mozilla/5.0 (Windows NT 10.0; Win64; x64) AppleWebKit/537.36 (KHTML, like Gecko) Chrome/138.0.0.0 Safari/537.36 Edg/138.0.0.0","WebKit","Edge","138.0.0.0","Windows","10.0","https://app.prolific.com/","en-US,en;q=0.9","6742fd0efbb5712e14e693e5","683db6dfa200031b80f2a654","68650764b057c03a103da975","6742fd0efbb5712e14e693e5","2025-07-02T10:37:10.530Z","","","","","","MotivationQ","","","","","","","","","","","","","","","","","","","","","","","","","","","","","","","","","","","","","","50",""
"","","","","ctl-task-cpt","60","1052719","0.0-10.0-0.3","123","1","2025-07-02 10:20:03","80fe4187154257d5fb01684ea91b68b9","41.121.107.170","Mozilla/5.0 (Windows NT 10.0; Win64; x64) AppleWebKit/537.36 (KHTML, like Gecko) Chrome/138.0.0.0 Safari/537.36 Edg/138.0.0.0","WebKit","Edge","138.0.0.0","Windows","10.0","https://app.prolific.com/","en-US,en;q=0.9","6742fd0efbb5712e14e693e5","683db6dfa200031b80f2a654","68650764b057c03a103da975","6742fd0efbb5712e14e693e5","2025-07-02T10:37:38.385Z","","","","","","","","","","","","","","","","win-only","1","g1:NE,g2:SW","0.7","4","0","1028659.2","1837.6","6839.3","24837","1","4","4","6","2","4","4","14","10","0.10606060606060606","2653.1","3000","1515","[""down"",""left""]","{""num_key_presses"":6,""num_perfect"":5,""num_errors"":0,""num_randdir"":1,""num_randdir_good_moves"":1,""num_whilered"":0,""num_whileblue"":0,""num_blue"":0,""num_good_moves"":6}","[416.5714133126395,414.07142761775424,0.5,416.5714133126395,414.07142761775424,101.6,416.5714133126395,414.07142761775424,203.1,416.5714133126395,414.07142761775424,303.5,416.5714133126395,414.07142761775424,414.1,416.5714133126395,414.07142761775424,514.4,416.5714133126395,414.07142761775424,620,416.5714133126395,414.07142761775424,730.6,416.5714133126395,414.07142761775424,831.1,416.5714133126395,414.07142761775424,934.2,416.5714133126395,414.07142761775424,1048.1,416.5714133126395,414.07142761775424,1162.8,416.5714133126395,414.07142761775424,1269,352.8214133126395,447.82142761775424,1371.5,319.0714133126395,480.32142761775424,1487.2,356.5714133126395,421.57142761775424,1596.2,475.3214133126395,274.07142761775424,1697.8,501.5714133126395,254.07142761775424,1799.2,329.0714133126395,435.32142761775424,1899.5,201.5714133126395,589.0714276177542,2003.9,96.5714133126395,722.8214276177542,2110.4,71.5714133126395,754.0714276177542,2213,64.0714133126395,766.5714276177542,2317,60.32141331263951,775.3214276177542,2420.1,60.32141331263951,776.5714276177542,2526.7,60.32141331263951,776.5714276177542,2631.8,60.32141331263951,776.5714276177542,2736.4,60.32141331263951,776.5714276177542,2844.8,60.32141331263951,776.5714276177542,2950.4,60.32141331263951,776.5714276177542,3052.2,60.32141331263951,776.5714276177542,3164.3,276.5714133126395,801.5714276177542,3271.1,350.3214133126395,821.5714276177542,3376.8,370.3214133126395,824.0714276177542,3477.3,370.3214133126395,824.0714276177542,3577.8,370.3214133126395,824.0714276177542,3679.6,370.3214133126395,824.0714276177542,3779.7,370.3214133126395,824.0714276177542,3883.4,370.3214133126395,824.0714276177542,3986,370.3214133126395,824.0714276177542,4090.4,370.3214133126395,824.0714276177542,4201.4,370.3214133126395,824.0714276177542,4302.4,370.3214133126395,824.0714276177542,4403.5,370.3214133126395,824.0714276177542,4511,370.3214133126395,824.0714276177542,4612.2,370.3214133126395,824.0714276177542,4715.6,370.3214133126395,824.0714276177542,4820.9,370.3214133126395,824.0714276177542,4929.1]","[1440.2,1440.2,1000,0,440.2,""smooth"",""down"",""down"",""good_move"",5008.3,3567.1,3177.3,1441.3,389.7,""oops"",""left"",""left"",""good_move"",7752,2742.7,2272.1,5009.4,470.5,""smooth"",""down"",""down"",""good_move"",10799.2,3046.6,2548.5,7752.6,498.1,""smooth"",""left"",""left"",""good_move"",14014.8,3215,2833,10799.8,382,""smooth"",""down"",""down"",""good_move"",17850.7,3835.1,3366.2,14015.6,468.9,""smooth"",""left"",""left"",""good_move""]","","",""
"6349","","<div style=""width:500px;"">
  <p>What determined the result of this run?</p>
  </div>","98","html-slider-response","61","1059070","0.0-10.0-1.3","123","1","2025-07-02 10:20:03","80fe4187154257d5fb01684ea91b68b9","41.121.107.170","Mozilla/5.0 (Windows NT 10.0; Win64; x64) AppleWebKit/537.36 (KHTML, like Gecko) Chrome/138.0.0.0 Safari/537.36 Edg/138.0.0.0","WebKit","Edge","138.0.0.0","Windows","10.0","https://app.prolific.com/","en-US,en;q=0.9","6742fd0efbb5712e14e693e5","683db6dfa200031b80f2a654","68650764b057c03a103da975","6742fd0efbb5712e14e693e5","2025-07-02T10:37:44.736Z","","","","","","AttribQ","","","","","","","","","","","","","","","","","","","","","","","","","","","","","","","","","","","","","","50",""
"5385","","<div style=""width:500px;"">
  <p>How much control did you have over the ball?</p>
  </div>","99","html-slider-response","62","1064457","0.0-10.0-2.3","123","1","2025-07-02 10:20:03","80fe4187154257d5fb01684ea91b68b9","41.121.107.170","Mozilla/5.0 (Windows NT 10.0; Win64; x64) AppleWebKit/537.36 (KHTML, like Gecko) Chrome/138.0.0.0 Safari/537.36 Edg/138.0.0.0","WebKit","Edge","138.0.0.0","Windows","10.0","https://app.prolific.com/","en-US,en;q=0.9","6742fd0efbb5712e14e693e5","683db6dfa200031b80f2a654","68650764b057c03a103da975","6742fd0efbb5712e14e693e5","2025-07-02T10:37:50.123Z","","","","","","ControlQ","","","","","","","","","","","","","","","","","","","","","","","","","","","","","","","","","","","","","","50",""
"9257","","<div style=""width:500px;"">
  <p>How would you describe your current emotional state?</p>
  </div>","18","html-slider-response","63","1073718","0.0-10.0-3.3","123","1","2025-07-02 10:20:03","80fe4187154257d5fb01684ea91b68b9","41.121.107.170","Mozilla/5.0 (Windows NT 10.0; Win64; x64) AppleWebKit/537.36 (KHTML, like Gecko) Chrome/138.0.0.0 Safari/537.36 Edg/138.0.0.0","WebKit","Edge","138.0.0.0","Windows","10.0","https://app.prolific.com/","en-US,en;q=0.9","6742fd0efbb5712e14e693e5","683db6dfa200031b80f2a654","68650764b057c03a103da975","6742fd0efbb5712e14e693e5","2025-07-02T10:37:59.384Z","","","","","","StressQ","","","","","","","","","","","","","","","","","","","","","","","","","","","","","","","","","","","","","","50",""
"6025","","<div style=""width:500px;"">
  <p>What best describes how you currently feel?</p>
  </div>","84","html-slider-response","64","1079747","0.0-10.0-4.3","123","1","2025-07-02 10:20:03","80fe4187154257d5fb01684ea91b68b9","41.121.107.170","Mozilla/5.0 (Windows NT 10.0; Win64; x64) AppleWebKit/537.36 (KHTML, like Gecko) Chrome/138.0.0.0 Safari/537.36 Edg/138.0.0.0","WebKit","Edge","138.0.0.0","Windows","10.0","https://app.prolific.com/","en-US,en;q=0.9","6742fd0efbb5712e14e693e5","683db6dfa200031b80f2a654","68650764b057c03a103da975","6742fd0efbb5712e14e693e5","2025-07-02T10:38:05.413Z","","","","","","MotivationQ","","","","","","","","","","","","","","","","","","","","","","","","","","","","","","","","","","","","","","50",""
"","","","","ctl-task-cpt","65","1109002","0.0-10.0-0.4","123","1","2025-07-02 10:20:03","80fe4187154257d5fb01684ea91b68b9","41.121.107.170","Mozilla/5.0 (Windows NT 10.0; Win64; x64) AppleWebKit/537.36 (KHTML, like Gecko) Chrome/138.0.0.0 Safari/537.36 Edg/138.0.0.0","WebKit","Edge","138.0.0.0","Windows","10.0","https://app.prolific.com/","en-US,en;q=0.9","6742fd0efbb5712e14e693e5","683db6dfa200031b80f2a654","68650764b057c03a103da975","6742fd0efbb5712e14e693e5","2025-07-02T10:38:34.669Z","","","","","","","","","","","","","","","","win-only","1","g1:NE,g2:SW","0.6","5","0","1083541.5","2122.9","7129.6","26229.5","1","4","4","6","2","4","4","18","14","0.13636363636363635","2528.8","3000","1250","[""down"",""left""]","{""num_key_presses"":6,""num_perfect"":4,""num_errors"":0,""num_randdir"":2,""num_randdir_good_moves"":2,""num_whilered"":0,""num_whileblue"":0,""num_blue"":1,""num_good_moves"":6}","[415.3214133126395,419.07142761775424,0.5,415.3214133126395,419.07142761775424,103.8,415.3214133126395,419.07142761775424,223.9,415.3214133126395,419.07142761775424,331,415.3214133126395,419.07142761775424,431.1,415.3214133126395,419.07142761775424,531.4,415.3214133126395,419.07142761775424,633.5,415.3214133126395,419.07142761775424,733.5,415.3214133126395,419.07142761775424,842,415.3214133126395,419.07142761775424,950,415.3214133126395,419.07142761775424,1061.2,309.0714133126395,499.07142761775424,1162.7,206.5714133126395,591.5714276177542,1264.2,164.0714133126395,630.3214276177542,1372.5,130.3214133126395,661.5714276177542,1473.3,119.0714133126395,671.5714276177542,1576.6,109.0714133126395,690.3214276177542,1679.4,106.5714133126395,696.5714276177542,1782.6,106.5714133126395,701.5714276177542,1883.7,106.5714133126395,696.5714276177542,1987.2,106.5714133126395,696.5714276177542,2090.1,102.8214133126395,706.5714276177542,2190.6,96.5714133126395,714.0714276177542,2293.2,96.5714133126395,715.3214276177542,2397.2,96.5714133126395,715.3214276177542,2509.4,96.5714133126395,715.3214276177542,2617.6,96.5714133126395,715.3214276177542,2727,96.5714133126395,715.3214276177542,2829.4,96.5714133126395,715.3214276177542,2934.2,96.5714133126395,715.3214276177542,3043.4,96.5714133126395,715.3214276177542,3149.2,115.3214133126395,715.3214276177542,3255.4,215.3214133126395,736.5714276177542,3357.9,321.5714133126395,766.5714276177542,3468.1,340.3214133126395,772.8214276177542,3570.4,340.3214133126395,772.8214276177542,3676.3,340.3214133126395,772.8214276177542,3779.9,340.3214133126395,772.8214276177542,3890.2,340.3214133126395,772.8214276177542,3993.7,340.3214133126395,772.8214276177542,4095.5,340.3214133126395,772.8214276177542,4201.1,340.3214133126395,772.8214276177542,4305.3,340.3214133126395,772.8214276177542,4406,340.3214133126395,772.8214276177542,4507.4,340.3214133126395,772.8214276177542,4621.1,340.3214133126395,772.8214276177542,4722.6,340.3214133126395,772.8214276177542,4826.7,340.3214133126395,772.8214276177542,4930.3]","[1518.6,1518.6,1000,0,518.6,""oops"",""down"",""down"",""good_move"",7372.9,5853.2,2117.7,4916.7,338.5,""smooth"",""left"",""left"",""good_move"",10312,2937.8,2221,7374.2,716.8,""oops"",""left"",""down"",""good_move"",13208.3,2895.7,2267,10312.6,628.7,""smooth"",""left"",""left"",""good_move"",16595.8,3386.9,2951.6,13208.9,435.3,""smooth"",""left"",""left"",""good_move"",18951.9,2355.5,1857.4,16596.4,498.1,""smooth"",""down"",""down"",""good_move""]","","",""
"5854","","<div style=""width:500px;"">
  <p>What determined the result of this run?</p>
  </div>","62","html-slider-response","66","1114862","0.0-10.0-1.4","123","1","2025-07-02 10:20:03","80fe4187154257d5fb01684ea91b68b9","41.121.107.170","Mozilla/5.0 (Windows NT 10.0; Win64; x64) AppleWebKit/537.36 (KHTML, like Gecko) Chrome/138.0.0.0 Safari/537.36 Edg/138.0.0.0","WebKit","Edge","138.0.0.0","Windows","10.0","https://app.prolific.com/","en-US,en;q=0.9","6742fd0efbb5712e14e693e5","683db6dfa200031b80f2a654","68650764b057c03a103da975","6742fd0efbb5712e14e693e5","2025-07-02T10:38:40.528Z","","","","","","AttribQ","","","","","","","","","","","","","","","","","","","","","","","","","","","","","","","","","","","","","","50",""
"4666","","<div style=""width:500px;"">
  <p>How much control did you have over the ball?</p>
  </div>","58","html-slider-response","67","1119532","0.0-10.0-2.4","123","1","2025-07-02 10:20:03","80fe4187154257d5fb01684ea91b68b9","41.121.107.170","Mozilla/5.0 (Windows NT 10.0; Win64; x64) AppleWebKit/537.36 (KHTML, like Gecko) Chrome/138.0.0.0 Safari/537.36 Edg/138.0.0.0","WebKit","Edge","138.0.0.0","Windows","10.0","https://app.prolific.com/","en-US,en;q=0.9","6742fd0efbb5712e14e693e5","683db6dfa200031b80f2a654","68650764b057c03a103da975","6742fd0efbb5712e14e693e5","2025-07-02T10:38:45.199Z","","","","","","ControlQ","","","","","","","","","","","","","","","","","","","","","","","","","","","","","","","","","","","","","","50",""
"5706","","<div style=""width:500px;"">
  <p>How would you describe your current emotional state?</p>
  </div>","38","html-slider-response","68","1125242","0.0-10.0-3.4","123","1","2025-07-02 10:20:03","80fe4187154257d5fb01684ea91b68b9","41.121.107.170","Mozilla/5.0 (Windows NT 10.0; Win64; x64) AppleWebKit/537.36 (KHTML, like Gecko) Chrome/138.0.0.0 Safari/537.36 Edg/138.0.0.0","WebKit","Edge","138.0.0.0","Windows","10.0","https://app.prolific.com/","en-US,en;q=0.9","6742fd0efbb5712e14e693e5","683db6dfa200031b80f2a654","68650764b057c03a103da975","6742fd0efbb5712e14e693e5","2025-07-02T10:38:50.908Z","","","","","","StressQ","","","","","","","","","","","","","","","","","","","","","","","","","","","","","","","","","","","","","","50",""
"5040","","<div style=""width:500px;"">
  <p>What best describes how you currently feel?</p>
  </div>","67","html-slider-response","69","1130285","0.0-10.0-4.4","123","1","2025-07-02 10:20:03","80fe4187154257d5fb01684ea91b68b9","41.121.107.170","Mozilla/5.0 (Windows NT 10.0; Win64; x64) AppleWebKit/537.36 (KHTML, like Gecko) Chrome/138.0.0.0 Safari/537.36 Edg/138.0.0.0","WebKit","Edge","138.0.0.0","Windows","10.0","https://app.prolific.com/","en-US,en;q=0.9","6742fd0efbb5712e14e693e5","683db6dfa200031b80f2a654","68650764b057c03a103da975","6742fd0efbb5712e14e693e5","2025-07-02T10:38:55.951Z","","","","","","MotivationQ","","","","","","","","","","","","","","","","","","","","","","","","","","","","","","","","","","","","","","50",""
"","","","","ctl-task-cpt","70","1166759","0.0-10.0-0.5","123","1","2025-07-02 10:20:03","80fe4187154257d5fb01684ea91b68b9","41.121.107.170","Mozilla/5.0 (Windows NT 10.0; Win64; x64) AppleWebKit/537.36 (KHTML, like Gecko) Chrome/138.0.0.0 Safari/537.36 Edg/138.0.0.0","WebKit","Edge","138.0.0.0","Windows","10.0","https://app.prolific.com/","en-US,en;q=0.9","6742fd0efbb5712e14e693e5","683db6dfa200031b80f2a654","68650764b057c03a103da975","6742fd0efbb5712e14e693e5","2025-07-02T10:39:32.425Z","","","","","","","","","","","","","","","","win-only","1","g1:NE,g2:SW","0.5","6","0","1134084.7","2652.5","7668.4","33440.9","1","4","8","6","1","1","1","19","18","0.14393939393939395","2161.5","3000","1510","[""up"",""right""]","{""num_key_presses"":8,""num_perfect"":4,""num_errors"":0,""num_randdir"":4,""num_randdir_good_moves"":2,""num_whilered"":0,""num_whileblue"":0,""num_blue"":1,""num_good_moves"":6}","[412.8214133126395,415.32142761775424,1,412.8214133126395,415.32142761775424,109.2,412.8214133126395,415.32142761775424,211.6,412.8214133126395,415.32142761775424,318.2,412.8214133126395,415.32142761775424,423.8,412.8214133126395,415.32142761775424,524.3,412.8214133126395,415.32142761775424,624.5,412.8214133126395,415.32142761775424,730.1,412.8214133126395,415.32142761775424,832.6,425.3214133126395,430.32142761775424,940.1,425.3214133126395,449.07142761775424,1050.1,377.8214133126395,515.3214276177542,1150.2,345.3214133126395,545.3214276177542,1255.7,329.0714133126395,556.5714276177542,1366.3,502.8214133126395,294.07142761775424,1473.1,636.5714133126395,152.82142761775424,1576.2,690.3214133126395,96.57142761775425,1688,710.3214133126395,77.82142761775425,1791.5,715.3214133126395,75.32142761775425,1892.7,722.8214133126395,71.57142761775425,1997,722.8214133126395,71.57142761775425,2106.5,722.8214133126395,71.57142761775425,2210.7,722.8214133126395,71.57142761775425,2315.1,722.8214133126395,71.57142761775425,2421.6,722.8214133126395,71.57142761775425,2522.6,722.8214133126395,71.57142761775425,2628.5,722.8214133126395,71.57142761775425,2732.6,722.8214133126395,71.57142761775425,2834.4,722.8214133126395,71.57142761775425,2937.9,722.8214133126395,71.57142761775425,3038,722.8214133126395,71.57142761775425,3146.6,722.8214133126395,71.57142761775425,3248.9,722.8214133126395,71.57142761775425,3349,722.8214133126395,71.57142761775425,3453.9,722.8214133126395,71.57142761775425,3554.2,722.8214133126395,71.57142761775425,3663.9,722.8214133126395,71.57142761775425,3770.2,722.8214133126395,71.57142761775425,3875.5,722.8214133126395,71.57142761775425,3979.7,722.8214133126395,71.57142761775425,4081,722.8214133126395,71.57142761775425,4182.1,722.8214133126395,71.57142761775425,4282.7,722.8214133126395,71.57142761775425,4384.8,722.8214133126395,71.57142761775425,4497.1,722.8214133126395,71.57142761775425,4602.6,722.8214133126395,71.57142761775425,4703,722.8214133126395,71.57142761775425,4807.7,722.8214133126395,71.57142761775425,4921.8]","[1405.8,1405.8,1000,0,405.8,""oops"",""up"",""right"",""good_move"",4494.7,3087.9,2699.7,1406.8,388.2,""smooth"",""up"",""up"",""good_move"",8662.4,4166.7,3670.7,4495.7,496,""smooth"",""up"",""up"",""good_move"",13997.4,5334.1,1987,11678.4,332,""oops"",""right"",""left"",""bad_move"",17068.8,3070.3,2770.1,13998.5,300.2,""smooth"",""right"",""right"",""good_move"",19917.2,2847.1,2361,17070.2,486,""oops"",""right"",""down"",""bad_move"",22725.4,2807.4,2157.8,19918,649.6,""smooth"",""right"",""right"",""good_move"",25488.2,2762.3,2239.9,22725.9,522.4,""oops"",""up"",""up"",""good_move""]","","",""
"5948","","<div style=""width:500px;"">
  <p>What determined the result of this run?</p>
  </div>","50","html-slider-response","71","1172715","0.0-10.0-1.5","123","1","2025-07-02 10:20:03","80fe4187154257d5fb01684ea91b68b9","41.121.107.170","Mozilla/5.0 (Windows NT 10.0; Win64; x64) AppleWebKit/537.36 (KHTML, like Gecko) Chrome/138.0.0.0 Safari/537.36 Edg/138.0.0.0","WebKit","Edge","138.0.0.0","Windows","10.0","https://app.prolific.com/","en-US,en;q=0.9","6742fd0efbb5712e14e693e5","683db6dfa200031b80f2a654","68650764b057c03a103da975","6742fd0efbb5712e14e693e5","2025-07-02T10:39:38.382Z","","","","","","AttribQ","","","","","","","","","","","","","","","","","","","","","","","","","","","","","","","","","","","","","","50",""
"6090","","<div style=""width:500px;"">
  <p>How much control did you have over the ball?</p>
  </div>","41","html-slider-response","72","1178809","0.0-10.0-2.5","123","1","2025-07-02 10:20:03","80fe4187154257d5fb01684ea91b68b9","41.121.107.170","Mozilla/5.0 (Windows NT 10.0; Win64; x64) AppleWebKit/537.36 (KHTML, like Gecko) Chrome/138.0.0.0 Safari/537.36 Edg/138.0.0.0","WebKit","Edge","138.0.0.0","Windows","10.0","https://app.prolific.com/","en-US,en;q=0.9","6742fd0efbb5712e14e693e5","683db6dfa200031b80f2a654","68650764b057c03a103da975","6742fd0efbb5712e14e693e5","2025-07-02T10:39:44.475Z","","","","","","ControlQ","","","","","","","","","","","","","","","","","","","","","","","","","","","","","","","","","","","","","","50",""
"5157","","<div style=""width:500px;"">
  <p>How would you describe your current emotional state?</p>
  </div>","50","html-slider-response","73","1183968","0.0-10.0-3.5","123","1","2025-07-02 10:20:03","80fe4187154257d5fb01684ea91b68b9","41.121.107.170","Mozilla/5.0 (Windows NT 10.0; Win64; x64) AppleWebKit/537.36 (KHTML, like Gecko) Chrome/138.0.0.0 Safari/537.36 Edg/138.0.0.0","WebKit","Edge","138.0.0.0","Windows","10.0","https://app.prolific.com/","en-US,en;q=0.9","6742fd0efbb5712e14e693e5","683db6dfa200031b80f2a654","68650764b057c03a103da975","6742fd0efbb5712e14e693e5","2025-07-02T10:39:49.635Z","","","","","","StressQ","","","","","","","","","","","","","","","","","","","","","","","","","","","","","","","","","","","","","","50",""
"4904","","<div style=""width:500px;"">
  <p>What best describes how you currently feel?</p>
  </div>","50","html-slider-response","74","1188875","0.0-10.0-4.5","123","1","2025-07-02 10:20:03","80fe4187154257d5fb01684ea91b68b9","41.121.107.170","Mozilla/5.0 (Windows NT 10.0; Win64; x64) AppleWebKit/537.36 (KHTML, like Gecko) Chrome/138.0.0.0 Safari/537.36 Edg/138.0.0.0","WebKit","Edge","138.0.0.0","Windows","10.0","https://app.prolific.com/","en-US,en;q=0.9","6742fd0efbb5712e14e693e5","683db6dfa200031b80f2a654","68650764b057c03a103da975","6742fd0efbb5712e14e693e5","2025-07-02T10:39:54.541Z","","","","","","MotivationQ","","","","","","","","","","","","","","","","","","","","","","","","","","","","","","","","","","","","","","50",""
"","","","","ctl-task-cpt","75","1225209","0.0-10.0-0.6","123","1","2025-07-02 10:20:03","80fe4187154257d5fb01684ea91b68b9","41.121.107.170","Mozilla/5.0 (Windows NT 10.0; Win64; x64) AppleWebKit/537.36 (KHTML, like Gecko) Chrome/138.0.0.0 Safari/537.36 Edg/138.0.0.0","WebKit","Edge","138.0.0.0","Windows","10.0","https://app.prolific.com/","en-US,en;q=0.9","6742fd0efbb5712e14e693e5","683db6dfa200031b80f2a654","68650764b057c03a103da975","6742fd0efbb5712e14e693e5","2025-07-02T10:40:30.876Z","","","","","","","","","","","","","","","","win-only","0","g1:NW,g2:SE","0.4","7","0","1192670.3","2001.3","7015.7","33319.4","1","4","8","6","2","8","8","27","19","0.20454545454545456","2111.4","3000","1625","[""down"",""right""]","{""num_key_presses"":8,""num_perfect"":3,""num_errors"":0,""num_randdir"":5,""num_randdir_good_moves"":4,""num_whilered"":0,""num_whileblue"":0,""num_blue"":1,""num_good_moves"":7}","[417.8214133126395,410.32142761775424,0.7,417.8214133126395,410.32142761775424,113.4,417.8214133126395,410.32142761775424,228.2,417.8214133126395,410.32142761775424,337.9,417.8214133126395,410.32142761775424,439.7,417.8214133126395,410.32142761775424,539.9,417.8214133126395,410.32142761775424,640.2,417.8214133126395,410.32142761775424,751.5,417.8214133126395,410.32142761775424,853.6,452.8214133126395,447.82142761775424,954.8,484.0714133126395,482.82142761775424,1063.3,531.5714133126395,541.5714276177542,1179.3,566.5714133126395,596.5714276177542,1290.6,611.5714133126395,671.5714276177542,1402.2,671.5714133126395,731.5714276177542,1508.4,732.8214133126395,757.8214276177542,1610.1,764.0714133126395,780.3214276177542,1715.1,776.5714133126395,795.3214276177542,1816.4,781.5714133126395,797.8214276177542,1927.9,781.5714133126395,797.8214276177542,2028.8,781.5714133126395,797.8214276177542,2133.6,781.5714133126395,797.8214276177542,2241.8,781.5714133126395,797.8214276177542,2343.8,781.5714133126395,797.8214276177542,2448,781.5714133126395,797.8214276177542,2551.8,781.5714133126395,797.8214276177542,2654.5,745.3214133126395,815.3214276177542,2761.7,670.3214133126395,841.5714276177542,2871.5,631.5714133126395,860.3214276177542,2980.8,631.5714133126395,860.3214276177542,3086.3,631.5714133126395,860.3214276177542,3199.4,631.5714133126395,860.3214276177542,3431.1,631.5714133126395,860.3214276177542,3534.4,631.5714133126395,860.3214276177542,3635.1,631.5714133126395,860.3214276177542,3736.5,631.5714133126395,860.3214276177542,3842.5,631.5714133126395,860.3214276177542,3946.4,631.5714133126395,860.3214276177542,4059,631.5714133126395,860.3214276177542,4159,631.5714133126395,860.3214276177542,4268.3,631.5714133126395,860.3214276177542,4373.2,631.5714133126395,860.3214276177542,4480.6,631.5714133126395,860.3214276177542,4597.1,631.5714133126395,860.3214276177542,4709.4,631.5714133126395,860.3214276177542,4814.2,631.5714133126395,860.3214276177542,4920.2]","[1434.2,1434.2,1000,0,434.2,""smooth"",""down"",""down"",""good_move"",4483.3,3048.4,2395.4,1434.9,653.1,""smooth"",""down"",""down"",""good_move"",7594.3,3110.3,2655.9,4484,454.4,""oops"",""down"",""right"",""good_move"",14015.4,6420.8,2577.2,11066.4,371.8,""smooth"",""down"",""down"",""good_move"",17099.4,3083.6,2519,14015.8,564.6,""oops"",""right"",""right"",""good_move"",20323.3,3223.2,2712.4,17100.1,510.8,""oops"",""right"",""left"",""bad_move"",23436.5,3111.8,2447.6,20324.7,664.2,""oops"",""right"",""right"",""good_move"",26126,2688.6,2214.8,23437.5,473.8,""oops"",""up"",""right"",""good_move""]","","",""
"6433","","<div style=""width:500px;"">
  <p>What determined the result of this run?</p>
  </div>","62","html-slider-response","76","1231646","0.0-10.0-1.6","123","1","2025-07-02 10:20:03","80fe4187154257d5fb01684ea91b68b9","41.121.107.170","Mozilla/5.0 (Windows NT 10.0; Win64; x64) AppleWebKit/537.36 (KHTML, like Gecko) Chrome/138.0.0.0 Safari/537.36 Edg/138.0.0.0","WebKit","Edge","138.0.0.0","Windows","10.0","https://app.prolific.com/","en-US,en;q=0.9","6742fd0efbb5712e14e693e5","683db6dfa200031b80f2a654","68650764b057c03a103da975","6742fd0efbb5712e14e693e5","2025-07-02T10:40:37.312Z","","","","","","AttribQ","","","","","","","","","","","","","","","","","","","","","","","","","","","","","","","","","","","","","","50",""
"4762","","<div style=""width:500px;"">
  <p>How much control did you have over the ball?</p>
  </div>","50","html-slider-response","77","1236410","0.0-10.0-2.6","123","1","2025-07-02 10:20:03","80fe4187154257d5fb01684ea91b68b9","41.121.107.170","Mozilla/5.0 (Windows NT 10.0; Win64; x64) AppleWebKit/537.36 (KHTML, like Gecko) Chrome/138.0.0.0 Safari/537.36 Edg/138.0.0.0","WebKit","Edge","138.0.0.0","Windows","10.0","https://app.prolific.com/","en-US,en;q=0.9","6742fd0efbb5712e14e693e5","683db6dfa200031b80f2a654","68650764b057c03a103da975","6742fd0efbb5712e14e693e5","2025-07-02T10:40:42.077Z","","","","","","ControlQ","","","","","","","","","","","","","","","","","","","","","","","","","","","","","","","","","","","","","","50",""
"5771","","<div style=""width:500px;"">
  <p>How would you describe your current emotional state?</p>
  </div>","36","html-slider-response","78","1242189","0.0-10.0-3.6","123","1","2025-07-02 10:20:03","80fe4187154257d5fb01684ea91b68b9","41.121.107.170","Mozilla/5.0 (Windows NT 10.0; Win64; x64) AppleWebKit/537.36 (KHTML, like Gecko) Chrome/138.0.0.0 Safari/537.36 Edg/138.0.0.0","WebKit","Edge","138.0.0.0","Windows","10.0","https://app.prolific.com/","en-US,en;q=0.9","6742fd0efbb5712e14e693e5","683db6dfa200031b80f2a654","68650764b057c03a103da975","6742fd0efbb5712e14e693e5","2025-07-02T10:40:47.855Z","","","","","","StressQ","","","","","","","","","","","","","","","","","","","","","","","","","","","","","","","","","","","","","","50",""
"4686","","<div style=""width:500px;"">
  <p>What best describes how you currently feel?</p>
  </div>","61","html-slider-response","79","1246879","0.0-10.0-4.6","123","1","2025-07-02 10:20:03","80fe4187154257d5fb01684ea91b68b9","41.121.107.170","Mozilla/5.0 (Windows NT 10.0; Win64; x64) AppleWebKit/537.36 (KHTML, like Gecko) Chrome/138.0.0.0 Safari/537.36 Edg/138.0.0.0","WebKit","Edge","138.0.0.0","Windows","10.0","https://app.prolific.com/","en-US,en;q=0.9","6742fd0efbb5712e14e693e5","683db6dfa200031b80f2a654","68650764b057c03a103da975","6742fd0efbb5712e14e693e5","2025-07-02T10:40:52.545Z","","","","","","MotivationQ","","","","","","","","","","","","","","","","","","","","","","","","","","","","","","","","","","","","","","50",""
"","","","","ctl-task-cpt","80","1325930","0.0-10.0-0.7","123","1","2025-07-02 10:20:03","80fe4187154257d5fb01684ea91b68b9","41.121.107.170","Mozilla/5.0 (Windows NT 10.0; Win64; x64) AppleWebKit/537.36 (KHTML, like Gecko) Chrome/138.0.0.0 Safari/537.36 Edg/138.0.0.0","WebKit","Edge","138.0.0.0","Windows","10.0","https://app.prolific.com/","en-US,en;q=0.9","6742fd0efbb5712e14e693e5","683db6dfa200031b80f2a654","68650764b057c03a103da975","6742fd0efbb5712e14e693e5","2025-07-02T10:42:11.598Z","","","","","","","","","","","","","","","","win-only","2","g1:SE,g2:NW","0.3","8","0","1250673.2","4517.9","9524.1","76028.8","1","4","4","6","2","-4","-4","23","27","0.17424242424242425","1826.8","3000","-1265","[""left"",""up""]","{""num_key_presses"":13,""num_perfect"":4,""num_errors"":0,""num_randdir"":9,""num_randdir_good_moves"":3,""num_whilered"":0,""num_whileblue"":0,""num_blue"":7,""num_good_moves"":7}","[421.5714133126395,414.07142761775424,1.5,421.5714133126395,414.07142761775424,107.6,421.5714133126395,414.07142761775424,222.5,421.5714133126395,414.07142761775424,324.8,421.5714133126395,414.07142761775424,430,421.5714133126395,414.07142761775424,537.6,421.5714133126395,414.07142761775424,639.8,421.5714133126395,414.07142761775424,745.4,421.5714133126395,414.07142761775424,856.3,421.5714133126395,414.07142761775424,970.2,421.5714133126395,414.07142761775424,1071.6,334.0714133126395,280.32142761775424,1181.6,231.5714133126395,140.32142761775424,1298.5,172.8214133126395,100.32142761775425,1416.2,76.5714133126395,81.57142761775425,1517.8,56.57141331263951,81.57142761775425,1626.6,54.07141331263951,81.57142761775425,1739.2,54.07141331263951,81.57142761775425,1840.8,54.07141331263951,81.57142761775425,1944.3,54.07141331263951,81.57142761775425,2046.9,54.07141331263951,81.57142761775425,2149.8,54.07141331263951,81.57142761775425,2253.1,54.07141331263951,81.57142761775425,2355.3,-58.42858668736049,169.07142761775424,2465.6,-108.4285866873605,271.57142761775424,2577.9,-122.1785866873605,354.07142761775424,2680.3,-124.6785866873605,380.32142761775424,2805.4,-124.6785866873605,380.32142761775424,2912,-124.6785866873605,380.32142761775424,3022.6,-124.6785866873605,380.32142761775424,3131,-124.6785866873605,380.32142761775424,3248,-124.6785866873605,380.32142761775424,3351.3,-124.6785866873605,380.32142761775424,3461.4,-124.6785866873605,380.32142761775424,3566.4,-124.6785866873605,380.32142761775424,3672.5,-124.6785866873605,380.32142761775424,3774.4,-124.6785866873605,380.32142761775424,3893.1,-124.6785866873605,380.32142761775424,3994.4,-124.6785866873605,380.32142761775424,4102.2,-124.6785866873605,380.32142761775424,4213.4,-124.6785866873605,380.32142761775424,4316,-124.6785866873605,380.32142761775424,4429.7,-124.6785866873605,380.32142761775424,4546.5,-124.6785866873605,380.32142761775424,4649.7,-124.6785866873605,380.32142761775424,4755.6,-124.6785866873605,380.32142761775424,4862.7,-124.6785866873605,380.32142761775424,4967.9]","[1406.3,1406.3,1000,0,406.3,""oops"",""up"",""right"",""bad_move"",4574.2,3167.2,2637,1407,530.2,""oops"",""up"",""left"",""good_move"",10872.1,6297,2481.7,8040.2,350.2,""oops"",""left"",""right"",""bad_move"",16502.6,5630.1,1545.7,14432,524.9,""smooth"",""up"",""up"",""good_move"",24172.8,7669.6,2507,21248.3,417.5,""oops"",""up"",""right"",""bad_move"",26874,2700.8,2068.5,24173.2,632.3,""oops"",""up"",""down"",""bad_move"",37134.6,10259.7,2445.8,34342.3,346.5,""smooth"",""left"",""left"",""good_move"",40274,3138.4,2487.9,37135.6,650.5,""oops"",""left"",""down"",""bad_move"",46752.6,6477.7,2701.7,43488.6,562.3,""oops"",""left"",""left"",""good_move"",54133.5,7380.4,2376.3,51274.6,482.6,""smooth"",""up"",""up"",""good_move"",57154.8,3020.7,2428,54134.2,592.7,""oops"",""left"",""down"",""bad_move"",60833.9,3678.1,3303.6,57155.9,374.5,""smooth"",""up"",""up"",""good_move"",63774,2939.5,2272.9,60834.5,666.6,""oops"",""up"",""up"",""good_move""]","","",""
"5989","","<div style=""width:500px;"">
  <p>What determined the result of this run?</p>
  </div>","12","html-slider-response","81","1331927","0.0-10.0-1.7","123","1","2025-07-02 10:20:03","80fe4187154257d5fb01684ea91b68b9","41.121.107.170","Mozilla/5.0 (Windows NT 10.0; Win64; x64) AppleWebKit/537.36 (KHTML, like Gecko) Chrome/138.0.0.0 Safari/537.36 Edg/138.0.0.0","WebKit","Edge","138.0.0.0","Windows","10.0","https://app.prolific.com/","en-US,en;q=0.9","6742fd0efbb5712e14e693e5","683db6dfa200031b80f2a654","68650764b057c03a103da975","6742fd0efbb5712e14e693e5","2025-07-02T10:42:17.594Z","","","","","","AttribQ","","","","","","","","","","","","","","","","","","","","","","","","","","","","","","","","","","","","","","50",""
"4354","","<div style=""width:500px;"">
  <p>How much control did you have over the ball?</p>
  </div>","0","html-slider-response","82","1336284","0.0-10.0-2.7","123","1","2025-07-02 10:20:03","80fe4187154257d5fb01684ea91b68b9","41.121.107.170","Mozilla/5.0 (Windows NT 10.0; Win64; x64) AppleWebKit/537.36 (KHTML, like Gecko) Chrome/138.0.0.0 Safari/537.36 Edg/138.0.0.0","WebKit","Edge","138.0.0.0","Windows","10.0","https://app.prolific.com/","en-US,en;q=0.9","6742fd0efbb5712e14e693e5","683db6dfa200031b80f2a654","68650764b057c03a103da975","6742fd0efbb5712e14e693e5","2025-07-02T10:42:21.950Z","","","","","","ControlQ","","","","","","","","","","","","","","","","","","","","","","","","","","","","","","","","","","","","","","50",""
"3839","","<div style=""width:500px;"">
  <p>How would you describe your current emotional state?</p>
  </div>","97","html-slider-response","83","1340126","0.0-10.0-3.7","123","1","2025-07-02 10:20:03","80fe4187154257d5fb01684ea91b68b9","41.121.107.170","Mozilla/5.0 (Windows NT 10.0; Win64; x64) AppleWebKit/537.36 (KHTML, like Gecko) Chrome/138.0.0.0 Safari/537.36 Edg/138.0.0.0","WebKit","Edge","138.0.0.0","Windows","10.0","https://app.prolific.com/","en-US,en;q=0.9","6742fd0efbb5712e14e693e5","683db6dfa200031b80f2a654","68650764b057c03a103da975","6742fd0efbb5712e14e693e5","2025-07-02T10:42:25.792Z","","","","","","StressQ","","","","","","","","","","","","","","","","","","","","","","","","","","","","","","","","","","","","","","50",""
"5614","","<div style=""width:500px;"">
  <p>What best describes how you currently feel?</p>
  </div>","62","html-slider-response","84","1345744","0.0-10.0-4.7","123","1","2025-07-02 10:20:03","80fe4187154257d5fb01684ea91b68b9","41.121.107.170","Mozilla/5.0 (Windows NT 10.0; Win64; x64) AppleWebKit/537.36 (KHTML, like Gecko) Chrome/138.0.0.0 Safari/537.36 Edg/138.0.0.0","WebKit","Edge","138.0.0.0","Windows","10.0","https://app.prolific.com/","en-US,en;q=0.9","6742fd0efbb5712e14e693e5","683db6dfa200031b80f2a654","68650764b057c03a103da975","6742fd0efbb5712e14e693e5","2025-07-02T10:42:31.410Z","","","","","","MotivationQ","","","","","","","","","","","","","","","","","","","","","","","","","","","","","","","","","","","","","","50",""
"","","","","ctl-task-cpt","85","1422927","0.0-10.0-0.8","123","1","2025-07-02 10:20:03","80fe4187154257d5fb01684ea91b68b9","41.121.107.170","Mozilla/5.0 (Windows NT 10.0; Win64; x64) AppleWebKit/537.36 (KHTML, like Gecko) Chrome/138.0.0.0 Safari/537.36 Edg/138.0.0.0","WebKit","Edge","138.0.0.0","Windows","10.0","https://app.prolific.com/","en-US,en;q=0.9","6742fd0efbb5712e14e693e5","683db6dfa200031b80f2a654","68650764b057c03a103da975","6742fd0efbb5712e14e693e5","2025-07-02T10:43:48.593Z","","","","","","","","","","","","","","","","win-only","0","g1:NW,g2:SE","0.4","9","0","1349541","1625","6626","74142.4","1","4","4","6","1","-1","-1","22","23","0.16666666666666666","4098.1","3000","-1145","[""left"",""up""]","{""num_key_presses"":13,""num_perfect"":4,""num_errors"":0,""num_randdir"":9,""num_randdir_good_moves"":3,""num_whilered"":0,""num_whileblue"":0,""num_blue"":6,""num_good_moves"":6}","[416.5714133126395,414.07142761775424,0.4,416.5714133126395,414.07142761775424,100.5,416.5714133126395,414.07142761775424,207.8,416.5714133126395,414.07142761775424,317.3,416.5714133126395,414.07142761775424,421.1,416.5714133126395,414.07142761775424,527.2,416.5714133126395,414.07142761775424,633.1,416.5714133126395,414.07142761775424,734.6,469.0714133126395,451.57142761775424,836.9,526.5714133126395,502.82142761775424,939.3,557.8214133126395,546.5714276177542,1044.7,569.0714133126395,570.3214276177542,1151.1,569.0714133126395,575.3214276177542,1258.8,569.0714133126395,579.0714276177542,1364.7,569.0714133126395,579.0714276177542,1468.1,564.0714133126395,571.5714276177542,1571.3,535.3214133126395,520.3214276177542,1682,405.3214133126395,331.57142761775424,1799.5,309.0714133126395,221.57142761775424,1910.8,204.0714133126395,132.82142761775424,2013.7,165.3214133126395,120.32142761775425,2118.3,159.0714133126395,116.57142761775425,2225.1,157.8214133126395,119.07142761775425,2331.9,271.5714133126395,227.82142761775424,2435.4,376.5714133126395,306.57142761775424,2536.2,425.3214133126395,385.32142761775424,2644.7,446.5714133126395,426.57142761775424,2746.3,450.3214133126395,437.82142761775424,2858.3,427.8214133126395,407.82142761775424,2965.7,312.8214133126395,246.57142761775424,3068,251.5714133126395,190.32142761775424,3168.9,211.5714133126395,164.07142761775424,3270.4,166.5714133126395,124.07142761775425,3371.4,150.3214133126395,109.07142761775425,3483.7,145.3214133126395,104.07142761775425,3590,145.3214133126395,104.07142761775425,3694.8,124.0714133126395,96.57142761775425,3798.4,87.8214133126395,102.82142761775425,3910.8,87.8214133126395,102.82142761775425,4022,87.8214133126395,102.82142761775425,4132.9,87.8214133126395,102.82142761775425,4243.4,87.8214133126395,102.82142761775425,4345.9,87.8214133126395,102.82142761775425,4449.7,87.8214133126395,102.82142761775425,4562.2,87.8214133126395,102.82142761775425,4667.2,87.8214133126395,102.82142761775425,4779.6,87.8214133126395,102.82142761775425,4883.1,87.8214133126395,102.82142761775425,4984.6]","[8652,8652,2499.5,5785.1,367.4,""smooth"",""up"",""up"",""good_move"",15402.4,6749.4,2485.2,12443.9,473.3,""smooth"",""left"",""left"",""good_move"",18858,3454,2855.1,15404,598.9,""oops"",""left"",""right"",""bad_move"",22356.1,3496.5,2884.3,18859.6,612.2,""smooth"",""left"",""left"",""good_move"",31649.5,9292.4,2071,29128.9,449.6,""oops"",""up"",""right"",""bad_move"",34957,3306.8,2543.1,31650.3,763.6,""oops"",""up"",""right"",""bad_move"",38910.4,3952.8,3537.3,34957.7,415.5,""oops"",""down"",""right"",""bad_move"",42806.5,3895.6,3192.1,38910.9,703.5,""smooth"",""right"",""right"",""bad_move"",48944.4,6137.7,2316,46176.5,451.9,""oops"",""right"",""up"",""good_move"",53534.4,4588.9,2669.3,48945.5,1919.6,""oops"",""right"",""left"",""good_move"",57542.5,4007.5,2930.8,53535.1,1076.7,""oops"",""right"",""down"",""bad_move"",61326.5,3782.8,1675.2,57543.7,2107.6,""oops"",""left"",""right"",""bad_move"",64448,3119.6,2570.1,61328.4,549.5,""oops"",""right"",""left"",""good_move""]","","",""
"8132","","<div style=""width:500px;"">
  <p>What determined the result of this run?</p>
  </div>","8","html-slider-response","86","1431063","0.0-10.0-1.8","123","1","2025-07-02 10:20:03","80fe4187154257d5fb01684ea91b68b9","41.121.107.170","Mozilla/5.0 (Windows NT 10.0; Win64; x64) AppleWebKit/537.36 (KHTML, like Gecko) Chrome/138.0.0.0 Safari/537.36 Edg/138.0.0.0","WebKit","Edge","138.0.0.0","Windows","10.0","https://app.prolific.com/","en-US,en;q=0.9","6742fd0efbb5712e14e693e5","683db6dfa200031b80f2a654","68650764b057c03a103da975","6742fd0efbb5712e14e693e5","2025-07-02T10:43:56.729Z","","","","","","AttribQ","","","","","","","","","","","","","","","","","","","","","","","","","","","","","","","","","","","","","","50",""
"5851","","<div style=""width:500px;"">
  <p>How much control did you have over the ball?</p>
