"rt","response_timestamp","stimulus","response","trial_type","trial_index","time_elapsed","internal_node_id","run_id","condition","recorded_at","source_code_version","ip","user_agent","device","browser","browser_version","platform","platform_version","referer","accept_language","PROLIFIC_PID","STUDY_ID","SESSION_ID","prolific_id","realtime","view_history","question_order","consent","success","question_id","eventType","responses","item_order","radio_event_ids","radio_event_times","key_event_times","mouse_event_times","straightlining","zigzagging","honeypot","which_type","canvas_config","goals_layout","control_level","trial_number","tutorial_trial_number","trial_start_time","phase1_start_time","phase2_start_time","phase3_start_time","goal_1_value","goal_1_distance","goal_2_value","goal_2_distance","goal_selected","outcome","outcome_total","participant_final_score","participant_initial_score","participant_final_score_prop","goal_choice_rt","allocated_time","allocated_time_remaining","goal_direction","counts","mouse_movements","key_presses","correct","slider_start","sub_question"
"22427","1751451802528","<p style='font-size:40px;line-height:1.25'><strong>Welcome to the experiment!</strong></p><p style='font-size:1.1em;line-height:1.25'>Thank you for your interest in our experiment! Before you begin, it is important that we obtain your informed consent to participate in the study.</p><p style='font-size:1.1em;line-height:1.25'>On the next screen will be an <strong>information sheet</strong> for you to read. To participate in the study we need you to read this information sheet and the following consent form carefully. If you agree with all the statements, please click the <strong>I agree</strong> button.</p><p style='font-size:1.1em;line-height:1.25'>Press <strong>Next</strong> to read the information sheet.</p>","0","custom-html-button-response","0","22428","0.0-0.0","169","1","2025-07-02 10:23:00","80fe4187154257d5fb01684ea91b68b9","78.137.214.242","Mozilla/5.0 (Windows NT 10.0; Win64; x64) AppleWebKit/537.36 (KHTML, like Gecko) Chrome/138.0.0.0 Safari/537.36","WebKit","Chrome","138.0.0.0","Windows","10.0","https://app.prolific.com/","en-US,en;q=0.9,pt;q=0.8","6744700ac7a3406e40f009c5","683db6dfa200031b80f2a654","6865077cf069321cf23b729e","6744700ac7a3406e40f009c5","2025-07-02T10:23:22.529Z","","","","","","","","","","","","","","","","","","","","","","","","","","","","","","","","","","","","","","","","","","","","",""
"112063","","","","instructions","1","134492","0.0-1.0","169","1","2025-07-02 10:23:00","80fe4187154257d5fb01684ea91b68b9","78.137.214.242","Mozilla/5.0 (Windows NT 10.0; Win64; x64) AppleWebKit/537.36 (KHTML, like Gecko) Chrome/138.0.0.0 Safari/537.36","WebKit","Chrome","138.0.0.0","Windows","10.0","https://app.prolific.com/","en-US,en;q=0.9,pt;q=0.8","6744700ac7a3406e40f009c5","683db6dfa200031b80f2a654","6865077cf069321cf23b729e","6744700ac7a3406e40f009c5","","[{""page_index"":0,""viewing_time"":98826},{""page_index"":1,""viewing_time"":13236}]","","","","","","","","","","","","","","","","","","","","","","","","","","","","","","","","","","","","","","","","","","","",""
"2461","","","{""Q0"":"""",""Q1"":"""",""Q2"":"""",""Q3"":"""",""Q4"":"""",""Q5"":"""",""Q6"":""I agree""}","survey-multi-choice","2","136955","0.0-2.0","169","1","2025-07-02 10:23:00","80fe4187154257d5fb01684ea91b68b9","78.137.214.242","Mozilla/5.0 (Windows NT 10.0; Win64; x64) AppleWebKit/537.36 (KHTML, like Gecko) Chrome/138.0.0.0 Safari/537.36","WebKit","Chrome","138.0.0.0","Windows","10.0","https://app.prolific.com/","en-US,en;q=0.9,pt;q=0.8","6744700ac7a3406e40f009c5","683db6dfa200031b80f2a654","6865077cf069321cf23b729e","6744700ac7a3406e40f009c5","","","[0,1,2,3,4,5,6]","true","","","","","","","","","","","","","","","","","","","","","","","","","","","","","","","","","","","","","","","","","",""
"8853","","","","fullscreen","3","146819","0.0-4.0","169","1","2025-07-02 10:23:00","80fe4187154257d5fb01684ea91b68b9","78.137.214.242","Mozilla/5.0 (Windows NT 10.0; Win64; x64) AppleWebKit/537.36 (KHTML, like Gecko) Chrome/138.0.0.0 Safari/537.36","WebKit","Chrome","138.0.0.0","Windows","10.0","https://app.prolific.com/","en-US,en;q=0.9,pt;q=0.8","6744700ac7a3406e40f009c5","683db6dfa200031b80f2a654","6865077cf069321cf23b729e","6744700ac7a3406e40f009c5","","","","","true","","","","","","","","","","","","","","","","","","","","","","","","","","","","","","","","","","","","","","","","",""
"5987","1751451932906"," <p style='font-size:1.1em;line-height:1.25'>Thank you for completing the consent form and closing all other tabs.</p><p style='font-size:1.1em;line-height:1.25'>We will now invite you to fill in some demographic information and questionnaires, before starting the game.<br>This will take about 5 minutes.<br></p><p style='font-size:1.1em;line-height:1.25'>Press the <strong>Next</strong> button to continue.</p>","0","custom-html-button-response","4","152806","0.0-5.0","169","1","2025-07-02 10:23:00","80fe4187154257d5fb01684ea91b68b9","78.137.214.242","Mozilla/5.0 (Windows NT 10.0; Win64; x64) AppleWebKit/537.36 (KHTML, like Gecko) Chrome/138.0.0.0 Safari/537.36","WebKit","Chrome","138.0.0.0","Windows","10.0","https://app.prolific.com/","en-US,en;q=0.9,pt;q=0.8","6744700ac7a3406e40f009c5","683db6dfa200031b80f2a654","6865077cf069321cf23b729e","6744700ac7a3406e40f009c5","2025-07-02T10:25:32.906Z","","","","","","","","","","","","","","","","","","","","","","","","","","","","","","","","","","","","","","","","","","","","",""
"2566","","","{""age"":""24""}","survey-text","5","155373","0.0-6.0-0.0","169","1","2025-07-02 10:23:00","80fe4187154257d5fb01684ea91b68b9","78.137.214.242","Mozilla/5.0 (Windows NT 10.0; Win64; x64) AppleWebKit/537.36 (KHTML, like Gecko) Chrome/138.0.0.0 Safari/537.36","WebKit","Chrome","138.0.0.0","Windows","10.0","https://app.prolific.com/","en-US,en;q=0.9,pt;q=0.8","6744700ac7a3406e40f009c5","683db6dfa200031b80f2a654","6865077cf069321cf23b729e","6744700ac7a3406e40f009c5","","","","","","0","demographics","","","","","","","","","","","","","","","","","","","","","","","","","","","","","","","","","","","","","","",""
"2450","","","{""gender_identity"":""female/woman""}","survey-multi-choice","6","157824","0.0-6.0-1.0","169","1","2025-07-02 10:23:00","80fe4187154257d5fb01684ea91b68b9","78.137.214.242","Mozilla/5.0 (Windows NT 10.0; Win64; x64) AppleWebKit/537.36 (KHTML, like Gecko) Chrome/138.0.0.0 Safari/537.36","WebKit","Chrome","138.0.0.0","Windows","10.0","https://app.prolific.com/","en-US,en;q=0.9,pt;q=0.8","6744700ac7a3406e40f009c5","683db6dfa200031b80f2a654","6865077cf069321cf23b729e","6744700ac7a3406e40f009c5","","","[0]","","","1","demographics","","","","","","","","","","","","","","","","","","","","","","","","","","","","","","","","","","","","","","",""
"2328","","","{""assigned_sex"":""female""}","survey-multi-choice","7","160153","0.0-6.0-2.0","169","1","2025-07-02 10:23:00","80fe4187154257d5fb01684ea91b68b9","78.137.214.242","Mozilla/5.0 (Windows NT 10.0; Win64; x64) AppleWebKit/537.36 (KHTML, like Gecko) Chrome/138.0.0.0 Safari/537.36","WebKit","Chrome","138.0.0.0","Windows","10.0","https://app.prolific.com/","en-US,en;q=0.9,pt;q=0.8","6744700ac7a3406e40f009c5","683db6dfa200031b80f2a654","6865077cf069321cf23b729e","6744700ac7a3406e40f009c5","","","[0]","","","2","demographics","","","","","","","","","","","","","","","","","","","","","","","","","","","","","","","","","","","","","","",""
"5281","","","{""menstrual_cycle"":""Yes""}","survey-multi-choice","8","165434","0.0-6.0-3.0","169","1","2025-07-02 10:23:00","80fe4187154257d5fb01684ea91b68b9","78.137.214.242","Mozilla/5.0 (Windows NT 10.0; Win64; x64) AppleWebKit/537.36 (KHTML, like Gecko) Chrome/138.0.0.0 Safari/537.36","WebKit","Chrome","138.0.0.0","Windows","10.0","https://app.prolific.com/","en-US,en;q=0.9,pt;q=0.8","6744700ac7a3406e40f009c5","683db6dfa200031b80f2a654","6865077cf069321cf23b729e","6744700ac7a3406e40f009c5","","","[0]","","","4","demographics","","","","","","","","","","","","","","","","","","","","","","","","","","","","","","","","","","","","","","",""
"9740","","","{""education"":""Bachelor's Degree (e.g., BA)""}","survey-multi-choice","9","175176","0.0-6.0-4.0","169","1","2025-07-02 10:23:00","80fe4187154257d5fb01684ea91b68b9","78.137.214.242","Mozilla/5.0 (Windows NT 10.0; Win64; x64) AppleWebKit/537.36 (KHTML, like Gecko) Chrome/138.0.0.0 Safari/537.36","WebKit","Chrome","138.0.0.0","Windows","10.0","https://app.prolific.com/","en-US,en;q=0.9,pt;q=0.8","6744700ac7a3406e40f009c5","683db6dfa200031b80f2a654","6865077cf069321cf23b729e","6744700ac7a3406e40f009c5","","","[0]","","","5","demographics","","","","","","","","","","","","","","","","","","","","","","","","","","","","","","","","","","","","","","",""
"9393","","","{""education"":""Master's Degree (e.g., MSc)""}","survey-multi-choice","10","184570","0.0-6.0-5.0","169","1","2025-07-02 10:23:00","80fe4187154257d5fb01684ea91b68b9","78.137.214.242","Mozilla/5.0 (Windows NT 10.0; Win64; x64) AppleWebKit/537.36 (KHTML, like Gecko) Chrome/138.0.0.0 Safari/537.36","WebKit","Chrome","138.0.0.0","Windows","10.0","https://app.prolific.com/","en-US,en;q=0.9,pt;q=0.8","6744700ac7a3406e40f009c5","683db6dfa200031b80f2a654","6865077cf069321cf23b729e","6744700ac7a3406e40f009c5","2025-07-02T10:26:04.670Z","","[0]","","","6","demographics","","","","","","","","","","","","","","","","","","","","","","","","","","","","","","","","","","","","","","",""
"20278","","","{""mental_health_condition"":""no"",""mental_health_treatment"":""no"",""psychiatric_medication"":""no""}","survey-text","11","204848","0.0-7.0-0.0","169","1","2025-07-02 10:23:00","80fe4187154257d5fb01684ea91b68b9","78.137.214.242","Mozilla/5.0 (Windows NT 10.0; Win64; x64) AppleWebKit/537.36 (KHTML, like Gecko) Chrome/138.0.0.0 Safari/537.36","WebKit","Chrome","138.0.0.0","Windows","10.0","https://app.prolific.com/","en-US,en;q=0.9,pt;q=0.8","6744700ac7a3406e40f009c5","683db6dfa200031b80f2a654","6865077cf069321cf23b729e","6744700ac7a3406e40f009c5","2025-07-02T10:26:24.948Z","","","","","1","mental_health","","","","","","","","","","","","","","","","","","","","","","","","","","","","","","","","","","","","","","",""
"15439","","","{""depression_history"":[""Yes""]}","survey-multi-select","12","220289","0.0-7.0-1.0","169","1","2025-07-02 10:23:00","80fe4187154257d5fb01684ea91b68b9","78.137.214.242","Mozilla/5.0 (Windows NT 10.0; Win64; x64) AppleWebKit/537.36 (KHTML, like Gecko) Chrome/138.0.0.0 Safari/537.36","WebKit","Chrome","138.0.0.0","Windows","10.0","https://app.prolific.com/","en-US,en;q=0.9,pt;q=0.8","6744700ac7a3406e40f009c5","683db6dfa200031b80f2a654","6865077cf069321cf23b729e","6744700ac7a3406e40f009c5","","","[0]","","","","mental_health","","","","","","","","","","","","","","","","","","","","","","","","","","","","","","","","","","","","","","",""
"23211","","","{""depression_episodes"":""more than 5"",""depression_recent"":""More than 1 year ago""}","survey-multi-choice","13","243501","0.0-7.0-2.0-0.0","169","1","2025-07-02 10:23:00","80fe4187154257d5fb01684ea91b68b9","78.137.214.242","Mozilla/5.0 (Windows NT 10.0; Win64; x64) AppleWebKit/537.36 (KHTML, like Gecko) Chrome/138.0.0.0 Safari/537.36","WebKit","Chrome","138.0.0.0","Windows","10.0","https://app.prolific.com/","en-US,en;q=0.9,pt;q=0.8","6744700ac7a3406e40f009c5","683db6dfa200031b80f2a654","6865077cf069321cf23b729e","6744700ac7a3406e40f009c5","2025-07-02T10:27:03.601Z","","[0,1]","","","3","mental_health","","","","","","","","","","","","","","","","","","","","","","","","","","","","","","","","","","","","","","",""
"99838","","","","survey-template","14","343341","0.0-7.0-3.0","169","1","2025-07-02 10:23:00","80fe4187154257d5fb01684ea91b68b9","78.137.214.242","Mozilla/5.0 (Windows NT 10.0; Win64; x64) AppleWebKit/537.36 (KHTML, like Gecko) Chrome/138.0.0.0 Safari/537.36","WebKit","Chrome","138.0.0.0","Windows","10.0","https://app.prolific.com/","en-US,en;q=0.9,pt;q=0.8","6744700ac7a3406e40f009c5","683db6dfa200031b80f2a654","6865077cf069321cf23b729e","6744700ac7a3406e40f009c5","2025-07-02T10:28:43.441Z","","","","","","ius","{""Q01"":""3"",""Q02"":""3"",""Q03"":""3"",""Q04"":""4"",""Q05"":""1"",""Q06"":""1"",""Q07"":""0"",""Q08"":""0"",""Q09"":""3"",""Q10"":""1"",""Q11"":""0"",""Q12"":""3"",""Q13"":""1""}","[0,1,2,3,4,5,6,7,8,9,10,11,12]","[""Q02"",""Q01"",""Q03"",""Q04"",""Q05"",""Q06"",""Q06"",""Q07"",""Q08"",""Q09"",""Q10"",""Q11"",""Q12"",""Q13""]","[12526.299999999814,13157.299999999814,17483.799999999814,28316,36838.799999999814,42444.5,43513.5,47968.89999999944,53349.5,70519.39999999944,75192.89999999944,78579.20000000019,95309,99086.29999999981]","[]","[11638.399999999441,12526.299999999814,13157.299999999814,17483.799999999814,28316,36838.799999999814,42444.5,43513.5,47968.89999999944,53349.5,69633.29999999981,70519.39999999944,75192.89999999944,78579.20000000019,95309,99086.29999999981,99836.59999999963]","0.38461538461538464","0.25","0","","","","","","","","","","","","","","","","","","","","","","","","","","","","","",""
"4561","1751452128003","<p style='font-size:1.1em;line-height:1.25'>In the following, we will ask you a few questions relating to your experiences over the past month.<br></p><p style='font-size:1.1em;line-height:1.25'>Press the <strong>Next</strong> button to continue.</p>","0","custom-html-button-response","15","347903","0.0-7.0-4.0","169","1","2025-07-02 10:23:00","80fe4187154257d5fb01684ea91b68b9","78.137.214.242","Mozilla/5.0 (Windows NT 10.0; Win64; x64) AppleWebKit/537.36 (KHTML, like Gecko) Chrome/138.0.0.0 Safari/537.36","WebKit","Chrome","138.0.0.0","Windows","10.0","https://app.prolific.com/","en-US,en;q=0.9,pt;q=0.8","6744700ac7a3406e40f009c5","683db6dfa200031b80f2a654","6865077cf069321cf23b729e","6744700ac7a3406e40f009c5","2025-07-02T10:28:48.004Z","","","","","","","","","","","","","","","","","","","","","","","","","","","","","","","","","","","","","","","","","","","","",""
"133582.60000000056","","","","survey-template","16","481487","0.0-7.0-5.0","169","1","2025-07-02 10:23:00","80fe4187154257d5fb01684ea91b68b9","78.137.214.242","Mozilla/5.0 (Windows NT 10.0; Win64; x64) AppleWebKit/537.36 (KHTML, like Gecko) Chrome/138.0.0.0 Safari/537.36","WebKit","Chrome","138.0.0.0","Windows","10.0","https://app.prolific.com/","en-US,en;q=0.9,pt;q=0.8","6744700ac7a3406e40f009c5","683db6dfa200031b80f2a654","6865077cf069321cf23b729e","6744700ac7a3406e40f009c5","2025-07-02T10:31:01.587Z","","","","","","pss","{""Q01"":""2"",""Q02"":""3"",""Q03"":""3"",""Q04"":""2"",""Q05"":""2"",""Q06"":""3"",""Q07"":""1"",""Q08"":""2"",""Q09"":""3"",""Q10"":""2""}","[0,1,2,3,4,5,6,7,8,9]","[""Q01"",""Q02"",""Q03"",""Q04"",""Q05"",""Q06"",""Q07"",""Q08"",""Q09"",""Q10""]","[5814.600000000559,11813.300000000745,16115.900000000373,20889.300000000745,29867.200000000186,34436.5,40684.300000000745,49259.5,64916.90000000037,132566.30000000075]","[]","[0.10000000055879354,5814.600000000559,11813.300000000745,15707.5,16115.900000000373,20412.300000000745,20889.300000000745,28960.10000000056,29867.200000000186,34436.5,40135.10000000056,40684.300000000745,48767.10000000056,49259.5,64493.90000000037,64916.90000000037,130967.90000000037,131529.80000000075,132566.30000000075,133581]","0.5","0.6666666666666666","0","","","","","","","","","","","","","","","","","","","","","","","","","","","","","",""
"1574","1751452263161","<p style='font-size:1.1em;line-height:1.25'>Thank you for your answers! Now we will ask you a few more questions relating to your feelings in the last 24 hours.<br></p><p style='font-size:1.1em;line-height:1.25'>Press the <strong>Next</strong> button to continue.</p>","0","custom-html-button-response","17","483062","0.0-7.0-6.0","169","1","2025-07-02 10:23:00","80fe4187154257d5fb01684ea91b68b9","78.137.214.242","Mozilla/5.0 (Windows NT 10.0; Win64; x64) AppleWebKit/537.36 (KHTML, like Gecko) Chrome/138.0.0.0 Safari/537.36","WebKit","Chrome","138.0.0.0","Windows","10.0","https://app.prolific.com/","en-US,en;q=0.9,pt;q=0.8","6744700ac7a3406e40f009c5","683db6dfa200031b80f2a654","6865077cf069321cf23b729e","6744700ac7a3406e40f009c5","2025-07-02T10:31:03.162Z","","","","","","","","","","","","","","","","","","","","","","","","","","","","","","","","","","","","","","","","","","","","",""
"79972.40000000037","","","","survey-template","18","563036","0.0-7.0-7.0","169","1","2025-07-02 10:23:00","80fe4187154257d5fb01684ea91b68b9","78.137.214.242","Mozilla/5.0 (Windows NT 10.0; Win64; x64) AppleWebKit/537.36 (KHTML, like Gecko) Chrome/138.0.0.0 Safari/537.36","WebKit","Chrome","138.0.0.0","Windows","10.0","https://app.prolific.com/","en-US,en;q=0.9,pt;q=0.8","6744700ac7a3406e40f009c5","683db6dfa200031b80f2a654","6865077cf069321cf23b729e","6744700ac7a3406e40f009c5","2025-07-02T10:32:23.136Z","","","","","","drsp","{""Q01"":""1"",""Q02"":""2"",""Q03"":""2"",""Q04"":""3"",""Q05"":""1"",""Q06"":""2"",""Q07"":""2"",""Q08"":""0"",""Q09"":""0"",""Q10"":""2"",""Q11"":""2"",""Q12"":""4"",""Q13"":""4"",""Q14"":""1"",""Q15"":""2"",""Q16"":""2"",""Q17"":""2"",""Q18"":""0"",""Q19"":""0"",""Q20"":""0"",""Q21"":""0""}","[0,1,2,3,4,5,6,7,8,9,10,11,12,13,14,15,16,17,18,19,20]","[""Q01"",""Q02"",""Q03"",""Q04"",""Q05"",""Q06"",""Q07"",""Q08"",""Q09"",""Q10"",""Q11"",""Q12"",""Q13"",""Q14"",""Q15"",""Q16"",""Q17"",""Q18"",""Q19"",""Q20"",""Q21""]","[2814.9000000003725,6079.4000000003725,15519.200000000186,16708.400000000373,18884.60000000056,21119,24767.299999999814,27582.5,31060.10000000056,36329.5,40357.799999999814,44613.40000000037,46483.5,50046.799999999814,54908.40000000037,56937.60000000056,58666.799999999814,63213.200000000186,67593.70000000019,77210.70000000019,78813.90000000037]","[]","[0,2814.9000000003725,4228.9000000003725,6079.4000000003725,15519.200000000186,16708.400000000373,18884.60000000056,21119,24767.299999999814,27582.5,31060.10000000056,36329.5,39903,40357.799999999814,44613.40000000037,46483.5,50046.799999999814,54908.40000000037,56937.60000000056,58189.90000000037,58666.799999999814,62261.40000000037,63213.200000000186,67173.79999999981,67593.70000000019,77210.70000000019,78813.90000000037,79970.20000000019]","0.42857142857142855","0.2","0","","","","","","","","","","","","","","","","","","","","","","","","","","","","","",""
"15978.200000000186","","","","survey-template","19","579015","0.0-7.0-8.0","169","1","2025-07-02 10:23:00","80fe4187154257d5fb01684ea91b68b9","78.137.214.242","Mozilla/5.0 (Windows NT 10.0; Win64; x64) AppleWebKit/537.36 (KHTML, like Gecko) Chrome/138.0.0.0 Safari/537.36","WebKit","Chrome","138.0.0.0","Windows","10.0","https://app.prolific.com/","en-US,en;q=0.9,pt;q=0.8","6744700ac7a3406e40f009c5","683db6dfa200031b80f2a654","6865077cf069321cf23b729e","6744700ac7a3406e40f009c5","2025-07-02T10:32:39.115Z","","","","","","stress","{""Q01"":""3"",""Q02"":""3"",""Q03"":""2""}","[0,1,2]","[""Q01"",""Q02"",""Q03""]","[8272.799999999814,9270,14214.600000000559]","[]","[8272.799999999814,9270,14214.600000000559,15977.799999999814]","0.6666666666666666","0.5","0","","","","","","","","","","","","","","","","","","","","","","","","","","","","","",""
"53163","","","","instructions","20","632180","0.0-8.0-0.0","169","1","2025-07-02 10:23:00","80fe4187154257d5fb01684ea91b68b9","78.137.214.242","Mozilla/5.0 (Windows NT 10.0; Win64; x64) AppleWebKit/537.36 (KHTML, like Gecko) Chrome/138.0.0.0 Safari/537.36","WebKit","Chrome","138.0.0.0","Windows","10.0","https://app.prolific.com/","en-US,en;q=0.9,pt;q=0.8","6744700ac7a3406e40f009c5","683db6dfa200031b80f2a654","6865077cf069321cf23b729e","6744700ac7a3406e40f009c5","","[{""page_index"":0,""viewing_time"":17681},{""page_index"":1,""viewing_time"":18066},{""page_index"":2,""viewing_time"":6679},{""page_index"":3,""viewing_time"":10738}]","","","","","","","","","","","","","","","","","","","","","","","","","","","","","","","","","","","","","","","","","","","",""
"","","","","ctl-task-cpt","21","660207","0.0-8.0-1.0","169","1","2025-07-02 10:23:00","80fe4187154257d5fb01684ea91b68b9","78.137.214.242","Mozilla/5.0 (Windows NT 10.0; Win64; x64) AppleWebKit/537.36 (KHTML, like Gecko) Chrome/138.0.0.0 Safari/537.36","WebKit","Chrome","138.0.0.0","Windows","10.0","https://app.prolific.com/","en-US,en;q=0.9,pt;q=0.8","6744700ac7a3406e40f009c5","683db6dfa200031b80f2a654","6865077cf069321cf23b729e","6744700ac7a3406e40f009c5","","","","","","","","","","","","","","","","","win-only","2","g1:SE,g2:NW","1","0","1","633217.9","1925.8","5926.9","25022.2","2","4","4","6","2","4","3","3","0","0.022727272727272728","1165","4000","1745","[""left"",""up""]","{""num_key_presses"":8,""num_perfect"":6,""num_errors"":1,""num_randdir"":0,""num_randdir_good_moves"":0,""num_whilered"":1,""num_whileblue"":0,""num_blue"":0,""num_good_moves"":6}","[410.57142857142856,415.47767857142856,0,410.57142857142856,415.47767857142856,105.8,414.57142857142856,416.47767857142856,210.1,459.57142857142856,445.47767857142856,314.5,484.57142857142856,462.47767857142856,414.9,484.57142857142856,461.47767857142856,515.2,484.57142857142856,461.47767857142856,619.5,484.57142857142856,461.47767857142856,719.8,508.57142857142856,498.47767857142856,825.1,186.57142857142856,268.47767857142856,929.7,63.57142857142857,72.47767857142857,1029.8,81.57142857142857,86.47767857142857,1135.2,82.57142857142857,86.47767857142857,1239.7,83.57142857142857,83.47767857142857,1340.4,86.57142857142857,89.47767857142857,1444.8,133.57142857142856,169.47767857142856,1545.4,178.57142857142856,225.47767857142856,1650.8,183.57142857142856,227.47767857142856,1754.5,236.57142857142856,285.47767857142856,1854.6,294.57142857142856,354.47767857142856,1954.8,294.57142857142856,355.47767857142856,2055.2,294.57142857142856,355.47767857142856,2160.3,294.57142857142856,355.47767857142856,2265.4,294.57142857142856,355.47767857142856,2369.6,294.57142857142856,352.47767857142856,2470.1,294.57142857142856,352.47767857142856,2571,294.57142857142856,352.47767857142856,2675.1,294.57142857142856,352.47767857142856,2775.5,294.57142857142856,352.47767857142856,2880.5,294.57142857142856,352.47767857142856,2980.6,294.57142857142856,352.47767857142856,3084.8,294.57142857142856,352.47767857142856,3185,294.57142857142856,352.47767857142856,3285.3,294.57142857142856,352.47767857142856,3390.4,294.57142857142856,352.47767857142856,3490.4,294.57142857142856,352.47767857142856,3594.4,295.57142857142856,351.47767857142856,3695.3,296.57142857142856,351.47767857142856,3795.4,296.57142857142856,350.47767857142856,3900.2]","[1356.3,1356.3,1000,0,356.3,""smooth"",""up"",""up"",""good_move"",1527.1,170.6,2749.8,1356.5,-2579.2,""error"",""-"",""-"",""no_move"",1731,203.7,2749.8,1356.5,-2375.3,""while_red"",""-"",""-"",""no_move"",5672.2,4144.9,2818.8,2528.3,325.1,""smooth"",""left"",""left"",""good_move"",8740.1,3067.7,2521.4,5672.4,546.3,""smooth"",""left"",""left"",""good_move"",11787,3046.8,2607.5,8740.2,439.3,""smooth"",""up"",""up"",""good_move"",15526.1,3738.9,3379.9,11787.2,359,""smooth"",""left"",""left"",""good_move"",19008.2,3482,3220.5,15526.2,261.5,""smooth"",""up"",""up"",""good_move""]","","",""
"10006","","","","instructions","22","670213","0.0-8.0-2.0","169","1","2025-07-02 10:23:00","80fe4187154257d5fb01684ea91b68b9","78.137.214.242","Mozilla/5.0 (Windows NT 10.0; Win64; x64) AppleWebKit/537.36 (KHTML, like Gecko) Chrome/138.0.0.0 Safari/537.36","WebKit","Chrome","138.0.0.0","Windows","10.0","https://app.prolific.com/","en-US,en;q=0.9,pt;q=0.8","6744700ac7a3406e40f009c5","683db6dfa200031b80f2a654","6865077cf069321cf23b729e","6744700ac7a3406e40f009c5","","[{""page_index"":0,""viewing_time"":10006}]","","","","","","","","","","","","","","","","","","","","","","","","","","","","","","","","","","","","","","","","","","","",""
"","","","","ctl-task-cpt","23","721272","0.0-8.0-3.0","169","1","2025-07-02 10:23:00","80fe4187154257d5fb01684ea91b68b9","78.137.214.242","Mozilla/5.0 (Windows NT 10.0; Win64; x64) AppleWebKit/537.36 (KHTML, like Gecko) Chrome/138.0.0.0 Safari/537.36","WebKit","Chrome","138.0.0.0","Windows","10.0","https://app.prolific.com/","en-US,en;q=0.9,pt;q=0.8","6744700ac7a3406e40f009c5","683db6dfa200031b80f2a654","6865077cf069321cf23b729e","6744700ac7a3406e40f009c5","","","","","","","","","","","","","","","","","win-only","2","g1:SE,g2:NW","0.35","0","3","671250.9","954.6","4956.5","48041.1","2","4","8","6","2","-8","-11","0","0","0","889.1","4000","-3015","[""left"",""up""]","{""num_key_presses"":15,""num_perfect"":4,""num_errors"":3,""num_randdir"":8,""num_randdir_good_moves"":4,""num_whilered"":0,""num_whileblue"":2,""num_blue"":4,""num_good_moves"":8}","[420.57142857142856,414.47767857142856,0.1,420.57142857142856,414.47767857142856,101,419.57142857142856,409.47767857142856,202,409.57142857142856,408.47767857142856,306.5,409.57142857142856,408.47767857142856,411.7,375.57142857142856,329.47767857142856,512.4,246.57142857142856,154.47767857142856,617.2,210.57142857142856,146.47767857142856,720.8,96.57142857142857,108.47767857142857,821.5,88.57142857142857,95.47767857142857,921.8,88.57142857142857,95.47767857142857,1026,117.57142857142857,168.47767857142856,1127.2,171.57142857142856,253.47767857142856,1230.8,227.57142857142856,334.47767857142856,1332.2,230.57142857142856,338.47767857142856,1436.4,230.57142857142856,338.47767857142856,1536.7,230.57142857142856,338.47767857142856,1637.4,231.57142857142856,338.47767857142856,1741.1,231.57142857142856,338.47767857142856,1841.8,231.57142857142856,338.47767857142856,1946.2,231.57142857142856,338.47767857142856,2050.6,231.57142857142856,338.47767857142856,2151.1,262.57142857142856,347.47767857142856,2251.3,281.57142857142856,354.47767857142856,2356.3,311.57142857142856,368.47767857142856,2460.5,375.57142857142856,394.47767857142856,2560.8,420.57142857142856,421.47767857142856,2661,461.57142857142856,442.47767857142856,2761.7,515.5714285714286,439.47767857142856,2866.7,542.5714285714286,425.47767857142856,2966.9,543.5714285714286,424.47767857142856,3071.5,541.5714285714286,421.47767857142856,3175.7,536.5714285714286,420.47767857142856,3281.7,514.5714285714286,426.47767857142856,3381.8,471.57142857142856,415.47767857142856,3487,471.57142857142856,415.47767857142856,3591.9,507.57142857142856,397.47767857142856,3696.6,516.5714285714286,415.47767857142856,3796.9,515.5714285714286,421.47767857142856,3900.6]","[1286.4,1286.4,1000,0,286.4,""smooth"",""up"",""up"",""good_move"",3903.4,2616.8,2358.4,1286.7,258.3,""while_blue"",""left"",""right"",""bad_move"",7082.6,3178.9,2822.6,3903.7,356.3,""smooth"",""left"",""left"",""good_move"",10005.5,2922.8,2648.5,7082.7,274.3,""oops"",""left"",""right"",""bad_move"",15277.4,5271.8,1547,13478.9,251.5,""oops"",""up"",""right"",""bad_move"",18002.5,2725,2581.2,17604.2,-2182.9,""error"",""-"",""-"",""no_move"",20979.6,2976.9,1659.3,19003.8,316.5,""oops"",""up"",""up"",""good_move"",23688.4,2708.8,2362.3,20979.6,346.5,""smooth"",""left"",""left"",""good_move"",26609.4,2920.9,2533.2,23688.5,387.7,""smooth"",""left"",""left"",""good_move"",29026.5,2417,2095.5,26609.5,321.5,""while_blue"",""left"",""down"",""bad_move"",31495.4,2468.6,2171.2,29026.8,297.4,""oops"",""left"",""left"",""good_move"",33986.6,2491.1,2053,31495.5,438.1,""oops"",""left"",""left"",""good_move"",36087.4,2100.6,1780.6,33986.8,320,""oops"",""up"",""down"",""bad_move"",38344.4,2256.8,1903.6,36087.6,353.2,""oops"",""up"",""down"",""bad_move"",40699.6,2355.1,2106.5,38344.5,248.6,""oops"",""up"",""up"",""good_move""]","","",""
"23236","","","","instructions","24","744508","0.0-8.0-4.0","169","1","2025-07-02 10:23:00","80fe4187154257d5fb01684ea91b68b9","78.137.214.242","Mozilla/5.0 (Windows NT 10.0; Win64; x64) AppleWebKit/537.36 (KHTML, like Gecko) Chrome/138.0.0.0 Safari/537.36","WebKit","Chrome","138.0.0.0","Windows","10.0","https://app.prolific.com/","en-US,en;q=0.9,pt;q=0.8","6744700ac7a3406e40f009c5","683db6dfa200031b80f2a654","6865077cf069321cf23b729e","6744700ac7a3406e40f009c5","","[{""page_index"":0,""viewing_time"":8491},{""page_index"":1,""viewing_time"":14744}]","","","","","","","","","","","","","","","","","","","","","","","","","","","","","","","","","","","","","","","","","","","",""
"10129","","","{""green_ball"":[""Ball always moves in the direction I press"",""Ball sometimes shakes and moves in a random direction""]}","survey-multi-select","25","754639","0.0-8.0-5.0-0.0","169","1","2025-07-02 10:23:00","80fe4187154257d5fb01684ea91b68b9","78.137.214.242","Mozilla/5.0 (Windows NT 10.0; Win64; x64) AppleWebKit/537.36 (KHTML, like Gecko) Chrome/138.0.0.0 Safari/537.36","WebKit","Chrome","138.0.0.0","Windows","10.0","https://app.prolific.com/","en-US,en;q=0.9,pt;q=0.8","6744700ac7a3406e40f009c5","683db6dfa200031b80f2a654","6865077cf069321cf23b729e","6744700ac7a3406e40f009c5","","","[0]","","","","quiz","","","","","","","","","","","","","","","","","","","","","","","","","","","","","","","","","","","","","false","",""
"1924","","<p align='center'><b>INCORRECT.</b> Usually the green ball moves in the indicated direction, but sometimes it shakes and moves randomly. </p>","0","html-button-response","26","756564","0.0-8.0-5.0-1.0","169","1","2025-07-02 10:23:00","80fe4187154257d5fb01684ea91b68b9","78.137.214.242","Mozilla/5.0 (Windows NT 10.0; Win64; x64) AppleWebKit/537.36 (KHTML, like Gecko) Chrome/138.0.0.0 Safari/537.36","WebKit","Chrome","138.0.0.0","Windows","10.0","https://app.prolific.com/","en-US,en;q=0.9,pt;q=0.8","6744700ac7a3406e40f009c5","683db6dfa200031b80f2a654","6865077cf069321cf23b729e","6744700ac7a3406e40f009c5","","","","","","","","","","","","","","","","","","","","","","","","","","","","","","","","","","","","","","","","","","","","","",""
"3304","","","{""green_ball"":[""Ball always moves in the direction I press""]}","survey-multi-select","27","759869","0.0-8.0-5.1-0.1","169","1","2025-07-02 10:23:00","80fe4187154257d5fb01684ea91b68b9","78.137.214.242","Mozilla/5.0 (Windows NT 10.0; Win64; x64) AppleWebKit/537.36 (KHTML, like Gecko) Chrome/138.0.0.0 Safari/537.36","WebKit","Chrome","138.0.0.0","Windows","10.0","https://app.prolific.com/","en-US,en;q=0.9,pt;q=0.8","6744700ac7a3406e40f009c5","683db6dfa200031b80f2a654","6865077cf069321cf23b729e","6744700ac7a3406e40f009c5","","","[0]","","","","quiz","","","","","","","","","","","","","","","","","","","","","","","","","","","","","","","","","","","","","false","",""
"5140","","<p align='center'><b>INCORRECT.</b> Usually the green ball moves in the indicated direction, but sometimes it shakes and moves randomly. </p>","0","html-button-response","28","765010","0.0-8.0-5.1-1.1","169","1","2025-07-02 10:23:00","80fe4187154257d5fb01684ea91b68b9","78.137.214.242","Mozilla/5.0 (Windows NT 10.0; Win64; x64) AppleWebKit/537.36 (KHTML, like Gecko) Chrome/138.0.0.0 Safari/537.36","WebKit","Chrome","138.0.0.0","Windows","10.0","https://app.prolific.com/","en-US,en;q=0.9,pt;q=0.8","6744700ac7a3406e40f009c5","683db6dfa200031b80f2a654","6865077cf069321cf23b729e","6744700ac7a3406e40f009c5","","","","","","","","","","","","","","","","","","","","","","","","","","","","","","","","","","","","","","","","","","","","","",""
"3212","","","{""green_ball"":[""Ball sometimes shakes and moves in a random direction""]}","survey-multi-select","29","768222","0.0-8.0-5.2-0.2","169","1","2025-07-02 10:23:00","80fe4187154257d5fb01684ea91b68b9","78.137.214.242","Mozilla/5.0 (Windows NT 10.0; Win64; x64) AppleWebKit/537.36 (KHTML, like Gecko) Chrome/138.0.0.0 Safari/537.36","WebKit","Chrome","138.0.0.0","Windows","10.0","https://app.prolific.com/","en-US,en;q=0.9,pt;q=0.8","6744700ac7a3406e40f009c5","683db6dfa200031b80f2a654","6865077cf069321cf23b729e","6744700ac7a3406e40f009c5","","","[0]","","","","quiz","","","","","","","","","","","","","","","","","","","","","","","","","","","","","","","","","","","","","true","",""
"996","","<p align='center'><b>CORRECT!</b> Indeed, the green ball may sometimes shake and move in a random direction.</p>","0","html-button-response","30","769219","0.0-8.0-5.2-1.2","169","1","2025-07-02 10:23:00","80fe4187154257d5fb01684ea91b68b9","78.137.214.242","Mozilla/5.0 (Windows NT 10.0; Win64; x64) AppleWebKit/537.36 (KHTML, like Gecko) Chrome/138.0.0.0 Safari/537.36","WebKit","Chrome","138.0.0.0","Windows","10.0","https://app.prolific.com/","en-US,en;q=0.9,pt;q=0.8","6744700ac7a3406e40f009c5","683db6dfa200031b80f2a654","6865077cf069321cf23b729e","6744700ac7a3406e40f009c5","","","","","","","","","","","","","","","","","","","","","","","","","","","","","","","","","","","","","","","","","","","","","",""
"5611","","","{""yellow_ball"":[""Ball doesn‘t move and I get -1 penalty point""]}","survey-multi-select","31","774831","0.0-8.0-6.0-0.0","169","1","2025-07-02 10:23:00","80fe4187154257d5fb01684ea91b68b9","78.137.214.242","Mozilla/5.0 (Windows NT 10.0; Win64; x64) AppleWebKit/537.36 (KHTML, like Gecko) Chrome/138.0.0.0 Safari/537.36","WebKit","Chrome","138.0.0.0","Windows","10.0","https://app.prolific.com/","en-US,en;q=0.9,pt;q=0.8","6744700ac7a3406e40f009c5","683db6dfa200031b80f2a654","6865077cf069321cf23b729e","6744700ac7a3406e40f009c5","","","[0]","","","","quiz","","","","","","","","","","","","","","","","","","","","","","","","","","","","","","","","","","","","","true","",""
"795","","<p align='center'><b>CORRECT!</b> Indeed, the yellow ball never moves and you receive a penalty.</p>","0","html-button-response","32","775627","0.0-8.0-6.0-1.0","169","1","2025-07-02 10:23:00","80fe4187154257d5fb01684ea91b68b9","78.137.214.242","Mozilla/5.0 (Windows NT 10.0; Win64; x64) AppleWebKit/537.36 (KHTML, like Gecko) Chrome/138.0.0.0 Safari/537.36","WebKit","Chrome","138.0.0.0","Windows","10.0","https://app.prolific.com/","en-US,en;q=0.9,pt;q=0.8","6744700ac7a3406e40f009c5","683db6dfa200031b80f2a654","6865077cf069321cf23b729e","6744700ac7a3406e40f009c5","","","","","","","","","","","","","","","","","","","","","","","","","","","","","","","","","","","","","","","","","","","","","",""
"4355","","","{""blue_ball"":[""Ball always shakes and moves in a random direction""]}","survey-multi-select","33","779983","0.0-8.0-7.0-0.0","169","1","2025-07-02 10:23:00","80fe4187154257d5fb01684ea91b68b9","78.137.214.242","Mozilla/5.0 (Windows NT 10.0; Win64; x64) AppleWebKit/537.36 (KHTML, like Gecko) Chrome/138.0.0.0 Safari/537.36","WebKit","Chrome","138.0.0.0","Windows","10.0","https://app.prolific.com/","en-US,en;q=0.9,pt;q=0.8","6744700ac7a3406e40f009c5","683db6dfa200031b80f2a654","6865077cf069321cf23b729e","6744700ac7a3406e40f009c5","","","[0]","","","","quiz","","","","","","","","","","","","","","","","","","","","","","","","","","","","","","","","","","","","","true","",""
"860","","<p align='center'><b>CORRECT!</b> Indeed, the blue ball always shakes and moves in a random direction. Also there is a penalty of -1 point.</p>","0","html-button-response","34","780844","0.0-8.0-7.0-1.0","169","1","2025-07-02 10:23:00","80fe4187154257d5fb01684ea91b68b9","78.137.214.242","Mozilla/5.0 (Windows NT 10.0; Win64; x64) AppleWebKit/537.36 (KHTML, like Gecko) Chrome/138.0.0.0 Safari/537.36","WebKit","Chrome","138.0.0.0","Windows","10.0","https://app.prolific.com/","en-US,en;q=0.9,pt;q=0.8","6744700ac7a3406e40f009c5","683db6dfa200031b80f2a654","6865077cf069321cf23b729e","6744700ac7a3406e40f009c5","","","","","","","","","","","","","","","","","","","","","","","","","","","","","","","","","","","","","","","","","","","","","",""
"8453","","","{""bonus"":[""When I reach 80% of points""]}","survey-multi-select","35","789298","0.0-8.0-8.0-0.0","169","1","2025-07-02 10:23:00","80fe4187154257d5fb01684ea91b68b9","78.137.214.242","Mozilla/5.0 (Windows NT 10.0; Win64; x64) AppleWebKit/537.36 (KHTML, like Gecko) Chrome/138.0.0.0 Safari/537.36","WebKit","Chrome","138.0.0.0","Windows","10.0","https://app.prolific.com/","en-US,en;q=0.9,pt;q=0.8","6744700ac7a3406e40f009c5","683db6dfa200031b80f2a654","6865077cf069321cf23b729e","6744700ac7a3406e40f009c5","","","[0]","","","","quiz","","","","","","","","","","","","","","","","","","","","","","","","","","","","","","","","","","","","","false","",""
"1660","","<p align='center'><b>INCORRECT.</b> You receive 2 pounds extra when you reach 50% of points </p>","0","html-button-response","36","790959","0.0-8.0-8.0-1.0","169","1","2025-07-02 10:23:00","80fe4187154257d5fb01684ea91b68b9","78.137.214.242","Mozilla/5.0 (Windows NT 10.0; Win64; x64) AppleWebKit/537.36 (KHTML, like Gecko) Chrome/138.0.0.0 Safari/537.36","WebKit","Chrome","138.0.0.0","Windows","10.0","https://app.prolific.com/","en-US,en;q=0.9,pt;q=0.8","6744700ac7a3406e40f009c5","683db6dfa200031b80f2a654","6865077cf069321cf23b729e","6744700ac7a3406e40f009c5","","","","","","","","","","","","","","","","","","","","","","","","","","","","","","","","","","","","","","","","","","","","","",""
"1544","","","{""bonus"":[""When I reach 50% of points""]}","survey-multi-select","37","792505","0.0-8.0-8.1-0.1","169","1","2025-07-02 10:23:00","80fe4187154257d5fb01684ea91b68b9","78.137.214.242","Mozilla/5.0 (Windows NT 10.0; Win64; x64) AppleWebKit/537.36 (KHTML, like Gecko) Chrome/138.0.0.0 Safari/537.36","WebKit","Chrome","138.0.0.0","Windows","10.0","https://app.prolific.com/","en-US,en;q=0.9,pt;q=0.8","6744700ac7a3406e40f009c5","683db6dfa200031b80f2a654","6865077cf069321cf23b729e","6744700ac7a3406e40f009c5","","","[0]","","","","quiz","","","","","","","","","","","","","","","","","","","","","","","","","","","","","","","","","","","","","true","",""
"2497","","<p align='center'><b>CORRECT!</b> Indeed, you receive 2 pounds extra when you reach 50% of points.</p>","0","html-button-response","38","795003","0.0-8.0-8.1-1.1","169","1","2025-07-02 10:23:00","80fe4187154257d5fb01684ea91b68b9","78.137.214.242","Mozilla/5.0 (Windows NT 10.0; Win64; x64) AppleWebKit/537.36 (KHTML, like Gecko) Chrome/138.0.0.0 Safari/537.36","WebKit","Chrome","138.0.0.0","Windows","10.0","https://app.prolific.com/","en-US,en;q=0.9,pt;q=0.8","6744700ac7a3406e40f009c5","683db6dfa200031b80f2a654","6865077cf069321cf23b729e","6744700ac7a3406e40f009c5","","","","","","","","","","","","","","","","","","","","","","","","","","","","","","","","","","","","","","","","","","","","","",""
"1765","","","","instructions","39","796768","0.0-8.0-9.0","169","1","2025-07-02 10:23:00","80fe4187154257d5fb01684ea91b68b9","78.137.214.242","Mozilla/5.0 (Windows NT 10.0; Win64; x64) AppleWebKit/537.36 (KHTML, like Gecko) Chrome/138.0.0.0 Safari/537.36","WebKit","Chrome","138.0.0.0","Windows","10.0","https://app.prolific.com/","en-US,en;q=0.9,pt;q=0.8","6744700ac7a3406e40f009c5","683db6dfa200031b80f2a654","6865077cf069321cf23b729e","6744700ac7a3406e40f009c5","","[{""page_index"":0,""viewing_time"":1765}]","","","","","","","","","","","","","","","","","","","","","","","","","","","","","","","","","","","","","","","","","","","",""
"9114","","<p>Before you start with this game please answer the following three questions yourself. </p>
  <p>Through this game, we measure several aspects of your cognitive performance, such as reaction times, multi-tasking capabilities </p>
  <p>and the ability to assess the situation you are in.</p>
  <p></p>
  <p><b>How good do you usually are in such tasks?</b></p>","83","html-slider-response","40","805883","0.0-9.0-0.0","169","1","2025-07-02 10:23:00","80fe4187154257d5fb01684ea91b68b9","78.137.214.242","Mozilla/5.0 (Windows NT 10.0; Win64; x64) AppleWebKit/537.36 (KHTML, like Gecko) Chrome/138.0.0.0 Safari/537.36","WebKit","Chrome","138.0.0.0","Windows","10.0","https://app.prolific.com/","en-US,en;q=0.9,pt;q=0.8","6744700ac7a3406e40f009c5","683db6dfa200031b80f2a654","6865077cf069321cf23b729e","6744700ac7a3406e40f009c5","2025-07-02T10:36:25.983Z","","","","","","PreSkillQ","","","","","","","","","","","","","","","","","","","","","","","","","","","","","","","","","","","","","","50",""
"4952","","<div style=""width:500px;"">
  <p>How well do you think you will perform in this task compared to other participants?</p>
  </div>","72","html-slider-response","41","810835","0.0-9.0-1.0","169","1","2025-07-02 10:23:00","80fe4187154257d5fb01684ea91b68b9","78.137.214.242","Mozilla/5.0 (Windows NT 10.0; Win64; x64) AppleWebKit/537.36 (KHTML, like Gecko) Chrome/138.0.0.0 Safari/537.36","WebKit","Chrome","138.0.0.0","Windows","10.0","https://app.prolific.com/","en-US,en;q=0.9,pt;q=0.8","6744700ac7a3406e40f009c5","683db6dfa200031b80f2a654","6865077cf069321cf23b729e","6744700ac7a3406e40f009c5","2025-07-02T10:36:30.935Z","","","","","","PrePerfQ","","","","","","","","","","","","","","","","","","","","","","","","","","","","","","","","","","","","","","50",""
"4161","","<div style=""width:500px;"">
  <p>What best describes how you currently feel?</p>
  </div>","75","html-slider-response","42","814997","0.0-9.0-2.0","169","1","2025-07-02 10:23:00","80fe4187154257d5fb01684ea91b68b9","78.137.214.242","Mozilla/5.0 (Windows NT 10.0; Win64; x64) AppleWebKit/537.36 (KHTML, like Gecko) Chrome/138.0.0.0 Safari/537.36","WebKit","Chrome","138.0.0.0","Windows","10.0","https://app.prolific.com/","en-US,en;q=0.9,pt;q=0.8","6744700ac7a3406e40f009c5","683db6dfa200031b80f2a654","6865077cf069321cf23b729e","6744700ac7a3406e40f009c5","2025-07-02T10:36:35.097Z","","","","","","PreMotivationQ","","","","","","","","","","","","","","","","","","","","","","","","","","","","","","","","","","","","","","50",""
"","","","","ctl-task-cpt","43","856096","0.0-10.0-0.0","169","1","2025-07-02 10:23:00","80fe4187154257d5fb01684ea91b68b9","78.137.214.242","Mozilla/5.0 (Windows NT 10.0; Win64; x64) AppleWebKit/537.36 (KHTML, like Gecko) Chrome/138.0.0.0 Safari/537.36","WebKit","Chrome","138.0.0.0","Windows","10.0","https://app.prolific.com/","en-US,en;q=0.9,pt;q=0.8","6744700ac7a3406e40f009c5","683db6dfa200031b80f2a654","6865077cf069321cf23b729e","6744700ac7a3406e40f009c5","2025-07-02T10:37:16.196Z","","","","","","","","","","","","","","","","win-only","1","g1:NE,g2:SW","1","1","0","816034.9","1405.8","6410.3","38081.5","1","4","4","6","2","4","3","3","0","0.022727272727272728","1132.3","3000","985","[""down"",""left""]","{""num_key_presses"":6,""num_perfect"":5,""num_errors"":1,""num_randdir"":0,""num_randdir_good_moves"":0,""num_whilered"":0,""num_whileblue"":1,""num_blue"":5,""num_good_moves"":6}","[420.57142857142856,420.47767857142856,0.2,420.57142857142856,420.47767857142856,105,420.57142857142856,420.47767857142856,206.1,420.57142857142856,420.47767857142856,309.9,420.57142857142856,421.47767857142856,410.1,422.57142857142856,445.47767857142856,516,424.57142857142856,445.47767857142856,620.2,556.5714285714286,285.47767857142856,724.6,586.5714285714286,276.47767857142856,825.8,95.57142857142857,682.4776785714286,926,82.57142857142857,721.4776785714286,1026.1,81.57142857142857,734.4776785714286,1129.5,81.57142857142857,734.4776785714286,1231.1,91.57142857142857,737.4776785714286,1335.7,182.57142857142856,751.4776785714286,1436.2,261.57142857142856,743.4776785714286,1540.2,263.57142857142856,727.4776785714286,1645.9,261.57142857142856,722.4776785714286,1750.9,283.57142857142856,697.4776785714286,1854.4,303.57142857142856,655.4776785714286,1954.4,305.57142857142856,652.4776785714286,2056.2,304.57142857142856,648.4776785714286,2160.2,312.57142857142856,633.4776785714286,2265.2,326.57142857142856,627.4776785714286,2370.2,327.57142857142856,627.4776785714286,2470.9,337.57142857142856,627.4776785714286,2575.1,337.57142857142856,627.4776785714286,2680.8,338.57142857142856,627.4776785714286,2786.7,339.57142857142856,627.4776785714286,2890.7,346.57142857142856,627.4776785714286,2995,357.57142857142856,627.4776785714286,3099.6,366.57142857142856,627.4776785714286,3199.7,377.57142857142856,625.4776785714286,3300.8,398.57142857142856,613.4776785714286,3405,410.57142857142856,602.4776785714286,3505.7,416.57142857142856,596.4776785714286,3610.2,416.57142857142856,595.4776785714286,3710.4,416.57142857142856,595.4776785714286,3810.7,416.57142857142856,595.4776785714286,3914.9,416.57142857142856,595.4776785714286,4015,416.57142857142856,595.4776785714286,4115.7,416.57142857142856,595.4776785714286,4219.8,416.57142857142856,595.4776785714286,4321.1,416.57142857142856,595.4776785714286,4425.8,416.57142857142856,595.4776785714286,4530.2,416.57142857142856,595.4776785714286,4630.3,416.57142857142856,594.4776785714286,4730.3,417.57142857142856,593.4776785714286,4830.6,417.57142857142856,591.4776785714286,4934.8]","[1306.5,1306.5,1000,0,306.5,""smooth"",""down"",""down"",""good_move"",4602.7,3295.9,2608.6,1306.8,687.3,""smooth"",""left"",""left"",""good_move"",10725.5,6122.6,2299.8,8190.9,234.8,""while_blue"",""down"",""left"",""good_move"",17402.6,6676.9,2566.9,14510.4,325.3,""smooth"",""down"",""down"",""good_move"",28791.7,11389,2606.5,25840.3,344.9,""smooth"",""down"",""down"",""good_move"",31581.6,2789.7,2414.1,28791.9,375.6,""smooth"",""left"",""left"",""good_move""]","","",""
"5444","","<div style=""width:500px;"">
  <p>What determined the result of this run?</p>
  </div>","100","html-slider-response","44","861541","0.0-10.0-1.0","169","1","2025-07-02 10:23:00","80fe4187154257d5fb01684ea91b68b9","78.137.214.242","Mozilla/5.0 (Windows NT 10.0; Win64; x64) AppleWebKit/537.36 (KHTML, like Gecko) Chrome/138.0.0.0 Safari/537.36","WebKit","Chrome","138.0.0.0","Windows","10.0","https://app.prolific.com/","en-US,en;q=0.9,pt;q=0.8","6744700ac7a3406e40f009c5","683db6dfa200031b80f2a654","6865077cf069321cf23b729e","6744700ac7a3406e40f009c5","2025-07-02T10:37:21.641Z","","","","","","AttribQ","","","","","","","","","","","","","","","","","","","","","","","","","","","","","","","","","","","","","","50",""
"4833","","<div style=""width:500px;"">
  <p>How much control did you have over the ball?</p>
  </div>","100","html-slider-response","45","866374","0.0-10.0-2.0","169","1","2025-07-02 10:23:00","80fe4187154257d5fb01684ea91b68b9","78.137.214.242","Mozilla/5.0 (Windows NT 10.0; Win64; x64) AppleWebKit/537.36 (KHTML, like Gecko) Chrome/138.0.0.0 Safari/537.36","WebKit","Chrome","138.0.0.0","Windows","10.0","https://app.prolific.com/","en-US,en;q=0.9,pt;q=0.8","6744700ac7a3406e40f009c5","683db6dfa200031b80f2a654","6865077cf069321cf23b729e","6744700ac7a3406e40f009c5","2025-07-02T10:37:26.474Z","","","","","","ControlQ","","","","","","","","","","","","","","","","","","","","","","","","","","","","","","","","","","","","","","50",""
"6166","","<div style=""width:500px;"">
  <p>How would you describe your current emotional state?</p>
  </div>","40","html-slider-response","46","872541","0.0-10.0-3.0","169","1","2025-07-02 10:23:00","80fe4187154257d5fb01684ea91b68b9","78.137.214.242","Mozilla/5.0 (Windows NT 10.0; Win64; x64) AppleWebKit/537.36 (KHTML, like Gecko) Chrome/138.0.0.0 Safari/537.36","WebKit","Chrome","138.0.0.0","Windows","10.0","https://app.prolific.com/","en-US,en;q=0.9,pt;q=0.8","6744700ac7a3406e40f009c5","683db6dfa200031b80f2a654","6865077cf069321cf23b729e","6744700ac7a3406e40f009c5","2025-07-02T10:37:32.641Z","","","","","","StressQ","","","","","","","","","","","","","","","","","","","","","","","","","","","","","","","","","","","","","","50",""
"5085","","<div style=""width:500px;"">
  <p>What best describes how you currently feel?</p>
  </div>","71","html-slider-response","47","877626","0.0-10.0-4.0","169","1","2025-07-02 10:23:00","80fe4187154257d5fb01684ea91b68b9","78.137.214.242","Mozilla/5.0 (Windows NT 10.0; Win64; x64) AppleWebKit/537.36 (KHTML, like Gecko) Chrome/138.0.0.0 Safari/537.36","WebKit","Chrome","138.0.0.0","Windows","10.0","https://app.prolific.com/","en-US,en;q=0.9,pt;q=0.8","6744700ac7a3406e40f009c5","683db6dfa200031b80f2a654","6865077cf069321cf23b729e","6744700ac7a3406e40f009c5","2025-07-02T10:37:37.726Z","","","","","","MotivationQ","","","","","","","","","","","","","","","","","","","","","","","","","","","","","","","","","","","","","","50",""
"","","","","ctl-task-cpt","48","914204","0.0-10.0-0.1","169","1","2025-07-02 10:23:00","80fe4187154257d5fb01684ea91b68b9","78.137.214.242","Mozilla/5.0 (Windows NT 10.0; Win64; x64) AppleWebKit/537.36 (KHTML, like Gecko) Chrome/138.0.0.0 Safari/537.36","WebKit","Chrome","138.0.0.0","Windows","10.0","https://app.prolific.com/","en-US,en;q=0.9,pt;q=0.8","6744700ac7a3406e40f009c5","683db6dfa200031b80f2a654","6865077cf069321cf23b729e","6744700ac7a3406e40f009c5","2025-07-02T10:38:14.304Z","","","","","","","","","","","","","","","","win-only","3","g1:SW,g2:NE","0.9","2","0","878664.4","4716.5","9721.1","33561","1","4","8","6","2","8","8","11","3","0.08333333333333333","1156","3000","1015","[""up"",""right""]","{""num_key_presses"":6,""num_perfect"":6,""num_errors"":0,""num_randdir"":0,""num_randdir_good_moves"":0,""num_whilered"":0,""num_whileblue"":0,""num_blue"":2,""num_good_moves"":6}","[416.57142857142856,419.47767857142856,0.2,416.57142857142856,419.47767857142856,103.6,416.57142857142856,419.47767857142856,204.8,416.57142857142856,419.47767857142856,309.3,416.57142857142856,419.47767857142856,413.9,379.57142857142856,453.47767857142856,518.8,294.57142857142856,560.4776785714286,619.7,149.57142857142856,719.4776785714286,723.8,443.57142857142856,478.47767857142856,823.9,676.5714285714286,215.47767857142856,924.5,680.5714285714286,186.47767857142856,1028.7,765.5714285714286,70.47767857142857,1129.7,772.5714285714286,61.47767857142857,1233.9,769.5714285714286,84.47767857142857,1334.8,724.5714285714286,274.47767857142856,1439.7,719.5714285714286,312.47767857142856,1544.1,719.5714285714286,312.47767857142856,1645,719.5714285714286,312.47767857142856,1745.5,719.5714285714286,312.47767857142856,1850.7,715.5714285714286,312.47767857142856,1954.8,707.5714285714286,315.47767857142856,2060,686.5714285714286,334.47767857142856,2164,683.5714285714286,338.47767857142856,2264.1,682.5714285714286,338.47767857142856,2364.2,682.5714285714286,338.47767857142856,2469.9,676.5714285714286,339.47767857142856,2574.1,675.5714285714286,339.47767857142856,2674.5,696.5714285714286,342.47767857142856,2779.9,707.5714285714286,347.47767857142856,2884.1,707.5714285714286,347.47767857142856,2984.6,710.5714285714286,345.47767857142856,3084.8,702.5714285714286,350.47767857142856,3185.4,694.5714285714286,359.47767857142856,3288.8,684.5714285714286,366.47767857142856,3389.1,662.5714285714286,380.47767857142856,3489.5,639.5714285714286,403.47767857142856,3593.8,625.5714285714286,416.47767857142856,3693.8,618.5714285714286,420.47767857142856,3793.8,592.5714285714286,421.47767857142856,3894.7,583.5714285714286,425.47767857142856,3995.5,580.5714285714286,427.47767857142856,4099,572.5714285714286,432.47767857142856,4200,560.5714285714286,437.47767857142856,4304.8,539.5714285714286,444.47767857142856,4404.8,526.5714285714286,445.47767857142856,4504.8,517.5714285714286,435.47767857142856,4608.9,517.5714285714286,435.47767857142856,4709.1,519.5714285714286,435.47767857142856,4809.1,520.5714285714286,435.47767857142856,4913.9]","[4572.3,4572.3,2186.2,2004.9,381.2,""smooth"",""right"",""right"",""good_move"",10917.3,6344.9,2787.6,7795.3,334.5,""smooth"",""up"",""up"",""good_move"",14297.2,3379.7,3028,10917.5,351.7,""smooth"",""right"",""right"",""good_move"",17412.2,3114.9,2792.2,14297.3,322.7,""smooth"",""right"",""right"",""good_move"",21104.4,3692.1,3357.1,17412.3,335,""smooth"",""up"",""up"",""good_move"",23753.2,2648.7,2354.6,21104.5,294.1,""smooth"",""up"",""up"",""good_move""]","","",""
"5321","","<div style=""width:500px;"">
  <p>What determined the result of this run?</p>
  </div>","97","html-slider-response","49","919527","0.0-10.0-1.1","169","1","2025-07-02 10:23:00","80fe4187154257d5fb01684ea91b68b9","78.137.214.242","Mozilla/5.0 (Windows NT 10.0; Win64; x64) AppleWebKit/537.36 (KHTML, like Gecko) Chrome/138.0.0.0 Safari/537.36","WebKit","Chrome","138.0.0.0","Windows","10.0","https://app.prolific.com/","en-US,en;q=0.9,pt;q=0.8","6744700ac7a3406e40f009c5","683db6dfa200031b80f2a654","6865077cf069321cf23b729e","6744700ac7a3406e40f009c5","2025-07-02T10:38:19.627Z","","","","","","AttribQ","","","","","","","","","","","","","","","","","","","","","","","","","","","","","","","","","","","","","","50",""
"2741","","<div style=""width:500px;"">
  <p>How much control did you have over the ball?</p>
  </div>","100","html-slider-response","50","922268","0.0-10.0-2.1","169","1","2025-07-02 10:23:00","80fe4187154257d5fb01684ea91b68b9","78.137.214.242","Mozilla/5.0 (Windows NT 10.0; Win64; x64) AppleWebKit/537.36 (KHTML, like Gecko) Chrome/138.0.0.0 Safari/537.36","WebKit","Chrome","138.0.0.0","Windows","10.0","https://app.prolific.com/","en-US,en;q=0.9,pt;q=0.8","6744700ac7a3406e40f009c5","683db6dfa200031b80f2a654","6865077cf069321cf23b729e","6744700ac7a3406e40f009c5","2025-07-02T10:38:22.368Z","","","","","","ControlQ","","","","","","","","","","","","","","","","","","","","","","","","","","","","","","","","","","","","","","50",""
"5605","","<div style=""width:500px;"">
  <p>How would you describe your current emotional state?</p>
  </div>","28","html-slider-response","51","927873","0.0-10.0-3.1","169","1","2025-07-02 10:23:00","80fe4187154257d5fb01684ea91b68b9","78.137.214.242","Mozilla/5.0 (Windows NT 10.0; Win64; x64) AppleWebKit/537.36 (KHTML, like Gecko) Chrome/138.0.0.0 Safari/537.36","WebKit","Chrome","138.0.0.0","Windows","10.0","https://app.prolific.com/","en-US,en;q=0.9,pt;q=0.8","6744700ac7a3406e40f009c5","683db6dfa200031b80f2a654","6865077cf069321cf23b729e","6744700ac7a3406e40f009c5","2025-07-02T10:38:27.973Z","","","","","","StressQ","","","","","","","","","","","","","","","","","","","","","","","","","","","","","","","","","","","","","","50",""
"2957","","<div style=""width:500px;"">
  <p>What best describes how you currently feel?</p>
  </div>","77","html-slider-response","52","930831","0.0-10.0-4.1","169","1","2025-07-02 10:23:00","80fe4187154257d5fb01684ea91b68b9","78.137.214.242","Mozilla/5.0 (Windows NT 10.0; Win64; x64) AppleWebKit/537.36 (KHTML, like Gecko) Chrome/138.0.0.0 Safari/537.36","WebKit","Chrome","138.0.0.0","Windows","10.0","https://app.prolific.com/","en-US,en;q=0.9,pt;q=0.8","6744700ac7a3406e40f009c5","683db6dfa200031b80f2a654","6865077cf069321cf23b729e","6744700ac7a3406e40f009c5","2025-07-02T10:38:30.931Z","","","","","","MotivationQ","","","","","","","","","","","","","","","","","","","","","","","","","","","","","","","","","","","","","","50",""
"","","","","ctl-task-cpt","53","961664","0.0-10.0-0.2","169","1","2025-07-02 10:23:00","80fe4187154257d5fb01684ea91b68b9","78.137.214.242","Mozilla/5.0 (Windows NT 10.0; Win64; x64) AppleWebKit/537.36 (KHTML, like Gecko) Chrome/138.0.0.0 Safari/537.36","WebKit","Chrome","138.0.0.0","Windows","10.0","https://app.prolific.com/","en-US,en;q=0.9,pt;q=0.8","6744700ac7a3406e40f009c5","683db6dfa200031b80f2a654","6865077cf069321cf23b729e","6744700ac7a3406e40f009c5","2025-07-02T10:39:01.764Z","","","","","","","","","","","","","","","","win-only","3","g1:SW,g2:NE","0.8","3","0","931869.1","911.8","5915.9","27815.7","1","4","4","6","2","4","3","14","11","0.10606060606060606","849.3","3000","545","[""up"",""right""]","{""num_key_presses"":8,""num_perfect"":7,""num_errors"":1,""num_randdir"":0,""num_randdir_good_moves"":0,""num_whilered"":0,""num_whileblue"":1,""num_blue"":1,""num_good_moves"":7}","[415.57142857142856,414.47767857142856,0.1,415.57142857142856,414.47767857142856,104.4,415.57142857142856,414.47767857142856,209.9,419.57142857142856,426.47767857142856,313.9,410.57142857142856,458.47767857142856,414.1,404.57142857142856,476.47767857142856,519.1,641.5714285714286,251.47767857142856,619.9,717.5714285714286,145.47767857142856,720,728.5714285714286,109.47767857142857,824.5,731.5714285714286,104.47767857142857,930,729.5714285714286,115.47767857142857,1033.7,711.5714285714286,196.47767857142856,1133.8,691.5714285714286,246.47767857142856,1234.4,685.5714285714286,254.47767857142856,1334.6,673.5714285714286,275.47767857142856,1438.7,674.5714285714286,279.47767857142856,1538.7,676.5714285714286,283.47767857142856,1639,681.5714285714286,287.47767857142856,1743.5,682.5714285714286,291.47767857142856,1848.9,682.5714285714286,291.47767857142856,1949.2,682.5714285714286,291.47767857142856,2053.7,682.5714285714286,291.47767857142856,2154.2,682.5714285714286,291.47767857142856,2254.2,679.5714285714286,295.47767857142856,2354.6,674.5714285714286,305.47767857142856,2459.2,664.5714285714286,317.47767857142856,2563.4,657.5714285714286,326.47767857142856,2663.6,656.5714285714286,330.47767857142856,2764.3,656.5714285714286,332.47767857142856,2869.8,656.5714285714286,335.47767857142856,2974.1,657.5714285714286,336.47767857142856,3074.4,657.5714285714286,336.47767857142856,3178.9,657.5714285714286,336.47767857142856,3279.5,657.5714285714286,337.47767857142856,3383.5,659.5714285714286,337.47767857142856,3484.3,660.5714285714286,344.47767857142856,3589,661.5714285714286,346.47767857142856,3693.7,661.5714285714286,351.47767857142856,3798.9,661.5714285714286,354.47767857142856,3898.9,660.5714285714286,360.47767857142856,3999.6,658.5714285714286,362.47767857142856,4103.4,652.5714285714286,370.47767857142856,4208.5,646.5714285714286,373.47767857142856,4309,640.5714285714286,380.47767857142856,4413.7,637.5714285714286,382.47767857142856,4513.9,629.5714285714286,389.47767857142856,4618.6,625.5714285714286,392.47767857142856,4718.8,620.5714285714286,398.47767857142856,4823.4,614.5714285714286,405.47767857142856,4929.1]","[1470.7,1470.7,1000,0,470.7,""smooth"",""right"",""right"",""good_move"",4244.8,2773.9,2244.7,1470.9,529.2,""smooth"",""right"",""right"",""good_move"",7513.7,3268.7,2928.9,4245,339.8,""smooth"",""up"",""up"",""good_move"",10301.6,2787.7,2535.7,7513.9,252,""smooth"",""up"",""up"",""good_move"",13448.7,3146.9,2852.4,10301.8,294.5,""smooth"",""right"",""right"",""good_move"",15720,2271.2,1996.4,13448.8,274.8,""while_blue"",""up"",""down"",""bad_move"",18013.7,2293.4,2002.7,15720.3,290.7,""smooth"",""up"",""up"",""good_move"",21812.7,3799,3488.4,18013.7,310.6,""smooth"",""up"",""up"",""good_move""]","","",""
"7256","","<div style=""width:500px;"">
  <p>What determined the result of this run?</p>
  </div>","100","html-slider-response","54","968921","0.0-10.0-1.2","169","1","2025-07-02 10:23:00","80fe4187154257d5fb01684ea91b68b9","78.137.214.242","Mozilla/5.0 (Windows NT 10.0; Win64; x64) AppleWebKit/537.36 (KHTML, like Gecko) Chrome/138.0.0.0 Safari/537.36","WebKit","Chrome","138.0.0.0","Windows","10.0","https://app.prolific.com/","en-US,en;q=0.9,pt;q=0.8","6744700ac7a3406e40f009c5","683db6dfa200031b80f2a654","6865077cf069321cf23b729e","6744700ac7a3406e40f009c5","2025-07-02T10:39:09.021Z","","","","","","AttribQ","","","","","","","","","","","","","","","","","","","","","","","","","","","","","","","","","","","","","","50",""
"3686","","<div style=""width:500px;"">
  <p>How much control did you have over the ball?</p>
  </div>","94","html-slider-response","55","972607","0.0-10.0-2.2","169","1","2025-07-02 10:23:00","80fe4187154257d5fb01684ea91b68b9","78.137.214.242","Mozilla/5.0 (Windows NT 10.0; Win64; x64) AppleWebKit/537.36 (KHTML, like Gecko) Chrome/138.0.0.0 Safari/537.36","WebKit","Chrome","138.0.0.0","Windows","10.0","https://app.prolific.com/","en-US,en;q=0.9,pt;q=0.8","6744700ac7a3406e40f009c5","683db6dfa200031b80f2a654","6865077cf069321cf23b729e","6744700ac7a3406e40f009c5","2025-07-02T10:39:12.707Z","","","","","","ControlQ","","","","","","","","","","","","","","","","","","","","","","","","","","","","","","","","","","","","","","50",""
"2768","","<div style=""width:500px;"">
  <p>How would you describe your current emotional state?</p>
  </div>","40","html-slider-response","56","975376","0.0-10.0-3.2","169","1","2025-07-02 10:23:00","80fe4187154257d5fb01684ea91b68b9","78.137.214.242","Mozilla/5.0 (Windows NT 10.0; Win64; x64) AppleWebKit/537.36 (KHTML, like Gecko) Chrome/138.0.0.0 Safari/537.36","WebKit","Chrome","138.0.0.0","Windows","10.0","https://app.prolific.com/","en-US,en;q=0.9,pt;q=0.8","6744700ac7a3406e40f009c5","683db6dfa200031b80f2a654","6865077cf069321cf23b729e","6744700ac7a3406e40f009c5","2025-07-02T10:39:15.476Z","","","","","","StressQ","","","","","","","","","","","","","","","","","","","","","","","","","","","","","","","","","","","","","","50",""
"2591","","<div style=""width:500px;"">
  <p>What best describes how you currently feel?</p>
  </div>","85","html-slider-response","57","977967","0.0-10.0-4.2","169","1","2025-07-02 10:23:00","80fe4187154257d5fb01684ea91b68b9","78.137.214.242","Mozilla/5.0 (Windows NT 10.0; Win64; x64) AppleWebKit/537.36 (KHTML, like Gecko) Chrome/138.0.0.0 Safari/537.36","WebKit","Chrome","138.0.0.0","Windows","10.0","https://app.prolific.com/","en-US,en;q=0.9,pt;q=0.8","6744700ac7a3406e40f009c5","683db6dfa200031b80f2a654","6865077cf069321cf23b729e","6744700ac7a3406e40f009c5","2025-07-02T10:39:18.067Z","","","","","","MotivationQ","","","","","","","","","","","","","","","","","","","","","","","","","","","","","","","","","","","","","","50",""
"","","","","ctl-task-cpt","58","1013115","0.0-10.0-0.3","169","1","2025-07-02 10:23:00","80fe4187154257d5fb01684ea91b68b9","78.137.214.242","Mozilla/5.0 (Windows NT 10.0; Win64; x64) AppleWebKit/537.36 (KHTML, like Gecko) Chrome/138.0.0.0 Safari/537.36","WebKit","Chrome","138.0.0.0","Windows","10.0","https://app.prolific.com/","en-US,en;q=0.9,pt;q=0.8","6744700ac7a3406e40f009c5","683db6dfa200031b80f2a654","6865077cf069321cf23b729e","6744700ac7a3406e40f009c5","2025-07-02T10:39:53.215Z","","","","","","","","","","","","","","","","win-only","0","g1:NW,g2:SE","0.7","4","0","979005.1","811.7","5815.5","32131.8","1","4","8","6","2","8","8","22","14","0.16666666666666666","916.3","3000","435","[""down"",""right""]","{""num_key_presses"":8,""num_perfect"":6,""num_errors"":0,""num_randdir"":2,""num_randdir_good_moves"":1,""num_whilered"":0,""num_whileblue"":0,""num_blue"":1,""num_good_moves"":7}","[417.57142857142856,426.47767857142856,0.1,417.57142857142856,426.47767857142856,103.4,417.57142857142856,426.47767857142856,204.3,416.57142857142856,427.47767857142856,309.2,388.57142857142856,428.47767857142856,413.7,372.57142857142856,420.47767857142856,514.4,482.57142857142856,543.4776785714286,618.9,774.5714285714286,813.4776785714286,719.5,759.5714285714286,793.4776785714286,819.6,738.5714285714286,752.4776785714286,924.5,738.5714285714286,752.4776785714286,1028.5,747.5714285714286,761.4776785714286,1130.2,734.5714285714286,758.4776785714286,1234.1,717.5714285714286,732.4776785714286,1334.2,711.5714285714286,713.4776785714286,1434.4,716.5714285714286,720.4776785714286,1538.7,722.5714285714286,720.4776785714286,1639.2,722.5714285714286,720.4776785714286,1743.6,722.5714285714286,720.4776785714286,1849.1,725.5714285714286,716.4776785714286,1949.1,659.5714285714286,685.4776785714286,2053.5,661.5714285714286,680.4776785714286,2153.6,664.5714285714286,678.4776785714286,2253.9,670.5714285714286,676.4776785714286,2358.4,674.5714285714286,675.4776785714286,2458.8,675.5714285714286,675.4776785714286,2559.6,675.5714285714286,675.4776785714286,2664.8,675.5714285714286,675.4776785714286,2769.5,677.5714285714286,682.4776785714286,2874.6,677.5714285714286,684.4776785714286,2978.4,659.5714285714286,666.4776785714286,3078.5,505.57142857142856,513.4776785714286,3183.6,490.57142857142856,493.47767857142856,3283.6,490.57142857142856,493.47767857142856,3384.3,490.57142857142856,493.47767857142856,3489.5,489.57142857142856,493.47767857142856,3594.1,487.57142857142856,489.47767857142856,3694.9,487.57142857142856,487.47767857142856,3798.4,487.57142857142856,487.47767857142856,3899,487.57142857142856,487.47767857142856,3999.2,487.57142857142856,487.47767857142856,4104.6,487.57142857142856,488.47767857142856,4208.7,487.57142857142856,490.47767857142856,4309.1,482.57142857142856,490.47767857142856,4414.9,470.57142857142856,477.47767857142856,4519,464.57142857142856,465.47767857142856,4624.4,464.57142857142856,465.47767857142856,4729.4,467.57142857142856,473.47767857142856,4833.6,468.57142857142856,475.47767857142856,4934.5]","[1406.1,1406.1,1000,0,406.1,""smooth"",""down"",""down"",""good_move"",4532.2,3125.8,2733.5,1406.4,392.3,""smooth"",""right"",""right"",""good_move"",8274.1,3741.6,3400.7,4532.5,340.9,""oops"",""right"",""up"",""bad_move"",11031.2,2756.9,2438.2,8274.3,318.7,""oops"",""down"",""right"",""good_move"",14216,3184.7,2897.4,11031.3,287.3,""smooth"",""down"",""down"",""good_move"",17296.1,3080,2746.2,14216.2,333.8,""smooth"",""right"",""right"",""good_move"",23227.1,5930.8,2091.3,20899.7,236.1,""smooth"",""down"",""down"",""good_move"",26225,2997.8,2722.3,23227.2,275.5,""smooth"",""down"",""down"",""good_move""]","","",""
"4795","","<div style=""width:500px;"">
  <p>What determined the result of this run?</p>
  </div>","76","html-slider-response","59","1017911","0.0-10.0-1.3","169","1","2025-07-02 10:23:00","80fe4187154257d5fb01684ea91b68b9","78.137.214.242","Mozilla/5.0 (Windows NT 10.0; Win64; x64) AppleWebKit/537.36 (KHTML, like Gecko) Chrome/138.0.0.0 Safari/537.36","WebKit","Chrome","138.0.0.0","Windows","10.0","https://app.prolific.com/","en-US,en;q=0.9,pt;q=0.8","6744700ac7a3406e40f009c5","683db6dfa200031b80f2a654","6865077cf069321cf23b729e","6744700ac7a3406e40f009c5","2025-07-02T10:39:58.011Z","","","","","","AttribQ","","","","","","","","","","","","","","","","","","","","","","","","","","","","","","","","","","","","","","50",""
"2451","","<div style=""width:500px;"">
  <p>How much control did you have over the ball?</p>
  </div>","76","html-slider-response","60","1020363","0.0-10.0-2.3","169","1","2025-07-02 10:23:00","80fe4187154257d5fb01684ea91b68b9","78.137.214.242","Mozilla/5.0 (Windows NT 10.0; Win64; x64) AppleWebKit/537.36 (KHTML, like Gecko) Chrome/138.0.0.0 Safari/537.36","WebKit","Chrome","138.0.0.0","Windows","10.0","https://app.prolific.com/","en-US,en;q=0.9,pt;q=0.8","6744700ac7a3406e40f009c5","683db6dfa200031b80f2a654","6865077cf069321cf23b729e","6744700ac7a3406e40f009c5","2025-07-02T10:40:00.463Z","","","","","","ControlQ","","","","","","","","","","","","","","","","","","","","","","","","","","","","","","","","","","","","","","50",""
"3726","","<div style=""width:500px;"">
  <p>How would you describe your current emotional state?</p>
  </div>","47","html-slider-response","61","1024090","0.0-10.0-3.3","169","1","2025-07-02 10:23:00","80fe4187154257d5fb01684ea91b68b9","78.137.214.242","Mozilla/5.0 (Windows NT 10.0; Win64; x64) AppleWebKit/537.36 (KHTML, like Gecko) Chrome/138.0.0.0 Safari/537.36","WebKit","Chrome","138.0.0.0","Windows","10.0","https://app.prolific.com/","en-US,en;q=0.9,pt;q=0.8","6744700ac7a3406e40f009c5","683db6dfa200031b80f2a654","6865077cf069321cf23b729e","6744700ac7a3406e40f009c5","2025-07-02T10:40:04.190Z","","","","","","StressQ","","","","","","","","","","","","","","","","","","","","","","","","","","","","","","","","","","","","","","50",""
"2212","","<div style=""width:500px;"">
  <p>What best describes how you currently feel?</p>
  </div>","92","html-slider-response","62","1026302","0.0-10.0-4.3","169","1","2025-07-02 10:23:00","80fe4187154257d5fb01684ea91b68b9","78.137.214.242","Mozilla/5.0 (Windows NT 10.0; Win64; x64) AppleWebKit/537.36 (KHTML, like Gecko) Chrome/138.0.0.0 Safari/537.36","WebKit","Chrome","138.0.0.0","Windows","10.0","https://app.prolific.com/","en-US,en;q=0.9,pt;q=0.8","6744700ac7a3406e40f009c5","683db6dfa200031b80f2a654","6865077cf069321cf23b729e","6744700ac7a3406e40f009c5","2025-07-02T10:40:06.402Z","","","","","","MotivationQ","","","","","","","","","","","","","","","","","","","","","","","","","","","","","","","","","","","","","","50",""
"","","","","ctl-task-cpt","63","1058070","0.0-10.0-0.4","169","1","2025-07-02 10:23:00","80fe4187154257d5fb01684ea91b68b9","78.137.214.242","Mozilla/5.0 (Windows NT 10.0; Win64; x64) AppleWebKit/537.36 (KHTML, like Gecko) Chrome/138.0.0.0 Safari/537.36","WebKit","Chrome","138.0.0.0","Windows","10.0","https://app.prolific.com/","en-US,en;q=0.9,pt;q=0.8","6744700ac7a3406e40f009c5","683db6dfa200031b80f2a654","6865077cf069321cf23b729e","6744700ac7a3406e40f009c5","2025-07-02T10:40:38.170Z","","","","","","","","","","","","","","","","win-only","2","g1:SE,g2:NW","0.6","5","0","1027340.4","796.5","5800.5","28750.5","1","4","8","6","2","-8","-8","14","22","0.10606060606060606","876.1","3000","-3015","[""left"",""up""]","{""num_key_presses"":8,""num_perfect"":4,""num_errors"":0,""num_randdir"":4,""num_randdir_good_moves"":2,""num_whilered"":0,""num_whileblue"":0,""num_blue"":0,""num_good_moves"":6}","[415.57142857142856,421.47767857142856,0.1,415.57142857142856,421.47767857142856,103.9,415.57142857142856,421.47767857142856,204.1,418.57142857142856,432.47767857142856,308.8,457.57142857142856,473.47767857142856,409.4,458.57142857142856,474.47767857142856,509.6,337.57142857142856,363.47767857142856,614.9,103.57142857142857,124.47767857142857,718.9,94.57142857142857,118.47767857142857,819.3,94.57142857142857,118.47767857142857,919.3,95.57142857142857,120.47767857142857,1023.9,137.57142857142856,188.47767857142856,1129.3,221.57142857142856,289.47767857142856,1234.2,254.57142857142856,311.47767857142856,1338.9,287.57142857142856,327.47767857142856,1439.1,327.57142857142856,341.47767857142856,1539.1,334.57142857142856,343.47767857142856,1644.4,336.57142857142856,345.47767857142856,1748.7,335.57142857142856,347.47767857142856,1849.4,337.57142857142856,353.47767857142856,1949.5,339.57142857142856,356.47767857142856,2049.9,361.57142857142856,380.47767857142856,2153.9,378.57142857142856,394.47767857142856,2254.4,381.57142857142856,397.47767857142856,2359.7,378.57142857142856,397.47767857142856,2459.7,354.57142857142856,407.47767857142856,2564.5,344.57142857142856,414.47767857142856,2664.6,343.57142857142856,414.47767857142856,2768.8,338.57142857142856,414.47767857142856,2874.4,337.57142857142856,412.47767857142856,2975,337.57142857142856,412.47767857142856,3079.3,337.57142857142856,412.47767857142856,3179.4,334.57142857142856,412.47767857142856,3284.1,333.57142857142856,409.47767857142856,3388.8,333.57142857142856,409.47767857142856,3489.2,333.57142857142856,409.47767857142856,3589.3,333.57142857142856,409.47767857142856,3689.3,333.57142857142856,409.47767857142856,3794.3,333.57142857142856,409.47767857142856,3898.7,333.57142857142856,409.47767857142856,3998.8,333.57142857142856,409.47767857142856,4099.2,333.57142857142856,409.47767857142856,4199.7,332.57142857142856,417.47767857142856,4300.7,332.57142857142856,417.47767857142856,4404.6,332.57142857142856,419.47767857142856,4509,333.57142857142856,419.47767857142856,4614.6,336.57142857142856,419.47767857142856,4719,342.57142857142856,419.47767857142856,4824.6,349.57142857142856,422.47767857142856,4928.6]","[1311.7,1311.7,1000,0,311.7,""smooth"",""left"",""left"",""good_move"",3725.4,2413.5,2109.4,1312,304.1,""oops"",""up"",""left"",""good_move"",6104.7,2379.1,1670.2,3725.6,708.9,""smooth"",""left"",""left"",""good_move"",9361.6,3256.8,2881.1,6104.8,375.7,""smooth"",""up"",""up"",""good_move"",12582.7,3220.8,2861.3,9361.9,359.5,""oops"",""up"",""down"",""bad_move"",15428.9,2845.9,2544.2,12583,301.7,""oops"",""up"",""right"",""bad_move"",17290.8,1861.7,1523.8,15429.1,337.9,""oops"",""up"",""up"",""good_move"",20306.7,3015.7,2709.3,17291,306.4,""smooth"",""up"",""up"",""good_move""]","","",""
"3086","","<div style=""width:500px;"">
  <p>What determined the result of this run?</p>
  </div>","7","html-slider-response","64","1061157","0.0-10.0-1.4","169","1","2025-07-02 10:23:00","80fe4187154257d5fb01684ea91b68b9","78.137.214.242","Mozilla/5.0 (Windows NT 10.0; Win64; x64) AppleWebKit/537.36 (KHTML, like Gecko) Chrome/138.0.0.0 Safari/537.36","WebKit","Chrome","138.0.0.0","Windows","10.0","https://app.prolific.com/","en-US,en;q=0.9,pt;q=0.8","6744700ac7a3406e40f009c5","683db6dfa200031b80f2a654","6865077cf069321cf23b729e","6744700ac7a3406e40f009c5","2025-07-02T10:40:41.257Z","","","","","","AttribQ","","","","","","","","","","","","","","","","","","","","","","","","","","","","","","","","","","","","","","50",""
"2164","","<div style=""width:500px;"">
  <p>How much control did you have over the ball?</p>
  </div>","18","html-slider-response","65","1063322","0.0-10.0-2.4","169","1","2025-07-02 10:23:00","80fe4187154257d5fb01684ea91b68b9","78.137.214.242","Mozilla/5.0 (Windows NT 10.0; Win64; x64) AppleWebKit/537.36 (KHTML, like Gecko) Chrome/138.0.0.0 Safari/537.36","WebKit","Chrome","138.0.0.0","Windows","10.0","https://app.prolific.com/","en-US,en;q=0.9,pt;q=0.8","6744700ac7a3406e40f009c5","683db6dfa200031b80f2a654","6865077cf069321cf23b729e","6744700ac7a3406e40f009c5","2025-07-02T10:40:43.422Z","","","","","","ControlQ","","","","","","","","","","","","","","","","","","","","","","","","","","","","","","","","","","","","","","50",""
"5383","","<div style=""width:500px;"">
  <p>How would you describe your current emotional state?</p>
  </div>","80","html-slider-response","66","1068706","0.0-10.0-3.4","169","1","2025-07-02 10:23:00","80fe4187154257d5fb01684ea91b68b9","78.137.214.242","Mozilla/5.0 (Windows NT 10.0; Win64; x64) AppleWebKit/537.36 (KHTML, like Gecko) Chrome/138.0.0.0 Safari/537.36","WebKit","Chrome","138.0.0.0","Windows","10.0","https://app.prolific.com/","en-US,en;q=0.9,pt;q=0.8","6744700ac7a3406e40f009c5","683db6dfa200031b80f2a654","6865077cf069321cf23b729e","6744700ac7a3406e40f009c5","2025-07-02T10:40:48.806Z","","","","","","StressQ","","","","","","","","","","","","","","","","","","","","","","","","","","","","","","","","","","","","","","50",""
"2422","","<div style=""width:500px;"">
  <p>What best describes how you currently feel?</p>
  </div>","89","html-slider-response","67","1071129","0.0-10.0-4.4","169","1","2025-07-02 10:23:00","80fe4187154257d5fb01684ea91b68b9","78.137.214.242","Mozilla/5.0 (Windows NT 10.0; Win64; x64) AppleWebKit/537.36 (KHTML, like Gecko) Chrome/138.0.0.0 Safari/537.36","WebKit","Chrome","138.0.0.0","Windows","10.0","https://app.prolific.com/","en-US,en;q=0.9,pt;q=0.8","6744700ac7a3406e40f009c5","683db6dfa200031b80f2a654","6865077cf069321cf23b729e","6744700ac7a3406e40f009c5","2025-07-02T10:40:51.229Z","","","","","","MotivationQ","","","","","","","","","","","","","","","","","","","","","","","","","","","","","","","","","","","","","","50",""
"","","","","ctl-task-cpt","68","1102262","0.0-10.0-0.5","169","1","2025-07-02 10:23:00","80fe4187154257d5fb01684ea91b68b9","78.137.214.242","Mozilla/5.0 (Windows NT 10.0; Win64; x64) AppleWebKit/537.36 (KHTML, like Gecko) Chrome/138.0.0.0 Safari/537.36","WebKit","Chrome","138.0.0.0","Windows","10.0","https://app.prolific.com/","en-US,en;q=0.9,pt;q=0.8","6744700ac7a3406e40f009c5","683db6dfa200031b80f2a654","6865077cf069321cf23b729e","6744700ac7a3406e40f009c5","2025-07-02T10:41:22.362Z","","","","","","","","","","","","","","","","win-only","3","g1:SW,g2:NE","0.5","6","0","1072166.9","751.8","5756","28115.1","1","4","4","6","2","4","4","18","14","0.13636363636363635","916","3000","740","[""up"",""right""]","{""num_key_presses"":6,""num_perfect"":4,""num_errors"":0,""num_randdir"":2,""num_randdir_good_moves"":2,""num_whilered"":0,""num_whileblue"":0,""num_blue"":2,""num_good_moves"":6}","[413.57142857142856,424.47767857142856,0.1,413.57142857142856,424.47767857142856,104.1,413.57142857142856,424.47767857142856,209.5,405.57142857142856,426.47767857142856,313.5,386.57142857142856,435.47767857142856,414.1,409.57142857142856,439.47767857142856,514.4,631.5714285714286,246.47767857142856,619.6,667.5714285714286,187.47767857142856,723.4,679.5714285714286,157.47767857142856,823.6,740.5714285714286,83.47767857142857,929,740.5714285714286,83.47767857142857,1034.7,740.5714285714286,90.47767857142857,1139,741.5714285714286,104.47767857142857,1244,741.5714285714286,158.47767857142856,1344.7,734.5714285714286,212.47767857142856,1449.3,730.5714285714286,239.47767857142856,1553.5,724.5714285714286,231.47767857142856,1659.6,726.5714285714286,228.47767857142856,1764.5,726.5714285714286,228.47767857142856,1869.1,727.5714285714286,235.47767857142856,1973.3,727.5714285714286,243.47767857142856,2074.6,724.5714285714286,248.47767857142856,2179.3,723.5714285714286,251.47767857142856,2283.7,724.5714285714286,254.47767857142856,2389.7,724.5714285714286,255.47767857142856,2494.2,723.5714285714286,257.47767857142856,2594.5,723.5714285714286,259.47767857142856,2698.9,721.5714285714286,261.47767857142856,2799,721.5714285714286,262.47767857142856,2899.7,723.5714285714286,263.47767857142856,3003.5,730.5714285714286,268.47767857142856,3103.7,731.5714285714286,276.47767857142856,3208.7,732.5714285714286,280.47767857142856,3308.8,732.5714285714286,281.47767857142856,3414.4,740.5714285714286,296.47767857142856,3519.6,746.5714285714286,300.47767857142856,3624.1,751.5714285714286,302.47767857142856,3724.3,754.5714285714286,305.47767857142856,3828.5,757.5714285714286,305.47767857142856,3929.4,758.5714285714286,306.47767857142856,4033.7,759.5714285714286,306.47767857142856,4133.9,760.5714285714286,307.47767857142856,4234.1,760.5714285714286,307.47767857142856,4338.6,760.5714285714286,307.47767857142856,4444.3,761.5714285714286,307.47767857142856,4548.5,761.5714285714286,307.47767857142856,4649.7,761.5714285714286,308.47767857142856,4754.1,761.5714285714286,308.47767857142856,4854.7,761.5714285714286,308.47767857142856,4958.7]","[1334.7,1334.7,1000,0,334.7,""smooth"",""right"",""right"",""good_move"",5076.8,3742,3183.3,1334.8,558.7,""smooth"",""right"",""right"",""good_move"",11795.6,6718.7,2511.7,8914.4,369.5,""oops"",""up"",""up"",""good_move"",18056.8,6260.9,2428.6,15224.9,403.3,""smooth"",""up"",""up"",""good_move"",20215.6,2158.7,1846.4,18056.9,312.3,""oops"",""right"",""up"",""good_move"",22272.7,2057,1757.9,20215.7,299.1,""smooth"",""right"",""right"",""good_move""]","","",""
"6181","","<div style=""width:500px;"">
  <p>What determined the result of this run?</p>
  </div>","80","html-slider-response","69","1108443","0.0-10.0-1.5","169","1","2025-07-02 10:23:00","80fe4187154257d5fb01684ea91b68b9","78.137.214.242","Mozilla/5.0 (Windows NT 10.0; Win64; x64) AppleWebKit/537.36 (KHTML, like Gecko) Chrome/138.0.0.0 Safari/537.36","WebKit","Chrome","138.0.0.0","Windows","10.0","https://app.prolific.com/","en-US,en;q=0.9,pt;q=0.8","6744700ac7a3406e40f009c5","683db6dfa200031b80f2a654","6865077cf069321cf23b729e","6744700ac7a3406e40f009c5","2025-07-02T10:41:28.543Z","","","","","","AttribQ","","","","","","","","","","","","","","","","","","","","","","","","","","","","","","","","","","","","","","50",""
"3921","","<div style=""width:500px;"">
  <p>How much control did you have over the ball?</p>
  </div>","76","html-slider-response","70","1112365","0.0-10.0-2.5","169","1","2025-07-02 10:23:00","80fe4187154257d5fb01684ea91b68b9","78.137.214.242","Mozilla/5.0 (Windows NT 10.0; Win64; x64) AppleWebKit/537.36 (KHTML, like Gecko) Chrome/138.0.0.0 Safari/537.36","WebKit","Chrome","138.0.0.0","Windows","10.0","https://app.prolific.com/","en-US,en;q=0.9,pt;q=0.8","6744700ac7a3406e40f009c5","683db6dfa200031b80f2a654","6865077cf069321cf23b729e","6744700ac7a3406e40f009c5","2025-07-02T10:41:32.465Z","","","","","","ControlQ","","","","","","","","","","","","","","","","","","","","","","","","","","","","","","","","","","","","","","50",""
"3340","","<div style=""width:500px;"">
  <p>How would you describe your current emotional state?</p>
  </div>","56","html-slider-response","71","1115705","0.0-10.0-3.5","169","1","2025-07-02 10:23:00","80fe4187154257d5fb01684ea91b68b9","78.137.214.242","Mozilla/5.0 (Windows NT 10.0; Win64; x64) AppleWebKit/537.36 (KHTML, like Gecko) Chrome/138.0.0.0 Safari/537.36","WebKit","Chrome","138.0.0.0","Windows","10.0","https://app.prolific.com/","en-US,en;q=0.9,pt;q=0.8","6744700ac7a3406e40f009c5","683db6dfa200031b80f2a654","6865077cf069321cf23b729e","6744700ac7a3406e40f009c5","2025-07-02T10:41:35.805Z","","","","","","StressQ","","","","","","","","","","","","","","","","","","","","","","","","","","","","","","","","","","","","","","50",""
"2368","","<div style=""width:500px;"">
  <p>What best describes how you currently feel?</p>
  </div>","84","html-slider-response","72","1118074","0.0-10.0-4.5","169","1","2025-07-02 10:23:00","80fe4187154257d5fb01684ea91b68b9","78.137.214.242","Mozilla/5.0 (Windows NT 10.0; Win64; x64) AppleWebKit/537.36 (KHTML, like Gecko) Chrome/138.0.0.0 Safari/537.36","WebKit","Chrome","138.0.0.0","Windows","10.0","https://app.prolific.com/","en-US,en;q=0.9,pt;q=0.8","6744700ac7a3406e40f009c5","683db6dfa200031b80f2a654","6865077cf069321cf23b729e","6744700ac7a3406e40f009c5","2025-07-02T10:41:38.174Z","","","","","","MotivationQ","","","","","","","","","","","","","","","","","","","","","","","","","","","","","","","","","","","","","","50",""
"","","","","ctl-task-cpt","73","1143138","0.0-10.0-0.6","169","1","2025-07-02 10:23:00","80fe4187154257d5fb01684ea91b68b9","78.137.214.242","Mozilla/5.0 (Windows NT 10.0; Win64; x64) AppleWebKit/537.36 (KHTML, like Gecko) Chrome/138.0.0.0 Safari/537.36","WebKit","Chrome","138.0.0.0","Windows","10.0","https://app.prolific.com/","en-US,en;q=0.9,pt;q=0.8","6744700ac7a3406e40f009c5","683db6dfa200031b80f2a654","6865077cf069321cf23b729e","6744700ac7a3406e40f009c5","2025-07-02T10:42:03.238Z","","","","","","","","","","","","","","","","win-only","2","g1:SE,g2:NW","0.4","7","0","1119112.6","825","5825.8","22045.7","1","4","8","6","2","8","8","26","18","0.19696969696969696","978.2","3000","425","[""left"",""up""]","{""num_key_presses"":6,""num_perfect"":3,""num_errors"":0,""num_randdir"":3,""num_randdir_good_moves"":3,""num_whilered"":0,""num_whileblue"":0,""num_blue"":0,""num_good_moves"":6}","[422.57142857142856,424.47767857142856,0,422.57142857142856,424.47767857142856,100.6,426.57142857142856,428.47767857142856,201,434.57142857142856,445.47767857142856,305.4,459.57142857142856,475.47767857142856,410.8,458.57142857142856,472.47767857142856,515.2,274.57142857142856,327.47767857142856,620.6,173.57142857142856,198.47767857142856,720.6,151.57142857142856,173.47767857142856,825.6,69.57142857142857,107.47767857142857,926.4,57.57142857142857,96.47767857142857,1030.9,61.57142857142857,104.47767857142857,1135.5,139.57142857142856,194.47767857142856,1235.6,205.57142857142856,261.47767857142856,1340.6,251.57142857142856,282.47767857142856,1440.9,287.57142857142856,287.47767857142856,1545.6,303.57142857142856,292.47767857142856,1651,307.57142857142856,289.47767857142856,1751.4,305.57142857142856,289.47767857142856,1856.4,294.57142857142856,283.47767857142856,1960.7,306.57142857142856,252.47767857142856,2065.3,311.57142857142856,252.47767857142856,2165.3,323.57142857142856,251.47767857142856,2265.8,329.57142857142856,255.47767857142856,2370.9,339.57142857142856,256.47767857142856,2476.1,362.57142857142856,255.47767857142856,2580.2,388.57142857142856,258.47767857142856,2680.2,402.57142857142856,259.47767857142856,2780.2,414.57142857142856,259.47767857142856,2880.9,418.57142857142856,257.47767857142856,2985.2,416.57142857142856,249.47767857142856,3086,402.57142857142856,245.47767857142856,3190.3,390.57142857142856,246.47767857142856,3295.5,390.57142857142856,247.47767857142856,3395.9,380.57142857142856,256.47767857142856,3495.9,348.57142857142856,271.47767857142856,3600.3,336.57142857142856,278.47767857142856,3700.8,334.57142857142856,278.47767857142856,3806.5,333.57142857142856,265.47767857142856,3910.7,337.57142857142856,267.47767857142856,4016.4,335.57142857142856,284.47767857142856,4120.3,327.57142857142856,297.47767857142856,4220.3,333.57142857142856,300.47767857142856,4320.9,331.57142857142856,303.47767857142856,4425.6,330.57142857142856,304.47767857142856,4530.3,342.57142857142856,303.47767857142856,4630.8,356.57142857142856,290.47767857142856,4731.1,362.57142857142856,284.47767857142856,4835.4,366.57142857142856,285.47767857142856,4935.5]","[1418.1,1418.1,1000,0,418.1,""oops"",""left"",""up"",""good_move"",3737.3,2319,1870.7,1418.3,448.3,""oops"",""left"",""up"",""good_move"",6855.4,3117.9,2735.8,3737.5,382.1,""smooth"",""left"",""left"",""good_move"",9873.2,3017.6,2682.2,6855.6,335.4,""smooth"",""left"",""left"",""good_move"",12374.1,2500.7,1800,9873.4,700.7,""smooth"",""left"",""left"",""good_move"",16132.2,3758,3436.1,12374.2,321.9,""oops"",""up"",""up"",""good_move""]","","",""
"4006","","<div style=""width:500px;"">
  <p>What determined the result of this run?</p>
  </div>","66","html-slider-response","74","1147145","0.0-10.0-1.6","169","1","2025-07-02 10:23:00","80fe4187154257d5fb01684ea91b68b9","78.137.214.242","Mozilla/5.0 (Windows NT 10.0; Win64; x64) AppleWebKit/537.36 (KHTML, like Gecko) Chrome/138.0.0.0 Safari/537.36","WebKit","Chrome","138.0.0.0","Windows","10.0","https://app.prolific.com/","en-US,en;q=0.9,pt;q=0.8","6744700ac7a3406e40f009c5","683db6dfa200031b80f2a654","6865077cf069321cf23b729e","6744700ac7a3406e40f009c5","2025-07-02T10:42:07.245Z","","","","","","AttribQ","","","","","","","","","","","","","","","","","","","","","","","","","","","","","","","","","","","","","","50",""
"2921","","<div style=""width:500px;"">
  <p>How much control did you have over the ball?</p>
  </div>","72","html-slider-response","75","1150066","0.0-10.0-2.6","169","1","2025-07-02 10:23:00","80fe4187154257d5fb01684ea91b68b9","78.137.214.242","Mozilla/5.0 (Windows NT 10.0; Win64; x64) AppleWebKit/537.36 (KHTML, like Gecko) Chrome/138.0.0.0 Safari/537.36","WebKit","Chrome","138.0.0.0","Windows","10.0","https://app.prolific.com/","en-US,en;q=0.9,pt;q=0.8","6744700ac7a3406e40f009c5","683db6dfa200031b80f2a654","6865077cf069321cf23b729e","6744700ac7a3406e40f009c5","2025-07-02T10:42:10.166Z","","","","","","ControlQ","","","","","","","","","","","","","","","","","","","","","","","","","","","","","","","","","","","","","","50",""
"5074","","<div style=""width:500px;"">
  <p>How would you describe your current emotional state?</p>
  </div>","50","html-slider-response","76","1155141","0.0-10.0-3.6","169","1","2025-07-02 10:23:00","80fe4187154257d5fb01684ea91b68b9","78.137.214.242","Mozilla/5.0 (Windows NT 10.0; Win64; x64) AppleWebKit/537.36 (KHTML, like Gecko) Chrome/138.0.0.0 Safari/537.36","WebKit","Chrome","138.0.0.0","Windows","10.0","https://app.prolific.com/","en-US,en;q=0.9,pt;q=0.8","6744700ac7a3406e40f009c5","683db6dfa200031b80f2a654","6865077cf069321cf23b729e","6744700ac7a3406e40f009c5","2025-07-02T10:42:15.241Z","","","","","","StressQ","","","","","","","","","","","","","","","","","","","","","","","","","","","","","","","","","","","","","","50",""
"2079","","<div style=""width:500px;"">
  <p>What best describes how you currently feel?</p>
  </div>","83","html-slider-response","77","1157221","0.0-10.0-4.6","169","1","2025-07-02 10:23:00","80fe4187154257d5fb01684ea91b68b9","78.137.214.242","Mozilla/5.0 (Windows NT 10.0; Win64; x64) AppleWebKit/537.36 (KHTML, like Gecko) Chrome/138.0.0.0 Safari/537.36","WebKit","Chrome","138.0.0.0","Windows","10.0","https://app.prolific.com/","en-US,en;q=0.9,pt;q=0.8","6744700ac7a3406e40f009c5","683db6dfa200031b80f2a654","6865077cf069321cf23b729e","6744700ac7a3406e40f009c5","2025-07-02T10:42:17.321Z","","","","","","MotivationQ","","","","","","","","","","","","","","","","","","","","","","","","","","","","","","","","","","","","","","50",""
"","","","","ctl-task-cpt","78","1204899","0.0-10.0-0.7","169","1","2025-07-02 10:23:00","80fe4187154257d5fb01684ea91b68b9","78.137.214.242","Mozilla/5.0 (Windows NT 10.0; Win64; x64) AppleWebKit/537.36 (KHTML, like Gecko) Chrome/138.0.0.0 Safari/537.36","WebKit","Chrome","138.0.0.0","Windows","10.0","https://app.prolific.com/","en-US,en;q=0.9,pt;q=0.8","6744700ac7a3406e40f009c5","683db6dfa200031b80f2a654","6865077cf069321cf23b729e","6744700ac7a3406e40f009c5","2025-07-02T10:43:04.999Z","","","","","","","","","","","","","","","","win-only","0","g1:NW,g2:SE","0.3","8","0","1158258.9","756.2","5761.2","44660.7","1","4","4","6","2","-4","-5","21","26","0.1590909090909091","954.9","3000","-3015","[""down"",""right""]","{""num_key_presses"":11,""num_perfect"":3,""num_errors"":1,""num_randdir"":7,""num_randdir_good_moves"":1,""num_whilered"":0,""num_whileblue"":0,""num_blue"":1,""num_good_moves"":4}","[414.57142857142856,419.47767857142856,0.1,414.57142857142856,419.47767857142856,105.1,414.57142857142856,419.47767857142856,209.8,409.57142857142856,421.47767857142856,315.1,395.57142857142856,422.47767857142856,419.3,376.57142857142856,389.47767857142856,519.3,369.57142857142856,374.47767857142856,620.2,856.5714285714286,744.4776785714286,724.9,797.5714285714286,767.4776785714286,829.2,737.5714285714286,746.4776785714286,929.4,745.5714285714286,745.4776785714286,1030.6,749.5714285714286,747.4776785714286,1134.6,763.5714285714286,742.4776785714286,1234.7,771.5714285714286,660.4776785714286,1334.7,737.5714285714286,555.4776785714286,1439.3,733.5714285714286,539.4776785714286,1544.2,732.5714285714286,528.4776785714286,1645.1,731.5714285714286,525.4776785714286,1749.2,731.5714285714286,524.4776785714286,1849.4,731.5714285714286,524.4776785714286,1954,731.5714285714286,524.4776785714286,2054,731.5714285714286,524.4776785714286,2155.1,731.5714285714286,524.4776785714286,2259.3,731.5714285714286,524.4776785714286,2359.7,731.5714285714286,524.4776785714286,2465.5,731.5714285714286,524.4776785714286,2569.4,731.5714285714286,524.4776785714286,2675.8,731.5714285714286,524.4776785714286,2779.6,732.5714285714286,524.4776785714286,2879.8,779.5714285714286,511.47767857142856,2979.9,838.5714285714286,487.47767857142856,3085,838.5714285714286,487.47767857142856,3185,838.5714285714286,487.47767857142856,3289.2,838.5714285714286,487.47767857142856,3389.4,838.5714285714286,487.47767857142856,3495.1,838.5714285714286,487.47767857142856,3599.7,838.5714285714286,487.47767857142856,3700,838.5714285714286,487.47767857142856,3805.1,840.5714285714286,485.47767857142856,3905.2,841.5714285714286,485.47767857142856,4009.3,842.5714285714286,484.47767857142856,4115,843.5714285714286,483.47767857142856,4215.5,843.5714285714286,483.47767857142856,4318.9,844.5714285714286,482.47767857142856,4419,844.5714285714286,481.47767857142856,4519.2,852.5714285714286,477.47767857142856,4619.3,858.5714285714286,475.47767857142856,4720,861.5714285714286,474.47767857142856,4825.3,864.5714285714286,472.47767857142856,4928.8]","[1332.6,1332.6,1000,0,332.6,""smooth"",""down"",""down"",""good_move"",4576.6,3243.8,2852.9,1332.8,390.9,""smooth"",""right"",""right"",""good_move"",7159.4,2582.5,2266.1,4576.9,316.4,""oops"",""down"",""up"",""bad_move"",10320.4,3160.8,2869.9,7159.6,290.9,""oops"",""down"",""up"",""bad_move"",12978.5,2658,2357,10320.5,301,""oops"",""down"",""up"",""bad_move"",15609.7,2631,2343.9,12978.7,287.1,""oops"",""down"",""down"",""good_move"",18645.4,3035.6,2774.9,15609.8,260.7,""smooth"",""down"",""down"",""good_move"",21742.4,3096.8,2843.3,18645.6,253.5,""oops"",""down"",""left"",""bad_move"",24508.4,2765.8,2495.9,21742.6,269.9,""oops"",""down"",""up"",""bad_move"",28242.6,3733.9,3468.4,24508.7,265.5,""oops"",""down"",""left"",""bad_move"",30915.4,2672.6,2809.6,28242.8,-137,""error"",""-"",""-"",""no_move""]","","",""
"3199","","<div style=""width:500px;"">
  <p>What determined the result of this run?</p>
  </div>","0","html-slider-response","79","1208098","0.0-10.0-1.7","169","1","2025-07-02 10:23:00","80fe4187154257d5fb01684ea91b68b9","78.137.214.242","Mozilla/5.0 (Windows NT 10.0; Win64; x64) AppleWebKit/537.36 (KHTML, like Gecko) Chrome/138.0.0.0 Safari/537.36","WebKit","Chrome","138.0.0.0","Windows","10.0","https://app.prolific.com/","en-US,en;q=0.9,pt;q=0.8","6744700ac7a3406e40f009c5","683db6dfa200031b80f2a654","6865077cf069321cf23b729e","6744700ac7a3406e40f009c5","2025-07-02T10:43:08.198Z","","","","","","AttribQ","","","","","","","","","","","","","","","","","","","","","","","","","","","","","","","","","","","","","","50",""
"1626","","<div style=""width:500px;"">
  <p>How much control did you have over the ball?</p>
  </div>","0","html-slider-response","80","1209725","0.0-10.0-2.7","169","1","2025-07-02 10:23:00","80fe4187154257d5fb01684ea91b68b9","78.137.214.242","Mozilla/5.0 (Windows NT 10.0; Win64; x64) AppleWebKit/537.36 (KHTML, like Gecko) Chrome/138.0.0.0 Safari/537.36","WebKit","Chrome","138.0.0.0","Windows","10.0","https://app.prolific.com/","en-US,en;q=0.9,pt;q=0.8","6744700ac7a3406e40f009c5","683db6dfa200031b80f2a654","6865077cf069321cf23b729e","6744700ac7a3406e40f009c5","2025-07-02T10:43:09.825Z","","","","","","ControlQ","","","","","","","","","","","","","","","","","","","","","","","","","","","","","","","","","","","","","","50",""
"1824","","<div style=""width:500px;"">
  <p>How would you describe your current emotional state?</p>
  </div>","74","html-slider-response","81","1211550","0.0-10.0-3.7","169","1","2025-07-02 10:23:00","80fe4187154257d5fb01684ea91b68b9","78.137.214.242","Mozilla/5.0 (Windows NT 10.0; Win64; x64) AppleWebKit/537.36 (KHTML, like Gecko) Chrome/138.0.0.0 Safari/537.36","WebKit","Chrome","138.0.0.0","Windows","10.0","https://app.prolific.com/","en-US,en;q=0.9,pt;q=0.8","6744700ac7a3406e40f009c5","683db6dfa200031b80f2a654","6865077cf069321cf23b729e","6744700ac7a3406e40f009c5","2025-07-02T10:43:11.651Z","","","","","","StressQ","","","","","","","","","","","","","","","","","","","","","","","","","","","","","","","","","","","","","","50",""
"1979","","<div style=""width:500px;"">
  <p>What best describes how you currently feel?</p>
  </div>","76","html-slider-response","82","1213530","0.0-10.0-4.7","169","1","2025-07-02 10:23:00","80fe4187154257d5fb01684ea91b68b9","78.137.214.242","Mozilla/5.0 (Windows NT 10.0; Win64; x64) AppleWebKit/537.36 (KHTML, like Gecko) Chrome/138.0.0.0 Safari/537.36","WebKit","Chrome","138.0.0.0","Windows","10.0","https://app.prolific.com/","en-US,en;q=0.9,pt;q=0.8","6744700ac7a3406e40f009c5","683db6dfa200031b80f2a654","6865077cf069321cf23b729e","6744700ac7a3406e40f009c5","2025-07-02T10:43:13.630Z","","","","","","MotivationQ","","","","","","","","","","","","","","","","","","","","","","","","","","","","","","","","","","","","","","50",""
"","","","","ctl-task-cpt","83","1251858","0.0-10.0-0.8","169","1","2025-07-02 10:23:00","80fe4187154257d5fb01684ea91b68b9","78.137.214.242","Mozilla/5.0 (Windows NT 10.0; Win64; x64) AppleWebKit/537.36 (KHTML, like Gecko) Chrome/138.0.0.0 Safari/537.36","WebKit","Chrome","138.0.0.0","Windows","10.0","https://app.prolific.com/","en-US,en;q=0.9,pt;q=0.8","6744700ac7a3406e40f009c5","683db6dfa200031b80f2a654","6865077cf069321cf23b729e","6744700ac7a3406e40f009c5","2025-07-02T10:43:51.958Z","","","","","","","","","","","","","","","","win-only","0","g1:NW,g2:SE","0.4","9","0","1214567.8","818","5820.8","35310.6","1","4","4","6","2","-4","-4","17","21","0.12878787878787878","685","3000","-3015","[""down"",""right""]","{""num_key_presses"":8,""num_perfect"":4,""num_errors"":0,""num_randdir"":4,""num_randdir_good_moves"":2,""num_whilered"":0,""num_whileblue"":0,""num_blue"":2,""num_good_moves"":6}","[424.57142857142856,409.47767857142856,0.1,424.57142857142856,409.47767857142856,102.8,424.57142857142856,409.47767857142856,202.8,421.57142857142856,454.47767857142856,307.5,432.57142857142856,480.47767857142856,408.2,658.5714285714286,649.4776785714286,508.4,746.5714285714286,746.4776785714286,612.5,756.5714285714286,747.4776785714286,713,756.5714285714286,747.4776785714286,817.3,755.5714285714286,746.4776785714286,918.1,734.5714285714286,718.4776785714286,1022.8,729.5714285714286,699.4776785714286,1122.8,745.5714285714286,682.4776785714286,1227.8,731.5714285714286,554.4776785714286,1328,731.5714285714286,525.4776785714286,1432.3,755.5714285714286,522.4776785714286,1532.7,779.5714285714286,521.4776785714286,1632.8,787.5714285714286,519.4776785714286,1732.8,791.5714285714286,518.4776785714286,1833,793.5714285714286,517.4776785714286,1937.2,795.5714285714286,516.4776785714286,2037.5,802.5714285714286,514.4776785714286,2142.1,829.5714285714286,508.47767857142856,2243,839.5714285714286,508.47767857142856,2347.1,880.5714285714286,503.47767857142856,2447.4,913.5714285714286,508.47767857142856,2552.9,924.5714285714286,508.47767857142856,2657.3,932.5714285714286,504.47767857142856,2757.7,940.5714285714286,501.47767857142856,2858.3,946.5714285714286,497.47767857142856,2962.6,951.5714285714286,493.47767857142856,3068.6,958.5714285714286,488.47767857142856,3172.4,962.5714285714286,485.47767857142856,3272.7,964.5714285714286,484.47767857142856,3377.6,967.5714285714286,482.47767857142856,3478.3,969.5714285714286,480.47767857142856,3582.4,973.5714285714286,479.47767857142856,3687.2,974.5714285714286,479.47767857142856,3787.3,974.5714285714286,479.47767857142856,3893.2,974.5714285714286,479.47767857142856,3998.1,975.5714285714286,478.47767857142856,4102.8,975.5714285714286,478.47767857142856,4208,975.5714285714286,478.47767857142856,4312.3,975.5714285714286,478.47767857142856,4412.4,975.5714285714286,478.47767857142856,4518.2,975.5714285714286,478.47767857142856,4623,975.5714285714286,478.47767857142856,4728.3,975.5714285714286,478.47767857142856,4828.4,975.5714285714286,478.47767857142856,4932.5]","[1393.9,1393.9,1000,0,393.9,""smooth"",""down"",""down"",""good_move"",4542,3147.8,2629.9,1394.2,517.9,""smooth"",""down"",""down"",""good_move"",7340.9,2798.8,2451.4,4542.1,347.4,""oops"",""right"",""right"",""good_move"",10183.9,2842.8,2467.2,7341.1,375.6,""smooth"",""right"",""right"",""good_move"",13059.9,2875.9,2609.3,10184,266.6,""oops"",""down"",""right"",""good_move"",14977,1916.9,1570.5,13060.1,346.4,""oops"",""down"",""up"",""bad_move"",21564.9,6587.7,2629.1,18680.1,255.7,""smooth"",""down"",""down"",""good_move"",27212.2,5647,2480.1,24399.5,332.6,""oops"",""down"",""up"",""bad_move""]","","",""
"1814","","<div style=""width:500px;"">
  <p>What determined the result of this run?</p>
  </div>","0","html-slider-response","84","1253673","0.0-10.0-1.8","169","1","2025-07-02 10:23:00","80fe4187154257d5fb01684ea91b68b9","78.137.214.242","Mozilla/5.0 (Windows NT 10.0; Win64; x64) AppleWebKit/537.36 (KHTML, like Gecko) Chrome/138.0.0.0 Safari/537.36","WebKit","Chrome","138.0.0.0","Windows","10.0","https://app.prolific.com/","en-US,en;q=0.9,pt;q=0.8","6744700ac7a3406e40f009c5","683db6dfa200031b80f2a654","6865077cf069321cf23b729e","6744700ac7a3406e40f009c5","2025-07-02T10:43:53.773Z","","","","","","AttribQ","","","","","","","","","","","","","","","","","","","","","","","","","","","","","","","","","","","","","","50",""
"2148","","<div style=""width:500px;"">
  <p>How much control did you have over the ball?</p>
  </div>","0","html-slider-response","85","1255822","0.0-10.0-2.8","169","1","2025-07-02 10:23:00","80fe4187154257d5fb01684ea91b68b9","78.137.214.242","Mozilla/5.0 (Windows NT 10.0; Win64; x64) AppleWebKit/537.36 (KHTML, like Gecko) Chrome/138.0.0.0 Safari/537.36","WebKit","Chrome","138.0.0.0","Windows","10.0","https://app.prolific.com/","en-US,en;q=0.9,pt;q=0.8","6744700ac7a3406e40f009c5","683db6dfa200031b80f2a654","6865077cf069321cf23b729e","6744700ac7a3406e40f009c5","2025-07-02T10:43:55.922Z","","","","","","ControlQ","","","","","","","","","","","","","","","","","","","","","","","","","","","","","","","","","","","","","","50",""
"1771","","<div style=""width:500px;"">
  <p>How would you describe your current emotional state?</p>
  </div>","100","html-slider-response","86","1257594","0.0-10.0-3.8","169","1","2025-07-02 10:23:00","80fe4187154257d5fb01684ea91b68b9","78.137.214.242","Mozilla/5.0 (Windows NT 10.0; Win64; x64) AppleWebKit/537.36 (KHTML, like Gecko) Chrome/138.0.0.0 Safari/537.36","WebKit","Chrome","138.0.0.0","Windows","10.0","https://app.prolific.com/","en-US,en;q=0.9,pt;q=0.8","6744700ac7a3406e40f009c5","683db6dfa200031b80f2a654","6865077cf069321cf23b729e","6744700ac7a3406e40f009c5","2025-07-02T10:43:57.694Z","","","","","","StressQ","","","","","","","","","","","","","","","","","","","","","","","","","","","","","","","","","","","","","","50",""
