"rt","response_timestamp","stimulus","response","trial_type","trial_index","time_elapsed","internal_node_id","run_id","condition","recorded_at","source_code_version","ip","user_agent","device","browser","browser_version","platform","platform_version","referer","accept_language","PROLIFIC_PID","STUDY_ID","SESSION_ID","prolific_id","realtime","view_history","question_order","consent","success","question_id","eventType","responses","item_order","radio_event_ids","radio_event_times","key_event_times","mouse_event_times","straightlining","zigzagging","honeypot","which_type","canvas_config","goals_layout","control_level","trial_number","tutorial_trial_number","trial_start_time","phase1_start_time","phase2_start_time","phase3_start_time","goal_1_value","goal_1_distance","goal_2_value","goal_2_distance","goal_selected","outcome","outcome_total","participant_final_score","participant_initial_score","participant_final_score_prop","goal_choice_rt","allocated_time","allocated_time_remaining","goal_direction","counts","mouse_movements","key_presses","correct","slider_start","sub_question"
"7532","1751455624719","<p style='font-size:40px;line-height:1.25'><strong>Welcome to the experiment!</strong></p><p style='font-size:1.1em;line-height:1.25'>Thank you for your interest in our experiment! Before you begin, it is important that we obtain your informed consent to participate in the study.</p><p style='font-size:1.1em;line-height:1.25'>On the next screen will be an <strong>information sheet</strong> for you to read. To participate in the study we need you to read this information sheet and the following consent form carefully. If you agree with all the statements, please click the <strong>I agree</strong> button.</p><p style='font-size:1.1em;line-height:1.25'>Press <strong>Next</strong> to read the information sheet.</p>","0","custom-html-button-response","0","7538","0.0-0.0","238","1","2025-07-02 11:26:36","80fe4187154257d5fb01684ea91b68b9","41.144.102.92","Mozilla/5.0 (Windows NT 10.0; Win64; x64) AppleWebKit/537.36 (KHTML, like Gecko) Chrome/137.0.0.0 Safari/537.36","WebKit","Chrome","137.0.0.0","Windows","10.0","https://app.prolific.com/","en-US,en;q=0.9","6745d8ba436b1416f92aa9b8","683db6dfa200031b80f2a654","686513826a08ebe2c460e19f","6745d8ba436b1416f92aa9b8","2025-07-02T11:27:04.722Z","","","","","","","","","","","","","","","","","","","","","","","","","","","","","","","","","","","","","","","","","","","","",""
"27049","","","","instructions","1","34590","0.0-1.0","238","1","2025-07-02 11:26:36","80fe4187154257d5fb01684ea91b68b9","41.144.102.92","Mozilla/5.0 (Windows NT 10.0; Win64; x64) AppleWebKit/537.36 (KHTML, like Gecko) Chrome/137.0.0.0 Safari/537.36","WebKit","Chrome","137.0.0.0","Windows","10.0","https://app.prolific.com/","en-US,en;q=0.9","6745d8ba436b1416f92aa9b8","683db6dfa200031b80f2a654","686513826a08ebe2c460e19f","6745d8ba436b1416f92aa9b8","","[{""page_index"":0,""viewing_time"":17023},{""page_index"":1,""viewing_time"":10026}]","","","","","","","","","","","","","","","","","","","","","","","","","","","","","","","","","","","","","","","","","","","",""
"7622","","","{""Q0"":"""",""Q1"":"""",""Q2"":"""",""Q3"":"""",""Q4"":"""",""Q5"":"""",""Q6"":""I agree""}","survey-multi-choice","2","42216","0.0-2.0","238","1","2025-07-02 11:26:36","80fe4187154257d5fb01684ea91b68b9","41.144.102.92","Mozilla/5.0 (Windows NT 10.0; Win64; x64) AppleWebKit/537.36 (KHTML, like Gecko) Chrome/137.0.0.0 Safari/537.36","WebKit","Chrome","137.0.0.0","Windows","10.0","https://app.prolific.com/","en-US,en;q=0.9","6745d8ba436b1416f92aa9b8","683db6dfa200031b80f2a654","686513826a08ebe2c460e19f","6745d8ba436b1416f92aa9b8","","","[0,1,2,3,4,5,6]","true","","","","","","","","","","","","","","","","","","","","","","","","","","","","","","","","","","","","","","","","","",""
"16145","","","","fullscreen","3","59381","0.0-4.0","238","1","2025-07-02 11:26:36","80fe4187154257d5fb01684ea91b68b9","41.144.102.92","Mozilla/5.0 (Windows NT 10.0; Win64; x64) AppleWebKit/537.36 (KHTML, like Gecko) Chrome/137.0.0.0 Safari/537.36","WebKit","Chrome","137.0.0.0","Windows","10.0","https://app.prolific.com/","en-US,en;q=0.9","6745d8ba436b1416f92aa9b8","683db6dfa200031b80f2a654","686513826a08ebe2c460e19f","6745d8ba436b1416f92aa9b8","","","","","true","","","","","","","","","","","","","","","","","","","","","","","","","","","","","","","","","","","","","","","","",""
"5058","1751455681624"," <p style='font-size:1.1em;line-height:1.25'>Thank you for completing the consent form and closing all other tabs.</p><p style='font-size:1.1em;line-height:1.25'>We will now invite you to fill in some demographic information and questionnaires, before starting the game.<br>This will take about 5 minutes.<br></p><p style='font-size:1.1em;line-height:1.25'>Press the <strong>Next</strong> button to continue.</p>","0","custom-html-button-response","4","64442","0.0-5.0","238","1","2025-07-02 11:26:36","80fe4187154257d5fb01684ea91b68b9","41.144.102.92","Mozilla/5.0 (Windows NT 10.0; Win64; x64) AppleWebKit/537.36 (KHTML, like Gecko) Chrome/137.0.0.0 Safari/537.36","WebKit","Chrome","137.0.0.0","Windows","10.0","https://app.prolific.com/","en-US,en;q=0.9","6745d8ba436b1416f92aa9b8","683db6dfa200031b80f2a654","686513826a08ebe2c460e19f","6745d8ba436b1416f92aa9b8","2025-07-02T11:28:01.625Z","","","","","","","","","","","","","","","","","","","","","","","","","","","","","","","","","","","","","","","","","","","","",""
"12247","","","{""age"":""28""}","survey-text","5","76695","0.0-6.0-0.0","238","1","2025-07-02 11:26:36","80fe4187154257d5fb01684ea91b68b9","41.144.102.92","Mozilla/5.0 (Windows NT 10.0; Win64; x64) AppleWebKit/537.36 (KHTML, like Gecko) Chrome/137.0.0.0 Safari/537.36","WebKit","Chrome","137.0.0.0","Windows","10.0","https://app.prolific.com/","en-US,en;q=0.9","6745d8ba436b1416f92aa9b8","683db6dfa200031b80f2a654","686513826a08ebe2c460e19f","6745d8ba436b1416f92aa9b8","","","","","","0","demographics","","","","","","","","","","","","","","","","","","","","","","","","","","","","","","","","","","","","","","",""
"5896","","","{""gender_identity"":""female/woman""}","survey-multi-choice","6","82595","0.0-6.0-1.0","238","1","2025-07-02 11:26:36","80fe4187154257d5fb01684ea91b68b9","41.144.102.92","Mozilla/5.0 (Windows NT 10.0; Win64; x64) AppleWebKit/537.36 (KHTML, like Gecko) Chrome/137.0.0.0 Safari/537.36","WebKit","Chrome","137.0.0.0","Windows","10.0","https://app.prolific.com/","en-US,en;q=0.9","6745d8ba436b1416f92aa9b8","683db6dfa200031b80f2a654","686513826a08ebe2c460e19f","6745d8ba436b1416f92aa9b8","","","[0]","","","1","demographics","","","","","","","","","","","","","","","","","","","","","","","","","","","","","","","","","","","","","","",""
"4411","","","{""assigned_sex"":""female""}","survey-multi-choice","7","87008","0.0-6.0-2.0","238","1","2025-07-02 11:26:36","80fe4187154257d5fb01684ea91b68b9","41.144.102.92","Mozilla/5.0 (Windows NT 10.0; Win64; x64) AppleWebKit/537.36 (KHTML, like Gecko) Chrome/137.0.0.0 Safari/537.36","WebKit","Chrome","137.0.0.0","Windows","10.0","https://app.prolific.com/","en-US,en;q=0.9","6745d8ba436b1416f92aa9b8","683db6dfa200031b80f2a654","686513826a08ebe2c460e19f","6745d8ba436b1416f92aa9b8","","","[0]","","","2","demographics","","","","","","","","","","","","","","","","","","","","","","","","","","","","","","","","","","","","","","",""
"7088","","","{""menstrual_cycle"":""Yes""}","survey-multi-choice","8","94098","0.0-6.0-3.0","238","1","2025-07-02 11:26:36","80fe4187154257d5fb01684ea91b68b9","41.144.102.92","Mozilla/5.0 (Windows NT 10.0; Win64; x64) AppleWebKit/537.36 (KHTML, like Gecko) Chrome/137.0.0.0 Safari/537.36","WebKit","Chrome","137.0.0.0","Windows","10.0","https://app.prolific.com/","en-US,en;q=0.9","6745d8ba436b1416f92aa9b8","683db6dfa200031b80f2a654","686513826a08ebe2c460e19f","6745d8ba436b1416f92aa9b8","","","[0]","","","4","demographics","","","","","","","","","","","","","","","","","","","","","","","","","","","","","","","","","","","","","","",""
"5558","","","{""education"":""Master's Degree (e.g., MSc)""}","survey-multi-choice","9","99658","0.0-6.0-4.0","238","1","2025-07-02 11:26:36","80fe4187154257d5fb01684ea91b68b9","41.144.102.92","Mozilla/5.0 (Windows NT 10.0; Win64; x64) AppleWebKit/537.36 (KHTML, like Gecko) Chrome/137.0.0.0 Safari/537.36","WebKit","Chrome","137.0.0.0","Windows","10.0","https://app.prolific.com/","en-US,en;q=0.9","6745d8ba436b1416f92aa9b8","683db6dfa200031b80f2a654","686513826a08ebe2c460e19f","6745d8ba436b1416f92aa9b8","","","[0]","","","5","demographics","","","","","","","","","","","","","","","","","","","","","","","","","","","","","","","","","","","","","","",""
"9901","","","{""education"":""Master's Degree (e.g., MSc)""}","survey-multi-choice","10","109562","0.0-6.0-5.0","238","1","2025-07-02 11:26:36","80fe4187154257d5fb01684ea91b68b9","41.144.102.92","Mozilla/5.0 (Windows NT 10.0; Win64; x64) AppleWebKit/537.36 (KHTML, like Gecko) Chrome/137.0.0.0 Safari/537.36","WebKit","Chrome","137.0.0.0","Windows","10.0","https://app.prolific.com/","en-US,en;q=0.9","6745d8ba436b1416f92aa9b8","683db6dfa200031b80f2a654","686513826a08ebe2c460e19f","6745d8ba436b1416f92aa9b8","2025-07-02T11:28:46.745Z","","[0]","","","6","demographics","","","","","","","","","","","","","","","","","","","","","","","","","","","","","","","","","","","","","","",""
"314270","","","{""mental_health_condition"":""Bipolar"",""mental_health_treatment"":""psychologist"",""psychiatric_medication"":""Anticonvulsant twice a day""}","survey-text","11","423838","0.0-7.0-0.0","238","1","2025-07-02 11:26:36","80fe4187154257d5fb01684ea91b68b9","41.144.102.92","Mozilla/5.0 (Windows NT 10.0; Win64; x64) AppleWebKit/537.36 (KHTML, like Gecko) Chrome/137.0.0.0 Safari/537.36","WebKit","Chrome","137.0.0.0","Windows","10.0","https://app.prolific.com/","en-US,en;q=0.9","6745d8ba436b1416f92aa9b8","683db6dfa200031b80f2a654","686513826a08ebe2c460e19f","6745d8ba436b1416f92aa9b8","2025-07-02T11:34:01.021Z","","","","","1","mental_health","","","","","","","","","","","","","","","","","","","","","","","","","","","","","","","","","","","","","","",""
"6105","","","{""depression_history"":[""Yes""]}","survey-multi-select","12","429947","0.0-7.0-1.0","238","1","2025-07-02 11:26:36","80fe4187154257d5fb01684ea91b68b9","41.144.102.92","Mozilla/5.0 (Windows NT 10.0; Win64; x64) AppleWebKit/537.36 (KHTML, like Gecko) Chrome/137.0.0.0 Safari/537.36","WebKit","Chrome","137.0.0.0","Windows","10.0","https://app.prolific.com/","en-US,en;q=0.9","6745d8ba436b1416f92aa9b8","683db6dfa200031b80f2a654","686513826a08ebe2c460e19f","6745d8ba436b1416f92aa9b8","","","[0]","","","","mental_health","","","","","","","","","","","","","","","","","","","","","","","","","","","","","","","","","","","","","","",""
"11754","","","{""depression_episodes"":""more than 5"",""depression_recent"":""Currently experiencing an episode""}","survey-multi-choice","13","441703","0.0-7.0-2.0-0.0","238","1","2025-07-02 11:26:36","80fe4187154257d5fb01684ea91b68b9","41.144.102.92","Mozilla/5.0 (Windows NT 10.0; Win64; x64) AppleWebKit/537.36 (KHTML, like Gecko) Chrome/137.0.0.0 Safari/537.36","WebKit","Chrome","137.0.0.0","Windows","10.0","https://app.prolific.com/","en-US,en;q=0.9","6745d8ba436b1416f92aa9b8","683db6dfa200031b80f2a654","686513826a08ebe2c460e19f","6745d8ba436b1416f92aa9b8","2025-07-02T11:34:18.886Z","","[0,1]","","","3","mental_health","","","","","","","","","","","","","","","","","","","","","","","","","","","","","","","","","","","","","","",""
"49303.300000000745","","","","survey-template","14","491013","0.0-7.0-3.0","238","1","2025-07-02 11:26:36","80fe4187154257d5fb01684ea91b68b9","41.144.102.92","Mozilla/5.0 (Windows NT 10.0; Win64; x64) AppleWebKit/537.36 (KHTML, like Gecko) Chrome/137.0.0.0 Safari/537.36","WebKit","Chrome","137.0.0.0","Windows","10.0","https://app.prolific.com/","en-US,en;q=0.9","6745d8ba436b1416f92aa9b8","683db6dfa200031b80f2a654","686513826a08ebe2c460e19f","6745d8ba436b1416f92aa9b8","2025-07-02T11:35:08.196Z","","","","","","ius","{""Q01"":""3"",""Q02"":""4"",""Q03"":""3"",""Q04"":""4"",""Q05"":""3"",""Q06"":""3"",""Q07"":""2"",""Q08"":""0"",""Q09"":""4"",""Q10"":""3"",""Q11"":""2"",""Q12"":""4"",""Q13"":""4""}","[0,1,2,3,4,5,6,7,8,9,10,11,12]","[""Q01"",""Q02"",""Q03"",""Q04"",""Q05"",""Q06"",""Q07"",""Q08"",""Q09"",""Q10"",""Q11"",""Q12"",""Q12"",""Q13""]","[5620.800000000745,8502.699999999255,9716.599999999627,13572.900000000373,18470.300000000745,22310.599999999627,25626.5,30162.300000000745,33626.40000000037,37118.40000000037,42628.09999999963,44212.300000000745,45708.09999999963,48410.09999999963]","[]","[4594.800000000745,5620.800000000745,7248.5999999996275,8502.699999999255,9716.599999999627,12218.400000000373,13024.400000000373,13572.900000000373,14776.599999999627,18470.300000000745,22310.599999999627,25080.199999999255,25626.5,30162.300000000745,33122.5,33626.40000000037,37118.40000000037,41382.40000000037,42628.09999999963,44212.300000000745,45000.199999999255,45708.09999999963,47812.09999999963,48410.09999999963,49300.199999999255]","0.38461538461538464","0.6666666666666666","0","","","","","","","","","","","","","","","","","","","","","","","","","","","","","",""
"3495","1751456111692","<p style='font-size:1.1em;line-height:1.25'>In the following, we will ask you a few questions relating to your experiences over the past month.<br></p><p style='font-size:1.1em;line-height:1.25'>Press the <strong>Next</strong> button to continue.</p>","0","custom-html-button-response","15","494510","0.0-7.0-4.0","238","1","2025-07-02 11:26:36","80fe4187154257d5fb01684ea91b68b9","41.144.102.92","Mozilla/5.0 (Windows NT 10.0; Win64; x64) AppleWebKit/537.36 (KHTML, like Gecko) Chrome/137.0.0.0 Safari/537.36","WebKit","Chrome","137.0.0.0","Windows","10.0","https://app.prolific.com/","en-US,en;q=0.9","6745d8ba436b1416f92aa9b8","683db6dfa200031b80f2a654","686513826a08ebe2c460e19f","6745d8ba436b1416f92aa9b8","2025-07-02T11:35:11.693Z","","","","","","","","","","","","","","","","","","","","","","","","","","","","","","","","","","","","","","","","","","","","",""
"48248.699999999255","","","","survey-template","16","542763","0.0-7.0-5.0","238","1","2025-07-02 11:26:36","80fe4187154257d5fb01684ea91b68b9","41.144.102.92","Mozilla/5.0 (Windows NT 10.0; Win64; x64) AppleWebKit/537.36 (KHTML, like Gecko) Chrome/137.0.0.0 Safari/537.36","WebKit","Chrome","137.0.0.0","Windows","10.0","https://app.prolific.com/","en-US,en;q=0.9","6745d8ba436b1416f92aa9b8","683db6dfa200031b80f2a654","686513826a08ebe2c460e19f","6745d8ba436b1416f92aa9b8","2025-07-02T11:35:59.946Z","","","","","","pss","{""Q01"":""4"",""Q02"":""2"",""Q03"":""4"",""Q04"":""2"",""Q05"":""2"",""Q06"":""2"",""Q07"":""2"",""Q08"":""1"",""Q09"":""4"",""Q10"":""3""}","[0,1,2,3,4,5,6,7,8,9]","[""Q01"",""Q02"",""Q03"",""Q04"",""Q05"",""Q06"",""Q07"",""Q08"",""Q09"",""Q09"",""Q10""]","[5974.5999999996275,10614.800000000745,14542.699999999255,20118.599999999627,23684.699999999255,28686.400000000373,36010.300000000745,39218.40000000037,43378.300000000745,43640.199999999255,47184.09999999963]","[]","[0,4498.699999999255,5974.5999999996275,9934.699999999255,10614.800000000745,14542.699999999255,18618.5,19408.5,20118.599999999627,23684.699999999255,28686.400000000373,34746.5,35584.199999999255,36010.300000000745,39218.40000000037,43378.300000000745,43640.199999999255,47184.09999999963,48246.199999999255]","0.5","0.3333333333333333","0","","","","","","","","","","","","","","","","","","","","","","","","","","","","","",""
"5586","1751456165534","<p style='font-size:1.1em;line-height:1.25'>Thank you for your answers! Now we will ask you a few more questions relating to your feelings in the last 24 hours.<br></p><p style='font-size:1.1em;line-height:1.25'>Press the <strong>Next</strong> button to continue.</p>","0","custom-html-button-response","17","548352","0.0-7.0-6.0","238","1","2025-07-02 11:26:36","80fe4187154257d5fb01684ea91b68b9","41.144.102.92","Mozilla/5.0 (Windows NT 10.0; Win64; x64) AppleWebKit/537.36 (KHTML, like Gecko) Chrome/137.0.0.0 Safari/537.36","WebKit","Chrome","137.0.0.0","Windows","10.0","https://app.prolific.com/","en-US,en;q=0.9","6745d8ba436b1416f92aa9b8","683db6dfa200031b80f2a654","686513826a08ebe2c460e19f","6745d8ba436b1416f92aa9b8","2025-07-02T11:36:05.535Z","","","","","","","","","","","","","","","","","","","","","","","","","","","","","","","","","","","","","","","","","","","","",""
"63369","","","","survey-template","18","611728","0.0-7.0-7.0","238","1","2025-07-02 11:26:36","80fe4187154257d5fb01684ea91b68b9","41.144.102.92","Mozilla/5.0 (Windows NT 10.0; Win64; x64) AppleWebKit/537.36 (KHTML, like Gecko) Chrome/137.0.0.0 Safari/537.36","WebKit","Chrome","137.0.0.0","Windows","10.0","https://app.prolific.com/","en-US,en;q=0.9","6745d8ba436b1416f92aa9b8","683db6dfa200031b80f2a654","686513826a08ebe2c460e19f","6745d8ba436b1416f92aa9b8","2025-07-02T11:37:08.911Z","","","","","","drsp","{""Q01"":""5"",""Q02"":""3"",""Q03"":""2"",""Q04"":""5"",""Q05"":""5"",""Q06"":""3"",""Q07"":""5"",""Q08"":""5"",""Q09"":""5"",""Q10"":""3"",""Q11"":""4"",""Q12"":""1"",""Q13"":""5"",""Q14"":""3"",""Q15"":""5"",""Q16"":""5"",""Q17"":""5"",""Q18"":""3"",""Q19"":""3"",""Q20"":""2"",""Q21"":""4""}","[0,1,2,3,4,5,6,7,8,9,10,11,12,13,14,15,16,17,18,19,20]","[""Q01"",""Q02"",""Q03"",""Q04"",""Q05"",""Q06"",""Q07"",""Q08"",""Q09"",""Q10"",""Q11"",""Q11"",""Q12"",""Q13"",""Q14"",""Q15"",""Q16"",""Q17"",""Q18"",""Q19"",""Q20"",""Q21""]","[3131.800000000745,5838.300000000745,8936.10000000149,10624.10000000149,12710.10000000149,15955.900000000373,18301.800000000745,20494,22460,24290,27715.10000000149,30039.700000001118,33591.800000000745,36247.800000000745,39150,42689.800000000745,45069.70000000112,46635.70000000112,51607.70000000112,56579.5,60225.40000000037,62579.70000000112]","[]","[0,3131.800000000745,5838.300000000745,8936.10000000149,10624.10000000149,12710.10000000149,15955.900000000373,18301.800000000745,20494,22460,24290,27715.10000000149,30039.700000001118,31435.60000000149,33591.800000000745,36247.800000000745,39150,42689.800000000745,45069.70000000112,46635.70000000112,51607.70000000112,55717.60000000149,56579.5,60225.40000000037,62579.70000000112,63363.800000000745]","0.47619047619047616","0.15","0","","","","","","","","","","","","","","","","","","","","","","","","","","","","","",""
"14014.299999998882","","","","survey-template","19","625746","0.0-7.0-8.0","238","1","2025-07-02 11:26:36","80fe4187154257d5fb01684ea91b68b9","41.144.102.92","Mozilla/5.0 (Windows NT 10.0; Win64; x64) AppleWebKit/537.36 (KHTML, like Gecko) Chrome/137.0.0.0 Safari/537.36","WebKit","Chrome","137.0.0.0","Windows","10.0","https://app.prolific.com/","en-US,en;q=0.9","6745d8ba436b1416f92aa9b8","683db6dfa200031b80f2a654","686513826a08ebe2c460e19f","6745d8ba436b1416f92aa9b8","2025-07-02T11:37:22.929Z","","","","","","stress","{""Q01"":""4"",""Q02"":""5"",""Q03"":""1""}","[0,1,2]","[""Q01"",""Q02"",""Q03""]","[4696.199999999255,8411.199999999255,12535.199999999255]","[]","[4083.0999999996275,4696.199999999255,8411.199999999255,11801.199999999255,12535.199999999255,14013]","0.3333333333333333","0.5","0","","","","","","","","","","","","","","","","","","","","","","","","","","","","","",""
"94070","","","","instructions","20","719818","0.0-8.0-0.0","238","1","2025-07-02 11:26:36","80fe4187154257d5fb01684ea91b68b9","41.144.102.92","Mozilla/5.0 (Windows NT 10.0; Win64; x64) AppleWebKit/537.36 (KHTML, like Gecko) Chrome/137.0.0.0 Safari/537.36","WebKit","Chrome","137.0.0.0","Windows","10.0","https://app.prolific.com/","en-US,en;q=0.9","6745d8ba436b1416f92aa9b8","683db6dfa200031b80f2a654","686513826a08ebe2c460e19f","6745d8ba436b1416f92aa9b8","","[{""page_index"":0,""viewing_time"":22928},{""page_index"":1,""viewing_time"":35733},{""page_index"":2,""viewing_time"":13280},{""page_index"":3,""viewing_time"":22128}]","","","","","","","","","","","","","","","","","","","","","","","","","","","","","","","","","","","","","","","","","","","",""
"","","","","ctl-task-cpt","21","757059","0.0-8.0-1.0","238","1","2025-07-02 11:26:36","80fe4187154257d5fb01684ea91b68b9","41.144.102.92","Mozilla/5.0 (Windows NT 10.0; Win64; x64) AppleWebKit/537.36 (KHTML, like Gecko) Chrome/137.0.0.0 Safari/537.36","WebKit","Chrome","137.0.0.0","Windows","10.0","https://app.prolific.com/","en-US,en;q=0.9","6745d8ba436b1416f92aa9b8","683db6dfa200031b80f2a654","686513826a08ebe2c460e19f","6745d8ba436b1416f92aa9b8","","","","","","","","","","","","","","","","","win-only","3","g1:SW,g2:NE","1","0","1","741913.1","5254.8","9256.7","34186.4","2","4","4","6","2","4","2","2","0","0.015151515151515152","4001.8","4000","1110","[""up"",""right""]","{""num_key_presses"":11,""num_perfect"":6,""num_errors"":2,""num_randdir"":0,""num_randdir_good_moves"":0,""num_whilered"":3,""num_whileblue"":0,""num_blue"":1,""num_good_moves"":6}","[295.22232142857143,291.12857142857143,0.9,295.22232142857143,291.12857142857143,101.4,295.22232142857143,291.12857142857143,201.5,295.22232142857143,291.12857142857143,302.1,295.22232142857143,292.12857142857143,405.9,295.22232142857143,292.12857142857143,511.3,295.22232142857143,292.12857142857143,616.6,295.22232142857143,292.12857142857143,718.3,301.22232142857143,293.12857142857143,821.9,301.22232142857143,293.12857142857143,926.7,301.22232142857143,293.12857142857143,1138,301.22232142857143,293.12857142857143,1242,301.22232142857143,293.12857142857143,1345.8,301.22232142857143,293.12857142857143,1446.5,301.22232142857143,293.12857142857143,1551.6,301.22232142857143,293.12857142857143,1656.5,301.22232142857143,293.12857142857143,1757.4,301.22232142857143,293.12857142857143,1861.2,301.22232142857143,293.12857142857143,1961.7,301.22232142857143,293.12857142857143,2066,301.22232142857143,293.12857142857143,2253.5,301.22232142857143,293.12857142857143,2357.8,301.22232142857143,293.12857142857143,2458.2,301.22232142857143,293.12857142857143,2563,301.22232142857143,293.12857142857143,2665.8,301.22232142857143,293.12857142857143,2767,301.22232142857143,293.12857142857143,2870.9,301.22232142857143,293.12857142857143,2971.6,301.22232142857143,293.12857142857143,3071.6,301.22232142857143,293.12857142857143,3171.8,301.22232142857143,293.12857142857143,3277.8,301.22232142857143,293.12857142857143,3383.7,301.22232142857143,293.12857142857143,3487.1,301.22232142857143,293.12857142857143,3587.5,301.22232142857143,293.12857142857143,3691.2,301.22232142857143,293.12857142857143,3792.3,301.22232142857143,293.12857142857143,3892.8,301.22232142857143,293.12857142857143,3999.1]","[365.8,365.9,1000,0,-634.1,""error"",""-"",""-"",""no_move"",4699.9,4333.3,2518.1,1370.9,810.9,""smooth"",""right"",""right"",""good_move"",4936.3,235.3,2284,4701,-2048.7,""error"",""-"",""-"",""no_move"",5117.3,179.7,2284,4701,-1867.7,""while_red"",""-"",""-"",""no_move"",5254.7,317.2,2284,4701,-1730.2,""while_red"",""-"",""-"",""no_move"",5357,419.5,2284,4701,-1627.9,""while_red"",""-"",""-"",""no_move"",8746.5,3808.9,2140.8,5940.2,665.5,""smooth"",""right"",""right"",""good_move"",15340.5,6593,2775.6,12130.5,434.4,""smooth"",""right"",""right"",""good_move"",18727.9,3386.9,2875.4,15341.1,511.4,""smooth"",""up"",""up"",""good_move"",21766.2,3037.1,2532.6,18729.1,504.5,""smooth"",""up"",""up"",""good_move"",24831.6,3064.6,2701.4,21767.1,363.1,""smooth"",""up"",""up"",""good_move""]","","",""
"18030","","","","instructions","22","775090","0.0-8.0-2.0","238","1","2025-07-02 11:26:36","80fe4187154257d5fb01684ea91b68b9","41.144.102.92","Mozilla/5.0 (Windows NT 10.0; Win64; x64) AppleWebKit/537.36 (KHTML, like Gecko) Chrome/137.0.0.0 Safari/537.36","WebKit","Chrome","137.0.0.0","Windows","10.0","https://app.prolific.com/","en-US,en;q=0.9","6745d8ba436b1416f92aa9b8","683db6dfa200031b80f2a654","686513826a08ebe2c460e19f","6745d8ba436b1416f92aa9b8","","[{""page_index"":0,""viewing_time"":18030}]","","","","","","","","","","","","","","","","","","","","","","","","","","","","","","","","","","","","","","","","","","","",""
"","","","","ctl-task-cpt","23","784914","0.0-8.0-3.0","238","1","2025-07-02 11:26:36","80fe4187154257d5fb01684ea91b68b9","41.144.102.92","Mozilla/5.0 (Windows NT 10.0; Win64; x64) AppleWebKit/537.36 (KHTML, like Gecko) Chrome/137.0.0.0 Safari/537.36","WebKit","Chrome","137.0.0.0","Windows","10.0","https://app.prolific.com/","en-US,en;q=0.9","6745d8ba436b1416f92aa9b8","683db6dfa200031b80f2a654","686513826a08ebe2c460e19f","6745d8ba436b1416f92aa9b8","","","","","","","","","","","","","","","","","win-only","3","g1:SW,g2:NE","0.35","0","3","797138.2","2809.5","-9999","6813.2","2","4","8","6","-9999","-4","-4","0","0","0","-9999","4000","4000","[]","{""num_key_presses"":0,""num_perfect"":0,""num_errors"":0,""num_randdir"":0,""num_randdir_good_moves"":0,""num_whilered"":0,""num_whileblue"":0,""num_blue"":0,""num_good_moves"":0}","[296.22232142857143,292.12857142857143,0.7,296.22232142857143,292.12857142857143,102.2,296.22232142857143,292.12857142857143,207.1,311.22232142857143,305.12857142857143,307.4,311.22232142857143,305.12857142857143,409.9,311.22232142857143,305.12857142857143,511.5,311.22232142857143,305.12857142857143,612.1,311.22232142857143,305.12857142857143,721.8,311.22232142857143,305.12857142857143,829.3,311.22232142857143,305.12857142857143,934.5,311.22232142857143,305.12857142857143,1042.1,311.22232142857143,305.12857142857143,1142.9,311.22232142857143,305.12857142857143,1243.6,311.22232142857143,305.12857142857143,1347.2,311.22232142857143,305.12857142857143,1452.2,311.22232142857143,305.12857142857143,1552.2,311.22232142857143,305.12857142857143,1660,311.22232142857143,305.12857142857143,1761.8,311.22232142857143,305.12857142857143,1866.8,311.22232142857143,305.12857142857143,1967.1,311.22232142857143,305.12857142857143,2076.7,311.22232142857143,305.12857142857143,2177.2,311.22232142857143,305.12857142857143,2277.5,311.22232142857143,305.12857142857143,2381,311.22232142857143,305.12857142857143,2482.2,311.22232142857143,305.12857142857143,2583,311.22232142857143,305.12857142857143,2688.1,311.22232142857143,305.12857142857143,2793.2,311.22232142857143,305.12857142857143,2893.2,311.22232142857143,305.12857142857143,3001.8,311.22232142857143,305.12857142857143,3103.6,311.22232142857143,305.12857142857143,3207.7,311.22232142857143,305.12857142857143,3308.2,311.22232142857143,305.12857142857143,3408.2,311.22232142857143,305.12857142857143,3512,311.22232142857143,305.12857142857143,3617.4,311.22232142857143,305.12857142857143,3722.2,311.22232142857143,305.12857142857143,3827.2,311.22232142857143,305.12857142857143,3928.9]","[]","","",""
"58677","","","","instructions","24","843592","0.0-8.0-4.0","238","1","2025-07-02 11:26:36","80fe4187154257d5fb01684ea91b68b9","41.144.102.92","Mozilla/5.0 (Windows NT 10.0; Win64; x64) AppleWebKit/537.36 (KHTML, like Gecko) Chrome/137.0.0.0 Safari/537.36","WebKit","Chrome","137.0.0.0","Windows","10.0","https://app.prolific.com/","en-US,en;q=0.9","6745d8ba436b1416f92aa9b8","683db6dfa200031b80f2a654","686513826a08ebe2c460e19f","6745d8ba436b1416f92aa9b8","","[{""page_index"":0,""viewing_time"":25967},{""page_index"":1,""viewing_time"":32709}]","","","","","","","","","","","","","","","","","","","","","","","","","","","","","","","","","","","","","","","","","","","",""
"8620","","","{""green_ball"":[""Ball always moves in the direction I press""]}","survey-multi-select","25","852216","0.0-8.0-5.0-0.0","238","1","2025-07-02 11:26:36","80fe4187154257d5fb01684ea91b68b9","41.144.102.92","Mozilla/5.0 (Windows NT 10.0; Win64; x64) AppleWebKit/537.36 (KHTML, like Gecko) Chrome/137.0.0.0 Safari/537.36","WebKit","Chrome","137.0.0.0","Windows","10.0","https://app.prolific.com/","en-US,en;q=0.9","6745d8ba436b1416f92aa9b8","683db6dfa200031b80f2a654","686513826a08ebe2c460e19f","6745d8ba436b1416f92aa9b8","","","[0]","","","","quiz","","","","","","","","","","","","","","","","","","","","","","","","","","","","","","","","","","","","","false","",""
"6799","","<p align='center'><b>INCORRECT.</b> Usually the green ball moves in the indicated direction, but sometimes it shakes and moves randomly. </p>","0","html-button-response","26","859019","0.0-8.0-5.0-1.0","238","1","2025-07-02 11:26:36","80fe4187154257d5fb01684ea91b68b9","41.144.102.92","Mozilla/5.0 (Windows NT 10.0; Win64; x64) AppleWebKit/537.36 (KHTML, like Gecko) Chrome/137.0.0.0 Safari/537.36","WebKit","Chrome","137.0.0.0","Windows","10.0","https://app.prolific.com/","en-US,en;q=0.9","6745d8ba436b1416f92aa9b8","683db6dfa200031b80f2a654","686513826a08ebe2c460e19f","6745d8ba436b1416f92aa9b8","","","","","","","","","","","","","","","","","","","","","","","","","","","","","","","","","","","","","","","","","","","","","",""
"7717","","","{""green_ball"":[""Ball sometimes shakes and moves in a random direction""]}","survey-multi-select","27","866740","0.0-8.0-5.1-0.1","238","1","2025-07-02 11:26:36","80fe4187154257d5fb01684ea91b68b9","41.144.102.92","Mozilla/5.0 (Windows NT 10.0; Win64; x64) AppleWebKit/537.36 (KHTML, like Gecko) Chrome/137.0.0.0 Safari/537.36","WebKit","Chrome","137.0.0.0","Windows","10.0","https://app.prolific.com/","en-US,en;q=0.9","6745d8ba436b1416f92aa9b8","683db6dfa200031b80f2a654","686513826a08ebe2c460e19f","6745d8ba436b1416f92aa9b8","","","[0]","","","","quiz","","","","","","","","","","","","","","","","","","","","","","","","","","","","","","","","","","","","","true","",""
"2715","","<p align='center'><b>CORRECT!</b> Indeed, the green ball may sometimes shake and move in a random direction.</p>","0","html-button-response","28","869457","0.0-8.0-5.1-1.1","238","1","2025-07-02 11:26:36","80fe4187154257d5fb01684ea91b68b9","41.144.102.92","Mozilla/5.0 (Windows NT 10.0; Win64; x64) AppleWebKit/537.36 (KHTML, like Gecko) Chrome/137.0.0.0 Safari/537.36","WebKit","Chrome","137.0.0.0","Windows","10.0","https://app.prolific.com/","en-US,en;q=0.9","6745d8ba436b1416f92aa9b8","683db6dfa200031b80f2a654","686513826a08ebe2c460e19f","6745d8ba436b1416f92aa9b8","","","","","","","","","","","","","","","","","","","","","","","","","","","","","","","","","","","","","","","","","","","","","",""
"9368","","","{""yellow_ball"":[""Ball doesn‘t move and I get -1 penalty point""]}","survey-multi-select","29","878828","0.0-8.0-6.0-0.0","238","1","2025-07-02 11:26:36","80fe4187154257d5fb01684ea91b68b9","41.144.102.92","Mozilla/5.0 (Windows NT 10.0; Win64; x64) AppleWebKit/537.36 (KHTML, like Gecko) Chrome/137.0.0.0 Safari/537.36","WebKit","Chrome","137.0.0.0","Windows","10.0","https://app.prolific.com/","en-US,en;q=0.9","6745d8ba436b1416f92aa9b8","683db6dfa200031b80f2a654","686513826a08ebe2c460e19f","6745d8ba436b1416f92aa9b8","","","[0]","","","","quiz","","","","","","","","","","","","","","","","","","","","","","","","","","","","","","","","","","","","","true","",""
"1812","","<p align='center'><b>CORRECT!</b> Indeed, the yellow ball never moves and you receive a penalty.</p>","0","html-button-response","30","880642","0.0-8.0-6.0-1.0","238","1","2025-07-02 11:26:36","80fe4187154257d5fb01684ea91b68b9","41.144.102.92","Mozilla/5.0 (Windows NT 10.0; Win64; x64) AppleWebKit/537.36 (KHTML, like Gecko) Chrome/137.0.0.0 Safari/537.36","WebKit","Chrome","137.0.0.0","Windows","10.0","https://app.prolific.com/","en-US,en;q=0.9","6745d8ba436b1416f92aa9b8","683db6dfa200031b80f2a654","686513826a08ebe2c460e19f","6745d8ba436b1416f92aa9b8","","","","","","","","","","","","","","","","","","","","","","","","","","","","","","","","","","","","","","","","","","","","","",""
"3648","","","{""blue_ball"":[""Ball doesn‘t move and I get -1 penalty point""]}","survey-multi-select","31","884295","0.0-8.0-7.0-0.0","238","1","2025-07-02 11:26:36","80fe4187154257d5fb01684ea91b68b9","41.144.102.92","Mozilla/5.0 (Windows NT 10.0; Win64; x64) AppleWebKit/537.36 (KHTML, like Gecko) Chrome/137.0.0.0 Safari/537.36","WebKit","Chrome","137.0.0.0","Windows","10.0","https://app.prolific.com/","en-US,en;q=0.9","6745d8ba436b1416f92aa9b8","683db6dfa200031b80f2a654","686513826a08ebe2c460e19f","6745d8ba436b1416f92aa9b8","","","[0]","","","","quiz","","","","","","","","","","","","","","","","","","","","","","","","","","","","","","","","","","","","","false","",""
"2879","","<p align='center'><b>INCORRECT.</b> The blue ball always shakes and moves randomly.</p>","0","html-button-response","32","887176","0.0-8.0-7.0-1.0","238","1","2025-07-02 11:26:36","80fe4187154257d5fb01684ea91b68b9","41.144.102.92","Mozilla/5.0 (Windows NT 10.0; Win64; x64) AppleWebKit/537.36 (KHTML, like Gecko) Chrome/137.0.0.0 Safari/537.36","WebKit","Chrome","137.0.0.0","Windows","10.0","https://app.prolific.com/","en-US,en;q=0.9","6745d8ba436b1416f92aa9b8","683db6dfa200031b80f2a654","686513826a08ebe2c460e19f","6745d8ba436b1416f92aa9b8","","","","","","","","","","","","","","","","","","","","","","","","","","","","","","","","","","","","","","","","","","","","","",""
"6553","","","{""blue_ball"":[""Ball always shakes and moves in a random direction""]}","survey-multi-select","33","893733","0.0-8.0-7.1-0.1","238","1","2025-07-02 11:26:36","80fe4187154257d5fb01684ea91b68b9","41.144.102.92","Mozilla/5.0 (Windows NT 10.0; Win64; x64) AppleWebKit/537.36 (KHTML, like Gecko) Chrome/137.0.0.0 Safari/537.36","WebKit","Chrome","137.0.0.0","Windows","10.0","https://app.prolific.com/","en-US,en;q=0.9","6745d8ba436b1416f92aa9b8","683db6dfa200031b80f2a654","686513826a08ebe2c460e19f","6745d8ba436b1416f92aa9b8","","","[0]","","","","quiz","","","","","","","","","","","","","","","","","","","","","","","","","","","","","","","","","","","","","true","",""
"1776","","<p align='center'><b>CORRECT!</b> Indeed, the blue ball always shakes and moves in a random direction. Also there is a penalty of -1 point.</p>","0","html-button-response","34","895511","0.0-8.0-7.1-1.1","238","1","2025-07-02 11:26:36","80fe4187154257d5fb01684ea91b68b9","41.144.102.92","Mozilla/5.0 (Windows NT 10.0; Win64; x64) AppleWebKit/537.36 (KHTML, like Gecko) Chrome/137.0.0.0 Safari/537.36","WebKit","Chrome","137.0.0.0","Windows","10.0","https://app.prolific.com/","en-US,en;q=0.9","6745d8ba436b1416f92aa9b8","683db6dfa200031b80f2a654","686513826a08ebe2c460e19f","6745d8ba436b1416f92aa9b8","","","","","","","","","","","","","","","","","","","","","","","","","","","","","","","","","","","","","","","","","","","","","",""
"3815","","","{""bonus"":[""When I reach 50% of points""]}","survey-multi-select","35","899329","0.0-8.0-8.0-0.0","238","1","2025-07-02 11:26:36","80fe4187154257d5fb01684ea91b68b9","41.144.102.92","Mozilla/5.0 (Windows NT 10.0; Win64; x64) AppleWebKit/537.36 (KHTML, like Gecko) Chrome/137.0.0.0 Safari/537.36","WebKit","Chrome","137.0.0.0","Windows","10.0","https://app.prolific.com/","en-US,en;q=0.9","6745d8ba436b1416f92aa9b8","683db6dfa200031b80f2a654","686513826a08ebe2c460e19f","6745d8ba436b1416f92aa9b8","","","[0]","","","","quiz","","","","","","","","","","","","","","","","","","","","","","","","","","","","","","","","","","","","","true","",""
"1818","","<p align='center'><b>CORRECT!</b> Indeed, you receive 2 pounds extra when you reach 50% of points.</p>","0","html-button-response","36","901149","0.0-8.0-8.0-1.0","238","1","2025-07-02 11:26:36","80fe4187154257d5fb01684ea91b68b9","41.144.102.92","Mozilla/5.0 (Windows NT 10.0; Win64; x64) AppleWebKit/537.36 (KHTML, like Gecko) Chrome/137.0.0.0 Safari/537.36","WebKit","Chrome","137.0.0.0","Windows","10.0","https://app.prolific.com/","en-US,en;q=0.9","6745d8ba436b1416f92aa9b8","683db6dfa200031b80f2a654","686513826a08ebe2c460e19f","6745d8ba436b1416f92aa9b8","","","","","","","","","","","","","","","","","","","","","","","","","","","","","","","","","","","","","","","","","","","","","",""
"2971","","","","instructions","37","904122","0.0-8.0-9.0","238","1","2025-07-02 11:26:36","80fe4187154257d5fb01684ea91b68b9","41.144.102.92","Mozilla/5.0 (Windows NT 10.0; Win64; x64) AppleWebKit/537.36 (KHTML, like Gecko) Chrome/137.0.0.0 Safari/537.36","WebKit","Chrome","137.0.0.0","Windows","10.0","https://app.prolific.com/","en-US,en;q=0.9","6745d8ba436b1416f92aa9b8","683db6dfa200031b80f2a654","686513826a08ebe2c460e19f","6745d8ba436b1416f92aa9b8","","[{""page_index"":0,""viewing_time"":2970}]","","","","","","","","","","","","","","","","","","","","","","","","","","","","","","","","","","","","","","","","","","","",""
"10220","","<p>Before you start with this game please answer the following three questions yourself. </p>
  <p>Through this game, we measure several aspects of your cognitive performance, such as reaction times, multi-tasking capabilities </p>
  <p>and the ability to assess the situation you are in.</p>
  <p></p>
  <p><b>How good do you usually are in such tasks?</b></p>","92","html-slider-response","38","914345","0.0-9.0-0.0","238","1","2025-07-02 11:26:36","80fe4187154257d5fb01684ea91b68b9","41.144.102.92","Mozilla/5.0 (Windows NT 10.0; Win64; x64) AppleWebKit/537.36 (KHTML, like Gecko) Chrome/137.0.0.0 Safari/537.36","WebKit","Chrome","137.0.0.0","Windows","10.0","https://app.prolific.com/","en-US,en;q=0.9","6745d8ba436b1416f92aa9b8","683db6dfa200031b80f2a654","686513826a08ebe2c460e19f","6745d8ba436b1416f92aa9b8","2025-07-02T11:42:11.528Z","","","","","","PreSkillQ","","","","","","","","","","","","","","","","","","","","","","","","","","","","","","","","","","","","","","50",""
"4149","","<div style=""width:500px;"">
  <p>How well do you think you will perform in this task compared to other participants?</p>
  </div>","81","html-slider-response","39","918496","0.0-9.0-1.0","238","1","2025-07-02 11:26:36","80fe4187154257d5fb01684ea91b68b9","41.144.102.92","Mozilla/5.0 (Windows NT 10.0; Win64; x64) AppleWebKit/537.36 (KHTML, like Gecko) Chrome/137.0.0.0 Safari/537.36","WebKit","Chrome","137.0.0.0","Windows","10.0","https://app.prolific.com/","en-US,en;q=0.9","6745d8ba436b1416f92aa9b8","683db6dfa200031b80f2a654","686513826a08ebe2c460e19f","6745d8ba436b1416f92aa9b8","2025-07-02T11:42:15.679Z","","","","","","PrePerfQ","","","","","","","","","","","","","","","","","","","","","","","","","","","","","","","","","","","","","","50",""
"5877","","<div style=""width:500px;"">
  <p>What best describes how you currently feel?</p>
  </div>","85","html-slider-response","40","924375","0.0-9.0-2.0","238","1","2025-07-02 11:26:36","80fe4187154257d5fb01684ea91b68b9","41.144.102.92","Mozilla/5.0 (Windows NT 10.0; Win64; x64) AppleWebKit/537.36 (KHTML, like Gecko) Chrome/137.0.0.0 Safari/537.36","WebKit","Chrome","137.0.0.0","Windows","10.0","https://app.prolific.com/","en-US,en;q=0.9","6745d8ba436b1416f92aa9b8","683db6dfa200031b80f2a654","686513826a08ebe2c460e19f","6745d8ba436b1416f92aa9b8","2025-07-02T11:42:21.558Z","","","","","","PreMotivationQ","","","","","","","","","","","","","","","","","","","","","","","","","","","","","","","","","","","","","","50",""
"","","","","ctl-task-cpt","41","955581","0.0-10.0-0.0","238","1","2025-07-02 11:26:36","80fe4187154257d5fb01684ea91b68b9","41.144.102.92","Mozilla/5.0 (Windows NT 10.0; Win64; x64) AppleWebKit/537.36 (KHTML, like Gecko) Chrome/137.0.0.0 Safari/537.36","WebKit","Chrome","137.0.0.0","Windows","10.0","https://app.prolific.com/","en-US,en;q=0.9","6745d8ba436b1416f92aa9b8","683db6dfa200031b80f2a654","686513826a08ebe2c460e19f","6745d8ba436b1416f92aa9b8","2025-07-02T11:42:52.764Z","","","","","","","","","","","","","","","","win-only","2","g1:SE,g2:NW","1","1","0","946427","7868.3","12872.4","28187.3","1","4","8","6","2","8","8","8","0","0.06060606060606061","1207","3000","870","[""left"",""up""]","{""num_key_presses"":6,""num_perfect"":6,""num_errors"":0,""num_randdir"":0,""num_randdir_good_moves"":0,""num_whilered"":0,""num_whileblue"":0,""num_blue"":0,""num_good_moves"":6}","[293.22232142857143,293.12857142857143,0.8,293.22232142857143,293.12857142857143,103,298.22232142857143,291.12857142857143,204,265.22232142857143,323.12857142857143,309.2,255.22232142857143,321.12857142857143,410.4,307.22232142857143,233.12857142857143,514.4,252.22232142857143,143.12857142857143,621.7,234.22232142857143,125.12857142857143,723,207.22232142857143,111.12857142857143,823.1,88.22232142857143,86.12857142857143,923.5,85.22232142857143,84.12857142857143,1029.7,82.22232142857143,80.12857142857143,1136.7,81.22232142857143,78.12857142857143,1243.1,81.22232142857143,78.12857142857143,1343.1,81.22232142857143,78.12857142857143,1443.7,36.222321428571426,138.12857142857143,1543.8,-104.77767857142857,242.12857142857143,1644.3,-163.77767857142857,284.12857142857143,1747.9,-163.77767857142857,285.12857142857143,1848.4,-163.77767857142857,285.12857142857143,1956.1,-163.77767857142857,285.12857142857143,2058,-163.77767857142857,285.12857142857143,2159,-163.77767857142857,285.12857142857143,2262,-163.77767857142857,285.12857142857143,2362.4,-163.77767857142857,285.12857142857143,2468.6,-163.77767857142857,285.12857142857143,2574.4,-163.77767857142857,285.12857142857143,2677.2,-163.77767857142857,285.12857142857143,2778,-163.77767857142857,285.12857142857143,2878.4,-163.77767857142857,285.12857142857143,2979.3,-163.77767857142857,285.12857142857143,3080.6,-163.77767857142857,285.12857142857143,3180.7,-163.77767857142857,285.12857142857143,3283.4,-163.77767857142857,285.12857142857143,3392.8,-163.77767857142857,285.12857142857143,3494.1,-163.77767857142857,285.12857142857143,3597.4,-163.77767857142857,285.12857142857143,3699.4,-163.77767857142857,285.12857142857143,3803.2,-163.77767857142857,285.12857142857143,3905.3,-163.77767857142857,285.12857142857143,4007.6,-163.77767857142857,285.12857142857143,4114.3,-163.77767857142857,285.12857142857143,4218.9,-163.77767857142857,285.12857142857143,4323.7,-163.77767857142857,285.12857142857143,4424.1,-163.77767857142857,285.12857142857143,4524.2,-163.77767857142857,285.12857142857143,4634.3,-163.77767857142857,285.12857142857143,4738,-163.77767857142857,285.12857142857143,4844.4,-163.77767857142857,285.12857142857143,4948.1]","[1388,1388,1000,0,388,""smooth"",""left"",""left"",""good_move"",4012.2,2622.9,2133.8,1389.3,489.1,""smooth"",""left"",""left"",""good_move"",7066.3,3052.9,2615.2,4013.4,437.7,""smooth"",""left"",""left"",""good_move"",9801.8,2734.9,2340,7067,394.8,""smooth"",""up"",""up"",""good_move"",12961.5,3158.2,2784.4,9803.3,373.8,""smooth"",""up"",""up"",""good_move"",15216.4,2253.8,1783.9,12962.6,469.9,""smooth"",""up"",""up"",""good_move""]","","",""
"4595","","<div style=""width:500px;"">
  <p>What determined the result of this run?</p>
  </div>","100","html-slider-response","42","960179","0.0-10.0-1.0","238","1","2025-07-02 11:26:36","80fe4187154257d5fb01684ea91b68b9","41.144.102.92","Mozilla/5.0 (Windows NT 10.0; Win64; x64) AppleWebKit/537.36 (KHTML, like Gecko) Chrome/137.0.0.0 Safari/537.36","WebKit","Chrome","137.0.0.0","Windows","10.0","https://app.prolific.com/","en-US,en;q=0.9","6745d8ba436b1416f92aa9b8","683db6dfa200031b80f2a654","686513826a08ebe2c460e19f","6745d8ba436b1416f92aa9b8","2025-07-02T11:42:57.362Z","","","","","","AttribQ","","","","","","","","","","","","","","","","","","","","","","","","","","","","","","","","","","","","","","50",""
"3527","","<div style=""width:500px;"">
  <p>How much control did you have over the ball?</p>
  </div>","99","html-slider-response","43","963709","0.0-10.0-2.0","238","1","2025-07-02 11:26:36","80fe4187154257d5fb01684ea91b68b9","41.144.102.92","Mozilla/5.0 (Windows NT 10.0; Win64; x64) AppleWebKit/537.36 (KHTML, like Gecko) Chrome/137.0.0.0 Safari/537.36","WebKit","Chrome","137.0.0.0","Windows","10.0","https://app.prolific.com/","en-US,en;q=0.9","6745d8ba436b1416f92aa9b8","683db6dfa200031b80f2a654","686513826a08ebe2c460e19f","6745d8ba436b1416f92aa9b8","2025-07-02T11:43:00.892Z","","","","","","ControlQ","","","","","","","","","","","","","","","","","","","","","","","","","","","","","","","","","","","","","","50",""
"3634","","<div style=""width:500px;"">
  <p>How would you describe your current emotional state?</p>
  </div>","17","html-slider-response","44","967346","0.0-10.0-3.0","238","1","2025-07-02 11:26:36","80fe4187154257d5fb01684ea91b68b9","41.144.102.92","Mozilla/5.0 (Windows NT 10.0; Win64; x64) AppleWebKit/537.36 (KHTML, like Gecko) Chrome/137.0.0.0 Safari/537.36","WebKit","Chrome","137.0.0.0","Windows","10.0","https://app.prolific.com/","en-US,en;q=0.9","6745d8ba436b1416f92aa9b8","683db6dfa200031b80f2a654","686513826a08ebe2c460e19f","6745d8ba436b1416f92aa9b8","2025-07-02T11:43:04.529Z","","","","","","StressQ","","","","","","","","","","","","","","","","","","","","","","","","","","","","","","","","","","","","","","50",""
"4322","","<div style=""width:500px;"">
  <p>What best describes how you currently feel?</p>
  </div>","100","html-slider-response","45","971670","0.0-10.0-4.0","238","1","2025-07-02 11:26:36","80fe4187154257d5fb01684ea91b68b9","41.144.102.92","Mozilla/5.0 (Windows NT 10.0; Win64; x64) AppleWebKit/537.36 (KHTML, like Gecko) Chrome/137.0.0.0 Safari/537.36","WebKit","Chrome","137.0.0.0","Windows","10.0","https://app.prolific.com/","en-US,en;q=0.9","6745d8ba436b1416f92aa9b8","683db6dfa200031b80f2a654","686513826a08ebe2c460e19f","6745d8ba436b1416f92aa9b8","2025-07-02T11:43:08.853Z","","","","","","MotivationQ","","","","","","","","","","","","","","","","","","","","","","","","","","","","","","","","","","","","","","50",""
"","","","","ctl-task-cpt","46","1004591","0.0-10.0-0.1","238","1","2025-07-02 11:26:36","80fe4187154257d5fb01684ea91b68b9","41.144.102.92","Mozilla/5.0 (Windows NT 10.0; Win64; x64) AppleWebKit/537.36 (KHTML, like Gecko) Chrome/137.0.0.0 Safari/537.36","WebKit","Chrome","137.0.0.0","Windows","10.0","https://app.prolific.com/","en-US,en;q=0.9","6745d8ba436b1416f92aa9b8","683db6dfa200031b80f2a654","686513826a08ebe2c460e19f","6745d8ba436b1416f92aa9b8","2025-07-02T11:43:41.775Z","","","","","","","","","","","","","","","","win-only","2","g1:SE,g2:NW","0.9","2","0","993720.8","1624.2","6627.6","29908.2","1","4","4","6","2","4","4","12","8","0.09090909090909091","1240","3000","1375","[""left"",""up""]","{""num_key_presses"":6,""num_perfect"":6,""num_errors"":0,""num_randdir"":0,""num_randdir_good_moves"":0,""num_whilered"":0,""num_whileblue"":0,""num_blue"":2,""num_good_moves"":6}","[300.22232142857143,296.12857142857143,0.6,300.22232142857143,296.12857142857143,102.1,300.22232142857143,296.12857142857143,206.7,300.22232142857143,297.12857142857143,307.3,297.22232142857143,300.12857142857143,407.4,255.22232142857143,260.12857142857143,507.7,155.22232142857143,171.12857142857143,616,81.22232142857143,115.12857142857143,727.4,79.22232142857143,107.12857142857143,832.7,79.22232142857143,98.12857142857143,937.9,80.22232142857143,88.12857142857143,1038.8,76.22232142857143,73.12857142857143,1145.5,73.22232142857143,68.12857142857143,1249.8,73.22232142857143,68.12857142857143,1370.1,73.22232142857143,72.12857142857143,1472.5,-46.777678571428574,220.12857142857143,1579.9,-195.77767857142857,377.12857142857143,1689.2,-197.77767857142857,380.12857142857143,1793.6,-183.77767857142857,379.12857142857143,1895,-183.77767857142857,379.12857142857143,2003.5,-183.77767857142857,379.12857142857143,2114,-183.77767857142857,379.12857142857143,2229.9,-183.77767857142857,379.12857142857143,2333,-183.77767857142857,379.12857142857143,2436.6,-183.77767857142857,379.12857142857143,2536.9,-183.77767857142857,379.12857142857143,2641.9,-183.77767857142857,379.12857142857143,2742,-183.77767857142857,379.12857142857143,2848,-183.77767857142857,379.12857142857143,2948,-183.77767857142857,379.12857142857143,3051.7,-183.77767857142857,379.12857142857143,3159.6,-183.77767857142857,379.12857142857143,3264.3,-183.77767857142857,379.12857142857143,3366.4,-183.77767857142857,379.12857142857143,3468.4,-183.77767857142857,379.12857142857143,3573.7,-183.77767857142857,379.12857142857143,3691.6,-183.77767857142857,379.12857142857143,3804.8,-183.77767857142857,379.12857142857143,3909.9,-183.77767857142857,379.12857142857143,4012.7,-183.77767857142857,379.12857142857143,4121.6,-183.77767857142857,379.12857142857143,4221.7,-183.77767857142857,379.12857142857143,4322.8,-183.77767857142857,379.12857142857143,4423,-183.77767857142857,379.12857142857143,4523.2,-183.77767857142857,379.12857142857143,4626.7,-183.77767857142857,379.12857142857143,4738.5,-183.77767857142857,379.12857142857143,4842.5,-183.77767857142857,379.12857142857143,4942.5]","[1341.3,1338.6,1000,2.7,338.7,""smooth"",""left"",""left"",""good_move"",4806.3,3460.8,3081.2,1350.9,374.2,""smooth"",""left"",""left"",""good_move"",8520,3712.9,3362.9,4807.1,350,""smooth"",""left"",""left"",""good_move"",11576.8,3055.9,2611.3,8520.9,444.6,""smooth"",""up"",""up"",""good_move"",17568.9,5991.1,2539.9,14672.9,356.2,""smooth"",""up"",""up"",""good_move"",23153.4,5583.7,2066.1,20696.3,391,""smooth"",""up"",""up"",""good_move""]","","",""
"5121","","<div style=""width:500px;"">
  <p>What determined the result of this run?</p>
  </div>","100","html-slider-response","47","1009716","0.0-10.0-1.1","238","1","2025-07-02 11:26:36","80fe4187154257d5fb01684ea91b68b9","41.144.102.92","Mozilla/5.0 (Windows NT 10.0; Win64; x64) AppleWebKit/537.36 (KHTML, like Gecko) Chrome/137.0.0.0 Safari/537.36","WebKit","Chrome","137.0.0.0","Windows","10.0","https://app.prolific.com/","en-US,en;q=0.9","6745d8ba436b1416f92aa9b8","683db6dfa200031b80f2a654","686513826a08ebe2c460e19f","6745d8ba436b1416f92aa9b8","2025-07-02T11:43:46.899Z","","","","","","AttribQ","","","","","","","","","","","","","","","","","","","","","","","","","","","","","","","","","","","","","","50",""
"2566","","<div style=""width:500px;"">
  <p>How much control did you have over the ball?</p>
  </div>","100","html-slider-response","48","1012285","0.0-10.0-2.1","238","1","2025-07-02 11:26:36","80fe4187154257d5fb01684ea91b68b9","41.144.102.92","Mozilla/5.0 (Windows NT 10.0; Win64; x64) AppleWebKit/537.36 (KHTML, like Gecko) Chrome/137.0.0.0 Safari/537.36","WebKit","Chrome","137.0.0.0","Windows","10.0","https://app.prolific.com/","en-US,en;q=0.9","6745d8ba436b1416f92aa9b8","683db6dfa200031b80f2a654","686513826a08ebe2c460e19f","6745d8ba436b1416f92aa9b8","2025-07-02T11:43:49.468Z","","","","","","ControlQ","","","","","","","","","","","","","","","","","","","","","","","","","","","","","","","","","","","","","","50",""
"4085","","<div style=""width:500px;"">
  <p>How would you describe your current emotional state?</p>
  </div>","1","html-slider-response","49","1016374","0.0-10.0-3.1","238","1","2025-07-02 11:26:36","80fe4187154257d5fb01684ea91b68b9","41.144.102.92","Mozilla/5.0 (Windows NT 10.0; Win64; x64) AppleWebKit/537.36 (KHTML, like Gecko) Chrome/137.0.0.0 Safari/537.36","WebKit","Chrome","137.0.0.0","Windows","10.0","https://app.prolific.com/","en-US,en;q=0.9","6745d8ba436b1416f92aa9b8","683db6dfa200031b80f2a654","686513826a08ebe2c460e19f","6745d8ba436b1416f92aa9b8","2025-07-02T11:43:53.557Z","","","","","","StressQ","","","","","","","","","","","","","","","","","","","","","","","","","","","","","","","","","","","","","","50",""
"4032","","<div style=""width:500px;"">
  <p>What best describes how you currently feel?</p>
  </div>","100","html-slider-response","50","1020407","0.0-10.0-4.1","238","1","2025-07-02 11:26:36","80fe4187154257d5fb01684ea91b68b9","41.144.102.92","Mozilla/5.0 (Windows NT 10.0; Win64; x64) AppleWebKit/537.36 (KHTML, like Gecko) Chrome/137.0.0.0 Safari/537.36","WebKit","Chrome","137.0.0.0","Windows","10.0","https://app.prolific.com/","en-US,en;q=0.9","6745d8ba436b1416f92aa9b8","683db6dfa200031b80f2a654","686513826a08ebe2c460e19f","6745d8ba436b1416f92aa9b8","2025-07-02T11:43:57.591Z","","","","","","MotivationQ","","","","","","","","","","","","","","","","","","","","","","","","","","","","","","","","","","","","","","50",""
"","","","","ctl-task-cpt","51","1059944","0.0-10.0-0.2","238","1","2025-07-02 11:26:36","80fe4187154257d5fb01684ea91b68b9","41.144.102.92","Mozilla/5.0 (Windows NT 10.0; Win64; x64) AppleWebKit/537.36 (KHTML, like Gecko) Chrome/137.0.0.0 Safari/537.36","WebKit","Chrome","137.0.0.0","Windows","10.0","https://app.prolific.com/","en-US,en;q=0.9","6745d8ba436b1416f92aa9b8","683db6dfa200031b80f2a654","686513826a08ebe2c460e19f","6745d8ba436b1416f92aa9b8","2025-07-02T11:44:37.127Z","","","","","","","","","","","","","","","","win-only","3","g1:SW,g2:NE","0.8","3","0","1042458.2","1875.7","6885.6","36516.5","1","4","8","6","2","8","8","20","12","0.15151515151515152","1035.5","3000","200","[""up"",""right""]","{""num_key_presses"":10,""num_perfect"":8,""num_errors"":0,""num_randdir"":2,""num_randdir_good_moves"":1,""num_whilered"":0,""num_whileblue"":0,""num_blue"":1,""num_good_moves"":8}","[296.22232142857143,296.12857142857143,1.4,296.22232142857143,296.12857142857143,121.5,296.22232142857143,296.12857142857143,222,296.22232142857143,289.12857142857143,335.2,305.22232142857143,260.12857142857143,436.7,409.22232142857143,174.12857142857143,548.4,506.22232142857143,83.12857142857143,660.4,515.2223214285714,70.12857142857143,763.3,510.22232142857143,66.12857142857143,865.6,506.22232142857143,67.12857142857143,971.9,506.22232142857143,67.12857142857143,1086,506.22232142857143,67.12857142857143,1190.3,506.22232142857143,67.12857142857143,1292.5,506.22232142857143,67.12857142857143,1407.8,457.22232142857143,140.12857142857143,1526.8,370.22232142857143,256.12857142857143,1635.7,268.22232142857143,329.12857142857143,1749.8,165.22232142857143,347.12857142857143,1865.8,89.22232142857143,349.12857142857143,1985.1,65.22232142857143,350.12857142857143,2103,94.22232142857143,350.12857142857143,2212.6,94.22232142857143,351.12857142857143,2313.3,94.22232142857143,351.12857142857143,2416.3,94.22232142857143,351.12857142857143,2521.7,94.22232142857143,351.12857142857143,2625.3,94.22232142857143,351.12857142857143,2736.6,94.22232142857143,351.12857142857143,2840.2,94.22232142857143,351.12857142857143,2946,94.22232142857143,351.12857142857143,3049.6,94.22232142857143,351.12857142857143,3151.9,94.22232142857143,351.12857142857143,3258.9,94.22232142857143,351.12857142857143,3361.3,94.22232142857143,351.12857142857143,3481.6,94.22232142857143,351.12857142857143,3582.2,94.22232142857143,351.12857142857143,3684.9,94.22232142857143,351.12857142857143,3786.9,94.22232142857143,351.12857142857143,3886.9,94.22232142857143,351.12857142857143,3994.3,94.22232142857143,351.12857142857143,4105.2,94.22232142857143,351.12857142857143,4220.7,94.22232142857143,351.12857142857143,4325,94.22232142857143,351.12857142857143,4425.9,94.22232142857143,351.12857142857143,4530.5,94.22232142857143,351.12857142857143,4635.8,94.22232142857143,351.12857142857143,4736.4,94.22232142857143,351.12857142857143,4840.1,94.22232142857143,351.12857142857143,4943]","[1432.1,1432.1,1000,0,432.1,""smooth"",""right"",""right"",""good_move"",3649.3,2213.4,1750.3,1435.9,463.1,""smooth"",""right"",""right"",""good_move"",9722.1,6064.6,2370.9,6957.9,393.3,""smooth"",""right"",""right"",""good_move"",11994.4,2270.3,1806.7,9724.1,463.6,""smooth"",""right"",""up"",""good_move"",14782.2,2785.1,2379.7,11997.1,405.4,""smooth"",""right"",""up"",""good_move"",17596.5,2811.9,2349.9,14784.7,461.9,""smooth"",""right"",""down"",""bad_move"",20534.6,2936.8,2394.6,17598,542.1,""smooth"",""up"",""up"",""good_move"",23476.7,2941,2540.1,20535.7,400.9,""oops"",""up"",""left"",""bad_move"",26446.8,2963.4,2517.4,23483.4,446,""oops"",""up"",""right"",""good_move"",29475.4,3027.4,2665.5,26448,361.9,""smooth"",""up"",""up"",""good_move""]","","",""
"4165","","<div style=""width:500px;"">
  <p>What determined the result of this run?</p>
  </div>","100","html-slider-response","52","1064114","0.0-10.0-1.2","238","1","2025-07-02 11:26:36","80fe4187154257d5fb01684ea91b68b9","41.144.102.92","Mozilla/5.0 (Windows NT 10.0; Win64; x64) AppleWebKit/537.36 (KHTML, like Gecko) Chrome/137.0.0.0 Safari/537.36","WebKit","Chrome","137.0.0.0","Windows","10.0","https://app.prolific.com/","en-US,en;q=0.9","6745d8ba436b1416f92aa9b8","683db6dfa200031b80f2a654","686513826a08ebe2c460e19f","6745d8ba436b1416f92aa9b8","2025-07-02T11:44:41.299Z","","","","","","AttribQ","","","","","","","","","","","","","","","","","","","","","","","","","","","","","","","","","","","","","","50",""
"3583","","<div style=""width:500px;"">
  <p>How much control did you have over the ball?</p>
  </div>","100","html-slider-response","53","1067701","0.0-10.0-2.2","238","1","2025-07-02 11:26:36","80fe4187154257d5fb01684ea91b68b9","41.144.102.92","Mozilla/5.0 (Windows NT 10.0; Win64; x64) AppleWebKit/537.36 (KHTML, like Gecko) Chrome/137.0.0.0 Safari/537.36","WebKit","Chrome","137.0.0.0","Windows","10.0","https://app.prolific.com/","en-US,en;q=0.9","6745d8ba436b1416f92aa9b8","683db6dfa200031b80f2a654","686513826a08ebe2c460e19f","6745d8ba436b1416f92aa9b8","2025-07-02T11:44:44.885Z","","","","","","ControlQ","","","","","","","","","","","","","","","","","","","","","","","","","","","","","","","","","","","","","","50",""
"4742","","<div style=""width:500px;"">
  <p>How would you describe your current emotional state?</p>
  </div>","3","html-slider-response","54","1072448","0.0-10.0-3.2","238","1","2025-07-02 11:26:36","80fe4187154257d5fb01684ea91b68b9","41.144.102.92","Mozilla/5.0 (Windows NT 10.0; Win64; x64) AppleWebKit/537.36 (KHTML, like Gecko) Chrome/137.0.0.0 Safari/537.36","WebKit","Chrome","137.0.0.0","Windows","10.0","https://app.prolific.com/","en-US,en;q=0.9","6745d8ba436b1416f92aa9b8","683db6dfa200031b80f2a654","686513826a08ebe2c460e19f","6745d8ba436b1416f92aa9b8","2025-07-02T11:44:49.631Z","","","","","","StressQ","","","","","","","","","","","","","","","","","","","","","","","","","","","","","","","","","","","","","","50",""
"2608","","<div style=""width:500px;"">
  <p>What best describes how you currently feel?</p>
  </div>","99","html-slider-response","55","1075059","0.0-10.0-4.2","238","1","2025-07-02 11:26:36","80fe4187154257d5fb01684ea91b68b9","41.144.102.92","Mozilla/5.0 (Windows NT 10.0; Win64; x64) AppleWebKit/537.36 (KHTML, like Gecko) Chrome/137.0.0.0 Safari/537.36","WebKit","Chrome","137.0.0.0","Windows","10.0","https://app.prolific.com/","en-US,en;q=0.9","6745d8ba436b1416f92aa9b8","683db6dfa200031b80f2a654","686513826a08ebe2c460e19f","6745d8ba436b1416f92aa9b8","2025-07-02T11:44:52.243Z","","","","","","MotivationQ","","","","","","","","","","","","","","","","","","","","","","","","","","","","","","","","","","","","","","50",""
"","","","","ctl-task-cpt","56","1101178","0.0-10.0-0.3","238","1","2025-07-02 11:26:36","80fe4187154257d5fb01684ea91b68b9","41.144.102.92","Mozilla/5.0 (Windows NT 10.0; Win64; x64) AppleWebKit/537.36 (KHTML, like Gecko) Chrome/137.0.0.0 Safari/537.36","WebKit","Chrome","137.0.0.0","Windows","10.0","https://app.prolific.com/","en-US,en;q=0.9","6745d8ba436b1416f92aa9b8","683db6dfa200031b80f2a654","686513826a08ebe2c460e19f","6745d8ba436b1416f92aa9b8","2025-07-02T11:45:18.361Z","","","","","","","","","","","","","","","","win-only","1","g1:NE,g2:SW","0.7","4","0","1097111","1288.9","6294.8","23069.5","1","4","4","6","1","1","1","21","20","0.1590909090909091","1706.5","3000","1980","[""up"",""right""]","{""num_key_presses"":4,""num_perfect"":4,""num_errors"":0,""num_randdir"":0,""num_randdir_good_moves"":0,""num_whilered"":0,""num_whileblue"":0,""num_blue"":2,""num_good_moves"":4}","[297.22232142857143,290.12857142857143,0.5,297.22232142857143,290.12857142857143,116.8,297.22232142857143,290.12857142857143,221.3,297.22232142857143,290.12857142857143,324.9,326.22232142857143,237.12857142857143,430.6,374.22232142857143,167.12857142857143,541.8,322.22232142857143,230.12857142857143,668.1,250.22232142857143,320.12857142857143,779.9,218.22232142857143,357.12857142857143,882.6,258.22232142857143,319.12857142857143,984.6,372.22232142857143,245.12857142857143,1087.2,427.22232142857143,193.12857142857143,1198.7,486.22232142857143,136.12857142857143,1300.8,511.22232142857143,105.12857142857143,1424.5,525.2223214285714,82.12857142857143,1529.8,541.2223214285714,61.128571428571426,1630.9,544.2223214285714,57.128571428571426,1730.8,545.2223214285714,58.128571428571426,1849.1,545.2223214285714,62.128571428571426,1980.1,496.22232142857143,192.12857142857143,2080.6,241.22232142857143,436.12857142857143,2195.3,86.22232142857143,489.12857142857143,2300.6,90.22232142857143,489.12857142857143,2408,90.22232142857143,489.12857142857143,2509.6,90.22232142857143,489.12857142857143,2625.6,90.22232142857143,489.12857142857143,2728,90.22232142857143,489.12857142857143,2829.8,90.22232142857143,489.12857142857143,2929.9,90.22232142857143,489.12857142857143,3040.6,90.22232142857143,489.12857142857143,3155,90.22232142857143,489.12857142857143,3256.9,90.22232142857143,489.12857142857143,3359.4,90.22232142857143,489.12857142857143,3469.2,90.22232142857143,489.12857142857143,3573.4,90.22232142857143,489.12857142857143,3674.4,90.22232142857143,489.12857142857143,3782.6,90.22232142857143,489.12857142857143,3882.9,90.22232142857143,489.12857142857143,3985.7,90.22232142857143,489.12857142857143,4109.8,90.22232142857143,489.12857142857143,4214.1,90.22232142857143,489.12857142857143,4317.5,90.22232142857143,489.12857142857143,4419.5,90.22232142857143,489.12857142857143,4523.2,90.22232142857143,489.12857142857143,4630.4,90.22232142857143,489.12857142857143,4731.3,90.22232142857143,489.12857142857143,4833,90.22232142857143,489.12857142857143,4933.3]","[1508.4,1508.4,1000,0,508.4,""smooth"",""right"",""right"",""good_move"",4313.4,2803.7,2245.1,1509.7,558.6,""smooth"",""up"",""up"",""good_move"",6378.6,2064,1624.8,4314.6,439.2,""smooth"",""up"",""up"",""good_move"",16616.1,10235.4,2747.9,13464.5,403.7,""smooth"",""right"",""right"",""good_move""]","","",""
"3920","","<div style=""width:500px;"">
  <p>What determined the result of this run?</p>
  </div>","100","html-slider-response","57","1105101","0.0-10.0-1.3","238","1","2025-07-02 11:26:36","80fe4187154257d5fb01684ea91b68b9","41.144.102.92","Mozilla/5.0 (Windows NT 10.0; Win64; x64) AppleWebKit/537.36 (KHTML, like Gecko) Chrome/137.0.0.0 Safari/537.36","WebKit","Chrome","137.0.0.0","Windows","10.0","https://app.prolific.com/","en-US,en;q=0.9","6745d8ba436b1416f92aa9b8","683db6dfa200031b80f2a654","686513826a08ebe2c460e19f","6745d8ba436b1416f92aa9b8","2025-07-02T11:45:22.284Z","","","","","","AttribQ","","","","","","","","","","","","","","","","","","","","","","","","","","","","","","","","","","","","","","50",""
"2825","","<div style=""width:500px;"">
  <p>How much control did you have over the ball?</p>
  </div>","100","html-slider-response","58","1107929","0.0-10.0-2.3","238","1","2025-07-02 11:26:36","80fe4187154257d5fb01684ea91b68b9","41.144.102.92","Mozilla/5.0 (Windows NT 10.0; Win64; x64) AppleWebKit/537.36 (KHTML, like Gecko) Chrome/137.0.0.0 Safari/537.36","WebKit","Chrome","137.0.0.0","Windows","10.0","https://app.prolific.com/","en-US,en;q=0.9","6745d8ba436b1416f92aa9b8","683db6dfa200031b80f2a654","686513826a08ebe2c460e19f","6745d8ba436b1416f92aa9b8","2025-07-02T11:45:25.112Z","","","","","","ControlQ","","","","","","","","","","","","","","","","","","","","","","","","","","","","","","","","","","","","","","50",""
"2424","","<div style=""width:500px;"">
  <p>How would you describe your current emotional state?</p>
  </div>","0","html-slider-response","59","1110356","0.0-10.0-3.3","238","1","2025-07-02 11:26:36","80fe4187154257d5fb01684ea91b68b9","41.144.102.92","Mozilla/5.0 (Windows NT 10.0; Win64; x64) AppleWebKit/537.36 (KHTML, like Gecko) Chrome/137.0.0.0 Safari/537.36","WebKit","Chrome","137.0.0.0","Windows","10.0","https://app.prolific.com/","en-US,en;q=0.9","6745d8ba436b1416f92aa9b8","683db6dfa200031b80f2a654","686513826a08ebe2c460e19f","6745d8ba436b1416f92aa9b8","2025-07-02T11:45:27.539Z","","","","","","StressQ","","","","","","","","","","","","","","","","","","","","","","","","","","","","","","","","","","","","","","50",""
"2462","","<div style=""width:500px;"">
  <p>What best describes how you currently feel?</p>
  </div>","100","html-slider-response","60","1112820","0.0-10.0-4.3","238","1","2025-07-02 11:26:36","80fe4187154257d5fb01684ea91b68b9","41.144.102.92","Mozilla/5.0 (Windows NT 10.0; Win64; x64) AppleWebKit/537.36 (KHTML, like Gecko) Chrome/137.0.0.0 Safari/537.36","WebKit","Chrome","137.0.0.0","Windows","10.0","https://app.prolific.com/","en-US,en;q=0.9","6745d8ba436b1416f92aa9b8","683db6dfa200031b80f2a654","686513826a08ebe2c460e19f","6745d8ba436b1416f92aa9b8","2025-07-02T11:45:30.004Z","","","","","","MotivationQ","","","","","","","","","","","","","","","","","","","","","","","","","","","","","","","","","","","","","","50",""
"","","","","ctl-task-cpt","61","1183539","0.0-10.0-0.4","238","1","2025-07-02 11:26:36","80fe4187154257d5fb01684ea91b68b9","41.144.102.92","Mozilla/5.0 (Windows NT 10.0; Win64; x64) AppleWebKit/537.36 (KHTML, like Gecko) Chrome/137.0.0.0 Safari/537.36","WebKit","Chrome","137.0.0.0","Windows","10.0","https://app.prolific.com/","en-US,en;q=0.9","6745d8ba436b1416f92aa9b8","683db6dfa200031b80f2a654","686513826a08ebe2c460e19f","6745d8ba436b1416f92aa9b8","2025-07-02T11:46:40.722Z","","","","","","","","","","","","","","","","win-only","0","g1:NW,g2:SE","0.6","5","0","1134871.6","4980.5","9993.6","67695.4","1","4","4","6","2","4","3","24","21","0.18181818181818182","1708.2","3000","85","[""down"",""right""]","{""num_key_presses"":15,""num_perfect"":8,""num_errors"":1,""num_randdir"":6,""num_randdir_good_moves"":2,""num_whilered"":0,""num_whileblue"":0,""num_blue"":5,""num_good_moves"":10}","[298.22232142857143,291.12857142857143,1.3,297.22232142857143,291.12857142857143,119.6,297.22232142857143,291.12857142857143,235.7,296.22232142857143,291.12857142857143,340.7,296.22232142857143,292.12857142857143,441.4,294.22232142857143,292.12857142857143,556.7,236.22232142857143,244.12857142857143,662.8,230.22232142857143,256.12857142857143,791.5,336.22232142857143,377.12857142857143,892.1,430.22232142857143,472.12857142857143,1010.1,435.22232142857143,473.12857142857143,1118.1,431.22232142857143,479.12857142857143,1235.1,436.22232142857143,496.12857142857143,1355.2,510.22232142857143,517.1285714285714,1474.4,512.2223214285714,518.1285714285714,1580.4,514.2223214285714,519.1285714285714,1689.8,514.2223214285714,519.1285714285714,1793.5,514.2223214285714,519.1285714285714,1919.7,425.22232142857143,559.1285714285714,2022.2,289.22232142857143,591.1285714285714,2133.7,226.22232142857143,603.1285714285714,2252.1,86.22232142857143,620.1285714285714,2354.2,75.22232142857143,622.1285714285714,2455.9,87.22232142857143,619.1285714285714,2560.2,87.22232142857143,619.1285714285714,2660.6,87.22232142857143,619.1285714285714,2780.6,87.22232142857143,619.1285714285714,2883,87.22232142857143,619.1285714285714,2989.9,87.22232142857143,619.1285714285714,3096.9,87.22232142857143,619.1285714285714,3207.4,87.22232142857143,619.1285714285714,3322.5,87.22232142857143,619.1285714285714,3429.8,87.22232142857143,619.1285714285714,3532,87.22232142857143,619.1285714285714,3642.1,87.22232142857143,619.1285714285714,3759.7,87.22232142857143,619.1285714285714,3875.2,87.22232142857143,619.1285714285714,3999.9,87.22232142857143,619.1285714285714,4102.3,87.22232142857143,619.1285714285714,4211.9,87.22232142857143,619.1285714285714,4329,87.22232142857143,619.1285714285714,4434.5,87.22232142857143,619.1285714285714,4535.9,87.22232142857143,619.1285714285714,4652.7,87.22232142857143,619.1285714285714,4755.2,87.22232142857143,619.1285714285714,4870.8,87.22232142857143,619.1285714285714,4971.4]","[1464.3,1464.3,1000,0,464.3,""smooth"",""down"",""down"",""good_move"",2563.1,1093.2,2499.5,1469.9,-1406.3,""error"",""-"",""-"",""no_move"",6008.1,3444.1,2008.2,3576.1,423.8,""oops"",""down"",""left"",""bad_move"",8744.4,2731.8,2326.3,6012.7,405.4,""smooth"",""down"",""down"",""good_move"",11156,2409.4,1996.1,8746.7,413.3,""oops"",""down"",""left"",""bad_move"",16856.7,5699.8,2230.9,14205.9,419.9,""oops"",""down"",""right"",""good_move"",20135.1,3274.3,2829.5,16860.8,444.8,""smooth"",""right"",""right"",""good_move"",27505.2,7365.6,3190.1,23848,467.1,""smooth"",""right"",""right"",""good_move"",33157.2,5640.9,2209.3,30570.6,377.3,""smooth"",""right"",""right"",""good_move"",35978.3,2819.5,2361,33158.8,458.5,""smooth"",""right"",""right"",""good_move"",39122,3137.9,2752.7,35984.1,385.2,""oops"",""down"",""up"",""bad_move"",45303.1,6176.7,2131.6,42790.3,381.3,""oops"",""down"",""left"",""bad_move"",48040.2,2736.1,2200.5,45304.1,535.6,""smooth"",""down"",""down"",""good_move"",54504,6460.7,2193.6,51916.1,394.3,""oops"",""down"",""right"",""good_move"",57505.1,3000,2646.4,54505.1,353.6,""smooth"",""down"",""down"",""good_move""]","","",""
"3954","","<div style=""width:500px;"">
  <p>What determined the result of this run?</p>
  </div>","100","html-slider-response","62","1187497","0.0-10.0-1.4","238","1","2025-07-02 11:26:36","80fe4187154257d5fb01684ea91b68b9","41.144.102.92","Mozilla/5.0 (Windows NT 10.0; Win64; x64) AppleWebKit/537.36 (KHTML, like Gecko) Chrome/137.0.0.0 Safari/537.36","WebKit","Chrome","137.0.0.0","Windows","10.0","https://app.prolific.com/","en-US,en;q=0.9","6745d8ba436b1416f92aa9b8","683db6dfa200031b80f2a654","686513826a08ebe2c460e19f","6745d8ba436b1416f92aa9b8","2025-07-02T11:46:44.680Z","","","","","","AttribQ","","","","","","","","","","","","","","","","","","","","","","","","","","","","","","","","","","","","","","50",""
"3159","","<div style=""width:500px;"">
  <p>How much control did you have over the ball?</p>
  </div>","100","html-slider-response","63","1190659","0.0-10.0-2.4","238","1","2025-07-02 11:26:36","80fe4187154257d5fb01684ea91b68b9","41.144.102.92","Mozilla/5.0 (Windows NT 10.0; Win64; x64) AppleWebKit/537.36 (KHTML, like Gecko) Chrome/137.0.0.0 Safari/537.36","WebKit","Chrome","137.0.0.0","Windows","10.0","https://app.prolific.com/","en-US,en;q=0.9","6745d8ba436b1416f92aa9b8","683db6dfa200031b80f2a654","686513826a08ebe2c460e19f","6745d8ba436b1416f92aa9b8","2025-07-02T11:46:47.843Z","","","","","","ControlQ","","","","","","","","","","","","","","","","","","","","","","","","","","","","","","","","","","","","","","50",""
"3254","","<div style=""width:500px;"">
  <p>How would you describe your current emotional state?</p>
  </div>","82","html-slider-response","64","1193917","0.0-10.0-3.4","238","1","2025-07-02 11:26:36","80fe4187154257d5fb01684ea91b68b9","41.144.102.92","Mozilla/5.0 (Windows NT 10.0; Win64; x64) AppleWebKit/537.36 (KHTML, like Gecko) Chrome/137.0.0.0 Safari/537.36","WebKit","Chrome","137.0.0.0","Windows","10.0","https://app.prolific.com/","en-US,en;q=0.9","6745d8ba436b1416f92aa9b8","683db6dfa200031b80f2a654","686513826a08ebe2c460e19f","6745d8ba436b1416f92aa9b8","2025-07-02T11:46:51.100Z","","","","","","StressQ","","","","","","","","","","","","","","","","","","","","","","","","","","","","","","","","","","","","","","50",""
"3888","","<div style=""width:500px;"">
  <p>What best describes how you currently feel?</p>
  </div>","78","html-slider-response","65","1197809","0.0-10.0-4.4","238","1","2025-07-02 11:26:36","80fe4187154257d5fb01684ea91b68b9","41.144.102.92","Mozilla/5.0 (Windows NT 10.0; Win64; x64) AppleWebKit/537.36 (KHTML, like Gecko) Chrome/137.0.0.0 Safari/537.36","WebKit","Chrome","137.0.0.0","Windows","10.0","https://app.prolific.com/","en-US,en;q=0.9","6745d8ba436b1416f92aa9b8","683db6dfa200031b80f2a654","686513826a08ebe2c460e19f","6745d8ba436b1416f92aa9b8","2025-07-02T11:46:54.992Z","","","","","","MotivationQ","","","","","","","","","","","","","","","","","","","","","","","","","","","","","","","","","","","","","","50",""
"","","","","ctl-task-cpt","66","1237272","0.0-10.0-0.5","238","1","2025-07-02 11:26:36","80fe4187154257d5fb01684ea91b68b9","41.144.102.92","Mozilla/5.0 (Windows NT 10.0; Win64; x64) AppleWebKit/537.36 (KHTML, like Gecko) Chrome/137.0.0.0 Safari/537.36","WebKit","Chrome","137.0.0.0","Windows","10.0","https://app.prolific.com/","en-US,en;q=0.9","6745d8ba436b1416f92aa9b8","683db6dfa200031b80f2a654","686513826a08ebe2c460e19f","6745d8ba436b1416f92aa9b8","2025-07-02T11:47:34.455Z","","","","","","","","","","","","","","","","win-only","0","g1:NW,g2:SE","0.5","6","0","1219864.8","2201.9","7217","36425.3","1","4","8","6","2","8","7","31","24","0.23484848484848486","1360.5","3000","2125","[""down"",""right""]","{""num_key_presses"":7,""num_perfect"":5,""num_errors"":1,""num_randdir"":1,""num_randdir_good_moves"":1,""num_whilered"":0,""num_whileblue"":0,""num_blue"":3,""num_good_moves"":6}","[295.22232142857143,293.12857142857143,8,296.22232142857143,293.12857142857143,107.6,296.22232142857143,293.12857142857143,210.8,296.22232142857143,294.12857142857143,312.7,300.22232142857143,283.12857142857143,418.9,296.22232142857143,276.12857142857143,520.8,318.22232142857143,297.12857142857143,626.3,410.22232142857143,413.12857142857143,729.4,470.22232142857143,469.12857142857143,832.9,493.22232142857143,483.12857142857143,942.1,520.2223214285714,494.12857142857143,1050.2,528.2223214285714,497.12857142857143,1154.5,539.2223214285714,506.12857142857143,1261.1,545.2223214285714,509.12857142857143,1378.7,545.2223214285714,509.12857142857143,1485,543.2223214285714,510.12857142857143,1606.8,366.22232142857143,517.1285714285714,1730.7,256.22232142857143,496.12857142857143,1840.3,223.22232142857143,449.12857142857143,1942.9,208.22232142857143,424.12857142857143,2048.7,207.22232142857143,423.12857142857143,2150.7,208.22232142857143,418.12857142857143,2261.1,208.22232142857143,418.12857142857143,2389.4,208.22232142857143,418.12857142857143,2496.3,208.22232142857143,418.12857142857143,2603.1,208.22232142857143,418.12857142857143,2711.2,208.22232142857143,418.12857142857143,2834.2,208.22232142857143,418.12857142857143,2936.3,208.22232142857143,418.12857142857143,3041.5,208.22232142857143,418.12857142857143,3169,208.22232142857143,418.12857142857143,3291.9,208.22232142857143,418.12857142857143,3399.2,208.22232142857143,418.12857142857143,3499.4,208.22232142857143,418.12857142857143,3600,208.22232142857143,418.12857142857143,3719.1,208.22232142857143,418.12857142857143,3852,208.22232142857143,418.12857142857143,3984.3,208.22232142857143,418.12857142857143,4119.2,208.22232142857143,418.12857142857143,4235.5,208.22232142857143,418.12857142857143,4340.1,208.22232142857143,418.12857142857143,4469.8,209.22232142857143,418.12857142857143,4571,209.22232142857143,418.12857142857143,4708.4,209.22232142857143,418.12857142857143,4811.9,209.22232142857143,418.12857142857143,4912.3]","[604.5,604.6,1000,0,-395.4,""error"",""-"",""-"",""no_move"",11053.1,10447.6,2808.8,7893.3,351.1,""smooth"",""right"",""right"",""good_move"",13299.2,2242.9,1783.4,11056.4,459.4,""oops"",""right"",""down"",""good_move"",16741.5,3436.9,3079.9,13304.6,357,""smooth"",""right"",""right"",""good_move"",20235.7,3492.4,3080.4,16743.3,412,""smooth"",""right"",""right"",""good_move"",22818.3,2581.8,2132,20236.5,449.8,""smooth"",""down"",""down"",""good_move"",28927.4,6108.1,2227.9,26280.1,419.4,""smooth"",""down"",""down"",""good_move""]","","",""
"3883","","<div style=""width:500px;"">
  <p>What determined the result of this run?</p>
  </div>","100","html-slider-response","67","1241161","0.0-10.0-1.5","238","1","2025-07-02 11:26:36","80fe4187154257d5fb01684ea91b68b9","41.144.102.92","Mozilla/5.0 (Windows NT 10.0; Win64; x64) AppleWebKit/537.36 (KHTML, like Gecko) Chrome/137.0.0.0 Safari/537.36","WebKit","Chrome","137.0.0.0","Windows","10.0","https://app.prolific.com/","en-US,en;q=0.9","6745d8ba436b1416f92aa9b8","683db6dfa200031b80f2a654","686513826a08ebe2c460e19f","6745d8ba436b1416f92aa9b8","2025-07-02T11:47:38.344Z","","","","","","AttribQ","","","","","","","","","","","","","","","","","","","","","","","","","","","","","","","","","","","","","","50",""
"2939","","<div style=""width:500px;"">
  <p>How much control did you have over the ball?</p>
  </div>","100","html-slider-response","68","1244102","0.0-10.0-2.5","238","1","2025-07-02 11:26:36","80fe4187154257d5fb01684ea91b68b9","41.144.102.92","Mozilla/5.0 (Windows NT 10.0; Win64; x64) AppleWebKit/537.36 (KHTML, like Gecko) Chrome/137.0.0.0 Safari/537.36","WebKit","Chrome","137.0.0.0","Windows","10.0","https://app.prolific.com/","en-US,en;q=0.9","6745d8ba436b1416f92aa9b8","683db6dfa200031b80f2a654","686513826a08ebe2c460e19f","6745d8ba436b1416f92aa9b8","2025-07-02T11:47:41.285Z","","","","","","ControlQ","","","","","","","","","","","","","","","","","","","","","","","","","","","","","","","","","","","","","","50",""
"2764","","<div style=""width:500px;"">
  <p>How would you describe your current emotional state?</p>
  </div>","1","html-slider-response","69","1246868","0.0-10.0-3.5","238","1","2025-07-02 11:26:36","80fe4187154257d5fb01684ea91b68b9","41.144.102.92","Mozilla/5.0 (Windows NT 10.0; Win64; x64) AppleWebKit/537.36 (KHTML, like Gecko) Chrome/137.0.0.0 Safari/537.36","WebKit","Chrome","137.0.0.0","Windows","10.0","https://app.prolific.com/","en-US,en;q=0.9","6745d8ba436b1416f92aa9b8","683db6dfa200031b80f2a654","686513826a08ebe2c460e19f","6745d8ba436b1416f92aa9b8","2025-07-02T11:47:44.051Z","","","","","","StressQ","","","","","","","","","","","","","","","","","","","","","","","","","","","","","","","","","","","","","","50",""
"2351","","<div style=""width:500px;"">
  <p>What best describes how you currently feel?</p>
  </div>","99","html-slider-response","70","1249223","0.0-10.0-4.5","238","1","2025-07-02 11:26:36","80fe4187154257d5fb01684ea91b68b9","41.144.102.92","Mozilla/5.0 (Windows NT 10.0; Win64; x64) AppleWebKit/537.36 (KHTML, like Gecko) Chrome/137.0.0.0 Safari/537.36","WebKit","Chrome","137.0.0.0","Windows","10.0","https://app.prolific.com/","en-US,en;q=0.9","6745d8ba436b1416f92aa9b8","683db6dfa200031b80f2a654","686513826a08ebe2c460e19f","6745d8ba436b1416f92aa9b8","2025-07-02T11:47:46.406Z","","","","","","MotivationQ","","","","","","","","","","","","","","","","","","","","","","","","","","","","","","","","","","","","","","50",""
"","","","","ctl-task-cpt","71","1278286","0.0-10.0-0.6","238","1","2025-07-02 11:26:36","80fe4187154257d5fb01684ea91b68b9","41.144.102.92","Mozilla/5.0 (Windows NT 10.0; Win64; x64) AppleWebKit/537.36 (KHTML, like Gecko) Chrome/137.0.0.0 Safari/537.36","WebKit","Chrome","137.0.0.0","Windows","10.0","https://app.prolific.com/","en-US,en;q=0.9","6745d8ba436b1416f92aa9b8","683db6dfa200031b80f2a654","686513826a08ebe2c460e19f","6745d8ba436b1416f92aa9b8","2025-07-02T11:48:15.469Z","","","","","","","","","","","","","","","","win-only","0","g1:NW,g2:SE","0.4","7","0","1271276.2","1518.5","6526.7","26033.7","1","4","4","6","2","4","3","34","31","0.25757575757575757","1629.5","3000","2135","[""down"",""right""]","{""num_key_presses"":7,""num_perfect"":3,""num_errors"":1,""num_randdir"":3,""num_randdir_good_moves"":3,""num_whilered"":0,""num_whileblue"":0,""num_blue"":0,""num_good_moves"":6}","[299.22232142857143,300.12857142857143,2.5,299.22232142857143,300.12857142857143,104.5,299.22232142857143,300.12857142857143,215.5,299.22232142857143,300.12857142857143,324.4,297.22232142857143,307.12857142857143,435.7,382.22232142857143,390.12857142857143,543.5,423.22232142857143,431.12857142857143,651.9,452.22232142857143,453.12857142857143,756.2,456.22232142857143,456.12857142857143,864.2,481.22232142857143,476.12857142857143,977.9,498.22232142857143,491.12857142857143,1082.8,527.2223214285714,519.1285714285714,1190.8,544.2223214285714,528.1285714285714,1306.6,547.2223214285714,530.1285714285714,1415.3,549.2223214285714,530.1285714285714,1515.8,550.2223214285714,529.1285714285714,1620.6,550.2223214285714,529.1285714285714,1737.8,550.2223214285714,529.1285714285714,1843.4,547.2223214285714,529.1285714285714,1950.2,468.22232142857143,531.1285714285714,2071,332.22232142857143,514.1285714285714,2188.1,281.22232142857143,510.12857142857143,2291.2,240.22232142857143,510.12857142857143,2406.1,153.22232142857143,515.1285714285714,2524.9,39.222321428571426,518.1285714285714,2640.8,32.222321428571426,517.1285714285714,2751.2,32.222321428571426,517.1285714285714,2871,32.222321428571426,517.1285714285714,2989.2,32.222321428571426,517.1285714285714,3093.4,32.222321428571426,517.1285714285714,3211.1,32.222321428571426,517.1285714285714,3316.7,32.222321428571426,517.1285714285714,3435.1,32.222321428571426,517.1285714285714,3550.5,32.222321428571426,517.1285714285714,3660.9,32.222321428571426,517.1285714285714,3767.3,32.222321428571426,517.1285714285714,3874.4,32.222321428571426,517.1285714285714,3978,32.222321428571426,517.1285714285714,4081.9,32.222321428571426,517.1285714285714,4183.8,32.222321428571426,517.1285714285714,4292.6,32.222321428571426,517.1285714285714,4402.5,32.222321428571426,517.1285714285714,4504,32.222321428571426,517.1285714285714,4616.8,33.222321428571426,517.1285714285714,4724.9,33.222321428571426,517.1285714285714,4846.5,34.222321428571426,517.1285714285714,4952.5]","[1488.5,1488.5,1000,0,488.5,""smooth"",""right"",""right"",""good_move"",4584,3089.7,2657.2,1494.3,432.5,""oops"",""right"",""right"",""good_move"",7066.4,2465.7,2069.1,4600.7,396.6,""smooth"",""right"",""right"",""good_move"",8990.9,1923.3,1928,7067.6,-4.7,""error"",""-"",""-"",""no_move"",13142.9,4150.7,2745.7,9994.4,402.8,""smooth"",""down"",""down"",""good_move"",16006.6,2861.5,2394.6,13145.2,466.9,""oops"",""down"",""down"",""good_move"",19113.2,3104.9,2681.6,16008.3,423.3,""oops"",""down"",""down"",""good_move""]","","",""
"3103","","<div style=""width:500px;"">
  <p>What determined the result of this run?</p>
  </div>","98","html-slider-response","72","1281395","0.0-10.0-1.6","238","1","2025-07-02 11:26:36","80fe4187154257d5fb01684ea91b68b9","41.144.102.92","Mozilla/5.0 (Windows NT 10.0; Win64; x64) AppleWebKit/537.36 (KHTML, like Gecko) Chrome/137.0.0.0 Safari/537.36","WebKit","Chrome","137.0.0.0","Windows","10.0","https://app.prolific.com/","en-US,en;q=0.9","6745d8ba436b1416f92aa9b8","683db6dfa200031b80f2a654","686513826a08ebe2c460e19f","6745d8ba436b1416f92aa9b8","2025-07-02T11:48:18.579Z","","","","","","AttribQ","","","","","","","","","","","","","","","","","","","","","","","","","","","","","","","","","","","","","","50",""
"4111","","<div style=""width:500px;"">
  <p>How much control did you have over the ball?</p>
  </div>","93","html-slider-response","73","1285511","0.0-10.0-2.6","238","1","2025-07-02 11:26:36","80fe4187154257d5fb01684ea91b68b9","41.144.102.92","Mozilla/5.0 (Windows NT 10.0; Win64; x64) AppleWebKit/537.36 (KHTML, like Gecko) Chrome/137.0.0.0 Safari/537.36","WebKit","Chrome","137.0.0.0","Windows","10.0","https://app.prolific.com/","en-US,en;q=0.9","6745d8ba436b1416f92aa9b8","683db6dfa200031b80f2a654","686513826a08ebe2c460e19f","6745d8ba436b1416f92aa9b8","2025-07-02T11:48:22.695Z","","","","","","ControlQ","","","","","","","","","","","","","","","","","","","","","","","","","","","","","","","","","","","","","","50",""
"1978","","<div style=""width:500px;"">
  <p>How would you describe your current emotional state?</p>
  </div>","61","html-slider-response","74","1287499","0.0-10.0-3.6","238","1","2025-07-02 11:26:36","80fe4187154257d5fb01684ea91b68b9","41.144.102.92","Mozilla/5.0 (Windows NT 10.0; Win64; x64) AppleWebKit/537.36 (KHTML, like Gecko) Chrome/137.0.0.0 Safari/537.36","WebKit","Chrome","137.0.0.0","Windows","10.0","https://app.prolific.com/","en-US,en;q=0.9","6745d8ba436b1416f92aa9b8","683db6dfa200031b80f2a654","686513826a08ebe2c460e19f","6745d8ba436b1416f92aa9b8","2025-07-02T11:48:24.682Z","","","","","","StressQ","","","","","","","","","","","","","","","","","","","","","","","","","","","","","","","","","","","","","","50",""
"2884","","<div style=""width:500px;"">
  <p>What best describes how you currently feel?</p>
  </div>","77","html-slider-response","75","1290387","0.0-10.0-4.6","238","1","2025-07-02 11:26:36","80fe4187154257d5fb01684ea91b68b9","41.144.102.92","Mozilla/5.0 (Windows NT 10.0; Win64; x64) AppleWebKit/537.36 (KHTML, like Gecko) Chrome/137.0.0.0 Safari/537.36","WebKit","Chrome","137.0.0.0","Windows","10.0","https://app.prolific.com/","en-US,en;q=0.9","6745d8ba436b1416f92aa9b8","683db6dfa200031b80f2a654","686513826a08ebe2c460e19f","6745d8ba436b1416f92aa9b8","2025-07-02T11:48:27.570Z","","","","","","MotivationQ","","","","","","","","","","","","","","","","","","","","","","","","","","","","","","","","","","","","","","50",""
"","","","","ctl-task-cpt","76","1341415","0.0-10.0-0.7","238","1","2025-07-02 11:26:36","80fe4187154257d5fb01684ea91b68b9","41.144.102.92","Mozilla/5.0 (Windows NT 10.0; Win64; x64) AppleWebKit/537.36 (KHTML, like Gecko) Chrome/137.0.0.0 Safari/537.36","WebKit","Chrome","137.0.0.0","Windows","10.0","https://app.prolific.com/","en-US,en;q=0.9","6745d8ba436b1416f92aa9b8","683db6dfa200031b80f2a654","686513826a08ebe2c460e19f","6745d8ba436b1416f92aa9b8","2025-07-02T11:49:18.598Z","","","","","","","","","","","","","","","","win-only","3","g1:SW,g2:NE","0.3","8","0","1312453.5","1276.4","6288.3","47959.8","1","4","8","6","2","8","7","41","34","0.3106060606060606","1151.4","3000","2165","[""up"",""right""]","{""num_key_presses"":11,""num_perfect"":3,""num_errors"":1,""num_randdir"":7,""num_randdir_good_moves"":5,""num_whilered"":0,""num_whileblue"":0,""num_blue"":0,""num_good_moves"":8}","[294.22232142857143,293.12857142857143,0.6,294.22232142857143,293.12857142857143,100.4,294.22232142857143,293.12857142857143,219.7,294.22232142857143,293.12857142857143,325.4,297.22232142857143,291.12857142857143,428.8,353.22232142857143,227.12857142857143,536,437.22232142857143,135.12857142857143,642.8,471.22232142857143,106.12857142857143,768.4,482.22232142857143,97.12857142857143,877.1,501.22232142857143,88.12857142857143,997.5,526.2223214285714,75.12857142857143,1108.8,530.2223214285714,72.12857142857143,1210,530.2223214285714,72.12857142857143,1319.6,529.2223214285714,90.12857142857143,1429.6,380.22232142857143,244.12857142857143,1545.6,307.22232142857143,329.12857142857143,1656.3,252.22232142857143,389.12857142857143,1759.2,234.22232142857143,405.12857142857143,1873.9,206.22232142857143,444.12857142857143,1976.8,200.22232142857143,451.12857142857143,2081.8,200.22232142857143,451.12857142857143,2183.2,200.22232142857143,451.12857142857143,2297.1,200.22232142857143,451.12857142857143,2404.9,200.22232142857143,451.12857142857143,2510.7,200.22232142857143,451.12857142857143,2612.7,200.22232142857143,451.12857142857143,2714.7,200.22232142857143,451.12857142857143,2816.4,200.22232142857143,451.12857142857143,2918.9,200.22232142857143,451.12857142857143,3040.6,200.22232142857143,451.12857142857143,3145.1,200.22232142857143,451.12857142857143,3248.9,200.22232142857143,451.12857142857143,3361.5,200.22232142857143,451.12857142857143,3477.6,200.22232142857143,451.12857142857143,3579.2,200.22232142857143,451.12857142857143,3690.7,200.22232142857143,451.12857142857143,3800.1,200.22232142857143,451.12857142857143,3902.2,200.22232142857143,451.12857142857143,4014.7,200.22232142857143,451.12857142857143,4132.7,200.22232142857143,451.12857142857143,4232.7,200.22232142857143,451.12857142857143,4338.3,200.22232142857143,451.12857142857143,4456.3,200.22232142857143,451.12857142857143,4569.1,200.22232142857143,451.12857142857143,4671.6,200.22232142857143,451.12857142857143,4780.7,200.22232142857143,451.12857142857143,4891]","[571.6,571.6,1000,0,-428.4,""error"",""-"",""-"",""no_move"",3474.9,2902.5,1403.1,1572.8,499,""smooth"",""right"",""right"",""good_move"",6594.5,3118.6,2713.8,3475.9,404.8,""smooth"",""right"",""right"",""good_move"",9148.3,2552,2135,6596.3,417,""oops"",""right"",""right"",""good_move"",11724.6,2573.3,2197.7,9151.3,375.6,""oops"",""up"",""up"",""good_move"",16582.9,4854.3,1764.2,11728.6,3090.1,""oops"",""up"",""left"",""bad_move"",21743.5,5159.4,2713.1,16584.1,2446.3,""oops"",""up"",""right"",""good_move"",24178,2433.3,1836.2,21744.7,597.1,""oops"",""up"",""left"",""bad_move"",29566.8,5387.5,2224.9,24179.3,3162.6,""oops"",""up"",""up"",""good_move"",35494.2,5924.6,2103.4,29569.6,3821.2,""oops"",""up"",""up"",""good_move"",41030.9,5536,2538.1,35494.9,2997.9,""smooth"",""right"",""right"",""good_move""]","","",""
"2645","","<div style=""width:500px;"">
  <p>What determined the result of this run?</p>
  </div>","96","html-slider-response","77","1344065","0.0-10.0-1.7","238","1","2025-07-02 11:26:36","80fe4187154257d5fb01684ea91b68b9","41.144.102.92","Mozilla/5.0 (Windows NT 10.0; Win64; x64) AppleWebKit/537.36 (KHTML, like Gecko) Chrome/137.0.0.0 Safari/537.36","WebKit","Chrome","137.0.0.0","Windows","10.0","https://app.prolific.com/","en-US,en;q=0.9","6745d8ba436b1416f92aa9b8","683db6dfa200031b80f2a654","686513826a08ebe2c460e19f","6745d8ba436b1416f92aa9b8","2025-07-02T11:49:21.248Z","","","","","","AttribQ","","","","","","","","","","","","","","","","","","","","","","","","","","","","","","","","","","","","","","50",""
"2956","","<div style=""width:500px;"">
  <p>How much control did you have over the ball?</p>
  </div>","100","html-slider-response","78","1347026","0.0-10.0-2.7","238","1","2025-07-02 11:26:36","80fe4187154257d5fb01684ea91b68b9","41.144.102.92","Mozilla/5.0 (Windows NT 10.0; Win64; x64) AppleWebKit/537.36 (KHTML, like Gecko) Chrome/137.0.0.0 Safari/537.36","WebKit","Chrome","137.0.0.0","Windows","10.0","https://app.prolific.com/","en-US,en;q=0.9","6745d8ba436b1416f92aa9b8","683db6dfa200031b80f2a654","686513826a08ebe2c460e19f","6745d8ba436b1416f92aa9b8","2025-07-02T11:49:24.209Z","","","","","","ControlQ","","","","","","","","","","","","","","","","","","","","","","","","","","","","","","","","","","","","","","50",""
"2496","","<div style=""width:500px;"">
  <p>How would you describe your current emotional state?</p>
  </div>","38","html-slider-response","79","1349530","0.0-10.0-3.7","238","1","2025-07-02 11:26:36","80fe4187154257d5fb01684ea91b68b9","41.144.102.92","Mozilla/5.0 (Windows NT 10.0; Win64; x64) AppleWebKit/537.36 (KHTML, like Gecko) Chrome/137.0.0.0 Safari/537.36","WebKit","Chrome","137.0.0.0","Windows","10.0","https://app.prolific.com/","en-US,en;q=0.9","6745d8ba436b1416f92aa9b8","683db6dfa200031b80f2a654","686513826a08ebe2c460e19f","6745d8ba436b1416f92aa9b8","2025-07-02T11:49:26.713Z","","","","","","StressQ","","","","","","","","","","","","","","","","","","","","","","","","","","","","","","","","","","","","","","50",""
"4981","","<div style=""width:500px;"">
  <p>What best describes how you currently feel?</p>
  </div>","99","html-slider-response","80","1354515","0.0-10.0-4.7","238","1","2025-07-02 11:26:36","80fe4187154257d5fb01684ea91b68b9","41.144.102.92","Mozilla/5.0 (Windows NT 10.0; Win64; x64) AppleWebKit/537.36 (KHTML, like Gecko) Chrome/137.0.0.0 Safari/537.36","WebKit","Chrome","137.0.0.0","Windows","10.0","https://app.prolific.com/","en-US,en;q=0.9","6745d8ba436b1416f92aa9b8","683db6dfa200031b80f2a654","686513826a08ebe2c460e19f","6745d8ba436b1416f92aa9b8","2025-07-02T11:49:31.698Z","","","","","","MotivationQ","","","","","","","","","","","","","","","","","","","","","","","","","","","","","","","","","","","","","","50",""
"","","","","ctl-task-cpt","81","1461445","0.0-10.0-0.8","238","1","2025-07-02 11:26:36","80fe4187154257d5fb01684ea91b68b9","41.144.102.92","Mozilla/5.0 (Windows NT 10.0; Win64; x64) AppleWebKit/537.36 (KHTML, like Gecko) Chrome/137.0.0.0 Safari/537.36","WebKit","Chrome","137.0.0.0","Windows","10.0","https://app.prolific.com/","en-US,en;q=0.9","6745d8ba436b1416f92aa9b8","683db6dfa200031b80f2a654","686513826a08ebe2c460e19f","6745d8ba436b1416f92aa9b8","2025-07-02T11:51:18.628Z","","","","","","","","","","","","","","","","win-only","1","g1:NE,g2:SW","0.4","9","0","1376567.9","1565.9","6570.9","103905","1","4","4","6","2","-4","-6","35","41","0.26515151515151514","1691.5","3000","-820","[""down"",""left""]","{""num_key_presses"":26,""num_perfect"":9,""num_errors"":2,""num_randdir"":15,""num_randdir_good_moves"":4,""num_whilered"":0,""num_whileblue"":1,""num_blue"":5,""num_good_moves"":13}","[291.22232142857143,291.12857142857143,0.7,291.22232142857143,291.12857142857143,123.3,291.22232142857143,291.12857142857143,273.8,292.22232142857143,287.12857142857143,387.3,294.22232142857143,281.12857142857143,494.6,268.22232142857143,340.12857142857143,605.8,251.22232142857143,367.12857142857143,712.6,251.22232142857143,369.12857142857143,812.7,227.22232142857143,406.12857142857143,922.9,139.22232142857143,509.12857142857143,1036.4,111.22232142857143,548.1285714285714,1147.5,105.22232142857143,558.1285714285714,1264.5,101.22232142857143,558.1285714285714,1392.7,75.22232142857143,547.1285714285714,1509.2,53.222321428571426,533.1285714285714,1612.3,53.222321428571426,532.1285714285714,1720.4,53.222321428571426,532.1285714285714,1860.1,53.222321428571426,532.1285714285714,2003.4,104.22232142857143,509.12857142857143,2107.2,210.22232142857143,421.12857142857143,2218.8,239.22232142857143,382.12857142857143,2328.7,229.22232142857143,355.12857142857143,2451.5,202.22232142857143,311.12857142857143,2556.2,162.22232142857143,272.12857142857143,2658.8,134.22232142857143,243.12857142857143,2762.7,113.22232142857143,228.12857142857143,2880,113.22232142857143,228.12857142857143,3011.7,113.22232142857143,228.12857142857143,3119.7,113.22232142857143,228.12857142857143,3225.2,113.22232142857143,228.12857142857143,3327.5,113.22232142857143,228.12857142857143,3447.2,113.22232142857143,228.12857142857143,3555.7,113.22232142857143,228.12857142857143,3662.1,113.22232142857143,228.12857142857143,3768.9,113.22232142857143,228.12857142857143,3894.6,113.22232142857143,228.12857142857143,3995.8,113.22232142857143,228.12857142857143,4103.8,113.22232142857143,228.12857142857143,4213,113.22232142857143,228.12857142857143,4323.5,113.22232142857143,228.12857142857143,4442.2,113.22232142857143,228.12857142857143,4545.2,113.22232142857143,228.12857142857143,4658.2,113.22232142857143,228.12857142857143,4761.3,113.22232142857143,228.12857142857143,4874,113.22232142857143,228.12857142857143,4987.3]","[1452.1,1452.1,1000,0,452.1,""oops"",""down"",""right"",""bad_move"",4811.4,3353,2820.8,1458.4,532.2,""oops"",""down"",""down"",""good_move"",8246.6,3431.4,3068.7,4815.2,362.7,""oops"",""down"",""right"",""bad_move"",11490.3,3241.3,2871.3,8249,370,""oops"",""down"",""left"",""good_move"",14687.4,3195.9,2560.2,11491.5,635.7,""oops"",""left"",""up"",""bad_move"",17735.3,3045.2,2340.8,14690.1,704.4,""smooth"",""down"",""down"",""good_move"",20840.9,3101.8,2697,17739.1,404.8,""smooth"",""down"",""down"",""good_move"",23859.2,3016,2663,20843.3,352.9,""smooth"",""down"",""down"",""good_move"",26220.4,2347,1968.6,23873.4,378.4,""oops"",""left"",""up"",""bad_move"",29664.9,3441,2720.4,26224,720.6,""smooth"",""left"",""left"",""good_move"",32534.9,2860,2046.4,29674.9,813.6,""smooth"",""left"",""left"",""good_move"",40120.1,7581.3,3445.2,36305.8,369.2,""while_blue"",""left"",""up"",""bad_move"",43341.4,3217.9,2591.6,40123.5,626.3,""smooth"",""left"",""left"",""good_move"",46496.9,3154.1,2507.2,43342.9,646.9,""oops"",""left"",""right"",""bad_move"",49408,2904.6,2394,46503.4,510.6,""oops"",""left"",""up"",""bad_move"",53341,3930.7,2766.6,49410.3,1164.1,""oops"",""down"",""right"",""bad_move"",56860.6,3518.5,3031.9,53342.2,486.5,""oops"",""down"",""up"",""bad_move"",60493.5,3631,3141.1,56862.5,489.9,""oops"",""left"",""down"",""good_move"",63362,2865,2457.8,60497,407.2,""oops"",""left"",""right"",""bad_move"",66853.5,3489.7,3107.8,63363.8,381.9,""smooth"",""down"",""down"",""good_move"",73409.1,6554.6,2272,70659,478.1,""smooth"",""down"",""down"",""good_move"",76319.3,2909.1,2391.8,73410.2,517.3,""oops"",""down"",""up"",""bad_move"",80393.7,4073.1,1751.1,76320.6,2322.1,""oops"",""down"",""right"",""bad_move"",89797.9,9402.7,2456.4,86872.5,469,""oops"",""down"",""left"",""good_move"",90680.5,880.8,2726.8,89799.8,-1846.1,""error"",""-"",""-"",""no_move"",94483.2,3801.9,2309.6,91692.5,481.1,""smooth"",""left"",""left"",""good_move""]","","",""
"5587","","<div style=""width:500px;"">
  <p>What determined the result of this run?</p>
  </div>","73","html-slider-response","82","1467036","0.0-10.0-1.8","238","1","2025-07-02 11:26:36","80fe4187154257d5fb01684ea91b68b9","41.144.102.92","Mozilla/5.0 (Windows NT 10.0; Win64; x64) AppleWebKit/537.36 (KHTML, like Gecko) Chrome/137.0.0.0 Safari/537.36","WebKit","Chrome","137.0.0.0","Windows","10.0","https://app.prolific.com/","en-US,en;q=0.9","6745d8ba436b1416f92aa9b8","683db6dfa200031b80f2a654","686513826a08ebe2c460e19f","6745d8ba436b1416f92aa9b8","2025-07-02T11:51:24.219Z","","","","","","AttribQ","","","","","","","","","","","","","","","","","","","","","","","","","","","","","","","","","","","","","","50",""
"2626","","<div style=""width:500px;"">
  <p>How much control did you have over the ball?</p>
  </div>","34","html-slider-response","83","1469666","0.0-10.0-2.8","238","1","2025-07-02 11:26:36","80fe4187154257d5fb01684ea91b68b9","41.144.102.92","Mozilla/5.0 (Windows NT 10.0; Win64; x64) AppleWebKit/537.36 (KHTML, like Gecko) Chrome/137.0.0.0 Safari/537.36","WebKit","Chrome","137.0.0.0","Windows","10.0","https://app.prolific.com/","en-US,en;q=0.9","6745d8ba436b1416f92aa9b8","683db6dfa200031b80f2a654","686513826a08ebe2c460e19f","6745d8ba436b1416f92aa9b8","2025-07-02T11:51:26.849Z","","","","","","ControlQ","","","","","","","","","","","","","","","","","","","","","","","","","","","","","","","","","","","","","","50",""
"3598","","<div style=""width:500px;"">
  <p>How would you describe your current emotional state?</p>
  </div>","100","html-slider-response","84","1473269","0.0-10.0-3.8","238","1","2025-07-02 11:26:36","80fe4187154257d5fb01684ea91b68b9","41.144.102.92","Mozilla/5.0 (Windows NT 10.0; Win64; x64) AppleWebKit/537.36 (KHTML, like Gecko) Chrome/137.0.0.0 Safari/537.36","WebKit","Chrome","137.0.0.0","Windows","10.0","https://app.prolific.com/","en-US,en;q=0.9","6745d8ba436b1416f92aa9b8","683db6dfa200031b80f2a654","686513826a08ebe2c460e19f","6745d8ba436b1416f92aa9b8","2025-07-02T11:51:30.453Z","","","","","","StressQ","","","","","","","","","","","","","","","","","","","","","","","","","","","","","","","","","","","","","","50",""
"2962","","<div style=""width:500px;"">
  <p>What best describes how you currently feel?</p>
  </div>","9","html-slider-response","85","1476235","0.0-10.0-4.8","238","1","2025-07-02 11:26:36","80fe4187154257d5fb01684ea91b68b9","41.144.102.92","Mozilla/5.0 (Windows NT 10.0; Win64; x64) AppleWebKit/537.36 (KHTML, like Gecko) Chrome/137.0.0.0 Safari/537.36","WebKit","Chrome","137.0.0.0","Windows","10.0","https://app.prolific.com/","en-US,en;q=0.9","6745d8ba436b1416f92aa9b8","683db6dfa200031b80f2a654","686513826a08ebe2c460e19f","6745d8ba436b1416f92aa9b8","2025-07-02T11:51:33.418Z","","","","","","MotivationQ","","","","","","","","","","","","","","","","","","","","","","","","","","","","","","","","","","","","","","50",""
