"rt","response_timestamp","stimulus","response","trial_type","trial_index","time_elapsed","internal_node_id","run_id","condition","recorded_at","source_code_version","ip","user_agent","device","browser","browser_version","platform","platform_version","referer","accept_language","PROLIFIC_PID","STUDY_ID","SESSION_ID","prolific_id","realtime","view_history","question_order","consent","success","question_id","eventType","responses","item_order","radio_event_ids","radio_event_times","key_event_times","mouse_event_times","straightlining","zigzagging","honeypot","which_type","canvas_config","goals_layout","control_level","trial_number","tutorial_trial_number","trial_start_time","phase1_start_time","phase2_start_time","phase3_start_time","goal_1_value","goal_1_distance","goal_2_value","goal_2_distance","goal_selected","outcome","outcome_total","participant_final_score","participant_initial_score","participant_final_score_prop","goal_choice_rt","allocated_time","allocated_time_remaining","goal_direction","counts","mouse_movements","key_presses","correct","slider_start"
"5639","1751451514044","<p style='font-size:40px;line-height:1.25'><strong>Welcome to the experiment!</strong></p><p style='font-size:1.1em;line-height:1.25'>Thank you for your interest in our experiment! Before you begin, it is important that we obtain your informed consent to participate in the study.</p><p style='font-size:1.1em;line-height:1.25'>On the next screen will be an <strong>information sheet</strong> for you to read. To participate in the study we need you to read this information sheet and the following consent form carefully. If you agree with all the statements, please click the <strong>I agree</strong> button.</p><p style='font-size:1.1em;line-height:1.25'>Press <strong>Next</strong> to read the information sheet.</p>","0","custom-html-button-response","0","5640","0.0-0.0","19","1","2025-07-02 10:18:27","80fe4187154257d5fb01684ea91b68b9","78.84.164.26","Mozilla/5.0 (Windows NT 10.0; Win64; x64) AppleWebKit/537.36 (KHTML, like Gecko) Chrome/137.0.0.0 Safari/537.36","WebKit","Chrome","137.0.0.0","Windows","10.0","https://app.prolific.com/","en-GB,en-US;q=0.9,en;q=0.8","67458e548861194752950b3e","683db6dfa200031b80f2a654","6865077054b85e2829b09a06","67458e548861194752950b3e","2025-07-02T10:18:34.044Z","","","","","","","","","","","","","","","","","","","","","","","","","","","","","","","","","","","","","","","","","","","",""
"11947","","","","instructions","1","17588","0.0-1.0","19","1","2025-07-02 10:18:27","80fe4187154257d5fb01684ea91b68b9","78.84.164.26","Mozilla/5.0 (Windows NT 10.0; Win64; x64) AppleWebKit/537.36 (KHTML, like Gecko) Chrome/137.0.0.0 Safari/537.36","WebKit","Chrome","137.0.0.0","Windows","10.0","https://app.prolific.com/","en-GB,en-US;q=0.9,en;q=0.8","67458e548861194752950b3e","683db6dfa200031b80f2a654","6865077054b85e2829b09a06","67458e548861194752950b3e","","[{""page_index"":0,""viewing_time"":9718},{""page_index"":1,""viewing_time"":2228}]","","","","","","","","","","","","","","","","","","","","","","","","","","","","","","","","","","","","","","","","","","",""
"3884","","","{""Q0"":"""",""Q1"":"""",""Q2"":"""",""Q3"":"""",""Q4"":"""",""Q5"":"""",""Q6"":""I agree""}","survey-multi-choice","2","21473","0.0-2.0","19","1","2025-07-02 10:18:27","80fe4187154257d5fb01684ea91b68b9","78.84.164.26","Mozilla/5.0 (Windows NT 10.0; Win64; x64) AppleWebKit/537.36 (KHTML, like Gecko) Chrome/137.0.0.0 Safari/537.36","WebKit","Chrome","137.0.0.0","Windows","10.0","https://app.prolific.com/","en-GB,en-US;q=0.9,en;q=0.8","67458e548861194752950b3e","683db6dfa200031b80f2a654","6865077054b85e2829b09a06","67458e548861194752950b3e","","","[0,1,2,3,4,5,6]","true","","","","","","","","","","","","","","","","","","","","","","","","","","","","","","","","","","","","","","","","",""
"3201","","","","fullscreen","3","25686","0.0-4.0","19","1","2025-07-02 10:18:27","80fe4187154257d5fb01684ea91b68b9","78.84.164.26","Mozilla/5.0 (Windows NT 10.0; Win64; x64) AppleWebKit/537.36 (KHTML, like Gecko) Chrome/137.0.0.0 Safari/537.36","WebKit","Chrome","137.0.0.0","Windows","10.0","https://app.prolific.com/","en-GB,en-US;q=0.9,en;q=0.8","67458e548861194752950b3e","683db6dfa200031b80f2a654","6865077054b85e2829b09a06","67458e548861194752950b3e","","","","","true","","","","","","","","","","","","","","","","","","","","","","","","","","","","","","","","","","","","","","","",""
"7246","1751451541336"," <p style='font-size:1.1em;line-height:1.25'>Thank you for completing the consent form and closing all other tabs.</p><p style='font-size:1.1em;line-height:1.25'>We will now invite you to fill in some demographic information and questionnaires, before starting the game.<br>This will take about 5 minutes.<br></p><p style='font-size:1.1em;line-height:1.25'>Press the <strong>Next</strong> button to continue.</p>","0","custom-html-button-response","4","32932","0.0-5.0","19","1","2025-07-02 10:18:27","80fe4187154257d5fb01684ea91b68b9","78.84.164.26","Mozilla/5.0 (Windows NT 10.0; Win64; x64) AppleWebKit/537.36 (KHTML, like Gecko) Chrome/137.0.0.0 Safari/537.36","WebKit","Chrome","137.0.0.0","Windows","10.0","https://app.prolific.com/","en-GB,en-US;q=0.9,en;q=0.8","67458e548861194752950b3e","683db6dfa200031b80f2a654","6865077054b85e2829b09a06","67458e548861194752950b3e","2025-07-02T10:19:01.336Z","","","","","","","","","","","","","","","","","","","","","","","","","","","","","","","","","","","","","","","","","","","",""
"2264","","","{""age"":""21""}","survey-text","5","35198","0.0-6.0-0.0","19","1","2025-07-02 10:18:27","80fe4187154257d5fb01684ea91b68b9","78.84.164.26","Mozilla/5.0 (Windows NT 10.0; Win64; x64) AppleWebKit/537.36 (KHTML, like Gecko) Chrome/137.0.0.0 Safari/537.36","WebKit","Chrome","137.0.0.0","Windows","10.0","https://app.prolific.com/","en-GB,en-US;q=0.9,en;q=0.8","67458e548861194752950b3e","683db6dfa200031b80f2a654","6865077054b85e2829b09a06","67458e548861194752950b3e","","","","","","0","demographics","","","","","","","","","","","","","","","","","","","","","","","","","","","","","","","","","","","","","",""
"3352","","","{""gender_identity"":""male/man""}","survey-multi-choice","6","38550","0.0-6.0-1.0","19","1","2025-07-02 10:18:27","80fe4187154257d5fb01684ea91b68b9","78.84.164.26","Mozilla/5.0 (Windows NT 10.0; Win64; x64) AppleWebKit/537.36 (KHTML, like Gecko) Chrome/137.0.0.0 Safari/537.36","WebKit","Chrome","137.0.0.0","Windows","10.0","https://app.prolific.com/","en-GB,en-US;q=0.9,en;q=0.8","67458e548861194752950b3e","683db6dfa200031b80f2a654","6865077054b85e2829b09a06","67458e548861194752950b3e","","","[0]","","","1","demographics","","","","","","","","","","","","","","","","","","","","","","","","","","","","","","","","","","","","","",""
"3652","","","{""assigned_sex"":""male""}","survey-multi-choice","7","42202","0.0-6.0-2.0","19","1","2025-07-02 10:18:27","80fe4187154257d5fb01684ea91b68b9","78.84.164.26","Mozilla/5.0 (Windows NT 10.0; Win64; x64) AppleWebKit/537.36 (KHTML, like Gecko) Chrome/137.0.0.0 Safari/537.36","WebKit","Chrome","137.0.0.0","Windows","10.0","https://app.prolific.com/","en-GB,en-US;q=0.9,en;q=0.8","67458e548861194752950b3e","683db6dfa200031b80f2a654","6865077054b85e2829b09a06","67458e548861194752950b3e","","","[0]","","","2","demographics","","","","","","","","","","","","","","","","","","","","","","","","","","","","","","","","","","","","","",""
"3224","","","{""menstrual_cycle"":""No""}","survey-multi-choice","8","45427","0.0-6.0-3.0","19","1","2025-07-02 10:18:27","80fe4187154257d5fb01684ea91b68b9","78.84.164.26","Mozilla/5.0 (Windows NT 10.0; Win64; x64) AppleWebKit/537.36 (KHTML, like Gecko) Chrome/137.0.0.0 Safari/537.36","WebKit","Chrome","137.0.0.0","Windows","10.0","https://app.prolific.com/","en-GB,en-US;q=0.9,en;q=0.8","67458e548861194752950b3e","683db6dfa200031b80f2a654","6865077054b85e2829b09a06","67458e548861194752950b3e","","","[0]","","","4","demographics","","","","","","","","","","","","","","","","","","","","","","","","","","","","","","","","","","","","","",""
"2677","","","{""education"":""Bachelor's Degree (e.g., BA)""}","survey-multi-choice","9","48105","0.0-6.0-4.0","19","1","2025-07-02 10:18:27","80fe4187154257d5fb01684ea91b68b9","78.84.164.26","Mozilla/5.0 (Windows NT 10.0; Win64; x64) AppleWebKit/537.36 (KHTML, like Gecko) Chrome/137.0.0.0 Safari/537.36","WebKit","Chrome","137.0.0.0","Windows","10.0","https://app.prolific.com/","en-GB,en-US;q=0.9,en;q=0.8","67458e548861194752950b3e","683db6dfa200031b80f2a654","6865077054b85e2829b09a06","67458e548861194752950b3e","","","[0]","","","5","demographics","","","","","","","","","","","","","","","","","","","","","","","","","","","","","","","","","","","","","",""
"11070","","","{""education"":""Higher National Certificate""}","survey-multi-choice","10","59176","0.0-6.0-5.0","19","1","2025-07-02 10:18:27","80fe4187154257d5fb01684ea91b68b9","78.84.164.26","Mozilla/5.0 (Windows NT 10.0; Win64; x64) AppleWebKit/537.36 (KHTML, like Gecko) Chrome/137.0.0.0 Safari/537.36","WebKit","Chrome","137.0.0.0","Windows","10.0","https://app.prolific.com/","en-GB,en-US;q=0.9,en;q=0.8","67458e548861194752950b3e","683db6dfa200031b80f2a654","6865077054b85e2829b09a06","67458e548861194752950b3e","2025-07-02T10:19:27.580Z","","[0]","","","6","demographics","","","","","","","","","","","","","","","","","","","","","","","","","","","","","","","","","","","","","",""
"6936","","","{""mental_health_condition"":"""",""mental_health_treatment"":"""",""psychiatric_medication"":""""}","survey-text","11","66112","0.0-7.0-0.0","19","1","2025-07-02 10:18:27","80fe4187154257d5fb01684ea91b68b9","78.84.164.26","Mozilla/5.0 (Windows NT 10.0; Win64; x64) AppleWebKit/537.36 (KHTML, like Gecko) Chrome/137.0.0.0 Safari/537.36","WebKit","Chrome","137.0.0.0","Windows","10.0","https://app.prolific.com/","en-GB,en-US;q=0.9,en;q=0.8","67458e548861194752950b3e","683db6dfa200031b80f2a654","6865077054b85e2829b09a06","67458e548861194752950b3e","2025-07-02T10:19:34.517Z","","","","","1","mental_health","","","","","","","","","","","","","","","","","","","","","","","","","","","","","","","","","","","","","",""
"4965","","","{""depression_history"":[""Yes""]}","survey-multi-select","12","71078","0.0-7.0-1.0","19","1","2025-07-02 10:18:27","80fe4187154257d5fb01684ea91b68b9","78.84.164.26","Mozilla/5.0 (Windows NT 10.0; Win64; x64) AppleWebKit/537.36 (KHTML, like Gecko) Chrome/137.0.0.0 Safari/537.36","WebKit","Chrome","137.0.0.0","Windows","10.0","https://app.prolific.com/","en-GB,en-US;q=0.9,en;q=0.8","67458e548861194752950b3e","683db6dfa200031b80f2a654","6865077054b85e2829b09a06","67458e548861194752950b3e","","","[0]","","","","mental_health","","","","","","","","","","","","","","","","","","","","","","","","","","","","","","","","","","","","","",""
"7071","","","{""depression_episodes"":""more than 5"",""depression_recent"":""Within the past year""}","survey-multi-choice","13","78150","0.0-7.0-2.0-0.0","19","1","2025-07-02 10:18:27","80fe4187154257d5fb01684ea91b68b9","78.84.164.26","Mozilla/5.0 (Windows NT 10.0; Win64; x64) AppleWebKit/537.36 (KHTML, like Gecko) Chrome/137.0.0.0 Safari/537.36","WebKit","Chrome","137.0.0.0","Windows","10.0","https://app.prolific.com/","en-GB,en-US;q=0.9,en;q=0.8","67458e548861194752950b3e","683db6dfa200031b80f2a654","6865077054b85e2829b09a06","67458e548861194752950b3e","2025-07-02T10:19:46.554Z","","[0,1]","","","3","mental_health","","","","","","","","","","","","","","","","","","","","","","","","","","","","","","","","","","","","","",""
"33284.09999999404","","","","survey-template","14","111437","0.0-7.0-3.0","19","1","2025-07-02 10:18:27","80fe4187154257d5fb01684ea91b68b9","78.84.164.26","Mozilla/5.0 (Windows NT 10.0; Win64; x64) AppleWebKit/537.36 (KHTML, like Gecko) Chrome/137.0.0.0 Safari/537.36","WebKit","Chrome","137.0.0.0","Windows","10.0","https://app.prolific.com/","en-GB,en-US;q=0.9,en;q=0.8","67458e548861194752950b3e","683db6dfa200031b80f2a654","6865077054b85e2829b09a06","67458e548861194752950b3e","2025-07-02T10:20:19.841Z","","","","","","ius","{""Q01"":""2"",""Q02"":""3"",""Q03"":""1"",""Q04"":""2"",""Q05"":""3"",""Q06"":""2"",""Q07"":""3"",""Q08"":""0"",""Q09"":""3"",""Q10"":""2"",""Q11"":""2"",""Q12"":""2"",""Q13"":""3""}","[0,1,2,3,4,5,6,7,8,9,10,11,12]","[""Q01"",""Q02"",""Q03"",""Q04"",""Q05"",""Q06"",""Q07"",""Q08"",""Q09"",""Q10"",""Q11"",""Q12"",""Q13""]","[4415.399999976158,6133.799999982119,10663.09999999404,11600.5,13985.899999976158,15530.699999988079,16438.29999998212,24425.399999976158,26202.899999976158,29248,30628.399999976158,31655.5,32668.5]","[]","[3958.0999999940395,4415.399999976158,6133.799999982119,7363,7640.199999988079,9912.799999982119,10663.09999999404,11600.5,12275.299999982119,13985.899999976158,14533.199999988079,15193.199999988079,15530.699999988079,16438.29999998212,19737.79999998212,23953.09999999404,24425.399999976158,26202.899999976158,29248,30253.19999998808,30628.399999976158,31655.5,32668.5,33283.09999999404]","0.46153846153846156","0.5833333333333334","0","","","","","","","","","","","","","","","","","","","","","","","","","","","","",""
"3057","1751451622899","<p style='font-size:1.1em;line-height:1.25'>In the following, we will ask you a few questions relating to your experiences over the past month.<br></p><p style='font-size:1.1em;line-height:1.25'>Press the <strong>Next</strong> button to continue.</p>","0","custom-html-button-response","15","114495","0.0-7.0-4.0","19","1","2025-07-02 10:18:27","80fe4187154257d5fb01684ea91b68b9","78.84.164.26","Mozilla/5.0 (Windows NT 10.0; Win64; x64) AppleWebKit/537.36 (KHTML, like Gecko) Chrome/137.0.0.0 Safari/537.36","WebKit","Chrome","137.0.0.0","Windows","10.0","https://app.prolific.com/","en-GB,en-US;q=0.9,en;q=0.8","67458e548861194752950b3e","683db6dfa200031b80f2a654","6865077054b85e2829b09a06","67458e548861194752950b3e","2025-07-02T10:20:22.899Z","","","","","","","","","","","","","","","","","","","","","","","","","","","","","","","","","","","","","","","","","","","",""
"38219.79999998212","","","","survey-template","16","152716","0.0-7.0-5.0","19","1","2025-07-02 10:18:27","80fe4187154257d5fb01684ea91b68b9","78.84.164.26","Mozilla/5.0 (Windows NT 10.0; Win64; x64) AppleWebKit/537.36 (KHTML, like Gecko) Chrome/137.0.0.0 Safari/537.36","WebKit","Chrome","137.0.0.0","Windows","10.0","https://app.prolific.com/","en-GB,en-US;q=0.9,en;q=0.8","67458e548861194752950b3e","683db6dfa200031b80f2a654","6865077054b85e2829b09a06","67458e548861194752950b3e","2025-07-02T10:21:01.120Z","","","","","","pss","{""Q01"":""2"",""Q02"":""1"",""Q03"":""2"",""Q04"":""2"",""Q05"":""1"",""Q06"":""1"",""Q07"":""1"",""Q08"":""1"",""Q09"":""1"",""Q10"":""2""}","[0,1,2,3,4,5,6,7,8,9]","[""Q01"",""Q02"",""Q03"",""Q04"",""Q05"",""Q06"",""Q07"",""Q09"",""Q08"",""Q10""]","[5976.799999982119,10109.299999982119,10754.09999999404,20722.09999999404,21389.5,24486.59999999404,29219.5,34993.5,36058.5,37776.79999998212]","[]","[0,3891.5,4258.9000000059605,5976.799999982119,7093.699999988079,7978.799999982119,10109.299999982119,10754.09999999404,13416.799999982119,19739,20722.09999999404,21389.5,23054,23429,24486.59999999404,26047.19999998808,26474.19999998808,28476.5,29219.5,30576.69999998808,30854,31604.09999999404,32549.09999999404,34993.5,36058.5,37776.79999998212,38219]","0.4","0.4444444444444444","0","","","","","","","","","","","","","","","","","","","","","","","","","","","","",""
"1078","1751451662199","<p style='font-size:1.1em;line-height:1.25'>Thank you for your answers! Now we will ask you a few more questions relating to your feelings in the last 24 hours.<br></p><p style='font-size:1.1em;line-height:1.25'>Press the <strong>Next</strong> button to continue.</p>","0","custom-html-button-response","17","153796","0.0-7.0-6.0","19","1","2025-07-02 10:18:27","80fe4187154257d5fb01684ea91b68b9","78.84.164.26","Mozilla/5.0 (Windows NT 10.0; Win64; x64) AppleWebKit/537.36 (KHTML, like Gecko) Chrome/137.0.0.0 Safari/537.36","WebKit","Chrome","137.0.0.0","Windows","10.0","https://app.prolific.com/","en-GB,en-US;q=0.9,en;q=0.8","67458e548861194752950b3e","683db6dfa200031b80f2a654","6865077054b85e2829b09a06","67458e548861194752950b3e","2025-07-02T10:21:02.200Z","","","","","","","","","","","","","","","","","","","","","","","","","","","","","","","","","","","","","","","","","","","",""
"60967.19999998808","","","","survey-template","18","214765","0.0-7.0-7.0","19","1","2025-07-02 10:18:27","80fe4187154257d5fb01684ea91b68b9","78.84.164.26","Mozilla/5.0 (Windows NT 10.0; Win64; x64) AppleWebKit/537.36 (KHTML, like Gecko) Chrome/137.0.0.0 Safari/537.36","WebKit","Chrome","137.0.0.0","Windows","10.0","https://app.prolific.com/","en-GB,en-US;q=0.9,en;q=0.8","67458e548861194752950b3e","683db6dfa200031b80f2a654","6865077054b85e2829b09a06","67458e548861194752950b3e","2025-07-02T10:22:03.169Z","","","","","","drsp","{""Q01"":""2"",""Q02"":""1"",""Q03"":""1"",""Q04"":""0"",""Q05"":""2"",""Q06"":""3"",""Q07"":""4"",""Q08"":""2"",""Q09"":""1"",""Q10"":""1"",""Q11"":""0"",""Q12"":""3"",""Q13"":""4"",""Q14"":""1"",""Q15"":""0"",""Q16"":""1"",""Q17"":""1"",""Q18"":""1"",""Q19"":""0"",""Q20"":""2"",""Q21"":""1""}","[0,1,2,3,4,5,6,7,8,9,10,11,12,13,14,15,16,17,18,19,20]","[""Q01"",""Q02"",""Q03"",""Q04"",""Q05"",""Q06"",""Q07"",""Q08"",""Q09"",""Q10"",""Q11"",""Q12"",""Q13"",""Q14"",""Q15"",""Q16"",""Q17"",""Q18"",""Q18"",""Q19"",""Q19"",""Q20"",""Q21""]","[3958.4000000059605,6006,7431.0999999940395,9643.40000000596,11421,18943.40000000596,19662.79999998212,22018.40000000596,24118.40000000596,26615.90000000596,29181.19999998808,32345.90000000596,33830.69999998808,36403.59999999404,38053.5,40288.29999998212,41450.79999998212,44360.79999998212,45920.90000000596,50953.40000000596,52146.19999998808,56398.40000000596,60245.79999998212]","[]","[0,3958.4000000059605,6006,7431.0999999940395,9643.40000000596,11421,17968.09999999404,18943.40000000596,19662.79999998212,22018.40000000596,24118.40000000596,25896,26615.90000000596,29181.19999998808,31880.90000000596,32345.90000000596,33470.5,33830.69999998808,35953.59999999404,36403.59999999404,38053.5,39755.79999998212,40288.29999998212,41135.90000000596,41450.79999998212,44360.79999998212,45920.90000000596,47076.5,47367.90000000596,50953.40000000596,52146.19999998808,53420.90000000596,53735.90000000596,56398.40000000596,58618.59999999404,58850.90000000596,59698.29999998212,60245.79999998212,60965.69999998808]","0.42857142857142855","0.55","0","","","","","","","","","","","","","","","","","","","","","","","","","","","","",""
"11465.199999988079","","","","survey-template","19","226231","0.0-7.0-8.0","19","1","2025-07-02 10:18:27","80fe4187154257d5fb01684ea91b68b9","78.84.164.26","Mozilla/5.0 (Windows NT 10.0; Win64; x64) AppleWebKit/537.36 (KHTML, like Gecko) Chrome/137.0.0.0 Safari/537.36","WebKit","Chrome","137.0.0.0","Windows","10.0","https://app.prolific.com/","en-GB,en-US;q=0.9,en;q=0.8","67458e548861194752950b3e","683db6dfa200031b80f2a654","6865077054b85e2829b09a06","67458e548861194752950b3e","2025-07-02T10:22:14.635Z","","","","","","stress","{""Q01"":""3"",""Q02"":""1"",""Q03"":""1""}","[0,1,2]","[""Q01"",""Q02"",""Q03""]","[2359.5999999940395,5877.399999976158,10639.699999988079]","[]","[2359.5999999940395,5877.399999976158,9027.09999999404,9431.799999982119,10639.699999988079,11464.699999988079]","0.3333333333333333","0.5","0","","","","","","","","","","","","","","","","","","","","","","","","","","","","",""
"47834","","","","instructions","20","274066","0.0-8.0-0.0","19","1","2025-07-02 10:18:27","80fe4187154257d5fb01684ea91b68b9","78.84.164.26","Mozilla/5.0 (Windows NT 10.0; Win64; x64) AppleWebKit/537.36 (KHTML, like Gecko) Chrome/137.0.0.0 Safari/537.36","WebKit","Chrome","137.0.0.0","Windows","10.0","https://app.prolific.com/","en-GB,en-US;q=0.9,en;q=0.8","67458e548861194752950b3e","683db6dfa200031b80f2a654","6865077054b85e2829b09a06","67458e548861194752950b3e","","[{""page_index"":0,""viewing_time"":14526},{""page_index"":1,""viewing_time"":12322},{""page_index"":2,""viewing_time"":6976},{""page_index"":3,""viewing_time"":14010}]","","","","","","","","","","","","","","","","","","","","","","","","","","","","","","","","","","","","","","","","","","",""
"","","","","ctl-task-cpt","21","302998","0.0-8.0-1.0","19","1","2025-07-02 10:18:27","80fe4187154257d5fb01684ea91b68b9","78.84.164.26","Mozilla/5.0 (Windows NT 10.0; Win64; x64) AppleWebKit/537.36 (KHTML, like Gecko) Chrome/137.0.0.0 Safari/537.36","WebKit","Chrome","137.0.0.0","Windows","10.0","https://app.prolific.com/","en-GB,en-US;q=0.9,en;q=0.8","67458e548861194752950b3e","683db6dfa200031b80f2a654","6865077054b85e2829b09a06","67458e548861194752950b3e","","","","","","","","","","","","","","","","","win-only","0","g1:NW,g2:SE","1","0","1","275115","3292.1","7296.1","25926.9","2","4","4","6","1","2","0","0","0","0","2571.8","4000","2230","[""left"",""up""]","{""num_key_presses"":6,""num_perfect"":4,""num_errors"":2,""num_randdir"":0,""num_randdir_good_moves"":0,""num_whilered"":0,""num_whileblue"":0,""num_blue"":1,""num_good_moves"":4}","[416.5714133126395,416.57142761775424,0.2,416.5714133126395,416.57142761775424,104,417.8214133126395,416.57142761775424,209.6,417.8214133126395,416.57142761775424,314.6,417.8214133126395,416.57142761775424,419,417.8214133126395,416.57142761775424,523.4,417.8214133126395,416.57142761775424,624,417.8214133126395,416.57142761775424,728.6,417.8214133126395,416.57142761775424,834,417.8214133126395,416.57142761775424,939.1,417.8214133126395,416.57142761775424,1044.1,417.8214133126395,416.57142761775424,1148.4,417.8214133126395,416.57142761775424,1248.4,417.8214133126395,416.57142761775424,1348.6,417.8214133126395,416.57142761775424,1449.2,417.8214133126395,416.57142761775424,1553.6,417.8214133126395,416.57142761775424,1658.4,417.8214133126395,416.57142761775424,1759.4,417.8214133126395,416.57142761775424,1863.8,349.0714133126395,217.82142761775424,1964.5,376.5714133126395,276.57142761775424,2068.7,337.8214133126395,337.82142761775424,2173.4,122.8214133126395,179.07142761775424,2273.4,117.8214133126395,112.82142761775425,2374.8,81.5714133126395,76.57142761775425,2475.6,66.5714133126395,69.07142761775425,2586.7,66.5714133126395,69.07142761775425,2688.6,66.5714133126395,67.82142761775425,2793.3,71.5714133126395,86.57142761775425,2894,79.0714133126395,107.82142761775425,2998.8,79.0714133126395,107.82142761775425,3104.1,79.0714133126395,107.82142761775425,3209.6,79.0714133126395,107.82142761775425,3313.4,79.0714133126395,107.82142761775425,3418.4,79.0714133126395,107.82142761775425,3518.4,79.0714133126395,107.82142761775425,3618.4,79.0714133126395,107.82142761775425,3718.4,79.0714133126395,107.82142761775425,3818.4,79.0714133126395,107.82142761775425,3918.5]","[324.5,324.5,1000,0,-675.5,""error"",""-"",""-"",""no_move"",4410.6,4085.9,2725.2,1325,360.4,""smooth"",""up"",""up"",""good_move"",4832.3,421.4,2471.9,4410.9,-2050.5,""error"",""-"",""-"",""no_move"",12688.6,7856.1,2994.6,9144.4,549.6,""smooth"",""up"",""up"",""good_move"",14830.5,2141.8,1607.5,12688.8,534.2,""smooth"",""left"",""left"",""good_move"",18536.3,3705.5,3358.2,14830.8,347.3,""smooth"",""left"",""left"",""good_move""]","",""
"8561","","","","instructions","22","311559","0.0-8.0-2.0","19","1","2025-07-02 10:18:27","80fe4187154257d5fb01684ea91b68b9","78.84.164.26","Mozilla/5.0 (Windows NT 10.0; Win64; x64) AppleWebKit/537.36 (KHTML, like Gecko) Chrome/137.0.0.0 Safari/537.36","WebKit","Chrome","137.0.0.0","Windows","10.0","https://app.prolific.com/","en-GB,en-US;q=0.9,en;q=0.8","67458e548861194752950b3e","683db6dfa200031b80f2a654","6865077054b85e2829b09a06","67458e548861194752950b3e","","[{""page_index"":0,""viewing_time"":8560}]","","","","","","","","","","","","","","","","","","","","","","","","","","","","","","","","","","","","","","","","","","",""
"","","","","ctl-task-cpt","23","358356","0.0-8.0-3.0","19","1","2025-07-02 10:18:27","80fe4187154257d5fb01684ea91b68b9","78.84.164.26","Mozilla/5.0 (Windows NT 10.0; Win64; x64) AppleWebKit/537.36 (KHTML, like Gecko) Chrome/137.0.0.0 Safari/537.36","WebKit","Chrome","137.0.0.0","Windows","10.0","https://app.prolific.com/","en-GB,en-US;q=0.9,en;q=0.8","67458e548861194752950b3e","683db6dfa200031b80f2a654","6865077054b85e2829b09a06","67458e548861194752950b3e","","","","","","","","","","","","","","","","","win-only","0","g1:NW,g2:SE","0.35","0","3","312607.5","1266.1","5266.7","43781.3","2","4","8","6","1","-2","-3","0","0","0","1747.6","4000","-3000","[""left"",""up""]","{""num_key_presses"":10,""num_perfect"":3,""num_errors"":1,""num_randdir"":6,""num_randdir_good_moves"":2,""num_whilered"":0,""num_whileblue"":1,""num_blue"":3,""num_good_moves"":6}","[414.0714133126395,407.82142761775424,0.1,414.0714133126395,407.82142761775424,100,414.0714133126395,407.82142761775424,200.2,411.5714133126395,405.32142761775424,304.9,279.0714133126395,272.82142761775424,409.7,306.5714133126395,324.07142761775424,514.4,437.8214133126395,486.57142761775424,619.8,641.5714133126395,646.5714276177542,724.9,847.8214133126395,732.8214276177542,825.6,544.0714133126395,521.5714276177542,925.6,311.5714133126395,296.57142761775424,1029.5,307.8214133126395,297.82142761775424,1129.6,555.3214133126395,532.8214276177542,1235.1,140.3214133126395,242.82142761775424,1340,162.8214133126395,182.82142761775424,1440.2,140.3214133126395,127.82142761775425,1545.3,84.0714133126395,67.82142761775425,1650.7,81.5714133126395,67.82142761775425,1754.5,81.5714133126395,67.82142761775425,1860.3,81.5714133126395,67.82142761775425,1964.3,114.0714133126395,97.82142761775425,2069.9,114.0714133126395,97.82142761775425,2174.6,114.0714133126395,97.82142761775425,2274.8,114.0714133126395,97.82142761775425,2379.5,114.0714133126395,97.82142761775425,2480.1,114.0714133126395,97.82142761775425,2584.1,114.0714133126395,97.82142761775425,2685.3,114.0714133126395,97.82142761775425,2790.4,114.0714133126395,97.82142761775425,2894.8,114.0714133126395,97.82142761775425,2994.9,114.0714133126395,97.82142761775425,3095,114.0714133126395,97.82142761775425,3199.6,114.0714133126395,97.82142761775425,3305.3,114.0714133126395,97.82142761775425,3409.2,114.0714133126395,97.82142761775425,3510.4,114.0714133126395,97.82142761775425,3614.1,114.0714133126395,97.82142761775425,3714.2,114.0714133126395,97.82142761775425,3814.2,114.0714133126395,97.82142761775425,3920.1]","[1617.3,1617.3,1000,0,617.3,""oops"",""up"",""left"",""good_move"",4703.5,3086.1,2554.9,1617.4,531.2,""smooth"",""up"",""up"",""good_move"",7673.4,2969.7,2557.2,4703.7,412.5,""oops"",""up"",""down"",""bad_move"",11373.3,3699.6,3330.3,7673.7,369.3,""smooth"",""up"",""up"",""good_move"",14177.3,2803.9,2391.7,11373.4,412.2,""oops"",""up"",""right"",""bad_move"",17419.3,3241.6,2940.1,14177.7,301.5,""smooth"",""left"",""left"",""good_move"",20221.2,2801.7,2369.1,17419.5,432.6,""oops"",""left"",""up"",""good_move"",22871.6,2650.2,2300.1,20221.4,350.1,""oops"",""left"",""down"",""bad_move"",28731.3,5859.6,1660.2,26779.2,291.9,""while_blue"",""up"",""left"",""good_move"",31779.3,3047.7,2650.4,28731.6,397.3,""oops"",""up"",""down"",""bad_move""]","",""
"10030","","","","instructions","24","368386","0.0-8.0-4.0","19","1","2025-07-02 10:18:27","80fe4187154257d5fb01684ea91b68b9","78.84.164.26","Mozilla/5.0 (Windows NT 10.0; Win64; x64) AppleWebKit/537.36 (KHTML, like Gecko) Chrome/137.0.0.0 Safari/537.36","WebKit","Chrome","137.0.0.0","Windows","10.0","https://app.prolific.com/","en-GB,en-US;q=0.9,en;q=0.8","67458e548861194752950b3e","683db6dfa200031b80f2a654","6865077054b85e2829b09a06","67458e548861194752950b3e","","[{""page_index"":0,""viewing_time"":6775},{""page_index"":1,""viewing_time"":3255}]","","","","","","","","","","","","","","","","","","","","","","","","","","","","","","","","","","","","","","","","","","",""
"16117","","","{""green_ball"":[""Ball sometimes shakes and moves in a random direction""]}","survey-multi-select","25","384505","0.0-8.0-5.0-0.0","19","1","2025-07-02 10:18:27","80fe4187154257d5fb01684ea91b68b9","78.84.164.26","Mozilla/5.0 (Windows NT 10.0; Win64; x64) AppleWebKit/537.36 (KHTML, like Gecko) Chrome/137.0.0.0 Safari/537.36","WebKit","Chrome","137.0.0.0","Windows","10.0","https://app.prolific.com/","en-GB,en-US;q=0.9,en;q=0.8","67458e548861194752950b3e","683db6dfa200031b80f2a654","6865077054b85e2829b09a06","67458e548861194752950b3e","","","[0]","","","","quiz","","","","","","","","","","","","","","","","","","","","","","","","","","","","","","","","","","","","","true",""
"2488","","<p align='center'><b>CORRECT!</b> Indeed, the green ball may sometimes shake and move in a random direction.</p>","0","html-button-response","26","386994","0.0-8.0-5.0-1.0","19","1","2025-07-02 10:18:27","80fe4187154257d5fb01684ea91b68b9","78.84.164.26","Mozilla/5.0 (Windows NT 10.0; Win64; x64) AppleWebKit/537.36 (KHTML, like Gecko) Chrome/137.0.0.0 Safari/537.36","WebKit","Chrome","137.0.0.0","Windows","10.0","https://app.prolific.com/","en-GB,en-US;q=0.9,en;q=0.8","67458e548861194752950b3e","683db6dfa200031b80f2a654","6865077054b85e2829b09a06","67458e548861194752950b3e","","","","","","","","","","","","","","","","","","","","","","","","","","","","","","","","","","","","","","","","","","","","",""
"12299","","","{""yellow_ball"":[""Ball always shakes and moves in a random direction""]}","survey-multi-select","27","399294","0.0-8.0-6.0-0.0","19","1","2025-07-02 10:18:27","80fe4187154257d5fb01684ea91b68b9","78.84.164.26","Mozilla/5.0 (Windows NT 10.0; Win64; x64) AppleWebKit/537.36 (KHTML, like Gecko) Chrome/137.0.0.0 Safari/537.36","WebKit","Chrome","137.0.0.0","Windows","10.0","https://app.prolific.com/","en-GB,en-US;q=0.9,en;q=0.8","67458e548861194752950b3e","683db6dfa200031b80f2a654","6865077054b85e2829b09a06","67458e548861194752950b3e","","","[0]","","","","quiz","","","","","","","","","","","","","","","","","","","","","","","","","","","","","","","","","","","","","false",""
"5789","","<p align='center'><b>INCORRECT.</b> The yellow ball never moves and you reveice a penalty if you press anyways. </p>","0","html-button-response","28","405084","0.0-8.0-6.0-1.0","19","1","2025-07-02 10:18:27","80fe4187154257d5fb01684ea91b68b9","78.84.164.26","Mozilla/5.0 (Windows NT 10.0; Win64; x64) AppleWebKit/537.36 (KHTML, like Gecko) Chrome/137.0.0.0 Safari/537.36","WebKit","Chrome","137.0.0.0","Windows","10.0","https://app.prolific.com/","en-GB,en-US;q=0.9,en;q=0.8","67458e548861194752950b3e","683db6dfa200031b80f2a654","6865077054b85e2829b09a06","67458e548861194752950b3e","","","","","","","","","","","","","","","","","","","","","","","","","","","","","","","","","","","","","","","","","","","","",""
"4454","","","{""yellow_ball"":[""Ball doesn‘t move and I get -1 penalty point""]}","survey-multi-select","29","409539","0.0-8.0-6.1-0.1","19","1","2025-07-02 10:18:27","80fe4187154257d5fb01684ea91b68b9","78.84.164.26","Mozilla/5.0 (Windows NT 10.0; Win64; x64) AppleWebKit/537.36 (KHTML, like Gecko) Chrome/137.0.0.0 Safari/537.36","WebKit","Chrome","137.0.0.0","Windows","10.0","https://app.prolific.com/","en-GB,en-US;q=0.9,en;q=0.8","67458e548861194752950b3e","683db6dfa200031b80f2a654","6865077054b85e2829b09a06","67458e548861194752950b3e","","","[0]","","","","quiz","","","","","","","","","","","","","","","","","","","","","","","","","","","","","","","","","","","","","true",""
"794","","<p align='center'><b>CORRECT!</b> Indeed, the yellow ball never moves and you receive a penalty.</p>","0","html-button-response","30","410334","0.0-8.0-6.1-1.1","19","1","2025-07-02 10:18:27","80fe4187154257d5fb01684ea91b68b9","78.84.164.26","Mozilla/5.0 (Windows NT 10.0; Win64; x64) AppleWebKit/537.36 (KHTML, like Gecko) Chrome/137.0.0.0 Safari/537.36","WebKit","Chrome","137.0.0.0","Windows","10.0","https://app.prolific.com/","en-GB,en-US;q=0.9,en;q=0.8","67458e548861194752950b3e","683db6dfa200031b80f2a654","6865077054b85e2829b09a06","67458e548861194752950b3e","","","","","","","","","","","","","","","","","","","","","","","","","","","","","","","","","","","","","","","","","","","","",""
"4791","","","{""blue_ball"":[""Ball always shakes and moves in a random direction""]}","survey-multi-select","31","415127","0.0-8.0-7.0-0.0","19","1","2025-07-02 10:18:27","80fe4187154257d5fb01684ea91b68b9","78.84.164.26","Mozilla/5.0 (Windows NT 10.0; Win64; x64) AppleWebKit/537.36 (KHTML, like Gecko) Chrome/137.0.0.0 Safari/537.36","WebKit","Chrome","137.0.0.0","Windows","10.0","https://app.prolific.com/","en-GB,en-US;q=0.9,en;q=0.8","67458e548861194752950b3e","683db6dfa200031b80f2a654","6865077054b85e2829b09a06","67458e548861194752950b3e","","","[0]","","","","quiz","","","","","","","","","","","","","","","","","","","","","","","","","","","","","","","","","","","","","true",""
"1244","","<p align='center'><b>CORRECT!</b> Indeed, the blue ball always shakes and moves in a random direction. Also there is a penalty of -1 point.</p>","0","html-button-response","32","416372","0.0-8.0-7.0-1.0","19","1","2025-07-02 10:18:27","80fe4187154257d5fb01684ea91b68b9","78.84.164.26","Mozilla/5.0 (Windows NT 10.0; Win64; x64) AppleWebKit/537.36 (KHTML, like Gecko) Chrome/137.0.0.0 Safari/537.36","WebKit","Chrome","137.0.0.0","Windows","10.0","https://app.prolific.com/","en-GB,en-US;q=0.9,en;q=0.8","67458e548861194752950b3e","683db6dfa200031b80f2a654","6865077054b85e2829b09a06","67458e548861194752950b3e","","","","","","","","","","","","","","","","","","","","","","","","","","","","","","","","","","","","","","","","","","","","",""
"9209","","","{""bonus"":[""When I reach 50% of points""]}","survey-multi-select","33","425581","0.0-8.0-8.0-0.0","19","1","2025-07-02 10:18:27","80fe4187154257d5fb01684ea91b68b9","78.84.164.26","Mozilla/5.0 (Windows NT 10.0; Win64; x64) AppleWebKit/537.36 (KHTML, like Gecko) Chrome/137.0.0.0 Safari/537.36","WebKit","Chrome","137.0.0.0","Windows","10.0","https://app.prolific.com/","en-GB,en-US;q=0.9,en;q=0.8","67458e548861194752950b3e","683db6dfa200031b80f2a654","6865077054b85e2829b09a06","67458e548861194752950b3e","","","[0]","","","","quiz","","","","","","","","","","","","","","","","","","","","","","","","","","","","","","","","","","","","","true",""
"2767","","<p align='center'><b>CORRECT!</b> Indeed, you receive 2 pounds extra when you reach 50% of points.</p>","0","html-button-response","34","428350","0.0-8.0-8.0-1.0","19","1","2025-07-02 10:18:27","80fe4187154257d5fb01684ea91b68b9","78.84.164.26","Mozilla/5.0 (Windows NT 10.0; Win64; x64) AppleWebKit/537.36 (KHTML, like Gecko) Chrome/137.0.0.0 Safari/537.36","WebKit","Chrome","137.0.0.0","Windows","10.0","https://app.prolific.com/","en-GB,en-US;q=0.9,en;q=0.8","67458e548861194752950b3e","683db6dfa200031b80f2a654","6865077054b85e2829b09a06","67458e548861194752950b3e","","","","","","","","","","","","","","","","","","","","","","","","","","","","","","","","","","","","","","","","","","","","",""
"2294","","","","instructions","35","430644","0.0-8.0-9.0","19","1","2025-07-02 10:18:27","80fe4187154257d5fb01684ea91b68b9","78.84.164.26","Mozilla/5.0 (Windows NT 10.0; Win64; x64) AppleWebKit/537.36 (KHTML, like Gecko) Chrome/137.0.0.0 Safari/537.36","WebKit","Chrome","137.0.0.0","Windows","10.0","https://app.prolific.com/","en-GB,en-US;q=0.9,en;q=0.8","67458e548861194752950b3e","683db6dfa200031b80f2a654","6865077054b85e2829b09a06","67458e548861194752950b3e","","[{""page_index"":0,""viewing_time"":2294}]","","","","","","","","","","","","","","","","","","","","","","","","","","","","","","","","","","","","","","","","","","",""
"14715","","<p>Before you start with this game please answer the following three questions yourself. </p>
  <p>Through this game, we measure several aspects of your cognitive performance, such as reaction times, multi-tasking capabilities </p>
  <p>and the ability to assess the situation you are in.</p>
  <p></p>
  <p><b>How good do you usually are in such tasks?</b></p>","76","html-slider-response","36","445366","0.0-9.0-0.0","19","1","2025-07-02 10:18:27","80fe4187154257d5fb01684ea91b68b9","78.84.164.26","Mozilla/5.0 (Windows NT 10.0; Win64; x64) AppleWebKit/537.36 (KHTML, like Gecko) Chrome/137.0.0.0 Safari/537.36","WebKit","Chrome","137.0.0.0","Windows","10.0","https://app.prolific.com/","en-GB,en-US;q=0.9,en;q=0.8","67458e548861194752950b3e","683db6dfa200031b80f2a654","6865077054b85e2829b09a06","67458e548861194752950b3e","2025-07-02T10:25:53.771Z","","","","","","PreSkillQ","","","","","","","","","","","","","","","","","","","","","","","","","","","","","","","","","","","","","","50"
"4867","","<div style=""width:500px;"">
  <p>How well do you think you will perform in this task compared to other participants?</p>
  </div>","62","html-slider-response","37","450234","0.0-9.0-1.0","19","1","2025-07-02 10:18:27","80fe4187154257d5fb01684ea91b68b9","78.84.164.26","Mozilla/5.0 (Windows NT 10.0; Win64; x64) AppleWebKit/537.36 (KHTML, like Gecko) Chrome/137.0.0.0 Safari/537.36","WebKit","Chrome","137.0.0.0","Windows","10.0","https://app.prolific.com/","en-GB,en-US;q=0.9,en;q=0.8","67458e548861194752950b3e","683db6dfa200031b80f2a654","6865077054b85e2829b09a06","67458e548861194752950b3e","2025-07-02T10:25:58.638Z","","","","","","PrePerfQ","","","","","","","","","","","","","","","","","","","","","","","","","","","","","","","","","","","","","","50"
"3089","","<div style=""width:500px;"">
  <p>What best describes how you currently feel?</p>
  </div>","81","html-slider-response","38","453324","0.0-9.0-2.0","19","1","2025-07-02 10:18:27","80fe4187154257d5fb01684ea91b68b9","78.84.164.26","Mozilla/5.0 (Windows NT 10.0; Win64; x64) AppleWebKit/537.36 (KHTML, like Gecko) Chrome/137.0.0.0 Safari/537.36","WebKit","Chrome","137.0.0.0","Windows","10.0","https://app.prolific.com/","en-GB,en-US;q=0.9,en;q=0.8","67458e548861194752950b3e","683db6dfa200031b80f2a654","6865077054b85e2829b09a06","67458e548861194752950b3e","2025-07-02T10:26:01.728Z","","","","","","PreMotivationQ","","","","","","","","","","","","","","","","","","","","","","","","","","","","","","","","","","","","","","50"
"","","","","ctl-task-cpt","39","482052","0.0-10.0-0.0","19","1","2025-07-02 10:18:27","80fe4187154257d5fb01684ea91b68b9","78.84.164.26","Mozilla/5.0 (Windows NT 10.0; Win64; x64) AppleWebKit/537.36 (KHTML, like Gecko) Chrome/137.0.0.0 Safari/537.36","WebKit","Chrome","137.0.0.0","Windows","10.0","https://app.prolific.com/","en-GB,en-US;q=0.9,en;q=0.8","67458e548861194752950b3e","683db6dfa200031b80f2a654","6865077054b85e2829b09a06","67458e548861194752950b3e","2025-07-02T10:26:30.456Z","","","","","","","","","","","","","","","","win-only","1","g1:NE,g2:SW","1","1","0","454373","1333.7","6335.9","25710.7","1","4","8","6","1","1","1","1","0","0.007575757575757576","1297.8","3000","1030","[""up"",""right""]","{""num_key_presses"":4,""num_perfect"":4,""num_errors"":0,""num_randdir"":0,""num_randdir_good_moves"":0,""num_whilered"":0,""num_whileblue"":0,""num_blue"":2,""num_good_moves"":4}","[416.5714133126395,424.07142761775424,0.3,416.5714133126395,424.07142761775424,102.1,417.8214133126395,424.07142761775424,206.5,417.8214133126395,424.07142761775424,306.7,417.8214133126395,424.07142761775424,407.3,414.0714133126395,412.82142761775424,512.2,414.0714133126395,411.57142761775424,616.9,412.8214133126395,406.57142761775424,716.9,412.8214133126395,406.57142761775424,817.1,514.0714133126395,317.82142761775424,917.6,751.5714133126395,139.07142761775424,1017.8,757.8214133126395,132.82142761775424,1122.5,757.8214133126395,97.82142761775425,1227,759.0714133126395,62.82142761775425,1332.3,759.0714133126395,62.82142761775425,1437,752.8214133126395,66.57142761775425,1537.3,761.5714133126395,87.82142761775425,1641.8,761.5714133126395,87.82142761775425,1742.2,761.5714133126395,87.82142761775425,1842.2,761.5714133126395,87.82142761775425,1945.7,761.5714133126395,87.82142761775425,2047.1,761.5714133126395,87.82142761775425,2147.1,761.5714133126395,87.82142761775425,2247.4,761.5714133126395,87.82142761775425,2352.6,761.5714133126395,87.82142761775425,2452.6,761.5714133126395,87.82142761775425,2557,761.5714133126395,87.82142761775425,2662.6,761.5714133126395,87.82142761775425,2767,761.5714133126395,87.82142761775425,2867.3,761.5714133126395,87.82142761775425,2972.3,761.5714133126395,87.82142761775425,3072.6,761.5714133126395,87.82142761775425,3177.1,761.5714133126395,87.82142761775425,3281.6,761.5714133126395,87.82142761775425,3381.8,761.5714133126395,87.82142761775425,3487.2,761.5714133126395,87.82142761775425,3592.2,761.5714133126395,87.82142761775425,3697.1,761.5714133126395,87.82142761775425,3801.9,761.5714133126395,87.82142761775425,3907.2,761.5714133126395,87.82142761775425,4012.2,761.5714133126395,87.82142761775425,4117.2,761.5714133126395,87.82142761775425,4221.9,761.5714133126395,87.82142761775425,4327,761.5714133126395,87.82142761775425,4432.2,761.5714133126395,87.82142761775425,4532.5,761.5714133126395,87.82142761775425,4636.6,761.5714133126395,87.82142761775425,4737.1,761.5714133126395,87.82142761775425,4841.5,761.5714133126395,87.82142761775425,4942]","[9221.5,9221.5,3527.3,5194.9,499.3,""smooth"",""up"",""up"",""good_move"",12738.4,3516.1,2904.7,9222.4,611.3,""smooth"",""up"",""up"",""good_move"",15802.3,3063.8,2611.3,12738.5,452.5,""smooth"",""right"",""right"",""good_move"",19282.7,3480.1,2999.7,15802.6,480.4,""smooth"",""right"",""right"",""good_move""]","",""
"3567","","<div style=""width:500px;"">
  <p>What determined the result of this run?</p>
  </div>","72","html-slider-response","40","485620","0.0-10.0-1.0","19","1","2025-07-02 10:18:27","80fe4187154257d5fb01684ea91b68b9","78.84.164.26","Mozilla/5.0 (Windows NT 10.0; Win64; x64) AppleWebKit/537.36 (KHTML, like Gecko) Chrome/137.0.0.0 Safari/537.36","WebKit","Chrome","137.0.0.0","Windows","10.0","https://app.prolific.com/","en-GB,en-US;q=0.9,en;q=0.8","67458e548861194752950b3e","683db6dfa200031b80f2a654","6865077054b85e2829b09a06","67458e548861194752950b3e","2025-07-02T10:26:34.024Z","","","","","","AttribQ","","","","","","","","","","","","","","","","","","","","","","","","","","","","","","","","","","","","","","50"
"3277","","<div style=""width:500px;"">
  <p>How much control did you have over the ball?</p>
  </div>","100","html-slider-response","41","488897","0.0-10.0-2.0","19","1","2025-07-02 10:18:27","80fe4187154257d5fb01684ea91b68b9","78.84.164.26","Mozilla/5.0 (Windows NT 10.0; Win64; x64) AppleWebKit/537.36 (KHTML, like Gecko) Chrome/137.0.0.0 Safari/537.36","WebKit","Chrome","137.0.0.0","Windows","10.0","https://app.prolific.com/","en-GB,en-US;q=0.9,en;q=0.8","67458e548861194752950b3e","683db6dfa200031b80f2a654","6865077054b85e2829b09a06","67458e548861194752950b3e","2025-07-02T10:26:37.301Z","","","","","","ControlQ","","","","","","","","","","","","","","","","","","","","","","","","","","","","","","","","","","","","","","50"
"3412","","<div style=""width:500px;"">
  <p>How would you describe your current emotional state?</p>
  </div>","63","html-slider-response","42","492309","0.0-10.0-3.0","19","1","2025-07-02 10:18:27","80fe4187154257d5fb01684ea91b68b9","78.84.164.26","Mozilla/5.0 (Windows NT 10.0; Win64; x64) AppleWebKit/537.36 (KHTML, like Gecko) Chrome/137.0.0.0 Safari/537.36","WebKit","Chrome","137.0.0.0","Windows","10.0","https://app.prolific.com/","en-GB,en-US;q=0.9,en;q=0.8","67458e548861194752950b3e","683db6dfa200031b80f2a654","6865077054b85e2829b09a06","67458e548861194752950b3e","2025-07-02T10:26:40.713Z","","","","","","StressQ","","","","","","","","","","","","","","","","","","","","","","","","","","","","","","","","","","","","","","50"
"2452","","<div style=""width:500px;"">
  <p>What best describes how you currently feel?</p>
  </div>","79","html-slider-response","43","494762","0.0-10.0-4.0","19","1","2025-07-02 10:18:27","80fe4187154257d5fb01684ea91b68b9","78.84.164.26","Mozilla/5.0 (Windows NT 10.0; Win64; x64) AppleWebKit/537.36 (KHTML, like Gecko) Chrome/137.0.0.0 Safari/537.36","WebKit","Chrome","137.0.0.0","Windows","10.0","https://app.prolific.com/","en-GB,en-US;q=0.9,en;q=0.8","67458e548861194752950b3e","683db6dfa200031b80f2a654","6865077054b85e2829b09a06","67458e548861194752950b3e","2025-07-02T10:26:43.166Z","","","","","","MotivationQ","","","","","","","","","","","","","","","","","","","","","","","","","","","","","","","","","","","","","","50"
"","","","","ctl-task-cpt","44","514517","0.0-10.0-0.1","19","1","2025-07-02 10:18:27","80fe4187154257d5fb01684ea91b68b9","78.84.164.26","Mozilla/5.0 (Windows NT 10.0; Win64; x64) AppleWebKit/537.36 (KHTML, like Gecko) Chrome/137.0.0.0 Safari/537.36","WebKit","Chrome","137.0.0.0","Windows","10.0","https://app.prolific.com/","en-GB,en-US;q=0.9,en;q=0.8","67458e548861194752950b3e","683db6dfa200031b80f2a654","6865077054b85e2829b09a06","67458e548861194752950b3e","2025-07-02T10:27:02.922Z","","","","","","","","","","","","","","","","win-only","1","g1:NE,g2:SW","0.9","2","0","495811.1","906.7","5910.9","16745.7","1","4","4","6","1","1","1","2","1","0.015151515151515152","1371.6","3000","1525","[""up"",""right""]","{""num_key_presses"":4,""num_perfect"":4,""num_errors"":0,""num_randdir"":0,""num_randdir_good_moves"":0,""num_whilered"":0,""num_whileblue"":0,""num_blue"":0,""num_good_moves"":4}","[417.8214133126395,407.82142761775424,0.2,417.8214133126395,407.82142761775424,103.6,417.8214133126395,407.82142761775424,203.8,417.8214133126395,407.82142761775424,303.8,432.8214133126395,384.07142761775424,403.8,434.0714133126395,376.57142761775424,503.9,434.0714133126395,376.57142761775424,604,434.0714133126395,376.57142761775424,709,434.0714133126395,376.57142761775424,809.2,436.5714133126395,370.32142761775424,915.8,617.8214133126395,249.07142761775424,1015.9,702.8214133126395,142.82142761775424,1116.3,731.5714133126395,109.07142761775425,1219.2,777.8214133126395,57.82142761775425,1323.9,781.5714133126395,52.82142761775425,1432.6,776.5714133126395,52.82142761775425,1532.8,755.3214133126395,61.57142761775425,1634,766.5714133126395,79.07142761775425,1738.6,766.5714133126395,79.07142761775425,1839.8,766.5714133126395,79.07142761775425,1949.2,766.5714133126395,79.07142761775425,2049.4,766.5714133126395,79.07142761775425,2153.5,766.5714133126395,79.07142761775425,2254.3,766.5714133126395,79.07142761775425,2358.9,766.5714133126395,79.07142761775425,2465.8,766.5714133126395,79.07142761775425,2566.1,766.5714133126395,79.07142761775425,2668.9,766.5714133126395,79.07142761775425,2769.5,766.5714133126395,79.07142761775425,2874.5,766.5714133126395,79.07142761775425,2982.3,766.5714133126395,79.07142761775425,3083.9,766.5714133126395,79.07142761775425,3184.1,766.5714133126395,79.07142761775425,3288.6,766.5714133126395,79.07142761775425,3398.4,766.5714133126395,79.07142761775425,3499.1,766.5714133126395,79.07142761775425,3604.2,766.5714133126395,79.07142761775425,3708.6,766.5714133126395,79.07142761775425,3809,766.5714133126395,79.07142761775425,3909.4,766.5714133126395,79.07142761775425,4015.9,766.5714133126395,79.07142761775425,4118.9,766.5714133126395,79.07142761775425,4223.6,766.5714133126395,79.07142761775425,4332.1,766.5714133126395,79.07142761775425,4434,766.5714133126395,79.07142761775425,4534.7,766.5714133126395,79.07142761775425,4638.5,766.5714133126395,79.07142761775425,4739.1,766.5714133126395,79.07142761775425,4839.5,766.5714133126395,79.07142761775425,4948.9]","[1526.5,1526.5,1000,0,526.5,""smooth"",""up"",""up"",""good_move"",4565.2,3038.4,2650,1526.8,388.4,""smooth"",""right"",""right"",""good_move"",7909.1,3343.6,2979.9,4565.5,363.7,""smooth"",""up"",""up"",""good_move"",10742.1,2832.8,2436.4,7909.4,396.4,""smooth"",""right"",""right"",""good_move""]","",""
"3419","","<div style=""width:500px;"">
  <p>What determined the result of this run?</p>
  </div>","100","html-slider-response","45","517937","0.0-10.0-1.1","19","1","2025-07-02 10:18:27","80fe4187154257d5fb01684ea91b68b9","78.84.164.26","Mozilla/5.0 (Windows NT 10.0; Win64; x64) AppleWebKit/537.36 (KHTML, like Gecko) Chrome/137.0.0.0 Safari/537.36","WebKit","Chrome","137.0.0.0","Windows","10.0","https://app.prolific.com/","en-GB,en-US;q=0.9,en;q=0.8","67458e548861194752950b3e","683db6dfa200031b80f2a654","6865077054b85e2829b09a06","67458e548861194752950b3e","2025-07-02T10:27:06.341Z","","","","","","AttribQ","","","","","","","","","","","","","","","","","","","","","","","","","","","","","","","","","","","","","","50"
"1672","","<div style=""width:500px;"">
  <p>How much control did you have over the ball?</p>
  </div>","100","html-slider-response","46","519609","0.0-10.0-2.1","19","1","2025-07-02 10:18:27","80fe4187154257d5fb01684ea91b68b9","78.84.164.26","Mozilla/5.0 (Windows NT 10.0; Win64; x64) AppleWebKit/537.36 (KHTML, like Gecko) Chrome/137.0.0.0 Safari/537.36","WebKit","Chrome","137.0.0.0","Windows","10.0","https://app.prolific.com/","en-GB,en-US;q=0.9,en;q=0.8","67458e548861194752950b3e","683db6dfa200031b80f2a654","6865077054b85e2829b09a06","67458e548861194752950b3e","2025-07-02T10:27:08.013Z","","","","","","ControlQ","","","","","","","","","","","","","","","","","","","","","","","","","","","","","","","","","","","","","","50"
"2219","","<div style=""width:500px;"">
  <p>How would you describe your current emotional state?</p>
  </div>","36","html-slider-response","47","521829","0.0-10.0-3.1","19","1","2025-07-02 10:18:27","80fe4187154257d5fb01684ea91b68b9","78.84.164.26","Mozilla/5.0 (Windows NT 10.0; Win64; x64) AppleWebKit/537.36 (KHTML, like Gecko) Chrome/137.0.0.0 Safari/537.36","WebKit","Chrome","137.0.0.0","Windows","10.0","https://app.prolific.com/","en-GB,en-US;q=0.9,en;q=0.8","67458e548861194752950b3e","683db6dfa200031b80f2a654","6865077054b85e2829b09a06","67458e548861194752950b3e","2025-07-02T10:27:10.233Z","","","","","","StressQ","","","","","","","","","","","","","","","","","","","","","","","","","","","","","","","","","","","","","","50"
"2730","","<div style=""width:500px;"">
  <p>What best describes how you currently feel?</p>
  </div>","79","html-slider-response","48","524559","0.0-10.0-4.1","19","1","2025-07-02 10:18:27","80fe4187154257d5fb01684ea91b68b9","78.84.164.26","Mozilla/5.0 (Windows NT 10.0; Win64; x64) AppleWebKit/537.36 (KHTML, like Gecko) Chrome/137.0.0.0 Safari/537.36","WebKit","Chrome","137.0.0.0","Windows","10.0","https://app.prolific.com/","en-GB,en-US;q=0.9,en;q=0.8","67458e548861194752950b3e","683db6dfa200031b80f2a654","6865077054b85e2829b09a06","67458e548861194752950b3e","2025-07-02T10:27:12.964Z","","","","","","MotivationQ","","","","","","","","","","","","","","","","","","","","","","","","","","","","","","","","","","","","","","50"
"","","","","ctl-task-cpt","49","551029","0.0-10.0-0.2","19","1","2025-07-02 10:18:27","80fe4187154257d5fb01684ea91b68b9","78.84.164.26","Mozilla/5.0 (Windows NT 10.0; Win64; x64) AppleWebKit/537.36 (KHTML, like Gecko) Chrome/137.0.0.0 Safari/537.36","WebKit","Chrome","137.0.0.0","Windows","10.0","https://app.prolific.com/","en-GB,en-US;q=0.9,en;q=0.8","67458e548861194752950b3e","683db6dfa200031b80f2a654","6865077054b85e2829b09a06","67458e548861194752950b3e","2025-07-02T10:27:39.433Z","","","","","","","","","","","","","","","","win-only","3","g1:SW,g2:NE","0.8","3","0","525608.4","2159.2","7160.5","23451.1","1","4","4","6","2","4","4","6","2","0.045454545454545456","1111.1","3000","970","[""up"",""right""]","{""num_key_presses"":6,""num_perfect"":6,""num_errors"":0,""num_randdir"":0,""num_randdir_good_moves"":0,""num_whilered"":0,""num_whileblue"":0,""num_blue"":0,""num_good_moves"":6}","[407.8214133126395,417.82142761775424,0.1,407.8214133126395,417.82142761775424,101.4,407.8214133126395,417.82142761775424,206.4,407.8214133126395,417.82142761775424,311.7,405.3214133126395,421.57142761775424,411.8,367.8214133126395,464.07142761775424,513.2,367.8214133126395,464.07142761775424,616.9,386.5714133126395,455.32142761775424,721.5,671.5714133126395,216.57142761775424,829.5,731.5714133126395,102.82142761775425,931.2,746.5714133126395,80.32142761775425,1031.6,751.5714133126395,75.32142761775425,1136.3,751.5714133126395,75.32142761775425,1245.3,749.0714133126395,75.32142761775425,1345.8,749.0714133126395,75.32142761775425,1445.8,749.0714133126395,75.32142761775425,1546.8,749.0714133126395,75.32142761775425,1647.7,749.0714133126395,75.32142761775425,1751.7,749.0714133126395,75.32142761775425,1856.9,749.0714133126395,75.32142761775425,1961.7,749.0714133126395,75.32142761775425,2067.5,749.0714133126395,75.32142761775425,2171.5,749.0714133126395,75.32142761775425,2278.7,749.0714133126395,75.32142761775425,2381.6,749.0714133126395,75.32142761775425,2486.3,749.0714133126395,75.32142761775425,2595.2,749.0714133126395,75.32142761775425,2696.3,749.0714133126395,75.32142761775425,2796.8,749.0714133126395,75.32142761775425,2901.9,749.0714133126395,75.32142761775425,3012.6,749.0714133126395,75.32142761775425,3116.6,749.0714133126395,75.32142761775425,3221.1,749.0714133126395,75.32142761775425,3321.5,749.0714133126395,75.32142761775425,3428.5,749.0714133126395,75.32142761775425,3528.6,749.0714133126395,75.32142761775425,3631.4,749.0714133126395,75.32142761775425,3736.6,749.0714133126395,75.32142761775425,3836.6,749.0714133126395,75.32142761775425,3937,749.0714133126395,75.32142761775425,4044.8,749.0714133126395,75.32142761775425,4146.8,749.0714133126395,75.32142761775425,4251.6,749.0714133126395,75.32142761775425,4351.9,749.0714133126395,75.32142761775425,4461.5,749.0714133126395,75.32142761775425,4561.6,749.0714133126395,75.32142761775425,4666.4,749.0714133126395,75.32142761775425,4767.4,749.0714133126395,75.32142761775425,4871.1,749.0714133126395,75.32142761775425,4971.1]","[1508.8,1508.8,1000,0,508.8,""smooth"",""up"",""up"",""good_move"",4872.4,3363.3,2918.9,1509.1,444.4,""smooth"",""up"",""up"",""good_move"",8234.8,3362.1,3047.8,4872.7,314.3,""smooth"",""right"",""right"",""good_move"",10974.2,2739.2,2400.4,8235,338.8,""smooth"",""right"",""right"",""good_move"",13302.5,2328.1,1998,10974.4,330.1,""smooth"",""up"",""up"",""good_move"",16202.2,2899.5,2611.4,13302.7,288.1,""smooth"",""right"",""right"",""good_move""]","",""
"4025","","<div style=""width:500px;"">
  <p>What determined the result of this run?</p>
  </div>","100","html-slider-response","50","555055","0.0-10.0-1.2","19","1","2025-07-02 10:18:27","80fe4187154257d5fb01684ea91b68b9","78.84.164.26","Mozilla/5.0 (Windows NT 10.0; Win64; x64) AppleWebKit/537.36 (KHTML, like Gecko) Chrome/137.0.0.0 Safari/537.36","WebKit","Chrome","137.0.0.0","Windows","10.0","https://app.prolific.com/","en-GB,en-US;q=0.9,en;q=0.8","67458e548861194752950b3e","683db6dfa200031b80f2a654","6865077054b85e2829b09a06","67458e548861194752950b3e","2025-07-02T10:27:43.459Z","","","","","","AttribQ","","","","","","","","","","","","","","","","","","","","","","","","","","","","","","","","","","","","","","50"
"1522","","<div style=""width:500px;"">
  <p>How much control did you have over the ball?</p>
  </div>","87","html-slider-response","51","556577","0.0-10.0-2.2","19","1","2025-07-02 10:18:27","80fe4187154257d5fb01684ea91b68b9","78.84.164.26","Mozilla/5.0 (Windows NT 10.0; Win64; x64) AppleWebKit/537.36 (KHTML, like Gecko) Chrome/137.0.0.0 Safari/537.36","WebKit","Chrome","137.0.0.0","Windows","10.0","https://app.prolific.com/","en-GB,en-US;q=0.9,en;q=0.8","67458e548861194752950b3e","683db6dfa200031b80f2a654","6865077054b85e2829b09a06","67458e548861194752950b3e","2025-07-02T10:27:44.981Z","","","","","","ControlQ","","","","","","","","","","","","","","","","","","","","","","","","","","","","","","","","","","","","","","50"
"2745","","<div style=""width:500px;"">
  <p>How would you describe your current emotional state?</p>
  </div>","22","html-slider-response","52","559322","0.0-10.0-3.2","19","1","2025-07-02 10:18:27","80fe4187154257d5fb01684ea91b68b9","78.84.164.26","Mozilla/5.0 (Windows NT 10.0; Win64; x64) AppleWebKit/537.36 (KHTML, like Gecko) Chrome/137.0.0.0 Safari/537.36","WebKit","Chrome","137.0.0.0","Windows","10.0","https://app.prolific.com/","en-GB,en-US;q=0.9,en;q=0.8","67458e548861194752950b3e","683db6dfa200031b80f2a654","6865077054b85e2829b09a06","67458e548861194752950b3e","2025-07-02T10:27:47.727Z","","","","","","StressQ","","","","","","","","","","","","","","","","","","","","","","","","","","","","","","","","","","","","","","50"
"1784","","<div style=""width:500px;"">
  <p>What best describes how you currently feel?</p>
  </div>","74","html-slider-response","53","561107","0.0-10.0-4.2","19","1","2025-07-02 10:18:27","80fe4187154257d5fb01684ea91b68b9","78.84.164.26","Mozilla/5.0 (Windows NT 10.0; Win64; x64) AppleWebKit/537.36 (KHTML, like Gecko) Chrome/137.0.0.0 Safari/537.36","WebKit","Chrome","137.0.0.0","Windows","10.0","https://app.prolific.com/","en-GB,en-US;q=0.9,en;q=0.8","67458e548861194752950b3e","683db6dfa200031b80f2a654","6865077054b85e2829b09a06","67458e548861194752950b3e","2025-07-02T10:27:49.511Z","","","","","","MotivationQ","","","","","","","","","","","","","","","","","","","","","","","","","","","","","","","","","","","","","","50"
"","","","","ctl-task-cpt","54","599042","0.0-10.0-0.3","19","1","2025-07-02 10:18:27","80fe4187154257d5fb01684ea91b68b9","78.84.164.26","Mozilla/5.0 (Windows NT 10.0; Win64; x64) AppleWebKit/537.36 (KHTML, like Gecko) Chrome/137.0.0.0 Safari/537.36","WebKit","Chrome","137.0.0.0","Windows","10.0","https://app.prolific.com/","en-GB,en-US;q=0.9,en;q=0.8","67458e548861194752950b3e","683db6dfa200031b80f2a654","6865077054b85e2829b09a06","67458e548861194752950b3e","2025-07-02T10:28:27.446Z","","","","","","","","","","","","","","","","win-only","2","g1:SE,g2:NW","0.7","4","0","562155.9","643.8","5645.6","34916.3","1","4","8","6","2","-8","-8","0","6","0","1380.3","3000","-2890","[""left"",""up""]","{""num_key_presses"":8,""num_perfect"":6,""num_errors"":0,""num_randdir"":2,""num_randdir_good_moves"":0,""num_whilered"":0,""num_whileblue"":0,""num_blue"":1,""num_good_moves"":6}","[421.5714133126395,421.57142761775424,0.1,421.5714133126395,421.57142761775424,101.8,421.5714133126395,421.57142761775424,202,421.5714133126395,421.57142761775424,302.6,421.5714133126395,421.57142761775424,406.4,516.5714133126395,541.5714276177542,506.4,535.3214133126395,577.8214276177542,606.4,539.0714133126395,609.0714276177542,706.8,534.0714133126395,619.0714276177542,806.9,534.0714133126395,619.0714276177542,907.1,345.3214133126395,400.32142761775424,1012,132.8214133126395,160.32142761775424,1117.1,89.0714133126395,100.32142761775425,1217.4,71.5714133126395,84.07142761775425,1322,71.5714133126395,84.07142761775425,1422.1,76.5714133126395,86.57142761775425,1527.4,276.5714133126395,152.82142761775424,1632.6,469.0714133126395,176.57142761775424,1736.5,469.0714133126395,176.57142761775424,1837.3,469.0714133126395,176.57142761775424,1941.8,469.0714133126395,176.57142761775424,2042.9,469.0714133126395,176.57142761775424,2148.2,469.0714133126395,176.57142761775424,2252.1,469.0714133126395,176.57142761775424,2356.8,469.0714133126395,176.57142761775424,2459.1,469.0714133126395,176.57142761775424,2561.4,469.0714133126395,176.57142761775424,2661.7,469.0714133126395,176.57142761775424,2762,469.0714133126395,176.57142761775424,2866.6,469.0714133126395,176.57142761775424,2971.7,469.0714133126395,176.57142761775424,3076.7,469.0714133126395,176.57142761775424,3181.7,469.0714133126395,176.57142761775424,3282.1,469.0714133126395,176.57142761775424,3382.1,469.0714133126395,176.57142761775424,3482.2,469.0714133126395,176.57142761775424,3586.6,469.0714133126395,176.57142761775424,3686.6,469.0714133126395,176.57142761775424,3786.9,469.0714133126395,176.57142761775424,3886.9,469.0714133126395,176.57142761775424,3987.7,469.0714133126395,176.57142761775424,4091.4,469.0714133126395,176.57142761775424,4192.1,469.0714133126395,176.57142761775424,4296.4,469.0714133126395,176.57142761775424,4396.7,469.0714133126395,176.57142761775424,4497,469.0714133126395,176.57142761775424,4601.5,469.0714133126395,176.57142761775424,4702.1,469.0714133126395,176.57142761775424,4806.6,469.0714133126395,176.57142761775424,4907]","[1497.7,1497.7,1000,0,497.7,""smooth"",""up"",""up"",""good_move"",3873.5,2375.5,2015.4,1498,360.1,""smooth"",""up"",""up"",""good_move"",10650,6776.2,2001.8,8254.7,393.5,""oops"",""left"",""down"",""bad_move"",14343.6,3693.3,3390.5,10650.3,302.8,""smooth"",""left"",""left"",""good_move"",17301.6,2957.8,2648.4,14343.8,309.4,""oops"",""up"",""down"",""bad_move"",20323.7,3022,2708.8,17301.7,313.2,""smooth"",""left"",""left"",""good_move"",23402.2,3078.4,2709,20323.8,369.4,""smooth"",""up"",""up"",""good_move"",26340.3,2938,2607.7,23402.4,330.2,""smooth"",""up"",""up"",""good_move""]","",""
"5198","","<div style=""width:500px;"">
  <p>What determined the result of this run?</p>
  </div>","0","html-slider-response","55","604240","0.0-10.0-1.3","19","1","2025-07-02 10:18:27","80fe4187154257d5fb01684ea91b68b9","78.84.164.26","Mozilla/5.0 (Windows NT 10.0; Win64; x64) AppleWebKit/537.36 (KHTML, like Gecko) Chrome/137.0.0.0 Safari/537.36","WebKit","Chrome","137.0.0.0","Windows","10.0","https://app.prolific.com/","en-GB,en-US;q=0.9,en;q=0.8","67458e548861194752950b3e","683db6dfa200031b80f2a654","6865077054b85e2829b09a06","67458e548861194752950b3e","2025-07-02T10:28:32.644Z","","","","","","AttribQ","","","","","","","","","","","","","","","","","","","","","","","","","","","","","","","","","","","","","","50"
"2031","","<div style=""width:500px;"">
  <p>How much control did you have over the ball?</p>
  </div>","5","html-slider-response","56","606272","0.0-10.0-2.3","19","1","2025-07-02 10:18:27","80fe4187154257d5fb01684ea91b68b9","78.84.164.26","Mozilla/5.0 (Windows NT 10.0; Win64; x64) AppleWebKit/537.36 (KHTML, like Gecko) Chrome/137.0.0.0 Safari/537.36","WebKit","Chrome","137.0.0.0","Windows","10.0","https://app.prolific.com/","en-GB,en-US;q=0.9,en;q=0.8","67458e548861194752950b3e","683db6dfa200031b80f2a654","6865077054b85e2829b09a06","67458e548861194752950b3e","2025-07-02T10:28:34.676Z","","","","","","ControlQ","","","","","","","","","","","","","","","","","","","","","","","","","","","","","","","","","","","","","","50"
"2624","","<div style=""width:500px;"">
  <p>How would you describe your current emotional state?</p>
  </div>","81","html-slider-response","57","608897","0.0-10.0-3.3","19","1","2025-07-02 10:18:27","80fe4187154257d5fb01684ea91b68b9","78.84.164.26","Mozilla/5.0 (Windows NT 10.0; Win64; x64) AppleWebKit/537.36 (KHTML, like Gecko) Chrome/137.0.0.0 Safari/537.36","WebKit","Chrome","137.0.0.0","Windows","10.0","https://app.prolific.com/","en-GB,en-US;q=0.9,en;q=0.8","67458e548861194752950b3e","683db6dfa200031b80f2a654","6865077054b85e2829b09a06","67458e548861194752950b3e","2025-07-02T10:28:37.301Z","","","","","","StressQ","","","","","","","","","","","","","","","","","","","","","","","","","","","","","","","","","","","","","","50"
"2302","","<div style=""width:500px;"">
  <p>What best describes how you currently feel?</p>
  </div>","81","html-slider-response","58","611200","0.0-10.0-4.3","19","1","2025-07-02 10:18:27","80fe4187154257d5fb01684ea91b68b9","78.84.164.26","Mozilla/5.0 (Windows NT 10.0; Win64; x64) AppleWebKit/537.36 (KHTML, like Gecko) Chrome/137.0.0.0 Safari/537.36","WebKit","Chrome","137.0.0.0","Windows","10.0","https://app.prolific.com/","en-GB,en-US;q=0.9,en;q=0.8","67458e548861194752950b3e","683db6dfa200031b80f2a654","6865077054b85e2829b09a06","67458e548861194752950b3e","2025-07-02T10:28:39.604Z","","","","","","MotivationQ","","","","","","","","","","","","","","","","","","","","","","","","","","","","","","","","","","","","","","50"
"","","","","ctl-task-cpt","59","639819","0.0-10.0-0.4","19","1","2025-07-02 10:18:27","80fe4187154257d5fb01684ea91b68b9","78.84.164.26","Mozilla/5.0 (Windows NT 10.0; Win64; x64) AppleWebKit/537.36 (KHTML, like Gecko) Chrome/137.0.0.0 Safari/537.36","WebKit","Chrome","137.0.0.0","Windows","10.0","https://app.prolific.com/","en-GB,en-US;q=0.9,en;q=0.8","67458e548861194752950b3e","683db6dfa200031b80f2a654","6865077054b85e2829b09a06","67458e548861194752950b3e","2025-07-02T10:29:08.223Z","","","","","","","","","","","","","","","","win-only","0","g1:NW,g2:SE","0.6","5","0","612248.5","1634","6636.7","25601.3","1","4","8","6","2","8","8","8","0","0.06060606060606061","839.9","3000","920","[""down"",""right""]","{""num_key_presses"":6,""num_perfect"":4,""num_errors"":0,""num_randdir"":2,""num_randdir_good_moves"":2,""num_whilered"":0,""num_whileblue"":0,""num_blue"":1,""num_good_moves"":6}","[424.0714133126395,419.07142761775424,0.2,422.8214133126395,420.32142761775424,102,422.8214133126395,420.32142761775424,202.1,422.8214133126395,420.32142761775424,302.2,422.8214133126395,420.32142761775424,406.7,521.5714133126395,456.57142761775424,511.4,691.5714133126395,655.3214276177542,611.7,736.5714133126395,701.5714276177542,716.5,762.8214133126395,746.5714276177542,817.6,762.8214133126395,746.5714276177542,921.8,762.8214133126395,747.8214276177542,1021.9,776.5714133126395,759.0714276177542,1122,776.5714133126395,760.3214276177542,1226.3,776.5714133126395,760.3214276177542,1326.3,776.5714133126395,760.3214276177542,1427.3,776.5714133126395,760.3214276177542,1531.4,776.5714133126395,760.3214276177542,1631.4,776.5714133126395,760.3214276177542,1737.2,776.5714133126395,760.3214276177542,1842,776.5714133126395,760.3214276177542,1942.2,776.5714133126395,760.3214276177542,2046.9,776.5714133126395,760.3214276177542,2146.9,776.5714133126395,760.3214276177542,2251.8,776.5714133126395,760.3214276177542,2351.8,776.5714133126395,760.3214276177542,2456.7,776.5714133126395,760.3214276177542,2556.8,776.5714133126395,760.3214276177542,2662.6,776.5714133126395,760.3214276177542,2766.9,776.5714133126395,760.3214276177542,2871.8,776.5714133126395,760.3214276177542,2972,776.5714133126395,760.3214276177542,3076.8,776.5714133126395,760.3214276177542,3181.8,776.5714133126395,760.3214276177542,3287.1,776.5714133126395,760.3214276177542,3391.3,776.5714133126395,760.3214276177542,3491.8,776.5714133126395,760.3214276177542,3596.3,776.5714133126395,760.3214276177542,3696.6,776.5714133126395,760.3214276177542,3796.8,776.5714133126395,760.3214276177542,3896.9,776.5714133126395,760.3214276177542,4001.9,776.5714133126395,760.3214276177542,4106.8,776.5714133126395,760.3214276177542,4211.7,776.5714133126395,760.3214276177542,4316.4,776.5714133126395,760.3214276177542,4421.4,776.5714133126395,760.3214276177542,4521.6,776.5714133126395,760.3214276177542,4622,776.5714133126395,760.3214276177542,4727.2,776.5714133126395,760.3214276177542,4831.6,776.5714133126395,760.3214276177542,4931.9]","[1421.9,1421.9,1000,0,421.9,""oops"",""down"",""right"",""good_move"",4576,3153.9,2782.7,1422.1,371.2,""smooth"",""down"",""down"",""good_move"",6884.4,2308.2,2012.4,4576.2,295.8,""smooth"",""down"",""down"",""good_move"",9791.8,2907.3,2611.8,6884.5,295.5,""smooth"",""down"",""down"",""good_move"",15648.3,5856.4,1963.2,13329.7,355.4,""oops"",""right"",""right"",""good_move"",18874,3225.4,2857.5,15648.6,367.9,""smooth"",""right"",""right"",""good_move""]","",""
"3293","","<div style=""width:500px;"">
  <p>What determined the result of this run?</p>
  </div>","18","html-slider-response","60","643113","0.0-10.0-1.4","19","1","2025-07-02 10:18:27","80fe4187154257d5fb01684ea91b68b9","78.84.164.26","Mozilla/5.0 (Windows NT 10.0; Win64; x64) AppleWebKit/537.36 (KHTML, like Gecko) Chrome/137.0.0.0 Safari/537.36","WebKit","Chrome","137.0.0.0","Windows","10.0","https://app.prolific.com/","en-GB,en-US;q=0.9,en;q=0.8","67458e548861194752950b3e","683db6dfa200031b80f2a654","6865077054b85e2829b09a06","67458e548861194752950b3e","2025-07-02T10:29:11.517Z","","","","","","AttribQ","","","","","","","","","","","","","","","","","","","","","","","","","","","","","","","","","","","","","","50"
"1724","","<div style=""width:500px;"">
  <p>How much control did you have over the ball?</p>
  </div>","27","html-slider-response","61","644838","0.0-10.0-2.4","19","1","2025-07-02 10:18:27","80fe4187154257d5fb01684ea91b68b9","78.84.164.26","Mozilla/5.0 (Windows NT 10.0; Win64; x64) AppleWebKit/537.36 (KHTML, like Gecko) Chrome/137.0.0.0 Safari/537.36","WebKit","Chrome","137.0.0.0","Windows","10.0","https://app.prolific.com/","en-GB,en-US;q=0.9,en;q=0.8","67458e548861194752950b3e","683db6dfa200031b80f2a654","6865077054b85e2829b09a06","67458e548861194752950b3e","2025-07-02T10:29:13.242Z","","","","","","ControlQ","","","","","","","","","","","","","","","","","","","","","","","","","","","","","","","","","","","","","","50"
"2594","","<div style=""width:500px;"">
  <p>How would you describe your current emotional state?</p>
  </div>","34","html-slider-response","62","647432","0.0-10.0-3.4","19","1","2025-07-02 10:18:27","80fe4187154257d5fb01684ea91b68b9","78.84.164.26","Mozilla/5.0 (Windows NT 10.0; Win64; x64) AppleWebKit/537.36 (KHTML, like Gecko) Chrome/137.0.0.0 Safari/537.36","WebKit","Chrome","137.0.0.0","Windows","10.0","https://app.prolific.com/","en-GB,en-US;q=0.9,en;q=0.8","67458e548861194752950b3e","683db6dfa200031b80f2a654","6865077054b85e2829b09a06","67458e548861194752950b3e","2025-07-02T10:29:15.836Z","","","","","","StressQ","","","","","","","","","","","","","","","","","","","","","","","","","","","","","","","","","","","","","","50"
"2227","","<div style=""width:500px;"">
  <p>What best describes how you currently feel?</p>
  </div>","88","html-slider-response","63","649660","0.0-10.0-4.4","19","1","2025-07-02 10:18:27","80fe4187154257d5fb01684ea91b68b9","78.84.164.26","Mozilla/5.0 (Windows NT 10.0; Win64; x64) AppleWebKit/537.36 (KHTML, like Gecko) Chrome/137.0.0.0 Safari/537.36","WebKit","Chrome","137.0.0.0","Windows","10.0","https://app.prolific.com/","en-GB,en-US;q=0.9,en;q=0.8","67458e548861194752950b3e","683db6dfa200031b80f2a654","6865077054b85e2829b09a06","67458e548861194752950b3e","2025-07-02T10:29:18.064Z","","","","","","MotivationQ","","","","","","","","","","","","","","","","","","","","","","","","","","","","","","","","","","","","","","50"
"","","","","ctl-task-cpt","64","684797","0.0-10.0-0.5","19","1","2025-07-02 10:18:27","80fe4187154257d5fb01684ea91b68b9","78.84.164.26","Mozilla/5.0 (Windows NT 10.0; Win64; x64) AppleWebKit/537.36 (KHTML, like Gecko) Chrome/137.0.0.0 Safari/537.36","WebKit","Chrome","137.0.0.0","Windows","10.0","https://app.prolific.com/","en-GB,en-US;q=0.9,en;q=0.8","67458e548861194752950b3e","683db6dfa200031b80f2a654","6865077054b85e2829b09a06","67458e548861194752950b3e","2025-07-02T10:29:53.201Z","","","","","","","","","","","","","","","","win-only","1","g1:NE,g2:SW","0.5","6","0","650708.5","1387.6","6388.5","32120.3","1","4","4","6","2","4","4","12","8","0.09090909090909091","1116.8","3000","115","[""down"",""left""]","{""num_key_presses"":8,""num_perfect"":5,""num_errors"":0,""num_randdir"":3,""num_randdir_good_moves"":2,""num_whilered"":0,""num_whileblue"":0,""num_blue"":1,""num_good_moves"":7}","[417.8214133126395,411.57142761775424,0.2,417.8214133126395,411.57142761775424,101.7,417.8214133126395,411.57142761775424,201.7,417.8214133126395,411.57142761775424,303,427.8214133126395,406.57142761775424,403.5,491.5714133126395,351.57142761775424,508,611.5714133126395,229.07142761775424,609,579.0714133126395,265.32142761775424,717.5,191.5714133126395,625.3214276177542,817.9,160.3214133126395,691.5714276177542,918,130.3214133126395,746.5714276177542,1018.4,86.5714133126395,775.3214276177542,1118.5,85.3214133126395,775.3214276177542,1223.7,201.5714133126395,711.5714276177542,1324.4,256.5714133126395,691.5714276177542,1428.9,256.5714133126395,691.5714276177542,1534.2,256.5714133126395,691.5714276177542,1634.5,256.5714133126395,691.5714276177542,1734.7,256.5714133126395,691.5714276177542,1834.9,256.5714133126395,691.5714276177542,1938.9,256.5714133126395,691.5714276177542,2043.3,256.5714133126395,691.5714276177542,2151.7,256.5714133126395,691.5714276177542,2253.2,256.5714133126395,691.5714276177542,2353.3,256.5714133126395,691.5714276177542,2458,256.5714133126395,691.5714276177542,2558.7,256.5714133126395,691.5714276177542,2667.1,256.5714133126395,691.5714276177542,2767.2,256.5714133126395,691.5714276177542,2867.3,256.5714133126395,691.5714276177542,2967.5,256.5714133126395,691.5714276177542,3068.6,256.5714133126395,691.5714276177542,3173.4,256.5714133126395,691.5714276177542,3273.5,256.5714133126395,691.5714276177542,3378.2,256.5714133126395,691.5714276177542,3478.2,256.5714133126395,691.5714276177542,3584,256.5714133126395,691.5714276177542,3684.3,256.5714133126395,691.5714276177542,3784.9,256.5714133126395,691.5714276177542,3885,256.5714133126395,691.5714276177542,3988.6,256.5714133126395,691.5714276177542,4093.9,256.5714133126395,691.5714276177542,4194,256.5714133126395,691.5714276177542,4300.3,256.5714133126395,691.5714276177542,4400.7,256.5714133126395,691.5714276177542,4503.9,256.5714133126395,691.5714276177542,4607.9,256.5714133126395,691.5714276177542,4708.7,256.5714133126395,691.5714276177542,4816.8,256.5714133126395,691.5714276177542,4917.4]","[1472.2,1472.2,1000,0,472.2,""smooth"",""down"",""down"",""good_move"",7664,6191.5,2099.6,5172,392.4,""smooth"",""down"",""down"",""good_move"",10280.5,2616.3,2220.3,7664.2,396,""smooth"",""left"",""left"",""good_move"",13405.9,3125.2,2740.7,10280.7,384.5,""oops"",""left"",""up"",""bad_move"",16866.2,3460,3124.6,13406.2,335.4,""smooth"",""down"",""down"",""good_move"",19492,2625.5,2273.6,16866.5,351.9,""smooth"",""left"",""left"",""good_move"",22562.2,3070,2744.6,19492.2,325.4,""oops"",""down"",""down"",""good_move"",25634,3071.7,2804.3,22562.3,267.4,""oops"",""left"",""left"",""good_move""]","",""
"2550","","<div style=""width:500px;"">
  <p>What determined the result of this run?</p>
  </div>","20","html-slider-response","65","687348","0.0-10.0-1.5","19","1","2025-07-02 10:18:27","80fe4187154257d5fb01684ea91b68b9","78.84.164.26","Mozilla/5.0 (Windows NT 10.0; Win64; x64) AppleWebKit/537.36 (KHTML, like Gecko) Chrome/137.0.0.0 Safari/537.36","WebKit","Chrome","137.0.0.0","Windows","10.0","https://app.prolific.com/","en-GB,en-US;q=0.9,en;q=0.8","67458e548861194752950b3e","683db6dfa200031b80f2a654","6865077054b85e2829b09a06","67458e548861194752950b3e","2025-07-02T10:29:55.752Z","","","","","","AttribQ","","","","","","","","","","","","","","","","","","","","","","","","","","","","","","","","","","","","","","50"
"2092","","<div style=""width:500px;"">
  <p>How much control did you have over the ball?</p>
  </div>","33","html-slider-response","66","689440","0.0-10.0-2.5","19","1","2025-07-02 10:18:27","80fe4187154257d5fb01684ea91b68b9","78.84.164.26","Mozilla/5.0 (Windows NT 10.0; Win64; x64) AppleWebKit/537.36 (KHTML, like Gecko) Chrome/137.0.0.0 Safari/537.36","WebKit","Chrome","137.0.0.0","Windows","10.0","https://app.prolific.com/","en-GB,en-US;q=0.9,en;q=0.8","67458e548861194752950b3e","683db6dfa200031b80f2a654","6865077054b85e2829b09a06","67458e548861194752950b3e","2025-07-02T10:29:57.845Z","","","","","","ControlQ","","","","","","","","","","","","","","","","","","","","","","","","","","","","","","","","","","","","","","50"
"2646","","<div style=""width:500px;"">
  <p>How would you describe your current emotional state?</p>
  </div>","66","html-slider-response","67","692087","0.0-10.0-3.5","19","1","2025-07-02 10:18:27","80fe4187154257d5fb01684ea91b68b9","78.84.164.26","Mozilla/5.0 (Windows NT 10.0; Win64; x64) AppleWebKit/537.36 (KHTML, like Gecko) Chrome/137.0.0.0 Safari/537.36","WebKit","Chrome","137.0.0.0","Windows","10.0","https://app.prolific.com/","en-GB,en-US;q=0.9,en;q=0.8","67458e548861194752950b3e","683db6dfa200031b80f2a654","6865077054b85e2829b09a06","67458e548861194752950b3e","2025-07-02T10:30:00.492Z","","","","","","StressQ","","","","","","","","","","","","","","","","","","","","","","","","","","","","","","","","","","","","","","50"
"2595","","<div style=""width:500px;"">
  <p>What best describes how you currently feel?</p>
  </div>","95","html-slider-response","68","694683","0.0-10.0-4.5","19","1","2025-07-02 10:18:27","80fe4187154257d5fb01684ea91b68b9","78.84.164.26","Mozilla/5.0 (Windows NT 10.0; Win64; x64) AppleWebKit/537.36 (KHTML, like Gecko) Chrome/137.0.0.0 Safari/537.36","WebKit","Chrome","137.0.0.0","Windows","10.0","https://app.prolific.com/","en-GB,en-US;q=0.9,en;q=0.8","67458e548861194752950b3e","683db6dfa200031b80f2a654","6865077054b85e2829b09a06","67458e548861194752950b3e","2025-07-02T10:30:03.087Z","","","","","","MotivationQ","","","","","","","","","","","","","","","","","","","","","","","","","","","","","","","","","","","","","","50"
"","","","","ctl-task-cpt","69","730442","0.0-10.0-0.6","19","1","2025-07-02 10:18:27","80fe4187154257d5fb01684ea91b68b9","78.84.164.26","Mozilla/5.0 (Windows NT 10.0; Win64; x64) AppleWebKit/537.36 (KHTML, like Gecko) Chrome/137.0.0.0 Safari/537.36","WebKit","Chrome","137.0.0.0","Windows","10.0","https://app.prolific.com/","en-GB,en-US;q=0.9,en;q=0.8","67458e548861194752950b3e","683db6dfa200031b80f2a654","6865077054b85e2829b09a06","67458e548861194752950b3e","2025-07-02T10:30:38.846Z","","","","","","","","","","","","","","","","win-only","2","g1:SE,g2:NW","0.4","7","0","695731.9","890.9","5896","32741.8","1","4","8","6","2","-8","-9","3","12","0.022727272727272728","1837.3","3000","-2995","[""left"",""up""]","{""num_key_presses"":9,""num_perfect"":3,""num_errors"":1,""num_randdir"":5,""num_randdir_good_moves"":2,""num_whilered"":0,""num_whileblue"":0,""num_blue"":0,""num_good_moves"":5}","[429.0714133126395,415.32142761775424,0.1,429.0714133126395,415.32142761775424,104.3,429.0714133126395,415.32142761775424,204.8,431.5714133126395,415.32142761775424,309.4,431.5714133126395,415.32142761775424,409.7,399.0714133126395,411.57142761775424,510,166.5714133126395,236.57142761775424,610.1,120.3214133126395,144.07142761775424,714.9,126.5714133126395,130.32142761775424,819.9,112.8214133126395,111.57142761775425,924.4,319.0714133126395,332.82142761775424,1024.5,619.0714133126395,651.5714276177542,1130.6,736.5714133126395,716.5714276177542,1234.8,756.5714133126395,727.8214276177542,1335.3,705.3214133126395,691.5714276177542,1440.1,162.8214133126395,210.32142761775424,1540.2,134.0714133126395,161.57142761775424,1644.8,92.8214133126395,114.07142761775425,1749.5,84.0714133126395,90.32142761775425,1849.7,84.0714133126395,90.32142761775425,1954.4,116.5714133126395,106.57142761775425,2054.5,266.5714133126395,190.32142761775424,2159.3,266.5714133126395,190.32142761775424,2259.3,266.5714133126395,190.32142761775424,2364.2,266.5714133126395,190.32142761775424,2465,266.5714133126395,190.32142761775424,2565.9,266.5714133126395,190.32142761775424,2669.7,266.5714133126395,190.32142761775424,2774.5,266.5714133126395,190.32142761775424,2875.1,266.5714133126395,190.32142761775424,2980.1,266.5714133126395,190.32142761775424,3084.6,266.5714133126395,190.32142761775424,3190.4,266.5714133126395,190.32142761775424,3294.9,266.5714133126395,190.32142761775424,3399.4,266.5714133126395,190.32142761775424,3499.7,266.5714133126395,190.32142761775424,3599.7,266.5714133126395,190.32142761775424,3705.2,266.5714133126395,190.32142761775424,3806.1,266.5714133126395,190.32142761775424,3909.6,266.5714133126395,190.32142761775424,4009.6,266.5714133126395,190.32142761775424,4114.3,266.5714133126395,190.32142761775424,4219.3,266.5714133126395,190.32142761775424,4319.3,266.5714133126395,190.32142761775424,4419.6,266.5714133126395,190.32142761775424,4520,266.5714133126395,190.32142761775424,4625,266.5714133126395,190.32142761775424,4729.7,266.5714133126395,190.32142761775424,4829.7,266.5714133126395,190.32142761775424,4934.9]","[1577.1,1577.1,1000,0,577.1,""smooth"",""up"",""up"",""good_move"",3707.4,2130,1750.6,1577.4,379.4,""oops"",""up"",""right"",""bad_move"",6988.9,3281.2,2917.4,3707.7,363.8,""smooth"",""up"",""up"",""good_move"",11006.2,4016.9,3575.6,6989.3,441.4,""oops"",""left"",""up"",""good_move"",13755.1,2748.7,2463.1,11006.4,285.6,""smooth"",""left"",""left"",""good_move"",16515,2759.6,2485.6,13755.4,274,""oops"",""left"",""right"",""bad_move"",19543,3027.7,2801.6,16515.3,226.1,""oops"",""left"",""down"",""bad_move"",19647.1,103.9,1708,19543.2,-1604.1,""error"",""-"",""-"",""no_move"",23817.2,4170.1,2840,20649.5,327.8,""oops"",""left"",""left"",""good_move""]","",""
"2483","","<div style=""width:500px;"">
  <p>What determined the result of this run?</p>
  </div>","0","html-slider-response","70","732926","0.0-10.0-1.6","19","1","2025-07-02 10:18:27","80fe4187154257d5fb01684ea91b68b9","78.84.164.26","Mozilla/5.0 (Windows NT 10.0; Win64; x64) AppleWebKit/537.36 (KHTML, like Gecko) Chrome/137.0.0.0 Safari/537.36","WebKit","Chrome","137.0.0.0","Windows","10.0","https://app.prolific.com/","en-GB,en-US;q=0.9,en;q=0.8","67458e548861194752950b3e","683db6dfa200031b80f2a654","6865077054b85e2829b09a06","67458e548861194752950b3e","2025-07-02T10:30:41.330Z","","","","","","AttribQ","","","","","","","","","","","","","","","","","","","","","","","","","","","","","","","","","","","","","","50"
"1979","","<div style=""width:500px;"">
  <p>How much control did you have over the ball?</p>
  </div>","0","html-slider-response","71","734905","0.0-10.0-2.6","19","1","2025-07-02 10:18:27","80fe4187154257d5fb01684ea91b68b9","78.84.164.26","Mozilla/5.0 (Windows NT 10.0; Win64; x64) AppleWebKit/537.36 (KHTML, like Gecko) Chrome/137.0.0.0 Safari/537.36","WebKit","Chrome","137.0.0.0","Windows","10.0","https://app.prolific.com/","en-GB,en-US;q=0.9,en;q=0.8","67458e548861194752950b3e","683db6dfa200031b80f2a654","6865077054b85e2829b09a06","67458e548861194752950b3e","2025-07-02T10:30:43.309Z","","","","","","ControlQ","","","","","","","","","","","","","","","","","","","","","","","","","","","","","","","","","","","","","","50"
"2452","","<div style=""width:500px;"">
  <p>How would you describe your current emotional state?</p>
  </div>","85","html-slider-response","72","737358","0.0-10.0-3.6","19","1","2025-07-02 10:18:27","80fe4187154257d5fb01684ea91b68b9","78.84.164.26","Mozilla/5.0 (Windows NT 10.0; Win64; x64) AppleWebKit/537.36 (KHTML, like Gecko) Chrome/137.0.0.0 Safari/537.36","WebKit","Chrome","137.0.0.0","Windows","10.0","https://app.prolific.com/","en-GB,en-US;q=0.9,en;q=0.8","67458e548861194752950b3e","683db6dfa200031b80f2a654","6865077054b85e2829b09a06","67458e548861194752950b3e","2025-07-02T10:30:45.762Z","","","","","","StressQ","","","","","","","","","","","","","","","","","","","","","","","","","","","","","","","","","","","","","","50"
"3975","","<div style=""width:500px;"">
  <p>What best describes how you currently feel?</p>
  </div>","95","html-slider-response","73","741333","0.0-10.0-4.6","19","1","2025-07-02 10:18:27","80fe4187154257d5fb01684ea91b68b9","78.84.164.26","Mozilla/5.0 (Windows NT 10.0; Win64; x64) AppleWebKit/537.36 (KHTML, like Gecko) Chrome/137.0.0.0 Safari/537.36","WebKit","Chrome","137.0.0.0","Windows","10.0","https://app.prolific.com/","en-GB,en-US;q=0.9,en;q=0.8","67458e548861194752950b3e","683db6dfa200031b80f2a654","6865077054b85e2829b09a06","67458e548861194752950b3e","2025-07-02T10:30:49.737Z","","","","","","MotivationQ","","","","","","","","","","","","","","","","","","","","","","","","","","","","","","","","","","","","","","50"
"","","","","ctl-task-cpt","74","777501","0.0-10.0-0.7","19","1","2025-07-02 10:18:27","80fe4187154257d5fb01684ea91b68b9","78.84.164.26","Mozilla/5.0 (Windows NT 10.0; Win64; x64) AppleWebKit/537.36 (KHTML, like Gecko) Chrome/137.0.0.0 Safari/537.36","WebKit","Chrome","137.0.0.0","Windows","10.0","https://app.prolific.com/","en-GB,en-US;q=0.9,en;q=0.8","67458e548861194752950b3e","683db6dfa200031b80f2a654","6865077054b85e2829b09a06","67458e548861194752950b3e","2025-07-02T10:31:25.905Z","","","","","","","","","","","","","","","","win-only","2","g1:SE,g2:NW","0.3","8","0","742381.6","711.3","5716.1","33150.3","1","4","4","6","2","-4","-4","0","3","0","1132.6","3000","-3010","[""left"",""up""]","{""num_key_presses"":8,""num_perfect"":2,""num_errors"":0,""num_randdir"":6,""num_randdir_good_moves"":2,""num_whilered"":0,""num_whileblue"":0,""num_blue"":1,""num_good_moves"":4}","[426.5714133126395,412.82142761775424,0.1,426.5714133126395,412.82142761775424,103.9,426.5714133126395,412.82142761775424,204.4,426.5714133126395,412.82142761775424,307.4,422.8214133126395,411.57142761775424,409.3,426.5714133126395,416.57142761775424,509.5,541.5714133126395,545.3214276177542,614.9,534.0714133126395,575.3214276177542,719.2,237.8214133126395,221.57142761775424,819.2,156.5714133126395,97.82142761775425,924.2,87.8214133126395,26.571427617754253,1025.2,72.8214133126395,17.821427617754253,1129,72.8214133126395,17.821427617754253,1229.4,72.8214133126395,19.071427617754253,1335.3,100.3214133126395,44.07142761775425,1438.9,229.0714133126395,150.32142761775424,1539.3,326.5714133126395,187.82142761775424,1639.3,334.0714133126395,186.57142761775424,1740.2,334.0714133126395,186.57142761775424,1840.7,334.0714133126395,186.57142761775424,1944.1,334.0714133126395,186.57142761775424,2044.4,334.0714133126395,186.57142761775424,2144.6,334.0714133126395,186.57142761775424,2249.3,334.0714133126395,186.57142761775424,2354.7,334.0714133126395,186.57142761775424,2459,334.0714133126395,186.57142761775424,2559.1,334.0714133126395,186.57142761775424,2659.3,334.0714133126395,186.57142761775424,2759.4,334.0714133126395,186.57142761775424,2859.6,334.0714133126395,186.57142761775424,2965.2,334.0714133126395,186.57142761775424,3069.4,334.0714133126395,186.57142761775424,3169.9,334.0714133126395,186.57142761775424,3270.1,334.0714133126395,186.57142761775424,3374.1,334.0714133126395,186.57142761775424,3474.5,334.0714133126395,186.57142761775424,3579.2,334.0714133126395,186.57142761775424,3679.5,334.0714133126395,186.57142761775424,3784.3,334.0714133126395,186.57142761775424,3889.6,334.0714133126395,186.57142761775424,3994.6,334.0714133126395,186.57142761775424,4098.9,334.0714133126395,186.57142761775424,4199.6,334.0714133126395,186.57142761775424,4304.1,334.0714133126395,186.57142761775424,4404.2,334.0714133126395,186.57142761775424,4504.3,334.0714133126395,186.57142761775424,4609.3,334.0714133126395,186.57142761775424,4709.8,334.0714133126395,186.57142761775424,4814.1,334.0714133126395,186.57142761775424,4914.2]","[1415.5,1415.5,1000,0,415.5,""oops"",""up"",""left"",""good_move"",4421.2,3005.5,2666.2,1415.7,339.3,""smooth"",""up"",""up"",""good_move"",7863.1,3441.6,3137,4421.5,304.6,""oops"",""up"",""left"",""good_move"",9877.1,2013.7,1704.4,7863.4,309.3,""oops"",""up"",""down"",""bad_move"",16029.6,6152.3,2323.6,13314.7,391.3,""oops"",""up"",""down"",""bad_move"",19405.4,3375.7,3067.6,16029.7,308.1,""oops"",""up"",""down"",""bad_move"",21513.4,2107.9,1616,19405.5,491.9,""smooth"",""up"",""up"",""good_move"",24197.4,2683.6,2419.4,21513.8,264.2,""oops"",""up"",""right"",""bad_move""]","",""
"1737","","<div style=""width:500px;"">
  <p>What determined the result of this run?</p>
  </div>","0","html-slider-response","75","779238","0.0-10.0-1.7","19","1","2025-07-02 10:18:27","80fe4187154257d5fb01684ea91b68b9","78.84.164.26","Mozilla/5.0 (Windows NT 10.0; Win64; x64) AppleWebKit/537.36 (KHTML, like Gecko) Chrome/137.0.0.0 Safari/537.36","WebKit","Chrome","137.0.0.0","Windows","10.0","https://app.prolific.com/","en-GB,en-US;q=0.9,en;q=0.8","67458e548861194752950b3e","683db6dfa200031b80f2a654","6865077054b85e2829b09a06","67458e548861194752950b3e","2025-07-02T10:31:27.642Z","","","","","","AttribQ","","","","","","","","","","","","","","","","","","","","","","","","","","","","","","","","","","","","","","50"
"1725","","<div style=""width:500px;"">
  <p>How much control did you have over the ball?</p>
  </div>","0","html-slider-response","76","780964","0.0-10.0-2.7","19","1","2025-07-02 10:18:27","80fe4187154257d5fb01684ea91b68b9","78.84.164.26","Mozilla/5.0 (Windows NT 10.0; Win64; x64) AppleWebKit/537.36 (KHTML, like Gecko) Chrome/137.0.0.0 Safari/537.36","WebKit","Chrome","137.0.0.0","Windows","10.0","https://app.prolific.com/","en-GB,en-US;q=0.9,en;q=0.8","67458e548861194752950b3e","683db6dfa200031b80f2a654","6865077054b85e2829b09a06","67458e548861194752950b3e","2025-07-02T10:31:29.368Z","","","","","","ControlQ","","","","","","","","","","","","","","","","","","","","","","","","","","","","","","","","","","","","","","50"
"2151","","<div style=""width:500px;"">
  <p>How would you describe your current emotional state?</p>
  </div>","100","html-slider-response","77","783115","0.0-10.0-3.7","19","1","2025-07-02 10:18:27","80fe4187154257d5fb01684ea91b68b9","78.84.164.26","Mozilla/5.0 (Windows NT 10.0; Win64; x64) AppleWebKit/537.36 (KHTML, like Gecko) Chrome/137.0.0.0 Safari/537.36","WebKit","Chrome","137.0.0.0","Windows","10.0","https://app.prolific.com/","en-GB,en-US;q=0.9,en;q=0.8","67458e548861194752950b3e","683db6dfa200031b80f2a654","6865077054b85e2829b09a06","67458e548861194752950b3e","2025-07-02T10:31:31.519Z","","","","","","StressQ","","","","","","","","","","","","","","","","","","","","","","","","","","","","","","","","","","","","","","50"
"3720","","<div style=""width:500px;"">
  <p>What best describes how you currently feel?</p>
  </div>","29","html-slider-response","78","786836","0.0-10.0-4.7","19","1","2025-07-02 10:18:27","80fe4187154257d5fb01684ea91b68b9","78.84.164.26","Mozilla/5.0 (Windows NT 10.0; Win64; x64) AppleWebKit/537.36 (KHTML, like Gecko) Chrome/137.0.0.0 Safari/537.36","WebKit","Chrome","137.0.0.0","Windows","10.0","https://app.prolific.com/","en-GB,en-US;q=0.9,en;q=0.8","67458e548861194752950b3e","683db6dfa200031b80f2a654","6865077054b85e2829b09a06","67458e548861194752950b3e","2025-07-02T10:31:35.241Z","","","","","","MotivationQ","","","","","","","","","","","","","","","","","","","","","","","","","","","","","","","","","","","","","","50"
"","","","","ctl-task-cpt","79","825031","0.0-10.0-0.8","19","1","2025-07-02 10:18:27","80fe4187154257d5fb01684ea91b68b9","78.84.164.26","Mozilla/5.0 (Windows NT 10.0; Win64; x64) AppleWebKit/537.36 (KHTML, like Gecko) Chrome/137.0.0.0 Safari/537.36","WebKit","Chrome","137.0.0.0","Windows","10.0","https://app.prolific.com/","en-GB,en-US;q=0.9,en;q=0.8","67458e548861194752950b3e","683db6dfa200031b80f2a654","6865077054b85e2829b09a06","67458e548861194752950b3e","2025-07-02T10:32:13.435Z","","","","","","","","","","","","","","","","win-only","0","g1:NW,g2:SE","0.4","9","0","787885.5","1559","6561.2","35175.7","1","4","8","6","2","-8","-8","0","0","0","824.1","3000","-3005","[""down"",""right""]","{""num_key_presses"":9,""num_perfect"":3,""num_errors"":0,""num_randdir"":6,""num_randdir_good_moves"":1,""num_whilered"":0,""num_whileblue"":0,""num_blue"":1,""num_good_moves"":4}","[416.5714133126395,414.07142761775424,0.2,416.5714133126395,414.07142761775424,102.9,416.5714133126395,414.07142761775424,206.2,416.5714133126395,414.07142761775424,306.7,416.5714133126395,414.07142761775424,411.3,500.3214133126395,492.82142761775424,511.3,777.8214133126395,716.5714276177542,611.7,747.8214133126395,766.5714276177542,716.1,757.8214133126395,765.3214276177542,816.6,756.5714133126395,765.3214276177542,916.7,755.3214133126395,764.0714276177542,1021.3,749.0714133126395,762.8214276177542,1121.6,749.0714133126395,762.8214276177542,1227.4,749.0714133126395,761.5714276177542,1331.4,749.0714133126395,761.5714276177542,1431.7,749.0714133126395,761.5714276177542,1533.2,749.0714133126395,761.5714276177542,1636.4,749.0714133126395,761.5714276177542,1736.8,749.0714133126395,761.5714276177542,1837.1,749.0714133126395,761.5714276177542,1941.5,749.0714133126395,761.5714276177542,2041.9,749.0714133126395,761.5714276177542,2146.3,749.0714133126395,761.5714276177542,2246.8,749.0714133126395,761.5714276177542,2347.2,749.0714133126395,761.5714276177542,2451.1,749.0714133126395,761.5714276177542,2551.2,749.0714133126395,761.5714276177542,2652.7,749.0714133126395,761.5714276177542,2756.9,749.0714133126395,761.5714276177542,2861.1,749.0714133126395,761.5714276177542,2961.5,749.0714133126395,761.5714276177542,3067.8,749.0714133126395,761.5714276177542,3171.5,749.0714133126395,761.5714276177542,3271.9,749.0714133126395,761.5714276177542,3376.6,749.0714133126395,761.5714276177542,3476.7,747.8214133126395,761.5714276177542,3576.9,766.5714133126395,761.5714276177542,3681.7,766.5714133126395,761.5714276177542,3786.2,766.5714133126395,761.5714276177542,3887,766.5714133126395,761.5714276177542,3991.1,759.0714133126395,761.5714276177542,4091.5,756.5714133126395,761.5714276177542,4191.6,752.8214133126395,761.5714276177542,4297,751.5714133126395,761.5714276177542,4401.2,749.0714133126395,761.5714276177542,4501.3,744.0714133126395,761.5714276177542,4601.3,742.8214133126395,757.8214276177542,4701.9,740.3214133126395,757.8214276177542,4807.1,740.3214133126395,757.8214276177542,4912.8]","[1404.2,1404.2,1000,0,404.2,""smooth"",""down"",""down"",""good_move"",4266.8,2862.4,2545.9,1404.4,316.5,""oops"",""down"",""left"",""bad_move"",7190.5,2923.5,2602.5,4267,321,""smooth"",""right"",""right"",""good_move"",9666.2,2475.4,2169.2,7190.8,306.2,""oops"",""right"",""up"",""bad_move"",11642.9,1976.4,1589.3,9666.5,387.1,""oops"",""down"",""down"",""good_move"",13836.2,2192.9,1894.3,11643.3,298.6,""oops"",""down"",""left"",""bad_move"",16440.5,2603.9,2366.6,13836.6,237.3,""oops"",""right"",""up"",""bad_move"",18262.1,1821.5,1513.2,16440.7,308.3,""oops"",""down"",""left"",""bad_move"",21684.1,3421.8,3190.5,18262.3,231.3,""smooth"",""down"",""down"",""good_move""]","",""
"2155","","<div style=""width:500px;"">
  <p>What determined the result of this run?</p>
  </div>","0","html-slider-response","80","827186","0.0-10.0-1.8","19","1","2025-07-02 10:18:27","80fe4187154257d5fb01684ea91b68b9","78.84.164.26","Mozilla/5.0 (Windows NT 10.0; Win64; x64) AppleWebKit/537.36 (KHTML, like Gecko) Chrome/137.0.0.0 Safari/537.36","WebKit","Chrome","137.0.0.0","Windows","10.0","https://app.prolific.com/","en-GB,en-US;q=0.9,en;q=0.8","67458e548861194752950b3e","683db6dfa200031b80f2a654","6865077054b85e2829b09a06","67458e548861194752950b3e","2025-07-02T10:32:15.590Z","","","","","","AttribQ","","","","","","","","","","","","","","","","","","","","","","","","","","","","","","","","","","","","","","50"
"4447","","<div style=""width:500px;"">
  <p>How much control did you have over the ball?</p>
  </div>","0","html-slider-response","81","831634","0.0-10.0-2.8","19","1","2025-07-02 10:18:27","80fe4187154257d5fb01684ea91b68b9","78.84.164.26","Mozilla/5.0 (Windows NT 10.0; Win64; x64) AppleWebKit/537.36 (KHTML, like Gecko) Chrome/137.0.0.0 Safari/537.36","WebKit","Chrome","137.0.0.0","Windows","10.0","https://app.prolific.com/","en-GB,en-US;q=0.9,en;q=0.8","67458e548861194752950b3e","683db6dfa200031b80f2a654","6865077054b85e2829b09a06","67458e548861194752950b3e","2025-07-02T10:32:20.038Z","","","","","","ControlQ","","","","","","","","","","","","","","","","","","","","","","","","","","","","","","","","","","","","","","50"
"6397","","<div style=""width:500px;"">
  <p>How would you describe your current emotional state?</p>
  </div>","100","html-slider-response","82","838031","0.0-10.0-3.8","19","1","2025-07-02 10:18:27","80fe4187154257d5fb01684ea91b68b9","78.84.164.26","Mozilla/5.0 (Windows NT 10.0; Win64; x64) AppleWebKit/537.36 (KHTML, like Gecko) Chrome/137.0.0.0 Safari/537.36","WebKit","Chrome","137.0.0.0","Windows","10.0","https://app.prolific.com/","en-GB,en-US;q=0.9,en;q=0.8","67458e548861194752950b3e","683db6dfa200031b80f2a654","6865077054b85e2829b09a06","67458e548861194752950b3e","2025-07-02T10:32:26.435Z","","","","","","StressQ","","","","","","","","","","","","","","","","","","","","","","","","","","","","","","","","","","","","","","50"
"2362","","<div style=""width:500px;"">
  <p>What best describes how you currently feel?</p>
  </div>","0","html-slider-response","83","840393","0.0-10.0-4.8","19","1","2025-07-02 10:18:27","80fe4187154257d5fb01684ea91b68b9","78.84.164.26","Mozilla/5.0 (Windows NT 10.0; Win64; x64) AppleWebKit/537.36 (KHTML, like Gecko) Chrome/137.0.0.0 Safari/537.36","WebKit","Chrome","137.0.0.0","Windows","10.0","https://app.prolific.com/","en-GB,en-US;q=0.9,en;q=0.8","67458e548861194752950b3e","683db6dfa200031b80f2a654","6865077054b85e2829b09a06","67458e548861194752950b3e","2025-07-02T10:32:28.797Z","","","","","","MotivationQ","","","","","","","","","","","","","","","","","","","","","","","","","","","","","","","","","","","","","","50"
