"rt","response_timestamp","stimulus","response","trial_type","trial_index","time_elapsed","internal_node_id","run_id","condition","recorded_at","source_code_version","ip","user_agent","device","browser","browser_version","platform","platform_version","referer","accept_language","PROLIFIC_PID","STUDY_ID","SESSION_ID","prolific_id","realtime","view_history","question_order","consent","success","question_id","eventType","responses","item_order","radio_event_ids","radio_event_times","key_event_times","mouse_event_times","straightlining","zigzagging","honeypot","which_type","canvas_config","goals_layout","control_level","trial_number","tutorial_trial_number","trial_start_time","phase1_start_time","phase2_start_time","phase3_start_time","goal_1_value","goal_1_distance","goal_2_value","goal_2_distance","goal_selected","outcome","outcome_total","participant_final_score","participant_initial_score","participant_final_score_prop","goal_choice_rt","allocated_time","allocated_time_remaining","goal_direction","counts","mouse_movements","key_presses","correct","slider_start"
"11090","1751451831711","<p style='font-size:40px;line-height:1.25'><strong>Welcome to the experiment!</strong></p><p style='font-size:1.1em;line-height:1.25'>Thank you for your interest in our experiment! Before you begin, it is important that we obtain your informed consent to participate in the study.</p><p style='font-size:1.1em;line-height:1.25'>On the next screen will be an <strong>information sheet</strong> for you to read. To participate in the study we need you to read this information sheet and the following consent form carefully. If you agree with all the statements, please click the <strong>I agree</strong> button.</p><p style='font-size:1.1em;line-height:1.25'>Press <strong>Next</strong> to read the information sheet.</p>","0","custom-html-button-response","0","11096","0.0-0.0","177","1","2025-07-02 10:23:38","80fe4187154257d5fb01684ea91b68b9","105.245.115.171","Mozilla/5.0 (Windows NT 10.0; Win64; x64) AppleWebKit/537.36 (KHTML, like Gecko) Chrome/137.0.0.0 Safari/537.36","WebKit","Chrome","137.0.0.0","Windows","10.0","https://app.prolific.com/","en-US,en;q=0.9","6759c3924ac0cc133d603965","683db6dfa200031b80f2a654","6865078684c8bee2d6f2a6b0","6759c3924ac0cc133d603965","2025-07-02T10:23:51.713Z","","","","","","","","","","","","","","","","","","","","","","","","","","","","","","","","","","","","","","","","","","","",""
"43943","","","","instructions","1","55041","0.0-1.0","177","1","2025-07-02 10:23:38","80fe4187154257d5fb01684ea91b68b9","105.245.115.171","Mozilla/5.0 (Windows NT 10.0; Win64; x64) AppleWebKit/537.36 (KHTML, like Gecko) Chrome/137.0.0.0 Safari/537.36","WebKit","Chrome","137.0.0.0","Windows","10.0","https://app.prolific.com/","en-US,en;q=0.9","6759c3924ac0cc133d603965","683db6dfa200031b80f2a654","6865078684c8bee2d6f2a6b0","6759c3924ac0cc133d603965","","[{""page_index"":0,""viewing_time"":40391},{""page_index"":1,""viewing_time"":3552}]","","","","","","","","","","","","","","","","","","","","","","","","","","","","","","","","","","","","","","","","","","",""
"10169","","","{""Q0"":"""",""Q1"":"""",""Q2"":"""",""Q3"":"""",""Q4"":"""",""Q5"":"""",""Q6"":""I agree""}","survey-multi-choice","2","65214","0.0-2.0","177","1","2025-07-02 10:23:38","80fe4187154257d5fb01684ea91b68b9","105.245.115.171","Mozilla/5.0 (Windows NT 10.0; Win64; x64) AppleWebKit/537.36 (KHTML, like Gecko) Chrome/137.0.0.0 Safari/537.36","WebKit","Chrome","137.0.0.0","Windows","10.0","https://app.prolific.com/","en-US,en;q=0.9","6759c3924ac0cc133d603965","683db6dfa200031b80f2a654","6865078684c8bee2d6f2a6b0","6759c3924ac0cc133d603965","","","[0,1,2,3,4,5,6]","true","","","","","","","","","","","","","","","","","","","","","","","","","","","","","","","","","","","","","","","","",""
"6915","","","","fullscreen","3","73147","0.0-4.0","177","1","2025-07-02 10:23:38","80fe4187154257d5fb01684ea91b68b9","105.245.115.171","Mozilla/5.0 (Windows NT 10.0; Win64; x64) AppleWebKit/537.36 (KHTML, like Gecko) Chrome/137.0.0.0 Safari/537.36","WebKit","Chrome","137.0.0.0","Windows","10.0","https://app.prolific.com/","en-US,en;q=0.9","6759c3924ac0cc133d603965","683db6dfa200031b80f2a654","6865078684c8bee2d6f2a6b0","6759c3924ac0cc133d603965","","","","","true","","","","","","","","","","","","","","","","","","","","","","","","","","","","","","","","","","","","","","","",""
"349232","1751452242998"," <p style='font-size:1.1em;line-height:1.25'>Thank you for completing the consent form and closing all other tabs.</p><p style='font-size:1.1em;line-height:1.25'>We will now invite you to fill in some demographic information and questionnaires, before starting the game.<br>This will take about 5 minutes.<br></p><p style='font-size:1.1em;line-height:1.25'>Press the <strong>Next</strong> button to continue.</p>","0","custom-html-button-response","4","422383","0.0-5.0","177","1","2025-07-02 10:23:38","80fe4187154257d5fb01684ea91b68b9","105.245.115.171","Mozilla/5.0 (Windows NT 10.0; Win64; x64) AppleWebKit/537.36 (KHTML, like Gecko) Chrome/137.0.0.0 Safari/537.36","WebKit","Chrome","137.0.0.0","Windows","10.0","https://app.prolific.com/","en-US,en;q=0.9","6759c3924ac0cc133d603965","683db6dfa200031b80f2a654","6865078684c8bee2d6f2a6b0","6759c3924ac0cc133d603965","2025-07-02T10:30:42.999Z","","","","","","","","","","","","","","","","","","","","","","","","","","","","","","","","","","","","","","","","","","","",""
"69564","","","{""age"":""23""}","survey-text","5","491954","0.0-6.0-0.0","177","1","2025-07-02 10:23:38","80fe4187154257d5fb01684ea91b68b9","105.245.115.171","Mozilla/5.0 (Windows NT 10.0; Win64; x64) AppleWebKit/537.36 (KHTML, like Gecko) Chrome/137.0.0.0 Safari/537.36","WebKit","Chrome","137.0.0.0","Windows","10.0","https://app.prolific.com/","en-US,en;q=0.9","6759c3924ac0cc133d603965","683db6dfa200031b80f2a654","6865078684c8bee2d6f2a6b0","6759c3924ac0cc133d603965","","","","","","0","demographics","","","","","","","","","","","","","","","","","","","","","","","","","","","","","","","","","","","","","",""
"6839","","","{""gender_identity"":""male/man""}","survey-multi-choice","6","498796","0.0-6.0-1.0","177","1","2025-07-02 10:23:38","80fe4187154257d5fb01684ea91b68b9","105.245.115.171","Mozilla/5.0 (Windows NT 10.0; Win64; x64) AppleWebKit/537.36 (KHTML, like Gecko) Chrome/137.0.0.0 Safari/537.36","WebKit","Chrome","137.0.0.0","Windows","10.0","https://app.prolific.com/","en-US,en;q=0.9","6759c3924ac0cc133d603965","683db6dfa200031b80f2a654","6865078684c8bee2d6f2a6b0","6759c3924ac0cc133d603965","","","[0]","","","1","demographics","","","","","","","","","","","","","","","","","","","","","","","","","","","","","","","","","","","","","",""
"9497","","","{""assigned_sex"":""male""}","survey-multi-choice","7","508294","0.0-6.0-2.0","177","1","2025-07-02 10:23:38","80fe4187154257d5fb01684ea91b68b9","105.245.115.171","Mozilla/5.0 (Windows NT 10.0; Win64; x64) AppleWebKit/537.36 (KHTML, like Gecko) Chrome/137.0.0.0 Safari/537.36","WebKit","Chrome","137.0.0.0","Windows","10.0","https://app.prolific.com/","en-US,en;q=0.9","6759c3924ac0cc133d603965","683db6dfa200031b80f2a654","6865078684c8bee2d6f2a6b0","6759c3924ac0cc133d603965","","","[0]","","","2","demographics","","","","","","","","","","","","","","","","","","","","","","","","","","","","","","","","","","","","","",""
"7486","","","{""menstrual_cycle"":""No""}","survey-multi-choice","8","515783","0.0-6.0-3.0","177","1","2025-07-02 10:23:38","80fe4187154257d5fb01684ea91b68b9","105.245.115.171","Mozilla/5.0 (Windows NT 10.0; Win64; x64) AppleWebKit/537.36 (KHTML, like Gecko) Chrome/137.0.0.0 Safari/537.36","WebKit","Chrome","137.0.0.0","Windows","10.0","https://app.prolific.com/","en-US,en;q=0.9","6759c3924ac0cc133d603965","683db6dfa200031b80f2a654","6865078684c8bee2d6f2a6b0","6759c3924ac0cc133d603965","","","[0]","","","4","demographics","","","","","","","","","","","","","","","","","","","","","","","","","","","","","","","","","","","","","",""
"8340","","","{""education"":""Doctoral Degree (e.g., PhD)""}","survey-multi-choice","9","524125","0.0-6.0-4.0","177","1","2025-07-02 10:23:38","80fe4187154257d5fb01684ea91b68b9","105.245.115.171","Mozilla/5.0 (Windows NT 10.0; Win64; x64) AppleWebKit/537.36 (KHTML, like Gecko) Chrome/137.0.0.0 Safari/537.36","WebKit","Chrome","137.0.0.0","Windows","10.0","https://app.prolific.com/","en-US,en;q=0.9","6759c3924ac0cc133d603965","683db6dfa200031b80f2a654","6865078684c8bee2d6f2a6b0","6759c3924ac0cc133d603965","","","[0]","","","5","demographics","","","","","","","","","","","","","","","","","","","","","","","","","","","","","","","","","","","","","",""
"6807","","","{""education"":""Doctoral Degree (e.g., PhD)""}","survey-multi-choice","10","530934","0.0-6.0-5.0","177","1","2025-07-02 10:23:38","80fe4187154257d5fb01684ea91b68b9","105.245.115.171","Mozilla/5.0 (Windows NT 10.0; Win64; x64) AppleWebKit/537.36 (KHTML, like Gecko) Chrome/137.0.0.0 Safari/537.36","WebKit","Chrome","137.0.0.0","Windows","10.0","https://app.prolific.com/","en-US,en;q=0.9","6759c3924ac0cc133d603965","683db6dfa200031b80f2a654","6865078684c8bee2d6f2a6b0","6759c3924ac0cc133d603965","2025-07-02T10:32:31.550Z","","[0]","","","6","demographics","","","","","","","","","","","","","","","","","","","","","","","","","","","","","","","","","","","","","",""
"59177","","","{""mental_health_condition"":""depression"",""mental_health_treatment"":""m seeing a therapy"",""psychiatric_medication"":""""}","survey-text","11","590115","0.0-7.0-0.0","177","1","2025-07-02 10:23:38","80fe4187154257d5fb01684ea91b68b9","105.245.115.171","Mozilla/5.0 (Windows NT 10.0; Win64; x64) AppleWebKit/537.36 (KHTML, like Gecko) Chrome/137.0.0.0 Safari/537.36","WebKit","Chrome","137.0.0.0","Windows","10.0","https://app.prolific.com/","en-US,en;q=0.9","6759c3924ac0cc133d603965","683db6dfa200031b80f2a654","6865078684c8bee2d6f2a6b0","6759c3924ac0cc133d603965","2025-07-02T10:33:30.732Z","","","","","1","mental_health","","","","","","","","","","","","","","","","","","","","","","","","","","","","","","","","","","","","","",""
"14842","","","{""depression_history"":[""Yes""]}","survey-multi-select","12","604962","0.0-7.0-1.0","177","1","2025-07-02 10:23:38","80fe4187154257d5fb01684ea91b68b9","105.245.115.171","Mozilla/5.0 (Windows NT 10.0; Win64; x64) AppleWebKit/537.36 (KHTML, like Gecko) Chrome/137.0.0.0 Safari/537.36","WebKit","Chrome","137.0.0.0","Windows","10.0","https://app.prolific.com/","en-US,en;q=0.9","6759c3924ac0cc133d603965","683db6dfa200031b80f2a654","6865078684c8bee2d6f2a6b0","6759c3924ac0cc133d603965","","","[0]","","","","mental_health","","","","","","","","","","","","","","","","","","","","","","","","","","","","","","","","","","","","","",""
"11033","","","{""depression_episodes"":""3-5"",""depression_recent"":""Within the past year""}","survey-multi-choice","13","615998","0.0-7.0-2.0-0.0","177","1","2025-07-02 10:23:38","80fe4187154257d5fb01684ea91b68b9","105.245.115.171","Mozilla/5.0 (Windows NT 10.0; Win64; x64) AppleWebKit/537.36 (KHTML, like Gecko) Chrome/137.0.0.0 Safari/537.36","WebKit","Chrome","137.0.0.0","Windows","10.0","https://app.prolific.com/","en-US,en;q=0.9","6759c3924ac0cc133d603965","683db6dfa200031b80f2a654","6865078684c8bee2d6f2a6b0","6759c3924ac0cc133d603965","2025-07-02T10:33:56.614Z","","[0,1]","","","3","mental_health","","","","","","","","","","","","","","","","","","","","","","","","","","","","","","","","","","","","","",""
"182446.6000000015","","","","survey-template","14","798449","0.0-7.0-3.0","177","1","2025-07-02 10:23:38","80fe4187154257d5fb01684ea91b68b9","105.245.115.171","Mozilla/5.0 (Windows NT 10.0; Win64; x64) AppleWebKit/537.36 (KHTML, like Gecko) Chrome/137.0.0.0 Safari/537.36","WebKit","Chrome","137.0.0.0","Windows","10.0","https://app.prolific.com/","en-US,en;q=0.9","6759c3924ac0cc133d603965","683db6dfa200031b80f2a654","6865078684c8bee2d6f2a6b0","6759c3924ac0cc133d603965","2025-07-02T10:36:59.065Z","","","","","","ius","{""Q01"":""3"",""Q02"":""2"",""Q03"":""1"",""Q04"":""3"",""Q05"":""3"",""Q06"":""2"",""Q07"":""2"",""Q08"":""0"",""Q09"":""3"",""Q10"":""2"",""Q11"":""2"",""Q12"":""1"",""Q13"":""3""}","[0,1,2,3,4,5,6,7,8,9,10,11,12]","[""Q01"",""Q02"",""Q03"",""Q04"",""Q05"",""Q06"",""Q07"",""Q08"",""Q08"",""Q09"",""Q10"",""Q11"",""Q12"",""Q13""]","[13309.79999999702,97724.29999999702,100585.60000000149,104441.29999999702,138495.79999999702,140088.6000000015,143809.79999999702,147580.5,153910,161114.3999999985,170254.19999999553,172142.6000000015,174585.29999999702,180066.8999999985]","[]","[13309.79999999702,94274.10000000149,97724.29999999702,100585.60000000149,102976,104441.29999999702,134426.69999999553,138152.5,138495.79999999702,140088.6000000015,143809.79999999702,146481.5,147580.5,153910,159903.29999999702,161114.3999999985,167419.69999999553,170254.19999999553,172142.6000000015,174585.29999999702,177291.8999999985,178523.1000000015,180066.8999999985,182443.6000000015]","0.38461538461538464","0.4166666666666667","0","","","","","","","","","","","","","","","","","","","","","","","","","","","","",""
"6796","1751452625863","<p style='font-size:1.1em;line-height:1.25'>In the following, we will ask you a few questions relating to your experiences over the past month.<br></p><p style='font-size:1.1em;line-height:1.25'>Press the <strong>Next</strong> button to continue.</p>","0","custom-html-button-response","15","805247","0.0-7.0-4.0","177","1","2025-07-02 10:23:38","80fe4187154257d5fb01684ea91b68b9","105.245.115.171","Mozilla/5.0 (Windows NT 10.0; Win64; x64) AppleWebKit/537.36 (KHTML, like Gecko) Chrome/137.0.0.0 Safari/537.36","WebKit","Chrome","137.0.0.0","Windows","10.0","https://app.prolific.com/","en-US,en;q=0.9","6759c3924ac0cc133d603965","683db6dfa200031b80f2a654","6865078684c8bee2d6f2a6b0","6759c3924ac0cc133d603965","2025-07-02T10:37:05.863Z","","","","","","","","","","","","","","","","","","","","","","","","","","","","","","","","","","","","","","","","","","","",""
"80878.70000000298","","","","survey-template","16","886129","0.0-7.0-5.0","177","1","2025-07-02 10:23:38","80fe4187154257d5fb01684ea91b68b9","105.245.115.171","Mozilla/5.0 (Windows NT 10.0; Win64; x64) AppleWebKit/537.36 (KHTML, like Gecko) Chrome/137.0.0.0 Safari/537.36","WebKit","Chrome","137.0.0.0","Windows","10.0","https://app.prolific.com/","en-US,en;q=0.9","6759c3924ac0cc133d603965","683db6dfa200031b80f2a654","6865078684c8bee2d6f2a6b0","6759c3924ac0cc133d603965","2025-07-02T10:38:26.745Z","","","","","","pss","{""Q01"":""2"",""Q02"":""1"",""Q03"":""2"",""Q04"":""1"",""Q05"":""2"",""Q06"":""2"",""Q07"":""1"",""Q08"":""1"",""Q09"":""1"",""Q10"":""2""}","[0,1,2,3,4,5,6,7,8,9]","[""Q01"",""Q02"",""Q03"",""Q04"",""Q05"",""Q07"",""Q08"",""Q09"",""Q10"",""Q06""]","[11565.29999999702,14653.60000000149,18122.10000000149,39992.29999999702,46572.10000000149,57404.39999999851,60229,63891.39999999851,65988,78522.60000000149]","[]","[0.10000000149011612,11565.29999999702,14653.60000000149,18122.10000000149,39992.29999999702,46572.10000000149,57404.39999999851,60229,63891.39999999851,65988,68375.79999999702,78522.60000000149,80876.79999999702]","0.5","0.6666666666666666","0","","","","","","","","","","","","","","","","","","","","","","","","","","","","",""
"9314","1751452716060","<p style='font-size:1.1em;line-height:1.25'>Thank you for your answers! Now we will ask you a few more questions relating to your feelings in the last 24 hours.<br></p><p style='font-size:1.1em;line-height:1.25'>Press the <strong>Next</strong> button to continue.</p>","0","custom-html-button-response","17","895445","0.0-7.0-6.0","177","1","2025-07-02 10:23:38","80fe4187154257d5fb01684ea91b68b9","105.245.115.171","Mozilla/5.0 (Windows NT 10.0; Win64; x64) AppleWebKit/537.36 (KHTML, like Gecko) Chrome/137.0.0.0 Safari/537.36","WebKit","Chrome","137.0.0.0","Windows","10.0","https://app.prolific.com/","en-US,en;q=0.9","6759c3924ac0cc133d603965","683db6dfa200031b80f2a654","6865078684c8bee2d6f2a6b0","6759c3924ac0cc133d603965","2025-07-02T10:38:36.061Z","","","","","","","","","","","","","","","","","","","","","","","","","","","","","","","","","","","","","","","","","","","",""
"79644.19999999553","","","","survey-template","18","975094","0.0-7.0-7.0","177","1","2025-07-02 10:23:38","80fe4187154257d5fb01684ea91b68b9","105.245.115.171","Mozilla/5.0 (Windows NT 10.0; Win64; x64) AppleWebKit/537.36 (KHTML, like Gecko) Chrome/137.0.0.0 Safari/537.36","WebKit","Chrome","137.0.0.0","Windows","10.0","https://app.prolific.com/","en-US,en;q=0.9","6759c3924ac0cc133d603965","683db6dfa200031b80f2a654","6865078684c8bee2d6f2a6b0","6759c3924ac0cc133d603965","2025-07-02T10:39:55.710Z","","","","","","drsp","{""Q01"":""1"",""Q02"":""1"",""Q03"":""0"",""Q04"":""2"",""Q05"":""2"",""Q06"":""3"",""Q07"":""1"",""Q08"":""4"",""Q09"":""4"",""Q10"":""1"",""Q11"":""2"",""Q12"":""3"",""Q13"":""4"",""Q14"":""1"",""Q15"":""1"",""Q16"":""2"",""Q17"":""2"",""Q18"":""1"",""Q19"":""3"",""Q20"":""2"",""Q21"":""3""}","[0,1,2,3,4,5,6,7,8,9,10,11,12,13,14,15,16,17,18,19,20]","[""Q02"",""Q01"",""Q03"",""Q04"",""Q05"",""Q06"",""Q07"",""Q08"",""Q09"",""Q10"",""Q11"",""Q12"",""Q14"",""Q13"",""Q15"",""Q16"",""Q17"",""Q18"",""Q19"",""Q18"",""Q20"",""Q21""]","[3535.2999999970198,5601.39999999851,9023.5,11303.39999999851,12709.39999999851,14793.69999999553,17815.59999999404,24022.69999999553,25919,34385.09999999404,36529.09999999404,39979.89999999851,46552.69999999553,52023.5,54174.09999999404,55522.39999999851,58033.39999999851,66527.09999999404,68384.79999999702,72658.5,75310,78008.29999999702]","[]","[0.09999999403953552,3535.2999999970198,5601.39999999851,9023.5,11303.39999999851,12709.39999999851,14793.69999999553,17815.59999999404,24022.69999999553,25919,30050.79999999702,34385.09999999404,36529.09999999404,39979.89999999851,41615.19999999553,46552.69999999553,52023.5,54174.09999999404,55522.39999999851,58033.39999999851,64893.39999999851,66527.09999999404,68384.79999999702,72658.5,75310,76768.39999999851,78008.29999999702,79639.89999999851]","0.3333333333333333","0.45","0","","","","","","","","","","","","","","","","","","","","","","","","","","","","",""
"23927.90000000596","","","","survey-template","19","999024","0.0-7.0-8.0","177","1","2025-07-02 10:23:38","80fe4187154257d5fb01684ea91b68b9","105.245.115.171","Mozilla/5.0 (Windows NT 10.0; Win64; x64) AppleWebKit/537.36 (KHTML, like Gecko) Chrome/137.0.0.0 Safari/537.36","WebKit","Chrome","137.0.0.0","Windows","10.0","https://app.prolific.com/","en-US,en;q=0.9","6759c3924ac0cc133d603965","683db6dfa200031b80f2a654","6865078684c8bee2d6f2a6b0","6759c3924ac0cc133d603965","2025-07-02T10:40:19.640Z","","","","","","stress","{""Q01"":""2"",""Q02"":""4"",""Q03"":""3""}","[0,1,2]","[""Q02"",""Q01"",""Q03""]","[11935.10000000149,19421,22385.30000000447]","[]","[9430.70000000298,11935.10000000149,13582.40000000596,16221.5,19421,22385.30000000447,23926.90000000596]","0.3333333333333333","0.5","0","","","","","","","","","","","","","","","","","","","","","","","","","","","","",""
"220286","","","","instructions","20","1219311","0.0-8.0-0.0","177","1","2025-07-02 10:23:38","80fe4187154257d5fb01684ea91b68b9","105.245.115.171","Mozilla/5.0 (Windows NT 10.0; Win64; x64) AppleWebKit/537.36 (KHTML, like Gecko) Chrome/137.0.0.0 Safari/537.36","WebKit","Chrome","137.0.0.0","Windows","10.0","https://app.prolific.com/","en-US,en;q=0.9","6759c3924ac0cc133d603965","683db6dfa200031b80f2a654","6865078684c8bee2d6f2a6b0","6759c3924ac0cc133d603965","","[{""page_index"":0,""viewing_time"":120466},{""page_index"":1,""viewing_time"":41734},{""page_index"":2,""viewing_time"":31238},{""page_index"":3,""viewing_time"":26848}]","","","","","","","","","","","","","","","","","","","","","","","","","","","","","","","","","","","","","","","","","","",""
"","","","","ctl-task-cpt","21","1245482","0.0-8.0-1.0","177","1","2025-07-02 10:23:38","80fe4187154257d5fb01684ea91b68b9","105.245.115.171","Mozilla/5.0 (Windows NT 10.0; Win64; x64) AppleWebKit/537.36 (KHTML, like Gecko) Chrome/137.0.0.0 Safari/537.36","WebKit","Chrome","137.0.0.0","Windows","10.0","https://app.prolific.com/","en-US,en;q=0.9","6759c3924ac0cc133d603965","683db6dfa200031b80f2a654","6865078684c8bee2d6f2a6b0","6759c3924ac0cc133d603965","","","","","","","","","","","","","","","","","win-only","2","g1:SE,g2:NW","1","0","1","1222080","5824.2","9828.5","23164.2","2","4","4","6","1","-2","-5","0","0","0","4004.2","4000","-2100","[""down"",""right""]","{""num_key_presses"":11,""num_perfect"":1,""num_errors"":3,""num_randdir"":0,""num_randdir_good_moves"":0,""num_whilered"":7,""num_whileblue"":0,""num_blue"":0,""num_good_moves"":1}","[245.24598214285714,241.63660714285714,0.3,245.24598214285714,241.63660714285714,107.5,245.24598214285714,241.63660714285714,214.1,245.24598214285714,241.63660714285714,317.8,245.24598214285714,241.63660714285714,428.5,245.24598214285714,241.63660714285714,534.7,245.24598214285714,241.63660714285714,635,245.24598214285714,241.63660714285714,747.1,245.24598214285714,241.63660714285714,853.3,245.24598214285714,241.63660714285714,956.5,245.24598214285714,241.63660714285714,1057.2,245.24598214285714,241.63660714285714,1164.5,245.24598214285714,241.63660714285714,1265.3,245.24598214285714,241.63660714285714,1366.1,245.24598214285714,241.63660714285714,1467.6,245.24598214285714,241.63660714285714,1576.4,245.24598214285714,241.63660714285714,1676.5,245.24598214285714,241.63660714285714,1777.1,245.24598214285714,241.63660714285714,1883.4,245.24598214285714,241.63660714285714,1987,245.24598214285714,241.63660714285714,2093.6,245.24598214285714,241.63660714285714,2194.4,245.24598214285714,241.63660714285714,2294.4,245.24598214285714,241.63660714285714,2400.8,245.24598214285714,241.63660714285714,2503.6,245.24598214285714,241.63660714285714,2608,253.24598214285714,237.63660714285714,2710.5,275.24598214285714,216.63660714285714,2813.3,293.24598214285714,209.63660714285714,2916.1,300.24598214285714,208.63660714285714,3016.4,308.24598214285714,208.63660714285714,3118.4,322.24598214285714,208.63660714285714,3221.1,332.24598214285714,208.63660714285714,3326.3,344.24598214285714,208.63660714285714,3428.1,348.24598214285714,203.63660714285714,3528.8,354.24598214285714,193.63660714285714,3629.4,354.24598214285714,193.63660714285714,3738.3,354.24598214285714,193.63660714285714,3845.8,354.24598214285714,193.63660714285714,3947.5]","[4396.4,4396.4,1000,0.1,3396.3,""smooth"",""right"",""right"",""good_move"",4621.6,224.7,2674.2,4397,-2449.6,""error"",""-"",""-"",""no_move"",5217.9,596.1,2674.2,4397,-1853.3,""while_red"",""-"",""-"",""no_move"",5464,842.2,2674.2,4397,-1607.2,""while_red"",""-"",""-"",""no_move"",5687.2,1065.4,2995.7,5623.6,-2932.1,""error"",""-"",""-"",""no_move"",5791.2,103.9,2995.7,5623.6,-2828.1,""while_red"",""-"",""-"",""no_move"",6257.7,570.4,2995.7,5623.6,-2361.6,""while_red"",""-"",""-"",""no_move"",6369.1,681.8,2995.7,5623.6,-2250.2,""while_red"",""-"",""-"",""no_move"",6900.1,1212.8,1933.7,6693.9,-1727.5,""error"",""-"",""-"",""no_move"",7192.7,292.5,1933.7,6693.9,-1434.9,""while_red"",""-"",""-"",""no_move"",7540,639.8,1933.7,6693.9,-1087.6,""while_red"",""-"",""-"",""no_move""]","",""
"4228","","","","instructions","22","1249712","0.0-8.0-2.0","177","1","2025-07-02 10:23:38","80fe4187154257d5fb01684ea91b68b9","105.245.115.171","Mozilla/5.0 (Windows NT 10.0; Win64; x64) AppleWebKit/537.36 (KHTML, like Gecko) Chrome/137.0.0.0 Safari/537.36","WebKit","Chrome","137.0.0.0","Windows","10.0","https://app.prolific.com/","en-US,en;q=0.9","6759c3924ac0cc133d603965","683db6dfa200031b80f2a654","6865078684c8bee2d6f2a6b0","6759c3924ac0cc133d603965","","[{""page_index"":0,""viewing_time"":4227}]","","","","","","","","","","","","","","","","","","","","","","","","","","","","","","","","","","","","","","","","","","",""
"","","","","ctl-task-cpt","23","1294870","0.0-8.0-3.0","177","1","2025-07-02 10:23:38","80fe4187154257d5fb01684ea91b68b9","105.245.115.171","Mozilla/5.0 (Windows NT 10.0; Win64; x64) AppleWebKit/537.36 (KHTML, like Gecko) Chrome/137.0.0.0 Safari/537.36","WebKit","Chrome","137.0.0.0","Windows","10.0","https://app.prolific.com/","en-US,en;q=0.9","6759c3924ac0cc133d603965","683db6dfa200031b80f2a654","6865078684c8bee2d6f2a6b0","6759c3924ac0cc133d603965","","","","","","","","","","","","","","","","","win-only","2","g1:SE,g2:NW","0.35","0","3","1252478.4","2607.3","6617.9","42135.9","2","4","8","6","1","2","-4","0","0","0","1945.3","4000","1780","[""down"",""right""]","{""num_key_presses"":13,""num_perfect"":4,""num_errors"":6,""num_randdir"":1,""num_randdir_good_moves"":1,""num_whilered"":2,""num_whileblue"":1,""num_blue"":4,""num_good_moves"":5}","[244.24598214285714,249.63660714285714,3.1,244.24598214285714,249.63660714285714,108.9,244.24598214285714,249.63660714285714,218.6,244.24598214285714,249.63660714285714,327.8,244.24598214285714,249.63660714285714,429.9,244.24598214285714,249.63660714285714,531.7,244.24598214285714,249.63660714285714,639.4,244.24598214285714,249.63660714285714,745.8,244.24598214285714,249.63660714285714,849.1,274.24598214285714,264.63660714285714,954.8,345.24598214285714,302.63660714285714,1055,370.24598214285714,330.63660714285714,1160.2,387.24598214285714,359.63660714285714,1261.1,405.24598214285714,391.63660714285714,1368.4,439.24598214285714,451.63660714285714,1480.6,449.24598214285714,469.63660714285714,1589.1,449.24598214285714,469.63660714285714,1689.4,449.24598214285714,469.63660714285714,1798.7,449.24598214285714,469.63660714285714,1905.7,449.24598214285714,469.63660714285714,2008.1,449.24598214285714,469.63660714285714,2117.8,449.24598214285714,469.63660714285714,2218.5,449.24598214285714,469.63660714285714,2328.1,449.24598214285714,469.63660714285714,2428.5,449.24598214285714,469.63660714285714,2528.9,449.24598214285714,469.63660714285714,2628.9,449.24598214285714,469.63660714285714,2729.5,449.24598214285714,469.63660714285714,2829.8,449.24598214285714,469.63660714285714,2932.3,449.24598214285714,469.63660714285714,3040.7,449.24598214285714,469.63660714285714,3148,449.24598214285714,469.63660714285714,3253.5,449.24598214285714,469.63660714285714,3362,449.24598214285714,469.63660714285714,3469.1,449.24598214285714,469.63660714285714,3578.9,449.24598214285714,469.63660714285714,3687.8,449.24598214285714,469.63660714285714,3798.7,449.24598214285714,469.63660714285714,3899.6]","[1977.4,1977.4,1000,0,977.4,""smooth"",""right"",""right"",""good_move"",2274.6,295.7,1784.7,1978.9,-1489,""error"",""-"",""-"",""no_move"",3257.5,982.3,1784.7,1978.9,-506.1,""while_red"",""-"",""-"",""no_move"",9080.4,6805.2,1328.5,7268.6,483.3,""smooth"",""right"",""right"",""good_move"",9684.7,603.9,2471.1,9080.8,-1867.2,""error"",""-"",""-"",""no_move"",13488.2,3803.1,2726.3,10687.9,74,""while_blue"",""down"",""up"",""bad_move"",13865.6,376.2,2011.6,13489.4,-1635.3,""error"",""-"",""-"",""no_move"",18330.6,4464.8,2924.1,14877.4,529.2,""smooth"",""down"",""down"",""good_move"",20023.4,1692,2506.6,18331.5,-814.6,""error"",""-"",""-"",""no_move"",20287.9,263.7,2506.6,18331.5,-550.2,""while_red"",""-"",""-"",""no_move"",30304.3,10280.1,1854.5,27708.6,741.2,""smooth"",""down"",""down"",""good_move"",31438.8,1133.7,2197.3,30305.2,-1063.7,""error"",""-"",""-"",""no_move"",35387.1,3947.4,2329.3,32448,610,""oops"",""down"",""down"",""good_move""]","",""
"31587","","","","instructions","24","1326459","0.0-8.0-4.0","177","1","2025-07-02 10:23:38","80fe4187154257d5fb01684ea91b68b9","105.245.115.171","Mozilla/5.0 (Windows NT 10.0; Win64; x64) AppleWebKit/537.36 (KHTML, like Gecko) Chrome/137.0.0.0 Safari/537.36","WebKit","Chrome","137.0.0.0","Windows","10.0","https://app.prolific.com/","en-US,en;q=0.9","6759c3924ac0cc133d603965","683db6dfa200031b80f2a654","6865078684c8bee2d6f2a6b0","6759c3924ac0cc133d603965","","[{""page_index"":0,""viewing_time"":20313},{""page_index"":1,""viewing_time"":11274}]","","","","","","","","","","","","","","","","","","","","","","","","","","","","","","","","","","","","","","","","","","",""
"14577","","","{""green_ball"":[""Ball doesn‘t move and I get -1 penalty point""]}","survey-multi-select","25","1341040","0.0-8.0-5.0-0.0","177","1","2025-07-02 10:23:38","80fe4187154257d5fb01684ea91b68b9","105.245.115.171","Mozilla/5.0 (Windows NT 10.0; Win64; x64) AppleWebKit/537.36 (KHTML, like Gecko) Chrome/137.0.0.0 Safari/537.36","WebKit","Chrome","137.0.0.0","Windows","10.0","https://app.prolific.com/","en-US,en;q=0.9","6759c3924ac0cc133d603965","683db6dfa200031b80f2a654","6865078684c8bee2d6f2a6b0","6759c3924ac0cc133d603965","","","[0]","","","","quiz","","","","","","","","","","","","","","","","","","","","","","","","","","","","","","","","","","","","","false",""
"8165","","<p align='center'><b>INCORRECT.</b> Usually the green ball moves in the indicated direction, but sometimes it shakes and moves randomly. </p>","0","html-button-response","26","1349208","0.0-8.0-5.0-1.0","177","1","2025-07-02 10:23:38","80fe4187154257d5fb01684ea91b68b9","105.245.115.171","Mozilla/5.0 (Windows NT 10.0; Win64; x64) AppleWebKit/537.36 (KHTML, like Gecko) Chrome/137.0.0.0 Safari/537.36","WebKit","Chrome","137.0.0.0","Windows","10.0","https://app.prolific.com/","en-US,en;q=0.9","6759c3924ac0cc133d603965","683db6dfa200031b80f2a654","6865078684c8bee2d6f2a6b0","6759c3924ac0cc133d603965","","","","","","","","","","","","","","","","","","","","","","","","","","","","","","","","","","","","","","","","","","","","",""
"15697","","","{""green_ball"":[""Ball always moves in the direction I press""]}","survey-multi-select","27","1364909","0.0-8.0-5.1-0.1","177","1","2025-07-02 10:23:38","80fe4187154257d5fb01684ea91b68b9","105.245.115.171","Mozilla/5.0 (Windows NT 10.0; Win64; x64) AppleWebKit/537.36 (KHTML, like Gecko) Chrome/137.0.0.0 Safari/537.36","WebKit","Chrome","137.0.0.0","Windows","10.0","https://app.prolific.com/","en-US,en;q=0.9","6759c3924ac0cc133d603965","683db6dfa200031b80f2a654","6865078684c8bee2d6f2a6b0","6759c3924ac0cc133d603965","","","[0]","","","","quiz","","","","","","","","","","","","","","","","","","","","","","","","","","","","","","","","","","","","","false",""
"2095","","<p align='center'><b>INCORRECT.</b> Usually the green ball moves in the indicated direction, but sometimes it shakes and moves randomly. </p>","0","html-button-response","28","1367006","0.0-8.0-5.1-1.1","177","1","2025-07-02 10:23:38","80fe4187154257d5fb01684ea91b68b9","105.245.115.171","Mozilla/5.0 (Windows NT 10.0; Win64; x64) AppleWebKit/537.36 (KHTML, like Gecko) Chrome/137.0.0.0 Safari/537.36","WebKit","Chrome","137.0.0.0","Windows","10.0","https://app.prolific.com/","en-US,en;q=0.9","6759c3924ac0cc133d603965","683db6dfa200031b80f2a654","6865078684c8bee2d6f2a6b0","6759c3924ac0cc133d603965","","","","","","","","","","","","","","","","","","","","","","","","","","","","","","","","","","","","","","","","","","","","",""
"7052","","","{""green_ball"":[""Ball sometimes shakes and moves in a random direction""]}","survey-multi-select","29","1374062","0.0-8.0-5.2-0.2","177","1","2025-07-02 10:23:38","80fe4187154257d5fb01684ea91b68b9","105.245.115.171","Mozilla/5.0 (Windows NT 10.0; Win64; x64) AppleWebKit/537.36 (KHTML, like Gecko) Chrome/137.0.0.0 Safari/537.36","WebKit","Chrome","137.0.0.0","Windows","10.0","https://app.prolific.com/","en-US,en;q=0.9","6759c3924ac0cc133d603965","683db6dfa200031b80f2a654","6865078684c8bee2d6f2a6b0","6759c3924ac0cc133d603965","","","[0]","","","","quiz","","","","","","","","","","","","","","","","","","","","","","","","","","","","","","","","","","","","","true",""
"32559","","<p align='center'><b>CORRECT!</b> Indeed, the green ball may sometimes shake and move in a random direction.</p>","0","html-button-response","30","1406622","0.0-8.0-5.2-1.2","177","1","2025-07-02 10:23:38","80fe4187154257d5fb01684ea91b68b9","105.245.115.171","Mozilla/5.0 (Windows NT 10.0; Win64; x64) AppleWebKit/537.36 (KHTML, like Gecko) Chrome/137.0.0.0 Safari/537.36","WebKit","Chrome","137.0.0.0","Windows","10.0","https://app.prolific.com/","en-US,en;q=0.9","6759c3924ac0cc133d603965","683db6dfa200031b80f2a654","6865078684c8bee2d6f2a6b0","6759c3924ac0cc133d603965","","","","","","","","","","","","","","","","","","","","","","","","","","","","","","","","","","","","","","","","","","","","",""
"83416","","","{""yellow_ball"":[""Ball sometimes shakes and moves in a random direction""]}","survey-multi-select","31","1490042","0.0-8.0-6.0-0.0","177","1","2025-07-02 10:23:38","80fe4187154257d5fb01684ea91b68b9","105.245.115.171","Mozilla/5.0 (Windows NT 10.0; Win64; x64) AppleWebKit/537.36 (KHTML, like Gecko) Chrome/137.0.0.0 Safari/537.36","WebKit","Chrome","137.0.0.0","Windows","10.0","https://app.prolific.com/","en-US,en;q=0.9","6759c3924ac0cc133d603965","683db6dfa200031b80f2a654","6865078684c8bee2d6f2a6b0","6759c3924ac0cc133d603965","","","[0]","","","","quiz","","","","","","","","","","","","","","","","","","","","","","","","","","","","","","","","","","","","","false",""
"3996","","<p align='center'><b>INCORRECT.</b> The yellow ball never moves and you reveice a penalty if you press anyways. </p>","0","html-button-response","32","1494041","0.0-8.0-6.0-1.0","177","1","2025-07-02 10:23:38","80fe4187154257d5fb01684ea91b68b9","105.245.115.171","Mozilla/5.0 (Windows NT 10.0; Win64; x64) AppleWebKit/537.36 (KHTML, like Gecko) Chrome/137.0.0.0 Safari/537.36","WebKit","Chrome","137.0.0.0","Windows","10.0","https://app.prolific.com/","en-US,en;q=0.9","6759c3924ac0cc133d603965","683db6dfa200031b80f2a654","6865078684c8bee2d6f2a6b0","6759c3924ac0cc133d603965","","","","","","","","","","","","","","","","","","","","","","","","","","","","","","","","","","","","","","","","","","","","",""
"4734","","","{""yellow_ball"":[""Ball doesn‘t move and I get -1 penalty point""]}","survey-multi-select","33","1498778","0.0-8.0-6.1-0.1","177","1","2025-07-02 10:23:38","80fe4187154257d5fb01684ea91b68b9","105.245.115.171","Mozilla/5.0 (Windows NT 10.0; Win64; x64) AppleWebKit/537.36 (KHTML, like Gecko) Chrome/137.0.0.0 Safari/537.36","WebKit","Chrome","137.0.0.0","Windows","10.0","https://app.prolific.com/","en-US,en;q=0.9","6759c3924ac0cc133d603965","683db6dfa200031b80f2a654","6865078684c8bee2d6f2a6b0","6759c3924ac0cc133d603965","","","[0]","","","","quiz","","","","","","","","","","","","","","","","","","","","","","","","","","","","","","","","","","","","","true",""
"2079","","<p align='center'><b>CORRECT!</b> Indeed, the yellow ball never moves and you receive a penalty.</p>","0","html-button-response","34","1500859","0.0-8.0-6.1-1.1","177","1","2025-07-02 10:23:38","80fe4187154257d5fb01684ea91b68b9","105.245.115.171","Mozilla/5.0 (Windows NT 10.0; Win64; x64) AppleWebKit/537.36 (KHTML, like Gecko) Chrome/137.0.0.0 Safari/537.36","WebKit","Chrome","137.0.0.0","Windows","10.0","https://app.prolific.com/","en-US,en;q=0.9","6759c3924ac0cc133d603965","683db6dfa200031b80f2a654","6865078684c8bee2d6f2a6b0","6759c3924ac0cc133d603965","","","","","","","","","","","","","","","","","","","","","","","","","","","","","","","","","","","","","","","","","","","","",""
"5193","","","{""blue_ball"":[""Ball sometimes shakes and moves in a random direction""]}","survey-multi-select","35","1506054","0.0-8.0-7.0-0.0","177","1","2025-07-02 10:23:38","80fe4187154257d5fb01684ea91b68b9","105.245.115.171","Mozilla/5.0 (Windows NT 10.0; Win64; x64) AppleWebKit/537.36 (KHTML, like Gecko) Chrome/137.0.0.0 Safari/537.36","WebKit","Chrome","137.0.0.0","Windows","10.0","https://app.prolific.com/","en-US,en;q=0.9","6759c3924ac0cc133d603965","683db6dfa200031b80f2a654","6865078684c8bee2d6f2a6b0","6759c3924ac0cc133d603965","","","[0]","","","","quiz","","","","","","","","","","","","","","","","","","","","","","","","","","","","","","","","","","","","","false",""
"2903","","<p align='center'><b>INCORRECT.</b> The blue ball always shakes and moves randomly.</p>","0","html-button-response","36","1508959","0.0-8.0-7.0-1.0","177","1","2025-07-02 10:23:38","80fe4187154257d5fb01684ea91b68b9","105.245.115.171","Mozilla/5.0 (Windows NT 10.0; Win64; x64) AppleWebKit/537.36 (KHTML, like Gecko) Chrome/137.0.0.0 Safari/537.36","WebKit","Chrome","137.0.0.0","Windows","10.0","https://app.prolific.com/","en-US,en;q=0.9","6759c3924ac0cc133d603965","683db6dfa200031b80f2a654","6865078684c8bee2d6f2a6b0","6759c3924ac0cc133d603965","","","","","","","","","","","","","","","","","","","","","","","","","","","","","","","","","","","","","","","","","","","","",""
"10831","","","{""blue_ball"":[""Ball always shakes and moves in a random direction""]}","survey-multi-select","37","1519794","0.0-8.0-7.1-0.1","177","1","2025-07-02 10:23:38","80fe4187154257d5fb01684ea91b68b9","105.245.115.171","Mozilla/5.0 (Windows NT 10.0; Win64; x64) AppleWebKit/537.36 (KHTML, like Gecko) Chrome/137.0.0.0 Safari/537.36","WebKit","Chrome","137.0.0.0","Windows","10.0","https://app.prolific.com/","en-US,en;q=0.9","6759c3924ac0cc133d603965","683db6dfa200031b80f2a654","6865078684c8bee2d6f2a6b0","6759c3924ac0cc133d603965","","","[0]","","","","quiz","","","","","","","","","","","","","","","","","","","","","","","","","","","","","","","","","","","","","true",""
"4665","","<p align='center'><b>CORRECT!</b> Indeed, the blue ball always shakes and moves in a random direction. Also there is a penalty of -1 point.</p>","0","html-button-response","38","1524460","0.0-8.0-7.1-1.1","177","1","2025-07-02 10:23:38","80fe4187154257d5fb01684ea91b68b9","105.245.115.171","Mozilla/5.0 (Windows NT 10.0; Win64; x64) AppleWebKit/537.36 (KHTML, like Gecko) Chrome/137.0.0.0 Safari/537.36","WebKit","Chrome","137.0.0.0","Windows","10.0","https://app.prolific.com/","en-US,en;q=0.9","6759c3924ac0cc133d603965","683db6dfa200031b80f2a654","6865078684c8bee2d6f2a6b0","6759c3924ac0cc133d603965","","","","","","","","","","","","","","","","","","","","","","","","","","","","","","","","","","","","","","","","","","","","",""
"10675","","","{""bonus"":[""When I reach 50% of points""]}","survey-multi-select","39","1535138","0.0-8.0-8.0-0.0","177","1","2025-07-02 10:23:38","80fe4187154257d5fb01684ea91b68b9","105.245.115.171","Mozilla/5.0 (Windows NT 10.0; Win64; x64) AppleWebKit/537.36 (KHTML, like Gecko) Chrome/137.0.0.0 Safari/537.36","WebKit","Chrome","137.0.0.0","Windows","10.0","https://app.prolific.com/","en-US,en;q=0.9","6759c3924ac0cc133d603965","683db6dfa200031b80f2a654","6865078684c8bee2d6f2a6b0","6759c3924ac0cc133d603965","","","[0]","","","","quiz","","","","","","","","","","","","","","","","","","","","","","","","","","","","","","","","","","","","","true",""
"4590","","<p align='center'><b>CORRECT!</b> Indeed, you receive 2 pounds extra when you reach 50% of points.</p>","0","html-button-response","40","1539730","0.0-8.0-8.0-1.0","177","1","2025-07-02 10:23:38","80fe4187154257d5fb01684ea91b68b9","105.245.115.171","Mozilla/5.0 (Windows NT 10.0; Win64; x64) AppleWebKit/537.36 (KHTML, like Gecko) Chrome/137.0.0.0 Safari/537.36","WebKit","Chrome","137.0.0.0","Windows","10.0","https://app.prolific.com/","en-US,en;q=0.9","6759c3924ac0cc133d603965","683db6dfa200031b80f2a654","6865078684c8bee2d6f2a6b0","6759c3924ac0cc133d603965","","","","","","","","","","","","","","","","","","","","","","","","","","","","","","","","","","","","","","","","","","","","",""
"15835","","","","instructions","41","1555566","0.0-8.0-9.0","177","1","2025-07-02 10:23:38","80fe4187154257d5fb01684ea91b68b9","105.245.115.171","Mozilla/5.0 (Windows NT 10.0; Win64; x64) AppleWebKit/537.36 (KHTML, like Gecko) Chrome/137.0.0.0 Safari/537.36","WebKit","Chrome","137.0.0.0","Windows","10.0","https://app.prolific.com/","en-US,en;q=0.9","6759c3924ac0cc133d603965","683db6dfa200031b80f2a654","6865078684c8bee2d6f2a6b0","6759c3924ac0cc133d603965","","[{""page_index"":0,""viewing_time"":15834}]","","","","","","","","","","","","","","","","","","","","","","","","","","","","","","","","","","","","","","","","","","",""
"21933","","<p>Before you start with this game please answer the following three questions yourself. </p>
  <p>Through this game, we measure several aspects of your cognitive performance, such as reaction times, multi-tasking capabilities </p>
  <p>and the ability to assess the situation you are in.</p>
  <p></p>
  <p><b>How good do you usually are in such tasks?</b></p>","71","html-slider-response","42","1577502","0.0-9.0-0.0","177","1","2025-07-02 10:23:38","80fe4187154257d5fb01684ea91b68b9","105.245.115.171","Mozilla/5.0 (Windows NT 10.0; Win64; x64) AppleWebKit/537.36 (KHTML, like Gecko) Chrome/137.0.0.0 Safari/537.36","WebKit","Chrome","137.0.0.0","Windows","10.0","https://app.prolific.com/","en-US,en;q=0.9","6759c3924ac0cc133d603965","683db6dfa200031b80f2a654","6865078684c8bee2d6f2a6b0","6759c3924ac0cc133d603965","2025-07-02T10:49:58.118Z","","","","","","PreSkillQ","","","","","","","","","","","","","","","","","","","","","","","","","","","","","","","","","","","","","","50"
"5769","","<div style=""width:500px;"">
  <p>How well do you think you will perform in this task compared to other participants?</p>
  </div>","67","html-slider-response","43","1583273","0.0-9.0-1.0","177","1","2025-07-02 10:23:38","80fe4187154257d5fb01684ea91b68b9","105.245.115.171","Mozilla/5.0 (Windows NT 10.0; Win64; x64) AppleWebKit/537.36 (KHTML, like Gecko) Chrome/137.0.0.0 Safari/537.36","WebKit","Chrome","137.0.0.0","Windows","10.0","https://app.prolific.com/","en-US,en;q=0.9","6759c3924ac0cc133d603965","683db6dfa200031b80f2a654","6865078684c8bee2d6f2a6b0","6759c3924ac0cc133d603965","2025-07-02T10:50:03.889Z","","","","","","PrePerfQ","","","","","","","","","","","","","","","","","","","","","","","","","","","","","","","","","","","","","","50"
"7991","","<div style=""width:500px;"">
  <p>What best describes how you currently feel?</p>
  </div>","62","html-slider-response","44","1591265","0.0-9.0-2.0","177","1","2025-07-02 10:23:38","80fe4187154257d5fb01684ea91b68b9","105.245.115.171","Mozilla/5.0 (Windows NT 10.0; Win64; x64) AppleWebKit/537.36 (KHTML, like Gecko) Chrome/137.0.0.0 Safari/537.36","WebKit","Chrome","137.0.0.0","Windows","10.0","https://app.prolific.com/","en-US,en;q=0.9","6759c3924ac0cc133d603965","683db6dfa200031b80f2a654","6865078684c8bee2d6f2a6b0","6759c3924ac0cc133d603965","2025-07-02T10:50:11.881Z","","","","","","PreMotivationQ","","","","","","","","","","","","","","","","","","","","","","","","","","","","","","","","","","","","","","50"
"","","","","ctl-task-cpt","45","1627483","0.0-10.0-0.0","177","1","2025-07-02 10:23:38","80fe4187154257d5fb01684ea91b68b9","105.245.115.171","Mozilla/5.0 (Windows NT 10.0; Win64; x64) AppleWebKit/537.36 (KHTML, like Gecko) Chrome/137.0.0.0 Safari/537.36","WebKit","Chrome","137.0.0.0","Windows","10.0","https://app.prolific.com/","en-US,en;q=0.9","6759c3924ac0cc133d603965","683db6dfa200031b80f2a654","6865078684c8bee2d6f2a6b0","6759c3924ac0cc133d603965","2025-07-02T10:50:48.099Z","","","","","","","","","","","","","","","","win-only","3","g1:SW,g2:NE","1","1","0","1594034.8","2823.2","7833.2","33201.9","1","4","4","6","1","1","1","1","0","0.007575757575757576","3735.7","3000","1645","[""down"",""left""]","{""num_key_presses"":4,""num_perfect"":4,""num_errors"":0,""num_randdir"":0,""num_randdir_good_moves"":0,""num_whilered"":0,""num_whileblue"":0,""num_blue"":4,""num_good_moves"":4}","[246.24598214285714,243.63660714285714,0.9,246.24598214285714,243.63660714285714,108.1,246.24598214285714,243.63660714285714,208.3,246.24598214285714,243.63660714285714,317.2,246.24598214285714,243.63660714285714,420.5,246.24598214285714,243.63660714285714,525.5,246.24598214285714,243.63660714285714,629.2,246.24598214285714,243.63660714285714,749,246.24598214285714,243.63660714285714,851.9,246.24598214285714,243.63660714285714,953.8,214.24598214285714,289.63660714285714,1057.9,159.24598214285714,367.63660714285714,1158.5,159.24598214285714,367.63660714285714,1268.2,159.24598214285714,367.63660714285714,1375.2,159.24598214285714,367.63660714285714,1487.4,159.24598214285714,367.63660714285714,1588.2,159.24598214285714,367.63660714285714,1689.3,159.24598214285714,367.63660714285714,1798.7,107.24598214285714,383.63660714285714,1912.5,103.24598214285714,383.63660714285714,2019.4,103.24598214285714,383.63660714285714,2128.9,103.24598214285714,383.63660714285714,2232.5,102.24598214285714,382.63660714285714,2333.3,102.24598214285714,383.63660714285714,2435.4,102.24598214285714,383.63660714285714,2538,102.24598214285714,383.63660714285714,2638,102.24598214285714,383.63660714285714,2739.3,102.24598214285714,383.63660714285714,2848.1,102.24598214285714,383.63660714285714,2955.8,102.24598214285714,383.63660714285714,3056.5,102.24598214285714,383.63660714285714,3157.6,102.24598214285714,383.63660714285714,3259,88.24598214285714,399.63660714285714,3362.1,65.24598214285714,418.63660714285714,3463.3,54.245982142857144,438.63660714285714,3568.5,54.245982142857144,438.63660714285714,3670.3,54.245982142857144,438.63660714285714,3778.6,54.245982142857144,438.63660714285714,3885.1,54.245982142857144,438.63660714285714,3988.8,54.245982142857144,438.63660714285714,4098.3,54.245982142857144,438.63660714285714,4199.6,54.245982142857144,438.63660714285714,4307.4,54.245982142857144,438.63660714285714,4413.4,54.245982142857144,438.63660714285714,4520.9,54.245982142857144,438.63660714285714,4627.5,54.245982142857144,438.63660714285714,4728.7,54.245982142857144,438.63660714285714,4828.7,54.245982142857144,438.63660714285714,4942.5]","[1638.1,1638.1,1000,0,638.1,""smooth"",""left"",""left"",""good_move"",5193.5,3554.1,2981.9,1639.5,572.1,""smooth"",""left"",""left"",""good_move"",15294.9,10100.8,2690.7,12087.4,516.8,""smooth"",""down"",""down"",""good_move"",25212.4,9916.2,2541.7,22108.3,562.4,""smooth"",""down"",""down"",""good_move""]","",""
"8570","","<div style=""width:500px;"">
  <p>What determined the result of this run?</p>
  </div>","65","html-slider-response","46","1636055","0.0-10.0-1.0","177","1","2025-07-02 10:23:38","80fe4187154257d5fb01684ea91b68b9","105.245.115.171","Mozilla/5.0 (Windows NT 10.0; Win64; x64) AppleWebKit/537.36 (KHTML, like Gecko) Chrome/137.0.0.0 Safari/537.36","WebKit","Chrome","137.0.0.0","Windows","10.0","https://app.prolific.com/","en-US,en;q=0.9","6759c3924ac0cc133d603965","683db6dfa200031b80f2a654","6865078684c8bee2d6f2a6b0","6759c3924ac0cc133d603965","2025-07-02T10:50:56.672Z","","","","","","AttribQ","","","","","","","","","","","","","","","","","","","","","","","","","","","","","","","","","","","","","","50"
"6129","","<div style=""width:500px;"">
  <p>How much control did you have over the ball?</p>
  </div>","35","html-slider-response","47","1642187","0.0-10.0-2.0","177","1","2025-07-02 10:23:38","80fe4187154257d5fb01684ea91b68b9","105.245.115.171","Mozilla/5.0 (Windows NT 10.0; Win64; x64) AppleWebKit/537.36 (KHTML, like Gecko) Chrome/137.0.0.0 Safari/537.36","WebKit","Chrome","137.0.0.0","Windows","10.0","https://app.prolific.com/","en-US,en;q=0.9","6759c3924ac0cc133d603965","683db6dfa200031b80f2a654","6865078684c8bee2d6f2a6b0","6759c3924ac0cc133d603965","2025-07-02T10:51:02.803Z","","","","","","ControlQ","","","","","","","","","","","","","","","","","","","","","","","","","","","","","","","","","","","","","","50"
"6617","","<div style=""width:500px;"">
  <p>How would you describe your current emotional state?</p>
  </div>","33","html-slider-response","48","1648806","0.0-10.0-3.0","177","1","2025-07-02 10:23:38","80fe4187154257d5fb01684ea91b68b9","105.245.115.171","Mozilla/5.0 (Windows NT 10.0; Win64; x64) AppleWebKit/537.36 (KHTML, like Gecko) Chrome/137.0.0.0 Safari/537.36","WebKit","Chrome","137.0.0.0","Windows","10.0","https://app.prolific.com/","en-US,en;q=0.9","6759c3924ac0cc133d603965","683db6dfa200031b80f2a654","6865078684c8bee2d6f2a6b0","6759c3924ac0cc133d603965","2025-07-02T10:51:09.422Z","","","","","","StressQ","","","","","","","","","","","","","","","","","","","","","","","","","","","","","","","","","","","","","","50"
"8052","","<div style=""width:500px;"">
  <p>What best describes how you currently feel?</p>
  </div>","60","html-slider-response","49","1656860","0.0-10.0-4.0","177","1","2025-07-02 10:23:38","80fe4187154257d5fb01684ea91b68b9","105.245.115.171","Mozilla/5.0 (Windows NT 10.0; Win64; x64) AppleWebKit/537.36 (KHTML, like Gecko) Chrome/137.0.0.0 Safari/537.36","WebKit","Chrome","137.0.0.0","Windows","10.0","https://app.prolific.com/","en-US,en;q=0.9","6759c3924ac0cc133d603965","683db6dfa200031b80f2a654","6865078684c8bee2d6f2a6b0","6759c3924ac0cc133d603965","2025-07-02T10:51:17.477Z","","","","","","MotivationQ","","","","","","","","","","","","","","","","","","","","","","","","","","","","","","","","","","","","","","50"
"","","","","ctl-task-cpt","50","1697885","0.0-10.0-0.1","177","1","2025-07-02 10:23:38","80fe4187154257d5fb01684ea91b68b9","105.245.115.171","Mozilla/5.0 (Windows NT 10.0; Win64; x64) AppleWebKit/537.36 (KHTML, like Gecko) Chrome/137.0.0.0 Safari/537.36","WebKit","Chrome","137.0.0.0","Windows","10.0","https://app.prolific.com/","en-US,en;q=0.9","6759c3924ac0cc133d603965","683db6dfa200031b80f2a654","6865078684c8bee2d6f2a6b0","6759c3924ac0cc133d603965","2025-07-02T10:51:58.501Z","","","","","","","","","","","","","","","","win-only","2","g1:SE,g2:NW","0.9","2","0","1659629.6","2579.1","7581.6","38013.5","1","4","8","6","2","8","8","9","1","0.06818181818181818","2770.7","3000","1310","[""left"",""up""]","{""num_key_presses"":6,""num_perfect"":5,""num_errors"":0,""num_randdir"":1,""num_randdir_good_moves"":1,""num_whilered"":0,""num_whileblue"":0,""num_blue"":4,""num_good_moves"":6}","[247.24598214285714,241.63660714285714,0.6,247.24598214285714,241.63660714285714,104.9,247.24598214285714,241.63660714285714,212.2,247.24598214285714,241.63660714285714,314.5,247.24598214285714,241.63660714285714,422.4,247.24598214285714,241.63660714285714,523.9,247.24598214285714,241.63660714285714,624.1,247.24598214285714,241.63660714285714,730.1,247.24598214285714,241.63660714285714,842.1,247.24598214285714,241.63660714285714,943.4,247.24598214285714,241.63660714285714,1059.2,247.24598214285714,241.63660714285714,1163,247.24598214285714,241.63660714285714,1273.5,247.24598214285714,241.63660714285714,1373.5,222.24598214285714,170.63660714285714,1479,222.24598214285714,170.63660714285714,1582.7,222.24598214285714,170.63660714285714,1694.1,217.24598214285714,169.63660714285714,1808.2,75.24598214285714,116.63660714285714,1908.9,-9.754017857142856,75.63660714285714,2013.8,-55.754017857142856,24.636607142857144,2117.9,-54.754017857142856,19.636607142857144,2224,-14.754017857142856,14.636607142857144,2324.6,18.245982142857144,19.636607142857144,2439.5,21.245982142857144,20.636607142857144,2545.3,27.245982142857144,25.636607142857144,2654.2,29.245982142857144,29.636607142857144,2758.5,29.245982142857144,29.636607142857144,2865.4,29.245982142857144,29.636607142857144,2974.1,29.245982142857144,29.636607142857144,3080.7,29.245982142857144,29.636607142857144,3183.2,29.245982142857144,29.636607142857144,3284.7,29.245982142857144,29.636607142857144,3392.7,29.245982142857144,29.636607142857144,3493.5,29.245982142857144,29.636607142857144,3595,29.245982142857144,29.636607142857144,3702.9,29.245982142857144,29.636607142857144,3803.6,29.245982142857144,29.636607142857144,3908.2,29.245982142857144,29.636607142857144,4011.7,29.245982142857144,29.636607142857144,4111.9,29.245982142857144,29.636607142857144,4220,29.245982142857144,29.636607142857144,4332.8,29.245982142857144,29.636607142857144,4434.6,29.245982142857144,29.636607142857144,4537.6,29.245982142857144,29.636607142857144,4638.2,29.245982142857144,29.636607142857144,4744.4,29.245982142857144,29.636607142857144,4849.3,29.245982142857144,29.636607142857144,4952.1]","[5051.2,5051.2,2569.5,2018.1,463.6,""smooth"",""left"",""left"",""good_move"",11449.7,6397.3,2660.2,8293.9,495.6,""smooth"",""left"",""left"",""good_move"",14577,3126.4,2592.5,11450.6,533.9,""oops"",""left"",""left"",""good_move"",21556.5,6978.8,2982.1,18130.4,444,""smooth"",""up"",""up"",""good_move"",27659.1,6102.1,2385.7,24811.4,462,""smooth"",""up"",""up"",""good_move"",30291.8,2632.1,2073.3,27659.8,558.7,""smooth"",""up"",""up"",""good_move""]","",""
"7178","","<div style=""width:500px;"">
  <p>What determined the result of this run?</p>
  </div>","63","html-slider-response","51","1705065","0.0-10.0-1.1","177","1","2025-07-02 10:23:38","80fe4187154257d5fb01684ea91b68b9","105.245.115.171","Mozilla/5.0 (Windows NT 10.0; Win64; x64) AppleWebKit/537.36 (KHTML, like Gecko) Chrome/137.0.0.0 Safari/537.36","WebKit","Chrome","137.0.0.0","Windows","10.0","https://app.prolific.com/","en-US,en;q=0.9","6759c3924ac0cc133d603965","683db6dfa200031b80f2a654","6865078684c8bee2d6f2a6b0","6759c3924ac0cc133d603965","2025-07-02T10:52:05.681Z","","","","","","AttribQ","","","","","","","","","","","","","","","","","","","","","","","","","","","","","","","","","","","","","","50"
"6714","","<div style=""width:500px;"">
  <p>How much control did you have over the ball?</p>
  </div>","67","html-slider-response","52","1711781","0.0-10.0-2.1","177","1","2025-07-02 10:23:38","80fe4187154257d5fb01684ea91b68b9","105.245.115.171","Mozilla/5.0 (Windows NT 10.0; Win64; x64) AppleWebKit/537.36 (KHTML, like Gecko) Chrome/137.0.0.0 Safari/537.36","WebKit","Chrome","137.0.0.0","Windows","10.0","https://app.prolific.com/","en-US,en;q=0.9","6759c3924ac0cc133d603965","683db6dfa200031b80f2a654","6865078684c8bee2d6f2a6b0","6759c3924ac0cc133d603965","2025-07-02T10:52:12.397Z","","","","","","ControlQ","","","","","","","","","","","","","","","","","","","","","","","","","","","","","","","","","","","","","","50"
"7149","","<div style=""width:500px;"">
  <p>How would you describe your current emotional state?</p>
  </div>","35","html-slider-response","53","1718932","0.0-10.0-3.1","177","1","2025-07-02 10:23:38","80fe4187154257d5fb01684ea91b68b9","105.245.115.171","Mozilla/5.0 (Windows NT 10.0; Win64; x64) AppleWebKit/537.36 (KHTML, like Gecko) Chrome/137.0.0.0 Safari/537.36","WebKit","Chrome","137.0.0.0","Windows","10.0","https://app.prolific.com/","en-US,en;q=0.9","6759c3924ac0cc133d603965","683db6dfa200031b80f2a654","6865078684c8bee2d6f2a6b0","6759c3924ac0cc133d603965","2025-07-02T10:52:19.548Z","","","","","","StressQ","","","","","","","","","","","","","","","","","","","","","","","","","","","","","","","","","","","","","","50"
"4298","","<div style=""width:500px;"">
  <p>What best describes how you currently feel?</p>
  </div>","62","html-slider-response","54","1723232","0.0-10.0-4.1","177","1","2025-07-02 10:23:38","80fe4187154257d5fb01684ea91b68b9","105.245.115.171","Mozilla/5.0 (Windows NT 10.0; Win64; x64) AppleWebKit/537.36 (KHTML, like Gecko) Chrome/137.0.0.0 Safari/537.36","WebKit","Chrome","137.0.0.0","Windows","10.0","https://app.prolific.com/","en-US,en;q=0.9","6759c3924ac0cc133d603965","683db6dfa200031b80f2a654","6865078684c8bee2d6f2a6b0","6759c3924ac0cc133d603965","2025-07-02T10:52:23.849Z","","","","","","MotivationQ","","","","","","","","","","","","","","","","","","","","","","","","","","","","","","","","","","","","","","50"
"","","","","ctl-task-cpt","55","1754635","0.0-10.0-0.2","177","1","2025-07-02 10:23:38","80fe4187154257d5fb01684ea91b68b9","105.245.115.171","Mozilla/5.0 (Windows NT 10.0; Win64; x64) AppleWebKit/537.36 (KHTML, like Gecko) Chrome/137.0.0.0 Safari/537.36","WebKit","Chrome","137.0.0.0","Windows","10.0","https://app.prolific.com/","en-US,en;q=0.9","6759c3924ac0cc133d603965","683db6dfa200031b80f2a654","6865078684c8bee2d6f2a6b0","6759c3924ac0cc133d603965","2025-07-02T10:52:55.251Z","","","","","","","","","","","","","","","","win-only","0","g1:NW,g2:SE","0.8","3","0","1726002.9","1918","6927.6","28386.2","1","4","4","6","2","4","4","13","9","0.09848484848484848","1695.3","3000","1210","[""down"",""right""]","{""num_key_presses"":6,""num_perfect"":6,""num_errors"":0,""num_randdir"":0,""num_randdir_good_moves"":0,""num_whilered"":0,""num_whileblue"":0,""num_blue"":1,""num_good_moves"":6}","[251.24598214285714,248.63660714285714,0.6,251.24598214285714,248.63660714285714,100.1,251.24598214285714,248.63660714285714,209,251.24598214285714,248.63660714285714,313.5,251.24598214285714,248.63660714285714,418.9,251.24598214285714,248.63660714285714,519.1,251.24598214285714,248.63660714285714,633.3,251.24598214285714,248.63660714285714,744.4,251.24598214285714,248.63660714285714,856.5,254.24598214285714,249.63660714285714,969.7,363.24598214285714,336.63660714285714,1081,428.24598214285714,410.63660714285714,1189.1,440.24598214285714,418.63660714285714,1298.2,443.24598214285714,433.63660714285714,1398.2,450.24598214285714,447.63660714285714,1499.6,452.24598214285714,453.63660714285714,1603,453.24598214285714,455.63660714285714,1703.5,453.24598214285714,455.63660714285714,1805.3,453.24598214285714,455.63660714285714,1909.1,453.24598214285714,455.63660714285714,2021.5,453.24598214285714,455.63660714285714,2127.9,453.24598214285714,455.63660714285714,2228.8,453.24598214285714,455.63660714285714,2332.3,453.24598214285714,455.63660714285714,2433.5,453.24598214285714,455.63660714285714,2540.8,453.24598214285714,455.63660714285714,2649.8,453.24598214285714,455.63660714285714,2751.2,453.24598214285714,455.63660714285714,2851.4,453.24598214285714,455.63660714285714,2967.3,453.24598214285714,455.63660714285714,3071.5,453.24598214285714,455.63660714285714,3181.2,453.24598214285714,455.63660714285714,3283.3,453.24598214285714,455.63660714285714,3383.9,453.24598214285714,455.63660714285714,3489.4,453.24598214285714,455.63660714285714,3599.3,453.24598214285714,455.63660714285714,3700.7,453.24598214285714,455.63660714285714,3809,453.24598214285714,455.63660714285714,3910.2,453.24598214285714,455.63660714285714,4018.4,453.24598214285714,455.63660714285714,4119,453.24598214285714,455.63660714285714,4229.3,453.24598214285714,455.63660714285714,4335.7,453.24598214285714,455.63660714285714,4438.7,453.24598214285714,455.63660714285714,4556.8,453.24598214285714,455.63660714285714,4657.7,453.24598214285714,455.63660714285714,4760,453.24598214285714,455.63660714285714,4863.5,453.24598214285714,455.63660714285714,4967.3]","[1609.4,1609.4,1000,0,609.4,""smooth"",""right"",""right"",""good_move"",4880.5,3269.8,2587.3,1611,682.3,""smooth"",""right"",""right"",""good_move"",7879.9,2998.4,2501.8,4881.5,496.6,""smooth"",""right"",""right"",""good_move"",11850.7,3970.4,3490,7880.3,480.4,""smooth"",""down"",""down"",""good_move"",14976.7,3123.6,2655.8,11853.2,467.8,""smooth"",""down"",""down"",""good_move"",21308.5,6331.2,2429.6,18378.1,500.8,""smooth"",""down"",""down"",""good_move""]","",""
"6137","","<div style=""width:500px;"">
  <p>What determined the result of this run?</p>
  </div>","78","html-slider-response","56","1760774","0.0-10.0-1.2","177","1","2025-07-02 10:23:38","80fe4187154257d5fb01684ea91b68b9","105.245.115.171","Mozilla/5.0 (Windows NT 10.0; Win64; x64) AppleWebKit/537.36 (KHTML, like Gecko) Chrome/137.0.0.0 Safari/537.36","WebKit","Chrome","137.0.0.0","Windows","10.0","https://app.prolific.com/","en-US,en;q=0.9","6759c3924ac0cc133d603965","683db6dfa200031b80f2a654","6865078684c8bee2d6f2a6b0","6759c3924ac0cc133d603965","2025-07-02T10:53:01.390Z","","","","","","AttribQ","","","","","","","","","","","","","","","","","","","","","","","","","","","","","","","","","","","","","","50"
"6639","","<div style=""width:500px;"">
  <p>How much control did you have over the ball?</p>
  </div>","72","html-slider-response","57","1767414","0.0-10.0-2.2","177","1","2025-07-02 10:23:38","80fe4187154257d5fb01684ea91b68b9","105.245.115.171","Mozilla/5.0 (Windows NT 10.0; Win64; x64) AppleWebKit/537.36 (KHTML, like Gecko) Chrome/137.0.0.0 Safari/537.36","WebKit","Chrome","137.0.0.0","Windows","10.0","https://app.prolific.com/","en-US,en;q=0.9","6759c3924ac0cc133d603965","683db6dfa200031b80f2a654","6865078684c8bee2d6f2a6b0","6759c3924ac0cc133d603965","2025-07-02T10:53:08.031Z","","","","","","ControlQ","","","","","","","","","","","","","","","","","","","","","","","","","","","","","","","","","","","","","","50"
"6428","","<div style=""width:500px;"">
  <p>How would you describe your current emotional state?</p>
  </div>","38","html-slider-response","58","1773844","0.0-10.0-3.2","177","1","2025-07-02 10:23:38","80fe4187154257d5fb01684ea91b68b9","105.245.115.171","Mozilla/5.0 (Windows NT 10.0; Win64; x64) AppleWebKit/537.36 (KHTML, like Gecko) Chrome/137.0.0.0 Safari/537.36","WebKit","Chrome","137.0.0.0","Windows","10.0","https://app.prolific.com/","en-US,en;q=0.9","6759c3924ac0cc133d603965","683db6dfa200031b80f2a654","6865078684c8bee2d6f2a6b0","6759c3924ac0cc133d603965","2025-07-02T10:53:14.460Z","","","","","","StressQ","","","","","","","","","","","","","","","","","","","","","","","","","","","","","","","","","","","","","","50"
"6415","","<div style=""width:500px;"">
  <p>What best describes how you currently feel?</p>
  </div>","77","html-slider-response","59","1780261","0.0-10.0-4.2","177","1","2025-07-02 10:23:38","80fe4187154257d5fb01684ea91b68b9","105.245.115.171","Mozilla/5.0 (Windows NT 10.0; Win64; x64) AppleWebKit/537.36 (KHTML, like Gecko) Chrome/137.0.0.0 Safari/537.36","WebKit","Chrome","137.0.0.0","Windows","10.0","https://app.prolific.com/","en-US,en;q=0.9","6759c3924ac0cc133d603965","683db6dfa200031b80f2a654","6865078684c8bee2d6f2a6b0","6759c3924ac0cc133d603965","2025-07-02T10:53:20.877Z","","","","","","MotivationQ","","","","","","","","","","","","","","","","","","","","","","","","","","","","","","","","","","","","","","50"
"","","","","ctl-task-cpt","60","1816922","0.0-10.0-0.3","177","1","2025-07-02 10:23:38","80fe4187154257d5fb01684ea91b68b9","105.245.115.171","Mozilla/5.0 (Windows NT 10.0; Win64; x64) AppleWebKit/537.36 (KHTML, like Gecko) Chrome/137.0.0.0 Safari/537.36","WebKit","Chrome","137.0.0.0","Windows","10.0","https://app.prolific.com/","en-US,en;q=0.9","6759c3924ac0cc133d603965","683db6dfa200031b80f2a654","6865078684c8bee2d6f2a6b0","6759c3924ac0cc133d603965","2025-07-02T10:53:57.538Z","","","","","","","","","","","","","","","","win-only","3","g1:SW,g2:NE","0.7","4","0","1783029.7","1776.9","6777.9","33646.6","1","4","8","6","2","8","8","21","13","0.1590909090909091","3050.6","3000","1465","[""up"",""right""]","{""num_key_presses"":6,""num_perfect"":5,""num_errors"":0,""num_randdir"":1,""num_randdir_good_moves"":1,""num_whilered"":0,""num_whileblue"":0,""num_blue"":3,""num_good_moves"":6}","[250.24598214285714,242.63660714285714,0.3,250.24598214285714,242.63660714285714,116.6,250.24598214285714,242.63660714285714,218.4,250.24598214285714,242.63660714285714,331.3,250.24598214285714,242.63660714285714,434.9,250.24598214285714,242.63660714285714,535.6,250.24598214285714,242.63660714285714,640,250.24598214285714,242.63660714285714,751.4,250.24598214285714,242.63660714285714,859.5,250.24598214285714,242.63660714285714,965.6,250.24598214285714,242.63660714285714,1079.2,250.24598214285714,242.63660714285714,1179.3,267.24598214285714,222.63660714285714,1291.9,267.24598214285714,222.63660714285714,1399.1,267.24598214285714,222.63660714285714,1499.1,267.24598214285714,222.63660714285714,1609.4,267.24598214285714,222.63660714285714,1714.6,267.24598214285714,222.63660714285714,1829.5,267.24598214285714,222.63660714285714,1937.7,267.24598214285714,222.63660714285714,2052.8,267.24598214285714,222.63660714285714,2159,279.24598214285714,207.63660714285714,2271.7,424.24598214285714,87.63660714285714,2374.3,488.24598214285714,36.636607142857144,2475.2,512.2459821428572,16.636607142857144,2579.1,512.2459821428572,16.636607142857144,2681.2,498.24598214285714,20.636607142857144,2800.1,482.24598214285714,30.636607142857144,2900.3,472.24598214285714,33.636607142857144,3007.8,472.24598214285714,34.636607142857144,3107.9,472.24598214285714,34.636607142857144,3213.4,472.24598214285714,34.636607142857144,3315.5,472.24598214285714,34.636607142857144,3422.6,472.24598214285714,34.636607142857144,3527.7,472.24598214285714,34.636607142857144,3632.5,472.24598214285714,34.636607142857144,3737.4,472.24598214285714,34.636607142857144,3838.5,472.24598214285714,34.636607142857144,3941,472.24598214285714,34.636607142857144,4048.5,472.24598214285714,34.636607142857144,4158.4,472.24598214285714,34.636607142857144,4267.1,472.24598214285714,34.636607142857144,4373.1,472.24598214285714,34.636607142857144,4486.9,472.24598214285714,34.636607142857144,4591,472.24598214285714,34.636607142857144,4695.1,472.24598214285714,34.636607142857144,4798.9,472.24598214285714,34.636607142857144,4901.5]","[5331.3,5331.3,2888.9,2018.6,423.8,""smooth"",""up"",""up"",""good_move"",10229.6,4897.3,1353.3,8354.5,521.8,""smooth"",""up"",""up"",""good_move"",13125.3,2895.3,2394.8,10230,500.5,""smooth"",""right"",""right"",""good_move"",16973.2,3847.1,3333.2,13126.4,513.6,""smooth"",""right"",""right"",""good_move"",23430,6456.1,2277.8,20707.7,444.5,""smooth"",""right"",""right"",""good_move"",26700.8,3270.1,2680.2,23430.7,589.9,""oops"",""up"",""up"",""good_move""]","",""
"7000","","<div style=""width:500px;"">
  <p>What determined the result of this run?</p>
  </div>","68","html-slider-response","61","1823924","0.0-10.0-1.3","177","1","2025-07-02 10:23:38","80fe4187154257d5fb01684ea91b68b9","105.245.115.171","Mozilla/5.0 (Windows NT 10.0; Win64; x64) AppleWebKit/537.36 (KHTML, like Gecko) Chrome/137.0.0.0 Safari/537.36","WebKit","Chrome","137.0.0.0","Windows","10.0","https://app.prolific.com/","en-US,en;q=0.9","6759c3924ac0cc133d603965","683db6dfa200031b80f2a654","6865078684c8bee2d6f2a6b0","6759c3924ac0cc133d603965","2025-07-02T10:54:04.540Z","","","","","","AttribQ","","","","","","","","","","","","","","","","","","","","","","","","","","","","","","","","","","","","","","50"
"4945","","<div style=""width:500px;"">
  <p>How much control did you have over the ball?</p>
  </div>","85","html-slider-response","62","1828872","0.0-10.0-2.3","177","1","2025-07-02 10:23:38","80fe4187154257d5fb01684ea91b68b9","105.245.115.171","Mozilla/5.0 (Windows NT 10.0; Win64; x64) AppleWebKit/537.36 (KHTML, like Gecko) Chrome/137.0.0.0 Safari/537.36","WebKit","Chrome","137.0.0.0","Windows","10.0","https://app.prolific.com/","en-US,en;q=0.9","6759c3924ac0cc133d603965","683db6dfa200031b80f2a654","6865078684c8bee2d6f2a6b0","6759c3924ac0cc133d603965","2025-07-02T10:54:09.488Z","","","","","","ControlQ","","","","","","","","","","","","","","","","","","","","","","","","","","","","","","","","","","","","","","50"
"3635","","<div style=""width:500px;"">
  <p>How would you describe your current emotional state?</p>
  </div>","25","html-slider-response","63","1832509","0.0-10.0-3.3","177","1","2025-07-02 10:23:38","80fe4187154257d5fb01684ea91b68b9","105.245.115.171","Mozilla/5.0 (Windows NT 10.0; Win64; x64) AppleWebKit/537.36 (KHTML, like Gecko) Chrome/137.0.0.0 Safari/537.36","WebKit","Chrome","137.0.0.0","Windows","10.0","https://app.prolific.com/","en-US,en;q=0.9","6759c3924ac0cc133d603965","683db6dfa200031b80f2a654","6865078684c8bee2d6f2a6b0","6759c3924ac0cc133d603965","2025-07-02T10:54:13.125Z","","","","","","StressQ","","","","","","","","","","","","","","","","","","","","","","","","","","","","","","","","","","","","","","50"
"4867","","<div style=""width:500px;"">
  <p>What best describes how you currently feel?</p>
  </div>","86","html-slider-response","64","1837379","0.0-10.0-4.3","177","1","2025-07-02 10:23:38","80fe4187154257d5fb01684ea91b68b9","105.245.115.171","Mozilla/5.0 (Windows NT 10.0; Win64; x64) AppleWebKit/537.36 (KHTML, like Gecko) Chrome/137.0.0.0 Safari/537.36","WebKit","Chrome","137.0.0.0","Windows","10.0","https://app.prolific.com/","en-US,en;q=0.9","6759c3924ac0cc133d603965","683db6dfa200031b80f2a654","6865078684c8bee2d6f2a6b0","6759c3924ac0cc133d603965","2025-07-02T10:54:17.995Z","","","","","","MotivationQ","","","","","","","","","","","","","","","","","","","","","","","","","","","","","","","","","","","","","","50"
"","","","","ctl-task-cpt","65","1887418","0.0-10.0-0.4","177","1","2025-07-02 10:23:38","80fe4187154257d5fb01684ea91b68b9","105.245.115.171","Mozilla/5.0 (Windows NT 10.0; Win64; x64) AppleWebKit/537.36 (KHTML, like Gecko) Chrome/137.0.0.0 Safari/537.36","WebKit","Chrome","137.0.0.0","Windows","10.0","https://app.prolific.com/","en-US,en;q=0.9","6759c3924ac0cc133d603965","683db6dfa200031b80f2a654","6865078684c8bee2d6f2a6b0","6759c3924ac0cc133d603965","2025-07-02T10:55:08.034Z","","","","","","","","","","","","","","","","win-only","2","g1:SE,g2:NW","0.6","5","0","1840147.4","3882.6","8900.8","47004.8","1","4","4","6","2","4","4","25","21","0.1893939393939394","2077.9","3000","225","[""left"",""up""]","{""num_key_presses"":10,""num_perfect"":6,""num_errors"":0,""num_randdir"":4,""num_randdir_good_moves"":2,""num_whilered"":0,""num_whileblue"":0,""num_blue"":2,""num_good_moves"":8}","[245.24598214285714,241.63660714285714,0.4,245.24598214285714,241.63660714285714,105,245.24598214285714,241.63660714285714,205.4,245.24598214285714,241.63660714285714,318.3,245.24598214285714,241.63660714285714,427.8,245.24598214285714,241.63660714285714,551,245.24598214285714,241.63660714285714,673.8,245.24598214285714,241.63660714285714,804.4,244.24598214285714,240.63660714285714,912.1,183.24598214285714,177.63660714285714,1013.3,143.24598214285714,131.63660714285714,1113.8,118.24598214285714,113.63660714285714,1217,112.24598214285714,106.63660714285714,1323.1,98.24598214285714,89.63660714285714,1424.8,79.24598214285714,61.636607142857144,1529.2,68.24598214285714,53.636607142857144,1629.5,59.245982142857144,49.636607142857144,1742.3,59.245982142857144,49.636607142857144,1854.4,59.245982142857144,49.636607142857144,1955.6,59.245982142857144,49.636607142857144,2064.7,59.245982142857144,49.636607142857144,2200,59.245982142857144,49.636607142857144,2303.9,59.245982142857144,49.636607142857144,2410.4,59.245982142857144,49.636607142857144,2513.7,59.245982142857144,49.636607142857144,2620.7,59.245982142857144,49.636607142857144,2723.1,59.245982142857144,49.636607142857144,2836.7,59.245982142857144,49.636607142857144,2945.3,59.245982142857144,49.636607142857144,3051.8,59.245982142857144,49.636607142857144,3155.4,59.245982142857144,49.636607142857144,3259.1,59.245982142857144,49.636607142857144,3360.1,59.245982142857144,49.636607142857144,3461.1,59.245982142857144,49.636607142857144,3567.1,59.245982142857144,49.636607142857144,3676.1,59.245982142857144,49.636607142857144,3776.7,59.245982142857144,49.636607142857144,3884.5,59.245982142857144,49.636607142857144,3985.5,59.245982142857144,49.636607142857144,4087.6,59.245982142857144,49.636607142857144,4187.9,59.245982142857144,49.636607142857144,4303.9,59.245982142857144,49.636607142857144,4415.9,59.245982142857144,49.636607142857144,4522.5,59.245982142857144,49.636607142857144,4625.8,59.245982142857144,49.636607142857144,4751.1,59.245982142857144,49.636607142857144,4856,59.245982142857144,49.636607142857144,4973.3]","[1558.9,1558.9,1000,0,558.9,""oops"",""left"",""down"",""bad_move"",4675.1,3115.5,2595,1559.6,520.5,""smooth"",""left"",""left"",""good_move"",7636.3,2960.4,2384.4,4675.9,576,""oops"",""left"",""right"",""bad_move"",11154.7,3517.2,2947.4,7637.5,569.8,""smooth"",""left"",""left"",""good_move"",14477.1,3322,2852.8,11155.1,469.2,""smooth"",""left"",""left"",""good_move"",21418.3,6940.7,2922.9,18085.8,409.6,""oops"",""left"",""left"",""good_move"",24740,3321.1,2818.4,21418.9,502.7,""smooth"",""up"",""up"",""good_move"",27939.6,3198.1,2676.5,24741.5,521.6,""smooth"",""up"",""up"",""good_move"",34698.1,6758,3057.1,31205.9,435.1,""smooth"",""up"",""up"",""good_move"",37965.6,3267.1,2748.7,34698.5,518.4,""oops"",""up"",""up"",""good_move""]","",""
"22523","","<div style=""width:500px;"">
  <p>What determined the result of this run?</p>
  </div>","75","html-slider-response","66","1909943","0.0-10.0-1.4","177","1","2025-07-02 10:23:38","80fe4187154257d5fb01684ea91b68b9","105.245.115.171","Mozilla/5.0 (Windows NT 10.0; Win64; x64) AppleWebKit/537.36 (KHTML, like Gecko) Chrome/137.0.0.0 Safari/537.36","WebKit","Chrome","137.0.0.0","Windows","10.0","https://app.prolific.com/","en-US,en;q=0.9","6759c3924ac0cc133d603965","683db6dfa200031b80f2a654","6865078684c8bee2d6f2a6b0","6759c3924ac0cc133d603965","2025-07-02T10:55:30.559Z","","","","","","AttribQ","","","","","","","","","","","","","","","","","","","","","","","","","","","","","","","","","","","","","","50"
"3941","","<div style=""width:500px;"">
  <p>How much control did you have over the ball?</p>
  </div>","83","html-slider-response","67","1913886","0.0-10.0-2.4","177","1","2025-07-02 10:23:38","80fe4187154257d5fb01684ea91b68b9","105.245.115.171","Mozilla/5.0 (Windows NT 10.0; Win64; x64) AppleWebKit/537.36 (KHTML, like Gecko) Chrome/137.0.0.0 Safari/537.36","WebKit","Chrome","137.0.0.0","Windows","10.0","https://app.prolific.com/","en-US,en;q=0.9","6759c3924ac0cc133d603965","683db6dfa200031b80f2a654","6865078684c8bee2d6f2a6b0","6759c3924ac0cc133d603965","2025-07-02T10:55:34.502Z","","","","","","ControlQ","","","","","","","","","","","","","","","","","","","","","","","","","","","","","","","","","","","","","","50"
"6069","","<div style=""width:500px;"">
  <p>How would you describe your current emotional state?</p>
  </div>","20","html-slider-response","68","1919958","0.0-10.0-3.4","177","1","2025-07-02 10:23:38","80fe4187154257d5fb01684ea91b68b9","105.245.115.171","Mozilla/5.0 (Windows NT 10.0; Win64; x64) AppleWebKit/537.36 (KHTML, like Gecko) Chrome/137.0.0.0 Safari/537.36","WebKit","Chrome","137.0.0.0","Windows","10.0","https://app.prolific.com/","en-US,en;q=0.9","6759c3924ac0cc133d603965","683db6dfa200031b80f2a654","6865078684c8bee2d6f2a6b0","6759c3924ac0cc133d603965","2025-07-02T10:55:40.574Z","","","","","","StressQ","","","","","","","","","","","","","","","","","","","","","","","","","","","","","","","","","","","","","","50"
"4026","","<div style=""width:500px;"">
  <p>What best describes how you currently feel?</p>
  </div>","78","html-slider-response","69","1923986","0.0-10.0-4.4","177","1","2025-07-02 10:23:38","80fe4187154257d5fb01684ea91b68b9","105.245.115.171","Mozilla/5.0 (Windows NT 10.0; Win64; x64) AppleWebKit/537.36 (KHTML, like Gecko) Chrome/137.0.0.0 Safari/537.36","WebKit","Chrome","137.0.0.0","Windows","10.0","https://app.prolific.com/","en-US,en;q=0.9","6759c3924ac0cc133d603965","683db6dfa200031b80f2a654","6865078684c8bee2d6f2a6b0","6759c3924ac0cc133d603965","2025-07-02T10:55:44.602Z","","","","","","MotivationQ","","","","","","","","","","","","","","","","","","","","","","","","","","","","","","","","","","","","","","50"
"","","","","ctl-task-cpt","70","1958374","0.0-10.0-0.5","177","1","2025-07-02 10:23:38","80fe4187154257d5fb01684ea91b68b9","105.245.115.171","Mozilla/5.0 (Windows NT 10.0; Win64; x64) AppleWebKit/537.36 (KHTML, like Gecko) Chrome/137.0.0.0 Safari/537.36","WebKit","Chrome","137.0.0.0","Windows","10.0","https://app.prolific.com/","en-US,en;q=0.9","6759c3924ac0cc133d603965","683db6dfa200031b80f2a654","6865078684c8bee2d6f2a6b0","6759c3924ac0cc133d603965","2025-07-02T10:56:18.990Z","","","","","","","","","","","","","","","","win-only","3","g1:SW,g2:NE","0.5","6","0","1926755.4","3158.6","8161.1","31352.8","1","4","8","6","2","8","8","33","25","0.25","1746.7","3000","1150","[""up"",""right""]","{""num_key_presses"":8,""num_perfect"":4,""num_errors"":0,""num_randdir"":4,""num_randdir_good_moves"":3,""num_whilered"":0,""num_whileblue"":0,""num_blue"":0,""num_good_moves"":7}","[245.24598214285714,251.63660714285714,1.1,245.24598214285714,251.63660714285714,118.1,245.24598214285714,251.63660714285714,233.1,245.24598214285714,251.63660714285714,346.3,245.24598214285714,251.63660714285714,449,245.24598214285714,251.63660714285714,554.1,245.24598214285714,251.63660714285714,655.1,245.24598214285714,251.63660714285714,770.1,248.24598214285714,237.63660714285714,870.4,378.24598214285714,123.63660714285714,971,437.24598214285714,82.63660714285714,1071.4,449.24598214285714,54.636607142857144,1172.9,452.24598214285714,48.636607142857144,1281.8,451.24598214285714,42.636607142857144,1384,451.24598214285714,41.636607142857144,1495.4,451.24598214285714,41.636607142857144,1595.9,450.24598214285714,41.636607142857144,1700.1,450.24598214285714,41.636607142857144,1805.4,450.24598214285714,41.636607142857144,1905.5,450.24598214285714,41.636607142857144,2006.3,450.24598214285714,41.636607142857144,2109.2,450.24598214285714,41.636607142857144,2216.5,450.24598214285714,41.636607142857144,2323.7,450.24598214285714,41.636607142857144,2424.6,450.24598214285714,41.636607142857144,2534.3,450.24598214285714,41.636607142857144,2636.6,450.24598214285714,41.636607142857144,2746.6,450.24598214285714,41.636607142857144,2863,450.24598214285714,41.636607142857144,2964.8,450.24598214285714,41.636607142857144,3080.2,450.24598214285714,41.636607142857144,3185.8,450.24598214285714,41.636607142857144,3288.6,450.24598214285714,41.636607142857144,3389.1,450.24598214285714,41.636607142857144,3495.8,450.24598214285714,41.636607142857144,3601.2,450.24598214285714,41.636607142857144,3704.4,450.24598214285714,41.636607142857144,3809.4,450.24598214285714,41.636607142857144,3915.6,450.24598214285714,41.636607142857144,4019.1,450.24598214285714,41.636607142857144,4126.4,450.24598214285714,41.636607142857144,4233.7,450.24598214285714,41.636607142857144,4339.8,450.24598214285714,41.636607142857144,4454,450.24598214285714,41.636607142857144,4557.9,450.24598214285714,41.636607142857144,4658.7,450.24598214285714,41.636607142857144,4773.3,450.24598214285714,41.636607142857144,4873.7,450.24598214285714,41.636607142857144,4984.9]","[1421.8,1421.9,1000,0,421.9,""smooth"",""right"",""right"",""good_move"",4469.2,3046.8,2588.2,1422.4,458.6,""oops"",""right"",""up"",""good_move"",7359.1,2889.1,2450.3,4470.1,438.8,""oops"",""right"",""down"",""bad_move"",9932.7,2573,2125.2,7359.7,447.8,""smooth"",""right"",""right"",""good_move"",13462.8,3529.8,3083.7,9933.1,446.1,""smooth"",""up"",""up"",""good_move"",16747,3283.6,2814.1,13463.4,469.5,""oops"",""up"",""up"",""good_move"",20215.9,3467.7,3025.3,16748.3,442.3,""smooth"",""up"",""up"",""good_move"",23021.7,2805.3,2324.8,20216.5,480.5,""oops"",""right"",""right"",""good_move""]","",""
"47045","","<div style=""width:500px;"">
  <p>What determined the result of this run?</p>
  </div>","75","html-slider-response","71","2005421","0.0-10.0-1.5","177","1","2025-07-02 10:23:38","80fe4187154257d5fb01684ea91b68b9","105.245.115.171","Mozilla/5.0 (Windows NT 10.0; Win64; x64) AppleWebKit/537.36 (KHTML, like Gecko) Chrome/137.0.0.0 Safari/537.36","WebKit","Chrome","137.0.0.0","Windows","10.0","https://app.prolific.com/","en-US,en;q=0.9","6759c3924ac0cc133d603965","683db6dfa200031b80f2a654","6865078684c8bee2d6f2a6b0","6759c3924ac0cc133d603965","2025-07-02T10:57:06.037Z","","","","","","AttribQ","","","","","","","","","","","","","","","","","","","","","","","","","","","","","","","","","","","","","","50"
"4217","","<div style=""width:500px;"">
  <p>How much control did you have over the ball?</p>
  </div>","85","html-slider-response","72","2009640","0.0-10.0-2.5","177","1","2025-07-02 10:23:38","80fe4187154257d5fb01684ea91b68b9","105.245.115.171","Mozilla/5.0 (Windows NT 10.0; Win64; x64) AppleWebKit/537.36 (KHTML, like Gecko) Chrome/137.0.0.0 Safari/537.36","WebKit","Chrome","137.0.0.0","Windows","10.0","https://app.prolific.com/","en-US,en;q=0.9","6759c3924ac0cc133d603965","683db6dfa200031b80f2a654","6865078684c8bee2d6f2a6b0","6759c3924ac0cc133d603965","2025-07-02T10:57:10.257Z","","","","","","ControlQ","","","","","","","","","","","","","","","","","","","","","","","","","","","","","","","","","","","","","","50"
"3659","","<div style=""width:500px;"">
  <p>How would you describe your current emotional state?</p>
  </div>","34","html-slider-response","73","2013302","0.0-10.0-3.5","177","1","2025-07-02 10:23:38","80fe4187154257d5fb01684ea91b68b9","105.245.115.171","Mozilla/5.0 (Windows NT 10.0; Win64; x64) AppleWebKit/537.36 (KHTML, like Gecko) Chrome/137.0.0.0 Safari/537.36","WebKit","Chrome","137.0.0.0","Windows","10.0","https://app.prolific.com/","en-US,en;q=0.9","6759c3924ac0cc133d603965","683db6dfa200031b80f2a654","6865078684c8bee2d6f2a6b0","6759c3924ac0cc133d603965","2025-07-02T10:57:13.918Z","","","","","","StressQ","","","","","","","","","","","","","","","","","","","","","","","","","","","","","","","","","","","","","","50"
"43861","","<div style=""width:500px;"">
  <p>What best describes how you currently feel?</p>
  </div>","78","html-slider-response","74","2057166","0.0-10.0-4.5","177","1","2025-07-02 10:23:38","80fe4187154257d5fb01684ea91b68b9","105.245.115.171","Mozilla/5.0 (Windows NT 10.0; Win64; x64) AppleWebKit/537.36 (KHTML, like Gecko) Chrome/137.0.0.0 Safari/537.36","WebKit","Chrome","137.0.0.0","Windows","10.0","https://app.prolific.com/","en-US,en;q=0.9","6759c3924ac0cc133d603965","683db6dfa200031b80f2a654","6865078684c8bee2d6f2a6b0","6759c3924ac0cc133d603965","2025-07-02T10:57:57.782Z","","","","","","MotivationQ","","","","","","","","","","","","","","","","","","","","","","","","","","","","","","","","","","","","","","50"
"","","","","ctl-task-cpt","75","2124630","0.0-10.0-0.6","177","1","2025-07-02 10:23:38","80fe4187154257d5fb01684ea91b68b9","105.245.115.171","Mozilla/5.0 (Windows NT 10.0; Win64; x64) AppleWebKit/537.36 (KHTML, like Gecko) Chrome/137.0.0.0 Safari/537.36","WebKit","Chrome","137.0.0.0","Windows","10.0","https://app.prolific.com/","en-US,en;q=0.9","6759c3924ac0cc133d603965","683db6dfa200031b80f2a654","6865078684c8bee2d6f2a6b0","6759c3924ac0cc133d603965","2025-07-02T10:59:05.246Z","","","","","","","","","","","","","","","","win-only","1","g1:NE,g2:SW","0.4","7","0","2059934.8","1798.4","6801.3","64438.8","1","4","8","6","2","-8","-11","22","33","0.16666666666666666","2082.5","3000","-1575","[""down"",""left""]","{""num_key_presses"":14,""num_perfect"":4,""num_errors"":3,""num_randdir"":7,""num_randdir_good_moves"":3,""num_whilered"":0,""num_whileblue"":1,""num_blue"":5,""num_good_moves"":7}","[251.24598214285714,248.63660714285714,0.6,251.24598214285714,248.63660714285714,102.3,251.24598214285714,248.63660714285714,203,251.24598214285714,248.63660714285714,317.7,251.24598214285714,248.63660714285714,423.2,251.24598214285714,248.63660714285714,531.7,251.24598214285714,248.63660714285714,633.9,251.24598214285714,248.63660714285714,740.7,251.24598214285714,248.63660714285714,843.8,251.24598214285714,248.63660714285714,946,231.24598214285714,273.63660714285714,1054.1,160.24598214285714,375.63660714285714,1156.5,122.24598214285714,411.63660714285714,1258,71.24598214285714,462.63660714285714,1364.5,55.245982142857144,471.63660714285714,1465.1,47.245982142857144,471.63660714285714,1566.1,46.245982142857144,461.63660714285714,1671.3,49.245982142857144,456.63660714285714,1782.4,49.245982142857144,456.63660714285714,1888.8,49.245982142857144,456.63660714285714,2003.3,49.245982142857144,456.63660714285714,2107,49.245982142857144,456.63660714285714,2224,49.245982142857144,456.63660714285714,2332.4,49.245982142857144,456.63660714285714,2434.9,49.245982142857144,456.63660714285714,2537.6,49.245982142857144,456.63660714285714,2646.6,49.245982142857144,456.63660714285714,2752.3,49.245982142857144,456.63660714285714,2858.9,49.245982142857144,456.63660714285714,2963.4,49.245982142857144,456.63660714285714,3068.5,49.245982142857144,456.63660714285714,3174.4,49.245982142857144,456.63660714285714,3283.8,49.245982142857144,456.63660714285714,3388,49.245982142857144,456.63660714285714,3500.3,49.245982142857144,456.63660714285714,3618.6,49.245982142857144,456.63660714285714,3724.1,49.245982142857144,456.63660714285714,3826.4,49.245982142857144,456.63660714285714,3936.9,49.245982142857144,456.63660714285714,4053.7,49.245982142857144,456.63660714285714,4154.6,49.245982142857144,456.63660714285714,4255.4,49.245982142857144,456.63660714285714,4365.1,49.245982142857144,456.63660714285714,4468,49.245982142857144,456.63660714285714,4571.6,49.245982142857144,456.63660714285714,4673.1,49.245982142857144,456.63660714285714,4774.5,49.245982142857144,456.63660714285714,4876.4,49.245982142857144,456.63660714285714,4982.4]","[1584.4,1584.4,1000,0,584.4,""smooth"",""left"",""left"",""good_move"",8052.5,6467.4,2158.5,5435.6,458.4,""smooth"",""down"",""down"",""good_move"",10056.8,2003.7,1482.8,8053.2,520.8,""smooth"",""down"",""down"",""good_move"",13503.3,3445.8,2994.7,10057.5,451.1,""oops"",""down"",""up"",""bad_move"",23617.2,10113.1,2076.8,21160.2,380.2,""oops"",""down"",""right"",""bad_move"",27094.4,3476.5,2751.8,23618,724.7,""oops"",""down"",""left"",""good_move"",30011,2915.8,2410.6,27095.2,505.2,""oops"",""down"",""left"",""good_move"",33295.4,3283.8,2862,30011.6,421.8,""smooth"",""left"",""left"",""good_move"",36413.7,3117.7,2655.1,33296,462.6,""oops"",""down"",""up"",""bad_move"",39117.4,2703,2277.8,36414.5,425.2,""oops"",""down"",""right"",""bad_move"",41412.4,2294.1,3034,39118.3,-739.9,""error"",""-"",""-"",""no_move"",44197.9,2785.1,2243.7,42419.6,-465.4,""error"",""-"",""-"",""no_move"",48255.4,4056.8,2645.9,45200.6,408.9,""while_blue"",""left"",""right"",""bad_move"",54735,6479.2,2173.5,52139.2,422.3,""oops"",""down"",""left"",""good_move""]","",""
"7615","","<div style=""width:500px;"">
  <p>What determined the result of this run?</p>
  </div>","45","html-slider-response","76","2132247","0.0-10.0-1.6","177","1","2025-07-02 10:23:38","80fe4187154257d5fb01684ea91b68b9","105.245.115.171","Mozilla/5.0 (Windows NT 10.0; Win64; x64) AppleWebKit/537.36 (KHTML, like Gecko) Chrome/137.0.0.0 Safari/537.36","WebKit","Chrome","137.0.0.0","Windows","10.0","https://app.prolific.com/","en-US,en;q=0.9","6759c3924ac0cc133d603965","683db6dfa200031b80f2a654","6865078684c8bee2d6f2a6b0","6759c3924ac0cc133d603965","2025-07-02T10:59:12.864Z","","","","","","AttribQ","","","","","","","","","","","","","","","","","","","","","","","","","","","","","","","","","","","","","","50"
"4031","","<div style=""width:500px;"">
  <p>How much control did you have over the ball?</p>
  </div>","21","html-slider-response","77","2136281","0.0-10.0-2.6","177","1","2025-07-02 10:23:38","80fe4187154257d5fb01684ea91b68b9","105.245.115.171","Mozilla/5.0 (Windows NT 10.0; Win64; x64) AppleWebKit/537.36 (KHTML, like Gecko) Chrome/137.0.0.0 Safari/537.36","WebKit","Chrome","137.0.0.0","Windows","10.0","https://app.prolific.com/","en-US,en;q=0.9","6759c3924ac0cc133d603965","683db6dfa200031b80f2a654","6865078684c8bee2d6f2a6b0","6759c3924ac0cc133d603965","2025-07-02T10:59:16.897Z","","","","","","ControlQ","","","","","","","","","","","","","","","","","","","","","","","","","","","","","","","","","","","","","","50"
"5642","","<div style=""width:500px;"">
  <p>How would you describe your current emotional state?</p>
  </div>","71","html-slider-response","78","2141926","0.0-10.0-3.6","177","1","2025-07-02 10:23:38","80fe4187154257d5fb01684ea91b68b9","105.245.115.171","Mozilla/5.0 (Windows NT 10.0; Win64; x64) AppleWebKit/537.36 (KHTML, like Gecko) Chrome/137.0.0.0 Safari/537.36","WebKit","Chrome","137.0.0.0","Windows","10.0","https://app.prolific.com/","en-US,en;q=0.9","6759c3924ac0cc133d603965","683db6dfa200031b80f2a654","6865078684c8bee2d6f2a6b0","6759c3924ac0cc133d603965","2025-07-02T10:59:22.542Z","","","","","","StressQ","","","","","","","","","","","","","","","","","","","","","","","","","","","","","","","","","","","","","","50"
"4400","","<div style=""width:500px;"">
  <p>What best describes how you currently feel?</p>
  </div>","40","html-slider-response","79","2146328","0.0-10.0-4.6","177","1","2025-07-02 10:23:38","80fe4187154257d5fb01684ea91b68b9","105.245.115.171","Mozilla/5.0 (Windows NT 10.0; Win64; x64) AppleWebKit/537.36 (KHTML, like Gecko) Chrome/137.0.0.0 Safari/537.36","WebKit","Chrome","137.0.0.0","Windows","10.0","https://app.prolific.com/","en-US,en;q=0.9","6759c3924ac0cc133d603965","683db6dfa200031b80f2a654","6865078684c8bee2d6f2a6b0","6759c3924ac0cc133d603965","2025-07-02T10:59:26.944Z","","","","","","MotivationQ","","","","","","","","","","","","","","","","","","","","","","","","","","","","","","","","","","","","","","50"
"","","","","ctl-task-cpt","80","2205185","0.0-10.0-0.7","177","1","2025-07-02 10:23:38","80fe4187154257d5fb01684ea91b68b9","105.245.115.171","Mozilla/5.0 (Windows NT 10.0; Win64; x64) AppleWebKit/537.36 (KHTML, like Gecko) Chrome/137.0.0.0 Safari/537.36","WebKit","Chrome","137.0.0.0","Windows","10.0","https://app.prolific.com/","en-US,en;q=0.9","6759c3924ac0cc133d603965","683db6dfa200031b80f2a654","6865078684c8bee2d6f2a6b0","6759c3924ac0cc133d603965","2025-07-02T11:00:25.802Z","","","","","","","","","","","","","","","","win-only","0","g1:NW,g2:SE","0.3","8","0","2149096.6","4159","9160.3","55835.4","1","4","4","6","2","4","4","26","22","0.19696969696969696","1982.5","3000","445","[""down"",""right""]","{""num_key_presses"":10,""num_perfect"":3,""num_errors"":0,""num_randdir"":7,""num_randdir_good_moves"":5,""num_whilered"":0,""num_whileblue"":0,""num_blue"":5,""num_good_moves"":8}","[243.24598214285714,243.63660714285714,0.9,243.24598214285714,243.63660714285714,101.9,243.24598214285714,243.63660714285714,202.7,243.24598214285714,243.63660714285714,305.5,243.24598214285714,243.63660714285714,412.4,243.24598214285714,243.63660714285714,521,243.24598214285714,243.63660714285714,633.6,243.24598214285714,243.63660714285714,744.1,243.24598214285714,243.63660714285714,848.5,243.24598214285714,243.63660714285714,956.9,243.24598214285714,243.63660714285714,1058.2,265.24598214285714,258.63660714285714,1161.2,399.24598214285714,389.63660714285714,1262.7,430.24598214285714,425.63660714285714,1363.6,439.24598214285714,430.63660714285714,1481,441.24598214285714,431.63660714285714,1591.4,442.24598214285714,432.63660714285714,1695.3,442.24598214285714,432.63660714285714,1810.4,442.24598214285714,432.63660714285714,1912.4,442.24598214285714,432.63660714285714,2024.2,442.24598214285714,432.63660714285714,2142.1,442.24598214285714,432.63660714285714,2242.2,442.24598214285714,432.63660714285714,2342.2,442.24598214285714,432.63660714285714,2458.5,442.24598214285714,432.63660714285714,2567.2,442.24598214285714,432.63660714285714,2673.7,442.24598214285714,432.63660714285714,2775.6,442.24598214285714,432.63660714285714,2876.5,442.24598214285714,432.63660714285714,2984.7,442.24598214285714,432.63660714285714,3084.7,442.24598214285714,432.63660714285714,3214,442.24598214285714,432.63660714285714,3351,442.24598214285714,432.63660714285714,3454.8,442.24598214285714,432.63660714285714,3559.6,442.24598214285714,432.63660714285714,3678.7,442.24598214285714,432.63660714285714,3782.3,442.24598214285714,432.63660714285714,3895.8,442.24598214285714,432.63660714285714,3996.7,442.24598214285714,432.63660714285714,4097.6,442.24598214285714,432.63660714285714,4205.8,442.24598214285714,432.63660714285714,4314.8,442.24598214285714,432.63660714285714,4420.4,442.24598214285714,432.63660714285714,4523.7,442.24598214285714,432.63660714285714,4627.4,442.24598214285714,432.63660714285714,4733.7,442.24598214285714,432.63660714285714,4842.8,442.24598214285714,432.63660714285714,4948]","[1549.3,1549.3,1000,0,549.3,""oops"",""down"",""left"",""bad_move"",4718.6,3168.4,2645.2,1550.2,523.2,""smooth"",""right"",""right"",""good_move"",7764,3044.9,2528.9,4719.1,516,""oops"",""right"",""left"",""bad_move"",10453.7,2689.3,2207.3,7764.5,482,""oops"",""right"",""right"",""good_move"",16499.9,6045.5,2052.3,13911.8,535.8,""oops"",""right"",""right"",""good_move"",19992.3,3492,2963.1,16500.3,528.9,""oops"",""right"",""down"",""good_move"",25934.4,5941.2,1957.1,23535.7,441.6,""oops"",""right"",""right"",""good_move"",33460.3,7525.5,2408.3,30628.2,423.8,""smooth"",""right"",""right"",""good_move"",37307.1,3846.3,3422.8,33460.8,423.5,""smooth"",""down"",""down"",""good_move"",46515,9207.3,1784.8,44238.3,491.9,""oops"",""down"",""down"",""good_move""]","",""
"3541","","<div style=""width:500px;"">
  <p>What determined the result of this run?</p>
  </div>","64","html-slider-response","81","2208730","0.0-10.0-1.7","177","1","2025-07-02 10:23:38","80fe4187154257d5fb01684ea91b68b9","105.245.115.171","Mozilla/5.0 (Windows NT 10.0; Win64; x64) AppleWebKit/537.36 (KHTML, like Gecko) Chrome/137.0.0.0 Safari/537.36","WebKit","Chrome","137.0.0.0","Windows","10.0","https://app.prolific.com/","en-US,en;q=0.9","6759c3924ac0cc133d603965","683db6dfa200031b80f2a654","6865078684c8bee2d6f2a6b0","6759c3924ac0cc133d603965","2025-07-02T11:00:29.346Z","","","","","","AttribQ","","","","","","","","","","","","","","","","","","","","","","","","","","","","","","","","","","","","","","50"
"8242","","<div style=""width:500px;"">
  <p>How much control did you have over the ball?</p>
  </div>","67","html-slider-response","82","2216974","0.0-10.0-2.7","177","1","2025-07-02 10:23:38","80fe4187154257d5fb01684ea91b68b9","105.245.115.171","Mozilla/5.0 (Windows NT 10.0; Win64; x64) AppleWebKit/537.36 (KHTML, like Gecko) Chrome/137.0.0.0 Safari/537.36","WebKit","Chrome","137.0.0.0","Windows","10.0","https://app.prolific.com/","en-US,en;q=0.9","6759c3924ac0cc133d603965","683db6dfa200031b80f2a654","6865078684c8bee2d6f2a6b0","6759c3924ac0cc133d603965","2025-07-02T11:00:37.590Z","","","","","","ControlQ","","","","","","","","","","","","","","","","","","","","","","","","","","","","","","","","","","","","","","50"
"6191","","<div style=""width:500px;"">
  <p>How would you describe your current emotional state?</p>
  </div>","77","html-slider-response","83","2223169","0.0-10.0-3.7","177","1","2025-07-02 10:23:38","80fe4187154257d5fb01684ea91b68b9","105.245.115.171","Mozilla/5.0 (Windows NT 10.0; Win64; x64) AppleWebKit/537.36 (KHTML, like Gecko) Chrome/137.0.0.0 Safari/537.36","WebKit","Chrome","137.0.0.0","Windows","10.0","https://app.prolific.com/","en-US,en;q=0.9","6759c3924ac0cc133d603965","683db6dfa200031b80f2a654","6865078684c8bee2d6f2a6b0","6759c3924ac0cc133d603965","2025-07-02T11:00:43.785Z","","","","","","StressQ","","","","","","","","","","","","","","","","","","","","","","","","","","","","","","","","","","","","","","50"
"4156","","<div style=""width:500px;"">
  <p>What best describes how you currently feel?</p>
  </div>","44","html-slider-response","84","2227329","0.0-10.0-4.7","177","1","2025-07-02 10:23:38","80fe4187154257d5fb01684ea91b68b9","105.245.115.171","Mozilla/5.0 (Windows NT 10.0; Win64; x64) AppleWebKit/537.36 (KHTML, like Gecko) Chrome/137.0.0.0 Safari/537.36","WebKit","Chrome","137.0.0.0","Windows","10.0","https://app.prolific.com/","en-US,en;q=0.9","6759c3924ac0cc133d603965","683db6dfa200031b80f2a654","6865078684c8bee2d6f2a6b0","6759c3924ac0cc133d603965","2025-07-02T11:00:47.945Z","","","","","","MotivationQ","","","","","","","","","","","","","","","","","","","","","","","","","","","","","","","","","","","","","","50"
"","","","","ctl-task-cpt","85","2344140","0.0-10.0-0.8","177","1","2025-07-02 10:23:38","80fe4187154257d5fb01684ea91b68b9","105.245.115.171","Mozilla/5.0 (Windows NT 10.0; Win64; x64) AppleWebKit/537.36 (KHTML, like Gecko) Chrome/137.0.0.0 Safari/537.36","WebKit","Chrome","137.0.0.0","Windows","10.0","https://app.prolific.com/","en-US,en;q=0.9","6759c3924ac0cc133d603965","683db6dfa200031b80f2a654","6865078684c8bee2d6f2a6b0","6759c3924ac0cc133d603965","2025-07-02T11:02:44.756Z","","","","","","","","","","","","","","","","win-only","0","g1:NW,g2:SE","0.4","9","0","2230098.3","4361.8","9383.2","113751.2","1","4","8","6","2","8","2","28","26","0.21212121212121213","1917","3000","1420","[""down"",""right""]","{""num_key_presses"":25,""num_perfect"":7,""num_errors"":6,""num_randdir"":11,""num_randdir_good_moves"":4,""num_whilered"":1,""num_whileblue"":2,""num_blue"":5,""num_good_moves"":13}","[249.24598214285714,246.63660714285714,0.6,249.24598214285714,246.63660714285714,107.2,249.24598214285714,246.63660714285714,227.9,249.24598214285714,246.63660714285714,350.7,249.24598214285714,246.63660714285714,451.6,249.24598214285714,246.63660714285714,571,249.24598214285714,246.63660714285714,683.1,249.24598214285714,246.63660714285714,797,300.24598214285714,278.63660714285714,919.6,408.24598214285714,367.63660714285714,1033.4,449.24598214285714,393.63660714285714,1155,455.24598214285714,409.63660714285714,1290.6,455.24598214285714,444.63660714285714,1413.9,455.24598214285714,444.63660714285714,1537.6,455.24598214285714,444.63660714285714,1653.3,455.24598214285714,444.63660714285714,1773.5,454.24598214285714,444.63660714285714,1890.7,454.24598214285714,444.63660714285714,1994.4,454.24598214285714,444.63660714285714,2115.2,454.24598214285714,444.63660714285714,2237.4,454.24598214285714,444.63660714285714,2357.8,454.24598214285714,444.63660714285714,2478,454.24598214285714,444.63660714285714,2595.5,454.24598214285714,444.63660714285714,2763.2,454.24598214285714,444.63660714285714,2864.2,454.24598214285714,444.63660714285714,2977,454.24598214285714,444.63660714285714,3082.8,454.24598214285714,444.63660714285714,3188.8,454.24598214285714,444.63660714285714,3295.6,454.24598214285714,444.63660714285714,3406.2,454.24598214285714,444.63660714285714,3512.3,454.24598214285714,444.63660714285714,3642.5,454.24598214285714,444.63660714285714,3748.2,454.24598214285714,444.63660714285714,3855.4,454.24598214285714,444.63660714285714,3959.1,454.24598214285714,444.63660714285714,4094,454.24598214285714,444.63660714285714,4194.2,454.24598214285714,444.63660714285714,4325.7,454.24598214285714,444.63660714285714,4458.6,454.24598214285714,444.63660714285714,4583.6,454.24598214285714,444.63660714285714,4719.6,454.24598214285714,444.63660714285714,4848.1,454.24598214285714,444.63660714285714,4963.2]","[1459.7,1459.7,1000,0,459.7,""smooth"",""right"",""right"",""good_move"",4685.7,3225.4,2670,1460.3,555.4,""oops"",""right"",""left"",""bad_move"",6505.2,1819,3504.1,4686.2,-1685.1,""error"",""-"",""-"",""no_move"",10194.4,3688.7,2191.9,7519.8,482.7,""oops"",""right"",""down"",""good_move"",13279.6,3084.6,2329.7,10195,754.9,""smooth"",""right"",""right"",""good_move"",16663.6,3383.7,2865.1,13279.9,518.6,""smooth"",""right"",""right"",""good_move"",19743.2,3078.9,2550.8,16664.4,528.1,""oops"",""right"",""down"",""good_move"",22480.2,2735.9,2224.7,19744.3,511.2,""smooth"",""right"",""right"",""good_move"",24851,2370.5,1768.4,22480.5,602.1,""oops"",""down"",""up"",""bad_move"",32290.4,7438.9,6701.5,24851.6,737.4,""while_blue"",""down"",""down"",""good_move"",35392.6,3101.6,2459.1,32291,642.5,""oops"",""down"",""left"",""bad_move"",42882.8,7489.8,2676.1,35393,4813.7,""oops"",""down"",""down"",""good_move"",45719.5,2836.3,1976.3,42883.2,860,""oops"",""right"",""left"",""bad_move"",46736.8,1017,2255.1,45719.8,-1238.1,""error"",""-"",""-"",""no_move"",47236.5,499.5,2255.1,45719.8,-738.4,""while_red"",""-"",""-"",""no_move"",48344.5,1607.5,2472.8,47763.3,-1891.6,""error"",""-"",""-"",""no_move"",53432.4,5087.6,2322.5,49369.5,1740.4,""oops"",""right"",""left"",""bad_move"",61329.8,7897,7114.4,53432.8,782.6,""while_blue"",""left"",""right"",""good_move"",65473.8,4143.8,2745.6,61330.1,1398.1,""oops"",""right"",""right"",""good_move"",68255.8,2781.4,2147.4,65474.4,634,""oops"",""right"",""up"",""bad_move"",76666,8409.9,1981.1,76591,-1906.1,""error"",""-"",""-"",""no_move"",80628.5,3962.1,2433.2,77676.9,518.4,""smooth"",""right"",""right"",""good_move"",83613.9,2985.1,2322.4,80628.8,662.7,""oops"",""down"",""up"",""bad_move"",91473,7858.8,2141.7,83614.2,5717.1,""smooth"",""down"",""down"",""good_move"",103133,11659.8,2429.4,99912.6,791,""smooth"",""down"",""down"",""good_move""]","",""
"3574","","<div style=""width:500px;"">
  <p>What determined the result of this run?</p>
