"rt","response_timestamp","stimulus","response","trial_type","trial_index","time_elapsed","internal_node_id","run_id","condition","recorded_at","source_code_version","ip","user_agent","device","browser","browser_version","platform","platform_version","referer","accept_language","PROLIFIC_PID","STUDY_ID","SESSION_ID","prolific_id","realtime","view_history","question_order","consent","success","question_id","eventType","responses","item_order","radio_event_ids","radio_event_times","key_event_times","mouse_event_times","straightlining","zigzagging","honeypot","which_type","canvas_config","goals_layout","control_level","trial_number","tutorial_trial_number","trial_start_time","phase1_start_time","phase2_start_time","phase3_start_time","goal_1_value","goal_1_distance","goal_2_value","goal_2_distance","goal_selected","outcome","outcome_total","participant_final_score","participant_initial_score","participant_final_score_prop","goal_choice_rt","allocated_time","allocated_time_remaining","goal_direction","counts","mouse_movements","key_presses","correct","slider_start"
"5412","1751451549336","<p style='font-size:40px;line-height:1.25'><strong>Welcome to the experiment!</strong></p><p style='font-size:1.1em;line-height:1.25'>Thank you for your interest in our experiment! Before you begin, it is important that we obtain your informed consent to participate in the study.</p><p style='font-size:1.1em;line-height:1.25'>On the next screen will be an <strong>information sheet</strong> for you to read. To participate in the study we need you to read this information sheet and the following consent form carefully. If you agree with all the statements, please click the <strong>I agree</strong> button.</p><p style='font-size:1.1em;line-height:1.25'>Press <strong>Next</strong> to read the information sheet.</p>","0","custom-html-button-response","0","5416","0.0-0.0","72","1","2025-07-02 10:19:01","80fe4187154257d5fb01684ea91b68b9","148.252.133.74","Mozilla/5.0 (Windows NT 10.0; Win64; x64) AppleWebKit/537.36 (KHTML, like Gecko) Chrome/137.0.0.0 Safari/537.36","WebKit","Chrome","137.0.0.0","Windows","10.0","https://app.prolific.com/","en-GB,en-US;q=0.9,en;q=0.8","676055e6c41940f91e59028c","683db6dfa200031b80f2a654","686507786076d0b3381d7473","676055e6c41940f91e59028c","2025-07-02T10:19:09.339Z","","","","","","","","","","","","","","","","","","","","","","","","","","","","","","","","","","","","","","","","","","","",""
"14625","","","","instructions","1","20044","0.0-1.0","72","1","2025-07-02 10:19:01","80fe4187154257d5fb01684ea91b68b9","148.252.133.74","Mozilla/5.0 (Windows NT 10.0; Win64; x64) AppleWebKit/537.36 (KHTML, like Gecko) Chrome/137.0.0.0 Safari/537.36","WebKit","Chrome","137.0.0.0","Windows","10.0","https://app.prolific.com/","en-GB,en-US;q=0.9,en;q=0.8","676055e6c41940f91e59028c","683db6dfa200031b80f2a654","686507786076d0b3381d7473","676055e6c41940f91e59028c","","[{""page_index"":0,""viewing_time"":8643},{""page_index"":1,""viewing_time"":5981}]","","","","","","","","","","","","","","","","","","","","","","","","","","","","","","","","","","","","","","","","","","",""
"7211","","","{""Q0"":"""",""Q1"":"""",""Q2"":"""",""Q3"":"""",""Q4"":"""",""Q5"":"""",""Q6"":""I agree""}","survey-multi-choice","2","27260","0.0-2.0","72","1","2025-07-02 10:19:01","80fe4187154257d5fb01684ea91b68b9","148.252.133.74","Mozilla/5.0 (Windows NT 10.0; Win64; x64) AppleWebKit/537.36 (KHTML, like Gecko) Chrome/137.0.0.0 Safari/537.36","WebKit","Chrome","137.0.0.0","Windows","10.0","https://app.prolific.com/","en-GB,en-US;q=0.9,en;q=0.8","676055e6c41940f91e59028c","683db6dfa200031b80f2a654","686507786076d0b3381d7473","676055e6c41940f91e59028c","","","[0,1,2,3,4,5,6]","true","","","","","","","","","","","","","","","","","","","","","","","","","","","","","","","","","","","","","","","","",""
"10991","","","","fullscreen","3","39258","0.0-4.0","72","1","2025-07-02 10:19:01","80fe4187154257d5fb01684ea91b68b9","148.252.133.74","Mozilla/5.0 (Windows NT 10.0; Win64; x64) AppleWebKit/537.36 (KHTML, like Gecko) Chrome/137.0.0.0 Safari/537.36","WebKit","Chrome","137.0.0.0","Windows","10.0","https://app.prolific.com/","en-GB,en-US;q=0.9,en;q=0.8","676055e6c41940f91e59028c","683db6dfa200031b80f2a654","686507786076d0b3381d7473","676055e6c41940f91e59028c","","","","","true","","","","","","","","","","","","","","","","","","","","","","","","","","","","","","","","","","","","","","","",""
"5707","1751451588889"," <p style='font-size:1.1em;line-height:1.25'>Thank you for completing the consent form and closing all other tabs.</p><p style='font-size:1.1em;line-height:1.25'>We will now invite you to fill in some demographic information and questionnaires, before starting the game.<br>This will take about 5 minutes.<br></p><p style='font-size:1.1em;line-height:1.25'>Press the <strong>Next</strong> button to continue.</p>","0","custom-html-button-response","4","44968","0.0-5.0","72","1","2025-07-02 10:19:01","80fe4187154257d5fb01684ea91b68b9","148.252.133.74","Mozilla/5.0 (Windows NT 10.0; Win64; x64) AppleWebKit/537.36 (KHTML, like Gecko) Chrome/137.0.0.0 Safari/537.36","WebKit","Chrome","137.0.0.0","Windows","10.0","https://app.prolific.com/","en-GB,en-US;q=0.9,en;q=0.8","676055e6c41940f91e59028c","683db6dfa200031b80f2a654","686507786076d0b3381d7473","676055e6c41940f91e59028c","2025-07-02T10:19:48.890Z","","","","","","","","","","","","","","","","","","","","","","","","","","","","","","","","","","","","","","","","","","","",""
"6161","","","{""age"":""35""}","survey-text","5","51135","0.0-6.0-0.0","72","1","2025-07-02 10:19:01","80fe4187154257d5fb01684ea91b68b9","148.252.133.74","Mozilla/5.0 (Windows NT 10.0; Win64; x64) AppleWebKit/537.36 (KHTML, like Gecko) Chrome/137.0.0.0 Safari/537.36","WebKit","Chrome","137.0.0.0","Windows","10.0","https://app.prolific.com/","en-GB,en-US;q=0.9,en;q=0.8","676055e6c41940f91e59028c","683db6dfa200031b80f2a654","686507786076d0b3381d7473","676055e6c41940f91e59028c","","","","","","0","demographics","","","","","","","","","","","","","","","","","","","","","","","","","","","","","","","","","","","","","",""
"3728","","","{""gender_identity"":""male/man""}","survey-multi-choice","6","54865","0.0-6.0-1.0","72","1","2025-07-02 10:19:01","80fe4187154257d5fb01684ea91b68b9","148.252.133.74","Mozilla/5.0 (Windows NT 10.0; Win64; x64) AppleWebKit/537.36 (KHTML, like Gecko) Chrome/137.0.0.0 Safari/537.36","WebKit","Chrome","137.0.0.0","Windows","10.0","https://app.prolific.com/","en-GB,en-US;q=0.9,en;q=0.8","676055e6c41940f91e59028c","683db6dfa200031b80f2a654","686507786076d0b3381d7473","676055e6c41940f91e59028c","","","[0]","","","1","demographics","","","","","","","","","","","","","","","","","","","","","","","","","","","","","","","","","","","","","",""
"2897","","","{""assigned_sex"":""male""}","survey-multi-choice","7","57764","0.0-6.0-2.0","72","1","2025-07-02 10:19:01","80fe4187154257d5fb01684ea91b68b9","148.252.133.74","Mozilla/5.0 (Windows NT 10.0; Win64; x64) AppleWebKit/537.36 (KHTML, like Gecko) Chrome/137.0.0.0 Safari/537.36","WebKit","Chrome","137.0.0.0","Windows","10.0","https://app.prolific.com/","en-GB,en-US;q=0.9,en;q=0.8","676055e6c41940f91e59028c","683db6dfa200031b80f2a654","686507786076d0b3381d7473","676055e6c41940f91e59028c","","","[0]","","","2","demographics","","","","","","","","","","","","","","","","","","","","","","","","","","","","","","","","","","","","","",""
"4245","","","{""menstrual_cycle"":""No""}","survey-multi-choice","8","62012","0.0-6.0-3.0","72","1","2025-07-02 10:19:01","80fe4187154257d5fb01684ea91b68b9","148.252.133.74","Mozilla/5.0 (Windows NT 10.0; Win64; x64) AppleWebKit/537.36 (KHTML, like Gecko) Chrome/137.0.0.0 Safari/537.36","WebKit","Chrome","137.0.0.0","Windows","10.0","https://app.prolific.com/","en-GB,en-US;q=0.9,en;q=0.8","676055e6c41940f91e59028c","683db6dfa200031b80f2a654","686507786076d0b3381d7473","676055e6c41940f91e59028c","","","[0]","","","4","demographics","","","","","","","","","","","","","","","","","","","","","","","","","","","","","","","","","","","","","",""
"6698","","","{""education"":""Bachelor's Degree (e.g., BA)""}","survey-multi-choice","9","68712","0.0-6.0-4.0","72","1","2025-07-02 10:19:01","80fe4187154257d5fb01684ea91b68b9","148.252.133.74","Mozilla/5.0 (Windows NT 10.0; Win64; x64) AppleWebKit/537.36 (KHTML, like Gecko) Chrome/137.0.0.0 Safari/537.36","WebKit","Chrome","137.0.0.0","Windows","10.0","https://app.prolific.com/","en-GB,en-US;q=0.9,en;q=0.8","676055e6c41940f91e59028c","683db6dfa200031b80f2a654","686507786076d0b3381d7473","676055e6c41940f91e59028c","","","[0]","","","5","demographics","","","","","","","","","","","","","","","","","","","","","","","","","","","","","","","","","","","","","",""
"13944","","","{""education"":""Bachelor's Degree (e.g., BA)""}","survey-multi-choice","10","82657","0.0-6.0-5.0","72","1","2025-07-02 10:19:01","80fe4187154257d5fb01684ea91b68b9","148.252.133.74","Mozilla/5.0 (Windows NT 10.0; Win64; x64) AppleWebKit/537.36 (KHTML, like Gecko) Chrome/137.0.0.0 Safari/537.36","WebKit","Chrome","137.0.0.0","Windows","10.0","https://app.prolific.com/","en-GB,en-US;q=0.9,en;q=0.8","676055e6c41940f91e59028c","683db6dfa200031b80f2a654","686507786076d0b3381d7473","676055e6c41940f91e59028c","2025-07-02T10:20:26.579Z","","[0]","","","6","demographics","","","","","","","","","","","","","","","","","","","","","","","","","","","","","","","","","","","","","",""
"70946","","","{""mental_health_condition"":""Anxiety"",""mental_health_treatment"":""Medication "",""psychiatric_medication"":""Sertraline 50mg Daily""}","survey-text","11","153608","0.0-7.0-0.0","72","1","2025-07-02 10:19:01","80fe4187154257d5fb01684ea91b68b9","148.252.133.74","Mozilla/5.0 (Windows NT 10.0; Win64; x64) AppleWebKit/537.36 (KHTML, like Gecko) Chrome/137.0.0.0 Safari/537.36","WebKit","Chrome","137.0.0.0","Windows","10.0","https://app.prolific.com/","en-GB,en-US;q=0.9,en;q=0.8","676055e6c41940f91e59028c","683db6dfa200031b80f2a654","686507786076d0b3381d7473","676055e6c41940f91e59028c","2025-07-02T10:21:37.531Z","","","","","1","mental_health","","","","","","","","","","","","","","","","","","","","","","","","","","","","","","","","","","","","","",""
"6783","","","{""depression_history"":[""No""]}","survey-multi-select","12","160396","0.0-7.0-1.0","72","1","2025-07-02 10:19:01","80fe4187154257d5fb01684ea91b68b9","148.252.133.74","Mozilla/5.0 (Windows NT 10.0; Win64; x64) AppleWebKit/537.36 (KHTML, like Gecko) Chrome/137.0.0.0 Safari/537.36","WebKit","Chrome","137.0.0.0","Windows","10.0","https://app.prolific.com/","en-GB,en-US;q=0.9,en;q=0.8","676055e6c41940f91e59028c","683db6dfa200031b80f2a654","686507786076d0b3381d7473","676055e6c41940f91e59028c","","","[0]","","","","mental_health","","","","","","","","","","","","","","","","","","","","","","","","","","","","","","","","","","","","","",""
"59594.89999985695","","","","survey-template","13","219999","0.0-7.0-3.0","72","1","2025-07-02 10:19:01","80fe4187154257d5fb01684ea91b68b9","148.252.133.74","Mozilla/5.0 (Windows NT 10.0; Win64; x64) AppleWebKit/537.36 (KHTML, like Gecko) Chrome/137.0.0.0 Safari/537.36","WebKit","Chrome","137.0.0.0","Windows","10.0","https://app.prolific.com/","en-GB,en-US;q=0.9,en;q=0.8","676055e6c41940f91e59028c","683db6dfa200031b80f2a654","686507786076d0b3381d7473","676055e6c41940f91e59028c","2025-07-02T10:22:43.921Z","","","","","","ius","{""Q01"":""2"",""Q02"":""4"",""Q03"":""3"",""Q04"":""2"",""Q05"":""2"",""Q06"":""3"",""Q07"":""3"",""Q08"":""0"",""Q09"":""3"",""Q10"":""2"",""Q11"":""4"",""Q12"":""3"",""Q13"":""2""}","[0,1,2,3,4,5,6,7,8,9,10,11,12]","[""Q02"",""Q03"",""Q04"",""Q01"",""Q06"",""Q07"",""Q08"",""Q05"",""Q09"",""Q10"",""Q12"",""Q13"",""Q11""]","[10456.799999952316,13239.899999856949,15737.299999952316,17073.5,22453,24154.599999904633,26418.5,32017,41379.5,43227.700000047684,48227.89999985695,50944,56877.5]","[]","[10456.799999952316,13239.899999856949,15737.299999952316,17073.5,22453,24154.599999904633,26418.5,32017,39047.700000047684,40362.59999990463,41379.5,43227.700000047684,44980.5,48227.89999985695,49525.700000047684,50944,53426,56877.5,59590.59999990463]","0.38461538461538464","0.5","0","","","","","","","","","","","","","","","","","","","","","","","","","","","","",""
"2759","1751451766681","<p style='font-size:1.1em;line-height:1.25'>In the following, we will ask you a few questions relating to your experiences over the past month.<br></p><p style='font-size:1.1em;line-height:1.25'>Press the <strong>Next</strong> button to continue.</p>","0","custom-html-button-response","14","222760","0.0-7.0-4.0","72","1","2025-07-02 10:19:01","80fe4187154257d5fb01684ea91b68b9","148.252.133.74","Mozilla/5.0 (Windows NT 10.0; Win64; x64) AppleWebKit/537.36 (KHTML, like Gecko) Chrome/137.0.0.0 Safari/537.36","WebKit","Chrome","137.0.0.0","Windows","10.0","https://app.prolific.com/","en-GB,en-US;q=0.9,en;q=0.8","676055e6c41940f91e59028c","683db6dfa200031b80f2a654","686507786076d0b3381d7473","676055e6c41940f91e59028c","2025-07-02T10:22:46.682Z","","","","","","","","","","","","","","","","","","","","","","","","","","","","","","","","","","","","","","","","","","","",""
"40066.89999985695","","","","survey-template","15","262831","0.0-7.0-5.0","72","1","2025-07-02 10:19:01","80fe4187154257d5fb01684ea91b68b9","148.252.133.74","Mozilla/5.0 (Windows NT 10.0; Win64; x64) AppleWebKit/537.36 (KHTML, like Gecko) Chrome/137.0.0.0 Safari/537.36","WebKit","Chrome","137.0.0.0","Windows","10.0","https://app.prolific.com/","en-GB,en-US;q=0.9,en;q=0.8","676055e6c41940f91e59028c","683db6dfa200031b80f2a654","686507786076d0b3381d7473","676055e6c41940f91e59028c","2025-07-02T10:23:26.753Z","","","","","","pss","{""Q01"":""2"",""Q02"":""3"",""Q03"":""3"",""Q04"":""2"",""Q05"":""2"",""Q06"":""3"",""Q07"":""3"",""Q08"":""2"",""Q09"":""3"",""Q10"":""3""}","[0,1,2,3,4,5,6,7,8,9]","[""Q01"",""Q02"",""Q03"",""Q04"",""Q05"",""Q06"",""Q07"",""Q08"",""Q09"",""Q10""]","[6942.099999904633,12289.699999809265,16256.199999809265,18074.5,21221.099999904633,24151.699999809265,27235.89999985695,33584.39999985695,36298.59999990463,38932.89999985695]","[]","[0.09999990463256836,6942.099999904633,12289.699999809265,13639.899999856949,16256.199999809265,18074.5,21221.099999904633,24151.699999809265,27235.89999985695,30501.39999985695,32198.099999904633,33584.39999985695,34850.5,36298.59999990463,38932.89999985695,40063.299999952316]","0.5","0.5555555555555556","0","","","","","","","","","","","","","","","","","","","","","","","","","","","","",""
"4759","1751451811514","<p style='font-size:1.1em;line-height:1.25'>Thank you for your answers! Now we will ask you a few more questions relating to your feelings in the last 24 hours.<br></p><p style='font-size:1.1em;line-height:1.25'>Press the <strong>Next</strong> button to continue.</p>","0","custom-html-button-response","16","267593","0.0-7.0-6.0","72","1","2025-07-02 10:19:01","80fe4187154257d5fb01684ea91b68b9","148.252.133.74","Mozilla/5.0 (Windows NT 10.0; Win64; x64) AppleWebKit/537.36 (KHTML, like Gecko) Chrome/137.0.0.0 Safari/537.36","WebKit","Chrome","137.0.0.0","Windows","10.0","https://app.prolific.com/","en-GB,en-US;q=0.9,en;q=0.8","676055e6c41940f91e59028c","683db6dfa200031b80f2a654","686507786076d0b3381d7473","676055e6c41940f91e59028c","2025-07-02T10:23:31.515Z","","","","","","","","","","","","","","","","","","","","","","","","","","","","","","","","","","","","","","","","","","","",""
"74846.40000009537","","","","survey-template","17","342447","0.0-7.0-7.0","72","1","2025-07-02 10:19:01","80fe4187154257d5fb01684ea91b68b9","148.252.133.74","Mozilla/5.0 (Windows NT 10.0; Win64; x64) AppleWebKit/537.36 (KHTML, like Gecko) Chrome/137.0.0.0 Safari/537.36","WebKit","Chrome","137.0.0.0","Windows","10.0","https://app.prolific.com/","en-GB,en-US;q=0.9,en;q=0.8","676055e6c41940f91e59028c","683db6dfa200031b80f2a654","686507786076d0b3381d7473","676055e6c41940f91e59028c","2025-07-02T10:24:46.369Z","","","","","","drsp","{""Q01"":""2"",""Q02"":""2"",""Q03"":""2"",""Q04"":""4"",""Q05"":""3"",""Q06"":""2"",""Q07"":""1"",""Q08"":""0"",""Q09"":""0"",""Q10"":""1"",""Q11"":""3"",""Q12"":""0"",""Q13"":""0"",""Q14"":""4"",""Q15"":""5"",""Q16"":""3"",""Q17"":""3"",""Q18"":""0"",""Q19"":""2"",""Q20"":""0"",""Q21"":""2""}","[0,1,2,3,4,5,6,7,8,9,10,11,12,13,14,15,16,17,18,19,20]","[""Q01"",""Q02"",""Q04"",""Q03"",""Q05"",""Q06"",""Q07"",""Q08"",""Q09"",""Q10"",""Q11"",""Q12"",""Q13"",""Q14"",""Q15"",""Q16"",""Q17"",""Q18"",""Q19"",""Q19"",""Q19"",""Q20"",""Q21""]","[7608.700000047684,9925.900000095367,13707.200000047684,15073.200000047684,18304,19621.200000047684,21037.5,23186.700000047684,28502,29918.10000014305,31634.10000014305,36050.700000047684,41630.60000014305,43514.300000190735,45397,47645.60000014305,49261.700000047684,54109.700000047684,57590.300000190735,58707,60358.700000047684,61991.200000047684,71886.90000009537]","[]","[0.10000014305114746,7608.700000047684,9925.900000095367,13707.200000047684,15073.200000047684,18304,19621.200000047684,21037.5,23186.700000047684,26420,28502,29918.10000014305,31634.10000014305,33900,36050.700000047684,41630.60000014305,43514.300000190735,45397,47645.60000014305,49261.700000047684,54109.700000047684,57590.300000190735,58707,60358.700000047684,61991.200000047684,71886.90000009537,74837.80000019073]","0.2857142857142857","0.3","0","","","","","","","","","","","","","","","","","","","","","","","","","","","","",""
"13181.5","","","","survey-template","18","355632","0.0-7.0-8.0","72","1","2025-07-02 10:19:01","80fe4187154257d5fb01684ea91b68b9","148.252.133.74","Mozilla/5.0 (Windows NT 10.0; Win64; x64) AppleWebKit/537.36 (KHTML, like Gecko) Chrome/137.0.0.0 Safari/537.36","WebKit","Chrome","137.0.0.0","Windows","10.0","https://app.prolific.com/","en-GB,en-US;q=0.9,en;q=0.8","676055e6c41940f91e59028c","683db6dfa200031b80f2a654","686507786076d0b3381d7473","676055e6c41940f91e59028c","2025-07-02T10:24:59.554Z","","","","","","stress","{""Q01"":""4"",""Q02"":""4"",""Q03"":""3""}","[0,1,2]","[""Q01"",""Q02"",""Q03""]","[5064.600000143051,9396.5,12147]","[]","[5064.600000143051,9396.5,12147,13179.799999952316]","0.3333333333333333","0","0","","","","","","","","","","","","","","","","","","","","","","","","","","","","",""
"62073","","","","instructions","19","417706","0.0-8.0-0.0","72","1","2025-07-02 10:19:01","80fe4187154257d5fb01684ea91b68b9","148.252.133.74","Mozilla/5.0 (Windows NT 10.0; Win64; x64) AppleWebKit/537.36 (KHTML, like Gecko) Chrome/137.0.0.0 Safari/537.36","WebKit","Chrome","137.0.0.0","Windows","10.0","https://app.prolific.com/","en-GB,en-US;q=0.9,en;q=0.8","676055e6c41940f91e59028c","683db6dfa200031b80f2a654","686507786076d0b3381d7473","676055e6c41940f91e59028c","","[{""page_index"":0,""viewing_time"":12159},{""page_index"":1,""viewing_time"":27390},{""page_index"":2,""viewing_time"":5963},{""page_index"":3,""viewing_time"":16560}]","","","","","","","","","","","","","","","","","","","","","","","","","","","","","","","","","","","","","","","","","","",""
"","","","","ctl-task-cpt","20","441073","0.0-8.0-1.0","72","1","2025-07-02 10:19:01","80fe4187154257d5fb01684ea91b68b9","148.252.133.74","Mozilla/5.0 (Windows NT 10.0; Win64; x64) AppleWebKit/537.36 (KHTML, like Gecko) Chrome/137.0.0.0 Safari/537.36","WebKit","Chrome","137.0.0.0","Windows","10.0","https://app.prolific.com/","en-GB,en-US;q=0.9,en;q=0.8","676055e6c41940f91e59028c","683db6dfa200031b80f2a654","686507786076d0b3381d7473","676055e6c41940f91e59028c","","","","","","","","","","","","","","","","","win-only","2","g1:SE,g2:NW","1","0","1","420068.8","4979.7","8981.5","20357.9","2","4","4","6","1","2","0","0","0","0","2069.9","4000","3195","[""down"",""right""]","{""num_key_presses"":4,""num_perfect"":2,""num_errors"":2,""num_randdir"":0,""num_randdir_good_moves"":0,""num_whilered"":0,""num_whileblue"":2,""num_blue"":2,""num_good_moves"":4}","[410.57142857142856,418.47767857142856,0.5,410.57142857142856,418.47767857142856,102.6,410.57142857142856,418.47767857142856,202.9,410.57142857142856,418.47767857142856,306.1,410.57142857142856,418.47767857142856,406.1,410.57142857142856,418.47767857142856,508.3,410.57142857142856,418.47767857142856,611.3,410.57142857142856,418.47767857142856,711.5,410.57142857142856,418.47767857142856,812.6,410.57142857142856,418.47767857142856,916.3,410.57142857142856,418.47767857142856,1017.1,410.57142857142856,418.47767857142856,1122.1,437.57142857142856,454.47767857142856,1224.3,616.5714285714286,596.4776785714286,1326.3,674.5714285714286,673.4776785714286,1432.2,740.5714285714286,701.4776785714286,1533.5,739.5714285714286,704.4776785714286,1636.8,751.5714285714286,708.4776785714286,1742.4,753.5714285714286,710.4776785714286,1846.2,753.5714285714286,710.4776785714286,1947,753.5714285714286,710.4776785714286,2052.9,753.5714285714286,710.4776785714286,2157.9,753.5714285714286,710.4776785714286,2260.9,753.5714285714286,710.4776785714286,2361.3,753.5714285714286,710.4776785714286,2466.7,753.5714285714286,710.4776785714286,2571.3,753.5714285714286,710.4776785714286,2671.3,753.5714285714286,710.4776785714286,2776.8,753.5714285714286,710.4776785714286,2880.7,753.5714285714286,710.4776785714286,2981.5,753.5714285714286,710.4776785714286,3081.5,753.5714285714286,710.4776785714286,3186.3,753.5714285714286,710.4776785714286,3286.3,753.5714285714286,710.4776785714286,3391.6,753.5714285714286,710.4776785714286,3496.5,753.5714285714286,710.4776785714286,3602.5,753.5714285714286,710.4776785714286,3702.5,753.5714285714286,710.4776785714286,3806.1,753.5714285714286,710.4776785714286,3906.1]","[1390.3,1390.3,1000,0,390.3,""smooth"",""down"",""down"",""good_move"",4485.5,3095,2773.3,1390.6,321.6,""while_blue"",""down"",""right"",""good_move"",8383.5,3897.7,3460.2,4485.8,437.5,""smooth"",""down"",""down"",""good_move"",11279,2895.3,2579.9,8383.7,315.4,""while_blue"",""right"",""right"",""good_move""]","",""
"9709","","","","instructions","21","450782","0.0-8.0-2.0","72","1","2025-07-02 10:19:01","80fe4187154257d5fb01684ea91b68b9","148.252.133.74","Mozilla/5.0 (Windows NT 10.0; Win64; x64) AppleWebKit/537.36 (KHTML, like Gecko) Chrome/137.0.0.0 Safari/537.36","WebKit","Chrome","137.0.0.0","Windows","10.0","https://app.prolific.com/","en-GB,en-US;q=0.9,en;q=0.8","676055e6c41940f91e59028c","683db6dfa200031b80f2a654","686507786076d0b3381d7473","676055e6c41940f91e59028c","","[{""page_index"":0,""viewing_time"":9708}]","","","","","","","","","","","","","","","","","","","","","","","","","","","","","","","","","","","","","","","","","","",""
"","","","","ctl-task-cpt","22","487860","0.0-8.0-3.0","72","1","2025-07-02 10:19:01","80fe4187154257d5fb01684ea91b68b9","148.252.133.74","Mozilla/5.0 (Windows NT 10.0; Win64; x64) AppleWebKit/537.36 (KHTML, like Gecko) Chrome/137.0.0.0 Safari/537.36","WebKit","Chrome","137.0.0.0","Windows","10.0","https://app.prolific.com/","en-GB,en-US;q=0.9,en;q=0.8","676055e6c41940f91e59028c","683db6dfa200031b80f2a654","686507786076d0b3381d7473","676055e6c41940f91e59028c","","","","","","","","","","","","","","","","","win-only","2","g1:SE,g2:NW","0.35","0","3","453141.8","3593.4","7596.4","34059.8","2","4","8","6","1","2","2","2","0","0.015151515151515152","2403.1","4000","1800","[""down"",""right""]","{""num_key_presses"":6,""num_perfect"":3,""num_errors"":0,""num_randdir"":3,""num_randdir_good_moves"":2,""num_whilered"":0,""num_whileblue"":0,""num_blue"":3,""num_good_moves"":5}","[419.57142857142856,418.47767857142856,0.4,419.57142857142856,418.47767857142856,103,419.57142857142856,418.47767857142856,210.2,419.57142857142856,418.47767857142856,312.5,419.57142857142856,418.47767857142856,419,419.57142857142856,418.47767857142856,526.2,419.57142857142856,418.47767857142856,627.9,523.5714285714286,510.47767857142856,728,571.5714285714286,569.4776785714286,828.8,612.5714285714286,602.4776785714286,932.3,705.5714285714286,660.4776785714286,1032.9,770.5714285714286,723.4776785714286,1142.7,777.5714285714286,728.4776785714286,1242.7,777.5714285714286,728.4776785714286,1348.5,777.5714285714286,728.4776785714286,1448.6,777.5714285714286,728.4776785714286,1548.7,777.5714285714286,728.4776785714286,1653.3,777.5714285714286,728.4776785714286,1761.6,777.5714285714286,728.4776785714286,1863.1,777.5714285714286,728.4776785714286,1967.6,777.5714285714286,728.4776785714286,2068.3,777.5714285714286,728.4776785714286,2176.2,777.5714285714286,728.4776785714286,2277,777.5714285714286,728.4776785714286,2379,777.5714285714286,728.4776785714286,2483.2,777.5714285714286,728.4776785714286,2593.1,777.5714285714286,728.4776785714286,2698.5,777.5714285714286,728.4776785714286,2798.5,777.5714285714286,728.4776785714286,2903,777.5714285714286,728.4776785714286,3010,777.5714285714286,728.4776785714286,3112.7,777.5714285714286,728.4776785714286,3212.9,777.5714285714286,728.4776785714286,3317.2,777.5714285714286,728.4776785714286,3418.3,777.5714285714286,728.4776785714286,3518.3,777.5714285714286,728.4776785714286,3626.4,777.5714285714286,728.4776785714286,3726.4,777.5714285714286,728.4776785714286,3827.3,777.5714285714286,728.4776785714286,3932.3]","[1656.5,1656.5,1000,0.1,656.4,""oops"",""down"",""down"",""good_move"",7752.6,6096,2655.8,4625,471.8,""oops"",""down"",""up"",""bad_move"",10101.6,2348.8,1896.8,7752.8,452,""smooth"",""down"",""down"",""good_move"",16551.4,6449.6,2495.2,13740.2,316,""oops"",""down"",""down"",""good_move"",23349.9,6798.4,2245.1,20748.3,356.5,""smooth"",""right"",""right"",""good_move"",26367.6,3017.2,2695.2,23350.5,321.9,""smooth"",""right"",""right"",""good_move""]","",""
"29277","","","","instructions","23","517138","0.0-8.0-4.0","72","1","2025-07-02 10:19:01","80fe4187154257d5fb01684ea91b68b9","148.252.133.74","Mozilla/5.0 (Windows NT 10.0; Win64; x64) AppleWebKit/537.36 (KHTML, like Gecko) Chrome/137.0.0.0 Safari/537.36","WebKit","Chrome","137.0.0.0","Windows","10.0","https://app.prolific.com/","en-GB,en-US;q=0.9,en;q=0.8","676055e6c41940f91e59028c","683db6dfa200031b80f2a654","686507786076d0b3381d7473","676055e6c41940f91e59028c","","[{""page_index"":0,""viewing_time"":8118},{""page_index"":1,""viewing_time"":21159}]","","","","","","","","","","","","","","","","","","","","","","","","","","","","","","","","","","","","","","","","","","",""
"16289","","","{""green_ball"":[""Ball sometimes shakes and moves in a random direction""]}","survey-multi-select","24","533429","0.0-8.0-5.0-0.0","72","1","2025-07-02 10:19:01","80fe4187154257d5fb01684ea91b68b9","148.252.133.74","Mozilla/5.0 (Windows NT 10.0; Win64; x64) AppleWebKit/537.36 (KHTML, like Gecko) Chrome/137.0.0.0 Safari/537.36","WebKit","Chrome","137.0.0.0","Windows","10.0","https://app.prolific.com/","en-GB,en-US;q=0.9,en;q=0.8","676055e6c41940f91e59028c","683db6dfa200031b80f2a654","686507786076d0b3381d7473","676055e6c41940f91e59028c","","","[0]","","","","quiz","","","","","","","","","","","","","","","","","","","","","","","","","","","","","","","","","","","","","true",""
"1879","","<p align='center'><b>CORRECT!</b> Indeed, the green ball may sometimes shake and move in a random direction.</p>","0","html-button-response","25","535311","0.0-8.0-5.0-1.0","72","1","2025-07-02 10:19:01","80fe4187154257d5fb01684ea91b68b9","148.252.133.74","Mozilla/5.0 (Windows NT 10.0; Win64; x64) AppleWebKit/537.36 (KHTML, like Gecko) Chrome/137.0.0.0 Safari/537.36","WebKit","Chrome","137.0.0.0","Windows","10.0","https://app.prolific.com/","en-GB,en-US;q=0.9,en;q=0.8","676055e6c41940f91e59028c","683db6dfa200031b80f2a654","686507786076d0b3381d7473","676055e6c41940f91e59028c","","","","","","","","","","","","","","","","","","","","","","","","","","","","","","","","","","","","","","","","","","","","",""
"7335","","","{""yellow_ball"":[""Ball doesn‘t move and I get -1 penalty point""]}","survey-multi-select","26","542648","0.0-8.0-6.0-0.0","72","1","2025-07-02 10:19:01","80fe4187154257d5fb01684ea91b68b9","148.252.133.74","Mozilla/5.0 (Windows NT 10.0; Win64; x64) AppleWebKit/537.36 (KHTML, like Gecko) Chrome/137.0.0.0 Safari/537.36","WebKit","Chrome","137.0.0.0","Windows","10.0","https://app.prolific.com/","en-GB,en-US;q=0.9,en;q=0.8","676055e6c41940f91e59028c","683db6dfa200031b80f2a654","686507786076d0b3381d7473","676055e6c41940f91e59028c","","","[0]","","","","quiz","","","","","","","","","","","","","","","","","","","","","","","","","","","","","","","","","","","","","true",""
"1735","","<p align='center'><b>CORRECT!</b> Indeed, the yellow ball never moves and you receive a penalty.</p>","0","html-button-response","27","544384","0.0-8.0-6.0-1.0","72","1","2025-07-02 10:19:01","80fe4187154257d5fb01684ea91b68b9","148.252.133.74","Mozilla/5.0 (Windows NT 10.0; Win64; x64) AppleWebKit/537.36 (KHTML, like Gecko) Chrome/137.0.0.0 Safari/537.36","WebKit","Chrome","137.0.0.0","Windows","10.0","https://app.prolific.com/","en-GB,en-US;q=0.9,en;q=0.8","676055e6c41940f91e59028c","683db6dfa200031b80f2a654","686507786076d0b3381d7473","676055e6c41940f91e59028c","","","","","","","","","","","","","","","","","","","","","","","","","","","","","","","","","","","","","","","","","","","","",""
"9395","","","{""blue_ball"":[""Ball always shakes and moves in a random direction""]}","survey-multi-select","28","553781","0.0-8.0-7.0-0.0","72","1","2025-07-02 10:19:01","80fe4187154257d5fb01684ea91b68b9","148.252.133.74","Mozilla/5.0 (Windows NT 10.0; Win64; x64) AppleWebKit/537.36 (KHTML, like Gecko) Chrome/137.0.0.0 Safari/537.36","WebKit","Chrome","137.0.0.0","Windows","10.0","https://app.prolific.com/","en-GB,en-US;q=0.9,en;q=0.8","676055e6c41940f91e59028c","683db6dfa200031b80f2a654","686507786076d0b3381d7473","676055e6c41940f91e59028c","","","[0]","","","","quiz","","","","","","","","","","","","","","","","","","","","","","","","","","","","","","","","","","","","","true",""
"1995","","<p align='center'><b>CORRECT!</b> Indeed, the blue ball always shakes and moves in a random direction. Also there is a penalty of -1 point.</p>","0","html-button-response","29","555778","0.0-8.0-7.0-1.0","72","1","2025-07-02 10:19:01","80fe4187154257d5fb01684ea91b68b9","148.252.133.74","Mozilla/5.0 (Windows NT 10.0; Win64; x64) AppleWebKit/537.36 (KHTML, like Gecko) Chrome/137.0.0.0 Safari/537.36","WebKit","Chrome","137.0.0.0","Windows","10.0","https://app.prolific.com/","en-GB,en-US;q=0.9,en;q=0.8","676055e6c41940f91e59028c","683db6dfa200031b80f2a654","686507786076d0b3381d7473","676055e6c41940f91e59028c","","","","","","","","","","","","","","","","","","","","","","","","","","","","","","","","","","","","","","","","","","","","",""
"5261","","","{""bonus"":[""When I reach 50% of points""]}","survey-multi-select","30","561043","0.0-8.0-8.0-0.0","72","1","2025-07-02 10:19:01","80fe4187154257d5fb01684ea91b68b9","148.252.133.74","Mozilla/5.0 (Windows NT 10.0; Win64; x64) AppleWebKit/537.36 (KHTML, like Gecko) Chrome/137.0.0.0 Safari/537.36","WebKit","Chrome","137.0.0.0","Windows","10.0","https://app.prolific.com/","en-GB,en-US;q=0.9,en;q=0.8","676055e6c41940f91e59028c","683db6dfa200031b80f2a654","686507786076d0b3381d7473","676055e6c41940f91e59028c","","","[0]","","","","quiz","","","","","","","","","","","","","","","","","","","","","","","","","","","","","","","","","","","","","true",""
"1539","","<p align='center'><b>CORRECT!</b> Indeed, you receive 2 pounds extra when you reach 50% of points.</p>","0","html-button-response","31","562584","0.0-8.0-8.0-1.0","72","1","2025-07-02 10:19:01","80fe4187154257d5fb01684ea91b68b9","148.252.133.74","Mozilla/5.0 (Windows NT 10.0; Win64; x64) AppleWebKit/537.36 (KHTML, like Gecko) Chrome/137.0.0.0 Safari/537.36","WebKit","Chrome","137.0.0.0","Windows","10.0","https://app.prolific.com/","en-GB,en-US;q=0.9,en;q=0.8","676055e6c41940f91e59028c","683db6dfa200031b80f2a654","686507786076d0b3381d7473","676055e6c41940f91e59028c","","","","","","","","","","","","","","","","","","","","","","","","","","","","","","","","","","","","","","","","","","","","",""
"2141","","","","instructions","32","564726","0.0-8.0-9.0","72","1","2025-07-02 10:19:01","80fe4187154257d5fb01684ea91b68b9","148.252.133.74","Mozilla/5.0 (Windows NT 10.0; Win64; x64) AppleWebKit/537.36 (KHTML, like Gecko) Chrome/137.0.0.0 Safari/537.36","WebKit","Chrome","137.0.0.0","Windows","10.0","https://app.prolific.com/","en-GB,en-US;q=0.9,en;q=0.8","676055e6c41940f91e59028c","683db6dfa200031b80f2a654","686507786076d0b3381d7473","676055e6c41940f91e59028c","","[{""page_index"":0,""viewing_time"":2141}]","","","","","","","","","","","","","","","","","","","","","","","","","","","","","","","","","","","","","","","","","","",""
"7515","","<p>Before you start with this game please answer the following three questions yourself. </p>
  <p>Through this game, we measure several aspects of your cognitive performance, such as reaction times, multi-tasking capabilities </p>
  <p>and the ability to assess the situation you are in.</p>
  <p></p>
  <p><b>How good do you usually are in such tasks?</b></p>","76","html-slider-response","33","572243","0.0-9.0-0.0","72","1","2025-07-02 10:19:01","80fe4187154257d5fb01684ea91b68b9","148.252.133.74","Mozilla/5.0 (Windows NT 10.0; Win64; x64) AppleWebKit/537.36 (KHTML, like Gecko) Chrome/137.0.0.0 Safari/537.36","WebKit","Chrome","137.0.0.0","Windows","10.0","https://app.prolific.com/","en-GB,en-US;q=0.9,en;q=0.8","676055e6c41940f91e59028c","683db6dfa200031b80f2a654","686507786076d0b3381d7473","676055e6c41940f91e59028c","2025-07-02T10:28:36.166Z","","","","","","PreSkillQ","","","","","","","","","","","","","","","","","","","","","","","","","","","","","","","","","","","","","","50"
"5023","","<div style=""width:500px;"">
  <p>How well do you think you will perform in this task compared to other participants?</p>
  </div>","63","html-slider-response","34","577269","0.0-9.0-1.0","72","1","2025-07-02 10:19:01","80fe4187154257d5fb01684ea91b68b9","148.252.133.74","Mozilla/5.0 (Windows NT 10.0; Win64; x64) AppleWebKit/537.36 (KHTML, like Gecko) Chrome/137.0.0.0 Safari/537.36","WebKit","Chrome","137.0.0.0","Windows","10.0","https://app.prolific.com/","en-GB,en-US;q=0.9,en;q=0.8","676055e6c41940f91e59028c","683db6dfa200031b80f2a654","686507786076d0b3381d7473","676055e6c41940f91e59028c","2025-07-02T10:28:41.191Z","","","","","","PrePerfQ","","","","","","","","","","","","","","","","","","","","","","","","","","","","","","","","","","","","","","50"
"4728","","<div style=""width:500px;"">
  <p>What best describes how you currently feel?</p>
  </div>","91","html-slider-response","35","581998","0.0-9.0-2.0","72","1","2025-07-02 10:19:01","80fe4187154257d5fb01684ea91b68b9","148.252.133.74","Mozilla/5.0 (Windows NT 10.0; Win64; x64) AppleWebKit/537.36 (KHTML, like Gecko) Chrome/137.0.0.0 Safari/537.36","WebKit","Chrome","137.0.0.0","Windows","10.0","https://app.prolific.com/","en-GB,en-US;q=0.9,en;q=0.8","676055e6c41940f91e59028c","683db6dfa200031b80f2a654","686507786076d0b3381d7473","676055e6c41940f91e59028c","2025-07-02T10:28:45.920Z","","","","","","PreMotivationQ","","","","","","","","","","","","","","","","","","","","","","","","","","","","","","","","","","","","","","50"
"","","","","ctl-task-cpt","36","621699","0.0-10.0-0.0","72","1","2025-07-02 10:19:01","80fe4187154257d5fb01684ea91b68b9","148.252.133.74","Mozilla/5.0 (Windows NT 10.0; Win64; x64) AppleWebKit/537.36 (KHTML, like Gecko) Chrome/137.0.0.0 Safari/537.36","WebKit","Chrome","137.0.0.0","Windows","10.0","https://app.prolific.com/","en-GB,en-US;q=0.9,en;q=0.8","676055e6c41940f91e59028c","683db6dfa200031b80f2a654","686507786076d0b3381d7473","676055e6c41940f91e59028c","2025-07-02T10:29:25.621Z","","","","","","","","","","","","","","","","win-only","1","g1:NE,g2:SW","1","1","0","584357.2","2463.5","7465.4","36683.2","1","4","4","6","2","4","4","4","0","0.030303030303030304","1668.4","3000","1305","[""down"",""left""]","{""num_key_presses"":6,""num_perfect"":6,""num_errors"":0,""num_randdir"":0,""num_randdir_good_moves"":0,""num_whilered"":0,""num_whileblue"":0,""num_blue"":4,""num_good_moves"":6}","[425.57142857142856,416.47767857142856,0.4,425.57142857142856,416.47767857142856,104,425.57142857142856,416.47767857142856,204,425.57142857142856,416.47767857142856,308.4,425.57142857142856,416.47767857142856,416.3,425.57142857142856,416.47767857142856,518.2,425.57142857142856,416.47767857142856,623.6,425.57142857142856,416.47767857142856,730.7,425.57142857142856,416.47767857142856,833.5,425.57142857142856,416.47767857142856,936.9,374.57142857142856,482.47767857142856,1037.5,226.57142857142856,631.4776785714286,1147,144.57142857142856,696.4776785714286,1247.6,132.57142857142856,700.4776785714286,1352.1,108.57142857142857,722.4776785714286,1452.1,102.57142857142857,728.4776785714286,1553.1,102.57142857142857,728.4776785714286,1653.1,102.57142857142857,728.4776785714286,1753.9,102.57142857142857,728.4776785714286,1854,102.57142857142857,728.4776785714286,1958,102.57142857142857,728.4776785714286,2060.1,102.57142857142857,728.4776785714286,2165.4,102.57142857142857,728.4776785714286,2266.8,102.57142857142857,728.4776785714286,2366.9,102.57142857142857,728.4776785714286,2467.9,102.57142857142857,728.4776785714286,2572.4,102.57142857142857,728.4776785714286,2672.4,102.57142857142857,728.4776785714286,2780.3,102.57142857142857,728.4776785714286,2882,102.57142857142857,728.4776785714286,2982.2,102.57142857142857,728.4776785714286,3083.7,102.57142857142857,728.4776785714286,3188,102.57142857142857,728.4776785714286,3296.6,102.57142857142857,728.4776785714286,3396.7,102.57142857142857,728.4776785714286,3497.9,102.57142857142857,728.4776785714286,3602.4,102.57142857142857,728.4776785714286,3702.4,102.57142857142857,728.4776785714286,3803.2,102.57142857142857,728.4776785714286,3907,102.57142857142857,728.4776785714286,4012.3,102.57142857142857,728.4776785714286,4112.3,102.57142857142857,728.4776785714286,4212.3,102.57142857142857,728.4776785714286,4312.6,102.57142857142857,728.4776785714286,4417.4,102.57142857142857,728.4776785714286,4523.6,102.57142857142857,728.4776785714286,4629.3,102.57142857142857,728.4776785714286,4732.1,102.57142857142857,728.4776785714286,4833.6,102.57142857142857,728.4776785714286,4937.6]","[1326.4,1326.4,1000,0,326.4,""smooth"",""down"",""down"",""good_move"",3387,2060.3,1646.8,1326.7,413.5,""smooth"",""down"",""down"",""good_move"",10111.1,6723.9,2491.2,7325.3,294.7,""smooth"",""down"",""down"",""good_move"",19904.2,9792.8,2655.4,16945.8,303,""smooth"",""left"",""left"",""good_move"",23120.9,3216.6,2889.8,19904.4,326.8,""smooth"",""left"",""left"",""good_move"",29109.8,5988.7,2411.1,26425.6,273.1,""smooth"",""left"",""left"",""good_move""]","",""
"7465","","<div style=""width:500px;"">
  <p>What determined the result of this run?</p>
  </div>","89","html-slider-response","37","629165","0.0-10.0-1.0","72","1","2025-07-02 10:19:01","80fe4187154257d5fb01684ea91b68b9","148.252.133.74","Mozilla/5.0 (Windows NT 10.0; Win64; x64) AppleWebKit/537.36 (KHTML, like Gecko) Chrome/137.0.0.0 Safari/537.36","WebKit","Chrome","137.0.0.0","Windows","10.0","https://app.prolific.com/","en-GB,en-US;q=0.9,en;q=0.8","676055e6c41940f91e59028c","683db6dfa200031b80f2a654","686507786076d0b3381d7473","676055e6c41940f91e59028c","2025-07-02T10:29:33.087Z","","","","","","AttribQ","","","","","","","","","","","","","","","","","","","","","","","","","","","","","","","","","","","","","","50"
"7987","","<div style=""width:500px;"">
  <p>How much control did you have over the ball?</p>
  </div>","93","html-slider-response","38","637153","0.0-10.0-2.0","72","1","2025-07-02 10:19:01","80fe4187154257d5fb01684ea91b68b9","148.252.133.74","Mozilla/5.0 (Windows NT 10.0; Win64; x64) AppleWebKit/537.36 (KHTML, like Gecko) Chrome/137.0.0.0 Safari/537.36","WebKit","Chrome","137.0.0.0","Windows","10.0","https://app.prolific.com/","en-GB,en-US;q=0.9,en;q=0.8","676055e6c41940f91e59028c","683db6dfa200031b80f2a654","686507786076d0b3381d7473","676055e6c41940f91e59028c","2025-07-02T10:29:41.075Z","","","","","","ControlQ","","","","","","","","","","","","","","","","","","","","","","","","","","","","","","","","","","","","","","50"
"6674","","<div style=""width:500px;"">
  <p>How would you describe your current emotional state?</p>
  </div>","21","html-slider-response","39","643828","0.0-10.0-3.0","72","1","2025-07-02 10:19:01","80fe4187154257d5fb01684ea91b68b9","148.252.133.74","Mozilla/5.0 (Windows NT 10.0; Win64; x64) AppleWebKit/537.36 (KHTML, like Gecko) Chrome/137.0.0.0 Safari/537.36","WebKit","Chrome","137.0.0.0","Windows","10.0","https://app.prolific.com/","en-GB,en-US;q=0.9,en;q=0.8","676055e6c41940f91e59028c","683db6dfa200031b80f2a654","686507786076d0b3381d7473","676055e6c41940f91e59028c","2025-07-02T10:29:47.750Z","","","","","","StressQ","","","","","","","","","","","","","","","","","","","","","","","","","","","","","","","","","","","","","","50"
"4013","","<div style=""width:500px;"">
  <p>What best describes how you currently feel?</p>
  </div>","93","html-slider-response","40","647842","0.0-10.0-4.0","72","1","2025-07-02 10:19:01","80fe4187154257d5fb01684ea91b68b9","148.252.133.74","Mozilla/5.0 (Windows NT 10.0; Win64; x64) AppleWebKit/537.36 (KHTML, like Gecko) Chrome/137.0.0.0 Safari/537.36","WebKit","Chrome","137.0.0.0","Windows","10.0","https://app.prolific.com/","en-GB,en-US;q=0.9,en;q=0.8","676055e6c41940f91e59028c","683db6dfa200031b80f2a654","686507786076d0b3381d7473","676055e6c41940f91e59028c","2025-07-02T10:29:51.764Z","","","","","","MotivationQ","","","","","","","","","","","","","","","","","","","","","","","","","","","","","","","","","","","","","","50"
"","","","","ctl-task-cpt","41","671806","0.0-10.0-0.1","72","1","2025-07-02 10:19:01","80fe4187154257d5fb01684ea91b68b9","148.252.133.74","Mozilla/5.0 (Windows NT 10.0; Win64; x64) AppleWebKit/537.36 (KHTML, like Gecko) Chrome/137.0.0.0 Safari/537.36","WebKit","Chrome","137.0.0.0","Windows","10.0","https://app.prolific.com/","en-GB,en-US;q=0.9,en;q=0.8","676055e6c41940f91e59028c","683db6dfa200031b80f2a654","686507786076d0b3381d7473","676055e6c41940f91e59028c","2025-07-02T10:30:15.729Z","","","","","","","","","","","","","","","","win-only","2","g1:SE,g2:NW","0.9","2","0","650200.3","1273.2","6277.5","20945.8","1","4","8","6","2","8","8","12","4","0.09090909090909091","1681","3000","1215","[""left"",""up""]","{""num_key_presses"":6,""num_perfect"":6,""num_errors"":0,""num_randdir"":0,""num_randdir_good_moves"":0,""num_whilered"":0,""num_whileblue"":0,""num_blue"":0,""num_good_moves"":6}","[418.57142857142856,428.47767857142856,0.2,418.57142857142856,428.47767857142856,105.2,418.57142857142856,428.47767857142856,205.3,418.57142857142856,428.47767857142856,307.5,418.57142857142856,428.47767857142856,412.1,418.57142857142856,428.47767857142856,513.2,418.57142857142856,428.47767857142856,617.6,418.57142857142856,428.47767857142856,723.3,418.57142857142856,428.47767857142856,828.7,418.57142857142856,428.47767857142856,932.6,317.57142857142856,384.47767857142856,1039.4,158.57142857142856,272.47767857142856,1140.7,95.57142857142857,175.47767857142856,1242.4,65.57142857142857,114.47767857142857,1343.3,57.57142857142857,100.47767857142857,1448.6,57.57142857142857,100.47767857142857,1552.4,57.57142857142857,100.47767857142857,1653.5,57.57142857142857,100.47767857142857,1757.2,57.57142857142857,100.47767857142857,1858.5,57.57142857142857,100.47767857142857,1958.6,57.57142857142857,100.47767857142857,2062.9,57.57142857142857,100.47767857142857,2167.8,57.57142857142857,100.47767857142857,2273.1,57.57142857142857,100.47767857142857,2373.1,57.57142857142857,100.47767857142857,2478.5,57.57142857142857,100.47767857142857,2583,57.57142857142857,100.47767857142857,2688.9,57.57142857142857,100.47767857142857,2789,57.57142857142857,100.47767857142857,2892.5,57.57142857142857,100.47767857142857,2993.3,57.57142857142857,100.47767857142857,3098.6,57.57142857142857,100.47767857142857,3203.3,57.57142857142857,100.47767857142857,3304.8,57.57142857142857,100.47767857142857,3408.9,57.57142857142857,100.47767857142857,3512.2,57.57142857142857,100.47767857142857,3612.5,57.57142857142857,100.47767857142857,3712.6,57.57142857142857,100.47767857142857,3817.1,57.57142857142857,100.47767857142857,3917.7,57.57142857142857,100.47767857142857,4023.1,57.57142857142857,100.47767857142857,4128.5,57.57142857142857,100.47767857142857,4228.7,57.57142857142857,100.47767857142857,4332.7,57.57142857142857,100.47767857142857,4438.3,57.57142857142857,100.47767857142857,4542.7,57.57142857142857,100.47767857142857,4647.5,57.57142857142857,100.47767857142857,4748.5,57.57142857142857,100.47767857142857,4852.6,57.57142857142857,100.47767857142857,4953.8]","[1375.5,1375.5,1000,0,375.5,""smooth"",""up"",""up"",""good_move"",4354.5,2978.7,2658.5,1375.8,320.2,""smooth"",""up"",""up"",""good_move"",6487.5,2132.7,1813.1,4354.8,319.6,""smooth"",""up"",""up"",""good_move"",9428.7,2940.8,2650.5,6487.9,290.3,""smooth"",""left"",""left"",""good_move"",12192.9,2763.9,2480.5,9429,283.4,""smooth"",""left"",""left"",""good_move"",14576.2,2383,2128.3,12193.2,254.7,""smooth"",""left"",""left"",""good_move""]","",""
"4653","","<div style=""width:500px;"">
  <p>What determined the result of this run?</p>
  </div>","93","html-slider-response","42","676460","0.0-10.0-1.1","72","1","2025-07-02 10:19:01","80fe4187154257d5fb01684ea91b68b9","148.252.133.74","Mozilla/5.0 (Windows NT 10.0; Win64; x64) AppleWebKit/537.36 (KHTML, like Gecko) Chrome/137.0.0.0 Safari/537.36","WebKit","Chrome","137.0.0.0","Windows","10.0","https://app.prolific.com/","en-GB,en-US;q=0.9,en;q=0.8","676055e6c41940f91e59028c","683db6dfa200031b80f2a654","686507786076d0b3381d7473","676055e6c41940f91e59028c","2025-07-02T10:30:20.383Z","","","","","","AttribQ","","","","","","","","","","","","","","","","","","","","","","","","","","","","","","","","","","","","","","50"
"2843","","<div style=""width:500px;"">
  <p>How much control did you have over the ball?</p>
  </div>","95","html-slider-response","43","679305","0.0-10.0-2.1","72","1","2025-07-02 10:19:01","80fe4187154257d5fb01684ea91b68b9","148.252.133.74","Mozilla/5.0 (Windows NT 10.0; Win64; x64) AppleWebKit/537.36 (KHTML, like Gecko) Chrome/137.0.0.0 Safari/537.36","WebKit","Chrome","137.0.0.0","Windows","10.0","https://app.prolific.com/","en-GB,en-US;q=0.9,en;q=0.8","676055e6c41940f91e59028c","683db6dfa200031b80f2a654","686507786076d0b3381d7473","676055e6c41940f91e59028c","2025-07-02T10:30:23.227Z","","","","","","ControlQ","","","","","","","","","","","","","","","","","","","","","","","","","","","","","","","","","","","","","","50"
"2972","","<div style=""width:500px;"">
  <p>How would you describe your current emotional state?</p>
  </div>","11","html-slider-response","44","682278","0.0-10.0-3.1","72","1","2025-07-02 10:19:01","80fe4187154257d5fb01684ea91b68b9","148.252.133.74","Mozilla/5.0 (Windows NT 10.0; Win64; x64) AppleWebKit/537.36 (KHTML, like Gecko) Chrome/137.0.0.0 Safari/537.36","WebKit","Chrome","137.0.0.0","Windows","10.0","https://app.prolific.com/","en-GB,en-US;q=0.9,en;q=0.8","676055e6c41940f91e59028c","683db6dfa200031b80f2a654","686507786076d0b3381d7473","676055e6c41940f91e59028c","2025-07-02T10:30:26.200Z","","","","","","StressQ","","","","","","","","","","","","","","","","","","","","","","","","","","","","","","","","","","","","","","50"
"2684","","<div style=""width:500px;"">
  <p>What best describes how you currently feel?</p>
  </div>","97","html-slider-response","45","684963","0.0-10.0-4.1","72","1","2025-07-02 10:19:01","80fe4187154257d5fb01684ea91b68b9","148.252.133.74","Mozilla/5.0 (Windows NT 10.0; Win64; x64) AppleWebKit/537.36 (KHTML, like Gecko) Chrome/137.0.0.0 Safari/537.36","WebKit","Chrome","137.0.0.0","Windows","10.0","https://app.prolific.com/","en-GB,en-US;q=0.9,en;q=0.8","676055e6c41940f91e59028c","683db6dfa200031b80f2a654","686507786076d0b3381d7473","676055e6c41940f91e59028c","2025-07-02T10:30:28.885Z","","","","","","MotivationQ","","","","","","","","","","","","","","","","","","","","","","","","","","","","","","","","","","","","","","50"
"","","","","ctl-task-cpt","46","713421","0.0-10.0-0.2","72","1","2025-07-02 10:19:01","80fe4187154257d5fb01684ea91b68b9","148.252.133.74","Mozilla/5.0 (Windows NT 10.0; Win64; x64) AppleWebKit/537.36 (KHTML, like Gecko) Chrome/137.0.0.0 Safari/537.36","WebKit","Chrome","137.0.0.0","Windows","10.0","https://app.prolific.com/","en-GB,en-US;q=0.9,en;q=0.8","676055e6c41940f91e59028c","683db6dfa200031b80f2a654","686507786076d0b3381d7473","676055e6c41940f91e59028c","2025-07-02T10:30:57.343Z","","","","","","","","","","","","","","","","win-only","3","g1:SW,g2:NE","0.8","3","0","687321.5","1348.4","6350.8","25450.4","1","4","8","6","2","8","8","20","12","0.15151515151515152","1485.1","3000","1210","[""up"",""right""]","{""num_key_presses"":6,""num_perfect"":5,""num_errors"":0,""num_randdir"":1,""num_randdir_good_moves"":1,""num_whilered"":0,""num_whileblue"":0,""num_blue"":1,""num_good_moves"":6}","[415.57142857142856,419.47767857142856,0.2,415.57142857142856,419.47767857142856,100.3,415.57142857142856,419.47767857142856,200.8,415.57142857142856,419.47767857142856,302.2,415.57142857142856,419.47767857142856,402.2,415.57142857142856,419.47767857142856,507.6,415.57142857142856,419.47767857142856,614.6,415.57142857142856,419.47767857142856,717.2,459.57142857142856,357.47767857142856,817.7,546.5714285714286,242.47767857142856,918.7,658.5714285714286,106.47767857142857,1022.9,714.5714285714286,59.47767857142857,1127.4,728.5714285714286,61.47767857142857,1229.9,743.5714285714286,61.47767857142857,1332.2,743.5714285714286,61.47767857142857,1433,743.5714285714286,61.47767857142857,1537,743.5714285714286,61.47767857142857,1637.2,743.5714285714286,61.47767857142857,1737.4,743.5714285714286,61.47767857142857,1841.9,743.5714285714286,61.47767857142857,1942.3,743.5714285714286,61.47767857142857,2042.7,743.5714285714286,61.47767857142857,2148.2,743.5714285714286,61.47767857142857,2253.3,743.5714285714286,61.47767857142857,2356.8,743.5714285714286,61.47767857142857,2456.9,743.5714285714286,61.47767857142857,2557.2,743.5714285714286,61.47767857142857,2663.8,743.5714285714286,61.47767857142857,2766.8,743.5714285714286,61.47767857142857,2867.7,743.5714285714286,61.47767857142857,2973,743.5714285714286,61.47767857142857,3077,743.5714285714286,61.47767857142857,3177.9,743.5714285714286,61.47767857142857,3282.1,743.5714285714286,61.47767857142857,3382.1,743.5714285714286,61.47767857142857,3482.1,743.5714285714286,61.47767857142857,3587.3,743.5714285714286,61.47767857142857,3692.4,743.5714285714286,61.47767857142857,3798.1,743.5714285714286,61.47767857142857,3898.5,743.5714285714286,61.47767857142857,4002.1,743.5714285714286,61.47767857142857,4103,743.5714285714286,61.47767857142857,4203.4,743.5714285714286,61.47767857142857,4307.4,743.5714285714286,61.47767857142857,4413.7,743.5714285714286,61.47767857142857,4514.2,743.5714285714286,61.47767857142857,4614.3,743.5714285714286,61.47767857142857,4717.5,743.5714285714286,61.47767857142857,4823,743.5714285714286,61.47767857142857,4923]","[1330.3,1330.3,1000,0,330.3,""smooth"",""up"",""up"",""good_move"",4252.8,2922.2,2617.6,1330.6,304.6,""smooth"",""up"",""up"",""good_move"",10421.3,6168.3,1940.4,8174.8,306.1,""oops"",""up"",""up"",""good_move"",13033.5,2611.8,2319.2,10421.7,292.6,""smooth"",""right"",""right"",""good_move"",15412.7,2379.1,2071.5,13033.6,307.6,""smooth"",""right"",""right"",""good_move"",19007,3594.1,3308.1,15412.9,286,""smooth"",""right"",""right"",""good_move""]","",""
"5308","","<div style=""width:500px;"">
  <p>What determined the result of this run?</p>
  </div>","86","html-slider-response","47","718731","0.0-10.0-1.2","72","1","2025-07-02 10:19:01","80fe4187154257d5fb01684ea91b68b9","148.252.133.74","Mozilla/5.0 (Windows NT 10.0; Win64; x64) AppleWebKit/537.36 (KHTML, like Gecko) Chrome/137.0.0.0 Safari/537.36","WebKit","Chrome","137.0.0.0","Windows","10.0","https://app.prolific.com/","en-GB,en-US;q=0.9,en;q=0.8","676055e6c41940f91e59028c","683db6dfa200031b80f2a654","686507786076d0b3381d7473","676055e6c41940f91e59028c","2025-07-02T10:31:02.653Z","","","","","","AttribQ","","","","","","","","","","","","","","","","","","","","","","","","","","","","","","","","","","","","","","50"
"4670","","<div style=""width:500px;"">
  <p>How much control did you have over the ball?</p>
  </div>","89","html-slider-response","48","723402","0.0-10.0-2.2","72","1","2025-07-02 10:19:01","80fe4187154257d5fb01684ea91b68b9","148.252.133.74","Mozilla/5.0 (Windows NT 10.0; Win64; x64) AppleWebKit/537.36 (KHTML, like Gecko) Chrome/137.0.0.0 Safari/537.36","WebKit","Chrome","137.0.0.0","Windows","10.0","https://app.prolific.com/","en-GB,en-US;q=0.9,en;q=0.8","676055e6c41940f91e59028c","683db6dfa200031b80f2a654","686507786076d0b3381d7473","676055e6c41940f91e59028c","2025-07-02T10:31:07.324Z","","","","","","ControlQ","","","","","","","","","","","","","","","","","","","","","","","","","","","","","","","","","","","","","","50"
"4659","","<div style=""width:500px;"">
  <p>How would you describe your current emotional state?</p>
  </div>","9","html-slider-response","49","728062","0.0-10.0-3.2","72","1","2025-07-02 10:19:01","80fe4187154257d5fb01684ea91b68b9","148.252.133.74","Mozilla/5.0 (Windows NT 10.0; Win64; x64) AppleWebKit/537.36 (KHTML, like Gecko) Chrome/137.0.0.0 Safari/537.36","WebKit","Chrome","137.0.0.0","Windows","10.0","https://app.prolific.com/","en-GB,en-US;q=0.9,en;q=0.8","676055e6c41940f91e59028c","683db6dfa200031b80f2a654","686507786076d0b3381d7473","676055e6c41940f91e59028c","2025-07-02T10:31:11.984Z","","","","","","StressQ","","","","","","","","","","","","","","","","","","","","","","","","","","","","","","","","","","","","","","50"
"2845","","<div style=""width:500px;"">
  <p>What best describes how you currently feel?</p>
  </div>","93","html-slider-response","50","730908","0.0-10.0-4.2","72","1","2025-07-02 10:19:01","80fe4187154257d5fb01684ea91b68b9","148.252.133.74","Mozilla/5.0 (Windows NT 10.0; Win64; x64) AppleWebKit/537.36 (KHTML, like Gecko) Chrome/137.0.0.0 Safari/537.36","WebKit","Chrome","137.0.0.0","Windows","10.0","https://app.prolific.com/","en-GB,en-US;q=0.9,en;q=0.8","676055e6c41940f91e59028c","683db6dfa200031b80f2a654","686507786076d0b3381d7473","676055e6c41940f91e59028c","2025-07-02T10:31:14.830Z","","","","","","MotivationQ","","","","","","","","","","","","","","","","","","","","","","","","","","","","","","","","","","","","","","50"
"","","","","ctl-task-cpt","51","759033","0.0-10.0-0.3","72","1","2025-07-02 10:19:01","80fe4187154257d5fb01684ea91b68b9","148.252.133.74","Mozilla/5.0 (Windows NT 10.0; Win64; x64) AppleWebKit/537.36 (KHTML, like Gecko) Chrome/137.0.0.0 Safari/537.36","WebKit","Chrome","137.0.0.0","Windows","10.0","https://app.prolific.com/","en-GB,en-US;q=0.9,en;q=0.8","676055e6c41940f91e59028c","683db6dfa200031b80f2a654","686507786076d0b3381d7473","676055e6c41940f91e59028c","2025-07-02T10:31:42.955Z","","","","","","","","","","","","","","","","win-only","3","g1:SW,g2:NE","0.7","4","0","733266.4","1568.6","6570.9","25110.7","1","4","4","6","2","4","4","24","20","0.18181818181818182","1716.2","3000","1170","[""up"",""right""]","{""num_key_presses"":6,""num_perfect"":5,""num_errors"":0,""num_randdir"":1,""num_randdir_good_moves"":1,""num_whilered"":0,""num_whileblue"":0,""num_blue"":1,""num_good_moves"":6}","[410.57142857142856,422.47767857142856,0.2,410.57142857142856,422.47767857142856,101.8,410.57142857142856,422.47767857142856,202.7,410.57142857142856,422.47767857142856,307.3,410.57142857142856,422.47767857142856,407.4,410.57142857142856,422.47767857142856,507.5,410.57142857142856,422.47767857142856,614.1,441.57142857142856,376.47767857142856,715.5,616.5714285714286,166.47767857142856,817.3,703.5714285714286,57.47767857142857,918.3,708.5714285714286,59.47767857142857,1022.4,713.5714285714286,66.47767857142857,1122.5,738.5714285714286,74.47767857142857,1222.7,751.5714285714286,73.47767857142857,1322.7,751.5714285714286,73.47767857142857,1422.8,751.5714285714286,73.47767857142857,1527.9,751.5714285714286,73.47767857142857,1628,751.5714285714286,73.47767857142857,1729.6,751.5714285714286,73.47767857142857,1832.9,751.5714285714286,73.47767857142857,1936.5,751.5714285714286,73.47767857142857,2036.7,751.5714285714286,73.47767857142857,2137.3,751.5714285714286,73.47767857142857,2237.6,751.5714285714286,73.47767857142857,2342.9,751.5714285714286,73.47767857142857,2450.1,751.5714285714286,73.47767857142857,2552.5,751.5714285714286,73.47767857142857,2652.8,751.5714285714286,73.47767857142857,2752.9,751.5714285714286,73.47767857142857,2857.6,751.5714285714286,73.47767857142857,2965.7,751.5714285714286,73.47767857142857,3067.2,751.5714285714286,73.47767857142857,3167.6,751.5714285714286,73.47767857142857,3267.7,751.5714285714286,73.47767857142857,3372.3,751.5714285714286,73.47767857142857,3478.1,751.5714285714286,73.47767857142857,3582.7,751.5714285714286,73.47767857142857,3687.3,751.5714285714286,73.47767857142857,3792.1,751.5714285714286,73.47767857142857,3892.7,751.5714285714286,73.47767857142857,3994.4,751.5714285714286,73.47767857142857,4096.7,751.5714285714286,73.47767857142857,4197.6,751.5714285714286,73.47767857142857,4299,751.5714285714286,73.47767857142857,4401.7,751.5714285714286,73.47767857142857,4502.8,751.5714285714286,73.47767857142857,4607.5,751.5714285714286,73.47767857142857,4713.3,751.5714285714286,73.47767857142857,4814.1,751.5714285714286,73.47767857142857,4917.6]","[5113.7,5113.7,2811.1,2006.2,296.4,""smooth"",""up"",""up"",""good_move"",8828,3714,3430.2,5114,283.8,""smooth"",""up"",""up"",""good_move"",11714.2,2886,2568.3,8828.2,317.7,""smooth"",""up"",""up"",""good_move"",13785.8,2071.4,1734.6,11714.4,336.8,""oops"",""right"",""right"",""good_move"",16126,2340,1995.1,13786,344.9,""smooth"",""right"",""right"",""good_move"",18456.3,2330.1,1983,16126.2,347.1,""smooth"",""right"",""right"",""good_move""]","",""
"4528","","<div style=""width:500px;"">
  <p>What determined the result of this run?</p>
  </div>","90","html-slider-response","52","763562","0.0-10.0-1.3","72","1","2025-07-02 10:19:01","80fe4187154257d5fb01684ea91b68b9","148.252.133.74","Mozilla/5.0 (Windows NT 10.0; Win64; x64) AppleWebKit/537.36 (KHTML, like Gecko) Chrome/137.0.0.0 Safari/537.36","WebKit","Chrome","137.0.0.0","Windows","10.0","https://app.prolific.com/","en-GB,en-US;q=0.9,en;q=0.8","676055e6c41940f91e59028c","683db6dfa200031b80f2a654","686507786076d0b3381d7473","676055e6c41940f91e59028c","2025-07-02T10:31:47.484Z","","","","","","AttribQ","","","","","","","","","","","","","","","","","","","","","","","","","","","","","","","","","","","","","","50"
"3929","","<div style=""width:500px;"">
  <p>How much control did you have over the ball?</p>
  </div>","90","html-slider-response","53","767492","0.0-10.0-2.3","72","1","2025-07-02 10:19:01","80fe4187154257d5fb01684ea91b68b9","148.252.133.74","Mozilla/5.0 (Windows NT 10.0; Win64; x64) AppleWebKit/537.36 (KHTML, like Gecko) Chrome/137.0.0.0 Safari/537.36","WebKit","Chrome","137.0.0.0","Windows","10.0","https://app.prolific.com/","en-GB,en-US;q=0.9,en;q=0.8","676055e6c41940f91e59028c","683db6dfa200031b80f2a654","686507786076d0b3381d7473","676055e6c41940f91e59028c","2025-07-02T10:31:51.414Z","","","","","","ControlQ","","","","","","","","","","","","","","","","","","","","","","","","","","","","","","","","","","","","","","50"
"3291","","<div style=""width:500px;"">
  <p>How would you describe your current emotional state?</p>
  </div>","4","html-slider-response","54","770784","0.0-10.0-3.3","72","1","2025-07-02 10:19:01","80fe4187154257d5fb01684ea91b68b9","148.252.133.74","Mozilla/5.0 (Windows NT 10.0; Win64; x64) AppleWebKit/537.36 (KHTML, like Gecko) Chrome/137.0.0.0 Safari/537.36","WebKit","Chrome","137.0.0.0","Windows","10.0","https://app.prolific.com/","en-GB,en-US;q=0.9,en;q=0.8","676055e6c41940f91e59028c","683db6dfa200031b80f2a654","686507786076d0b3381d7473","676055e6c41940f91e59028c","2025-07-02T10:31:54.706Z","","","","","","StressQ","","","","","","","","","","","","","","","","","","","","","","","","","","","","","","","","","","","","","","50"
"7950","","<div style=""width:500px;"">
  <p>What best describes how you currently feel?</p>
  </div>","91","html-slider-response","55","778735","0.0-10.0-4.3","72","1","2025-07-02 10:19:01","80fe4187154257d5fb01684ea91b68b9","148.252.133.74","Mozilla/5.0 (Windows NT 10.0; Win64; x64) AppleWebKit/537.36 (KHTML, like Gecko) Chrome/137.0.0.0 Safari/537.36","WebKit","Chrome","137.0.0.0","Windows","10.0","https://app.prolific.com/","en-GB,en-US;q=0.9,en;q=0.8","676055e6c41940f91e59028c","683db6dfa200031b80f2a654","686507786076d0b3381d7473","676055e6c41940f91e59028c","2025-07-02T10:32:02.657Z","","","","","","MotivationQ","","","","","","","","","","","","","","","","","","","","","","","","","","","","","","","","","","","","","","50"
"","","","","ctl-task-cpt","56","837095","0.0-10.0-0.4","72","1","2025-07-02 10:19:01","80fe4187154257d5fb01684ea91b68b9","148.252.133.74","Mozilla/5.0 (Windows NT 10.0; Win64; x64) AppleWebKit/537.36 (KHTML, like Gecko) Chrome/137.0.0.0 Safari/537.36","WebKit","Chrome","137.0.0.0","Windows","10.0","https://app.prolific.com/","en-GB,en-US;q=0.9,en;q=0.8","676055e6c41940f91e59028c","683db6dfa200031b80f2a654","686507786076d0b3381d7473","676055e6c41940f91e59028c","2025-07-02T10:33:01.017Z","","","","","","","","","","","","","","","","win-only","2","g1:SE,g2:NW","0.6","5","0","781093.2","2203.1","7209.6","55351","1","4","4","6","2","-4","-6","18","24","0.13636363636363635","1606.1","3000","-2445","[""left"",""up""]","{""num_key_presses"":13,""num_perfect"":6,""num_errors"":2,""num_randdir"":5,""num_randdir_good_moves"":2,""num_whilered"":0,""num_whileblue"":1,""num_blue"":4,""num_good_moves"":8}","[408.57142857142856,418.47767857142856,0.1,408.57142857142856,418.47767857142856,109.6,408.57142857142856,418.47767857142856,212.7,408.57142857142856,418.47767857142856,313.9,408.57142857142856,418.47767857142856,418.5,408.57142857142856,418.47767857142856,525.8,408.57142857142856,418.47767857142856,626,408.57142857142856,418.47767857142856,726.5,408.57142857142856,418.47767857142856,827.6,408.57142857142856,418.47767857142856,927.9,185.57142857142856,254.47767857142856,1028.4,83.57142857142857,177.47767857142856,1128.4,43.57142857142857,126.47767857142857,1232.8,49.57142857142857,86.47767857142857,1333.7,53.57142857142857,82.47767857142857,1434.3,53.57142857142857,82.47767857142857,1541.7,53.57142857142857,82.47767857142857,1642.7,53.57142857142857,82.47767857142857,1747.7,53.57142857142857,82.47767857142857,1857.7,53.57142857142857,82.47767857142857,1958.2,-80.42857142857143,170.47767857142856,2060.1,-90.42857142857143,178.47767857142856,2163.1,-90.42857142857143,178.47767857142856,2263.4,-90.42857142857143,178.47767857142856,2368.3,-90.42857142857143,178.47767857142856,2473.4,-90.42857142857143,178.47767857142856,2574.4,-90.42857142857143,178.47767857142856,2677.6,-90.42857142857143,178.47767857142856,2777.6,-90.42857142857143,178.47767857142856,2890.9,-90.42857142857143,178.47767857142856,2993.8,-90.42857142857143,178.47767857142856,3097.6,-90.42857142857143,178.47767857142856,3197.6,-90.42857142857143,178.47767857142856,3298.2,-90.42857142857143,178.47767857142856,3407.5,-90.42857142857143,178.47767857142856,3508.3,-90.42857142857143,178.47767857142856,3613.1,-90.42857142857143,178.47767857142856,3718.2,-90.42857142857143,178.47767857142856,3823.7,-90.42857142857143,178.47767857142856,3923.7,-90.42857142857143,178.47767857142856,4024.6,-90.42857142857143,178.47767857142856,4127.1,-90.42857142857143,178.47767857142856,4228,-90.42857142857143,178.47767857142856,4332.4,-90.42857142857143,178.47767857142856,4433.1,-90.42857142857143,178.47767857142856,4540.4,-90.42857142857143,178.47767857142856,4643.5,-90.42857142857143,178.47767857142856,4747.8,-90.42857142857143,178.47767857142856,4856.9,-90.42857142857143,178.47767857142856,4957.7]","[1319.9,1319.9,1000,0,319.9,""smooth"",""up"",""up"",""good_move"",4256.8,2936.7,2666.4,1320.2,270.2,""while_blue"",""up"",""right"",""bad_move"",6851,2593.5,2265.8,4257.5,327.7,""smooth"",""up"",""up"",""good_move"",9897.9,3046.8,2615.1,6851.1,431.7,""oops"",""left"",""right"",""bad_move"",20362.7,10464.5,2835.4,17210.9,316.4,""smooth"",""left"",""left"",""good_move"",23091.9,2728.9,2441.1,20363,287.8,""oops"",""left"",""left"",""good_move"",25973.2,2881.1,2584.2,23092.1,296.9,""smooth"",""left"",""left"",""good_move"",32106.9,6133.6,2451.8,29353.5,301.6,""smooth"",""left"",""left"",""good_move"",34505.9,2398.9,2056.8,32107.1,342,""oops"",""left"",""down"",""bad_move"",36825.4,2319.3,2586.7,34506.1,-267.4,""error"",""-"",""-"",""no_move"",40352.9,3527.4,2199,37826.8,327.1,""smooth"",""left"",""left"",""good_move"",43319.1,2966,2653.5,40353.1,312.5,""oops"",""up"",""down"",""bad_move"",46240.1,2920.6,2607,43319.5,313.6,""oops"",""up"",""up"",""good_move""]","",""
"7727","","<div style=""width:500px;"">
  <p>What determined the result of this run?</p>
  </div>","97","html-slider-response","57","844823","0.0-10.0-1.4","72","1","2025-07-02 10:19:01","80fe4187154257d5fb01684ea91b68b9","148.252.133.74","Mozilla/5.0 (Windows NT 10.0; Win64; x64) AppleWebKit/537.36 (KHTML, like Gecko) Chrome/137.0.0.0 Safari/537.36","WebKit","Chrome","137.0.0.0","Windows","10.0","https://app.prolific.com/","en-GB,en-US;q=0.9,en;q=0.8","676055e6c41940f91e59028c","683db6dfa200031b80f2a654","686507786076d0b3381d7473","676055e6c41940f91e59028c","2025-07-02T10:33:08.745Z","","","","","","AttribQ","","","","","","","","","","","","","","","","","","","","","","","","","","","","","","","","","","","","","","50"
"5088","","<div style=""width:500px;"">
  <p>How much control did you have over the ball?</p>
  </div>","86","html-slider-response","58","849913","0.0-10.0-2.4","72","1","2025-07-02 10:19:01","80fe4187154257d5fb01684ea91b68b9","148.252.133.74","Mozilla/5.0 (Windows NT 10.0; Win64; x64) AppleWebKit/537.36 (KHTML, like Gecko) Chrome/137.0.0.0 Safari/537.36","WebKit","Chrome","137.0.0.0","Windows","10.0","https://app.prolific.com/","en-GB,en-US;q=0.9,en;q=0.8","676055e6c41940f91e59028c","683db6dfa200031b80f2a654","686507786076d0b3381d7473","676055e6c41940f91e59028c","2025-07-02T10:33:13.835Z","","","","","","ControlQ","","","","","","","","","","","","","","","","","","","","","","","","","","","","","","","","","","","","","","50"
"5099","","<div style=""width:500px;"">
  <p>How would you describe your current emotional state?</p>
  </div>","91","html-slider-response","59","855013","0.0-10.0-3.4","72","1","2025-07-02 10:19:01","80fe4187154257d5fb01684ea91b68b9","148.252.133.74","Mozilla/5.0 (Windows NT 10.0; Win64; x64) AppleWebKit/537.36 (KHTML, like Gecko) Chrome/137.0.0.0 Safari/537.36","WebKit","Chrome","137.0.0.0","Windows","10.0","https://app.prolific.com/","en-GB,en-US;q=0.9,en;q=0.8","676055e6c41940f91e59028c","683db6dfa200031b80f2a654","686507786076d0b3381d7473","676055e6c41940f91e59028c","2025-07-02T10:33:18.935Z","","","","","","StressQ","","","","","","","","","","","","","","","","","","","","","","","","","","","","","","","","","","","","","","50"
"4022","","<div style=""width:500px;"">
  <p>What best describes how you currently feel?</p>
  </div>","98","html-slider-response","60","859036","0.0-10.0-4.4","72","1","2025-07-02 10:19:01","80fe4187154257d5fb01684ea91b68b9","148.252.133.74","Mozilla/5.0 (Windows NT 10.0; Win64; x64) AppleWebKit/537.36 (KHTML, like Gecko) Chrome/137.0.0.0 Safari/537.36","WebKit","Chrome","137.0.0.0","Windows","10.0","https://app.prolific.com/","en-GB,en-US;q=0.9,en;q=0.8","676055e6c41940f91e59028c","683db6dfa200031b80f2a654","686507786076d0b3381d7473","676055e6c41940f91e59028c","2025-07-02T10:33:22.958Z","","","","","","MotivationQ","","","","","","","","","","","","","","","","","","","","","","","","","","","","","","","","","","","","","","50"
"","","","","ctl-task-cpt","61","906827","0.0-10.0-0.5","72","1","2025-07-02 10:19:01","80fe4187154257d5fb01684ea91b68b9","148.252.133.74","Mozilla/5.0 (Windows NT 10.0; Win64; x64) AppleWebKit/537.36 (KHTML, like Gecko) Chrome/137.0.0.0 Safari/537.36","WebKit","Chrome","137.0.0.0","Windows","10.0","https://app.prolific.com/","en-GB,en-US;q=0.9,en;q=0.8","676055e6c41940f91e59028c","683db6dfa200031b80f2a654","686507786076d0b3381d7473","676055e6c41940f91e59028c","2025-07-02T10:34:10.749Z","","","","","","","","","","","","","","","","win-only","2","g1:SE,g2:NW","0.5","6","0","861394.6","1444.1","6449.7","44771.5","1","4","8","6","2","8","8","26","18","0.19696969696969696","1342.2","3000","910","[""left"",""up""]","{""num_key_presses"":8,""num_perfect"":5,""num_errors"":0,""num_randdir"":3,""num_randdir_good_moves"":2,""num_whilered"":0,""num_whileblue"":0,""num_blue"":5,""num_good_moves"":7}","[420.57142857142856,417.47767857142856,0.2,420.57142857142856,417.47767857142856,108.3,420.57142857142856,417.47767857142856,210.9,420.57142857142856,417.47767857142856,312.1,420.57142857142856,417.47767857142856,413.3,420.57142857142856,417.47767857142856,526.2,420.57142857142856,417.47767857142856,626.6,420.57142857142856,417.47767857142856,726.6,367.57142857142856,370.47767857142856,827.1,181.57142857142856,213.47767857142856,929.1,111.57142857142857,132.47767857142856,1034.2,93.57142857142857,95.47767857142857,1138.6,91.57142857142857,91.47767857142857,1242.9,91.57142857142857,91.47767857142857,1344.9,91.57142857142857,91.47767857142857,1447.1,91.57142857142857,91.47767857142857,1559.1,91.57142857142857,91.47767857142857,1662.1,91.57142857142857,91.47767857142857,1773,91.57142857142857,91.47767857142857,1874.4,91.57142857142857,91.47767857142857,1976.6,91.57142857142857,91.47767857142857,2076.8,-17.42857142857143,166.47767857142856,2179.7,-58.42857142857143,206.47767857142856,2289.7,-58.42857142857143,206.47767857142856,2391.9,-58.42857142857143,206.47767857142856,2504.9,-58.42857142857143,206.47767857142856,2605.2,-58.42857142857143,206.47767857142856,2707,-58.42857142857143,206.47767857142856,2808.2,-58.42857142857143,206.47767857142856,2911.4,-58.42857142857143,206.47767857142856,3013.4,-58.42857142857143,206.47767857142856,3121.5,-58.42857142857143,206.47767857142856,3222.3,-58.42857142857143,206.47767857142856,3326.9,-58.42857142857143,206.47767857142856,3434.7,-58.42857142857143,206.47767857142856,3538.5,-58.42857142857143,206.47767857142856,3642.6,-58.42857142857143,206.47767857142856,3746.6,-58.42857142857143,206.47767857142856,3846.8,-58.42857142857143,206.47767857142856,3947,-58.42857142857143,206.47767857142856,4048.7,-58.42857142857143,206.47767857142856,4156.6,-58.42857142857143,206.47767857142856,4261.4,-58.42857142857143,206.47767857142856,4363.3,-58.42857142857143,206.47767857142856,4467.4,-58.42857142857143,206.47767857142856,4570.6,-58.42857142857143,206.47767857142856,4672.6,-58.42857142857143,206.47767857142856,4777.5,-58.42857142857143,206.47767857142856,4881.4,-58.42857142857143,206.47767857142856,4987.1]","[1355.9,1355.9,1000,0,355.9,""smooth"",""up"",""up"",""good_move"",3841.1,2484.6,2190.9,1356.5,293.7,""oops"",""up"",""left"",""good_move"",6487.4,2645.5,2330,3841.9,315.5,""smooth"",""up"",""up"",""good_move"",9311.4,2823.9,2413.9,6487.5,410,""oops"",""up"",""down"",""bad_move"",25723.1,16411.4,2501,22900.7,321.4,""oops"",""up"",""up"",""good_move"",33325.2,7601.9,2783.7,30187.6,353.9,""smooth"",""up"",""up"",""good_move"",35726.9,2401.5,2090.5,33325.4,311,""smooth"",""left"",""left"",""good_move"",38208.7,2481.6,2148.8,35727.1,332.8,""smooth"",""left"",""left"",""good_move""]","",""
"4071","","<div style=""width:500px;"">
  <p>What determined the result of this run?</p>
  </div>","93","html-slider-response","62","910899","0.0-10.0-1.5","72","1","2025-07-02 10:19:01","80fe4187154257d5fb01684ea91b68b9","148.252.133.74","Mozilla/5.0 (Windows NT 10.0; Win64; x64) AppleWebKit/537.36 (KHTML, like Gecko) Chrome/137.0.0.0 Safari/537.36","WebKit","Chrome","137.0.0.0","Windows","10.0","https://app.prolific.com/","en-GB,en-US;q=0.9,en;q=0.8","676055e6c41940f91e59028c","683db6dfa200031b80f2a654","686507786076d0b3381d7473","676055e6c41940f91e59028c","2025-07-02T10:34:14.821Z","","","","","","AttribQ","","","","","","","","","","","","","","","","","","","","","","","","","","","","","","","","","","","","","","50"
"3189","","<div style=""width:500px;"">
  <p>How much control did you have over the ball?</p>
  </div>","96","html-slider-response","63","914090","0.0-10.0-2.5","72","1","2025-07-02 10:19:01","80fe4187154257d5fb01684ea91b68b9","148.252.133.74","Mozilla/5.0 (Windows NT 10.0; Win64; x64) AppleWebKit/537.36 (KHTML, like Gecko) Chrome/137.0.0.0 Safari/537.36","WebKit","Chrome","137.0.0.0","Windows","10.0","https://app.prolific.com/","en-GB,en-US;q=0.9,en;q=0.8","676055e6c41940f91e59028c","683db6dfa200031b80f2a654","686507786076d0b3381d7473","676055e6c41940f91e59028c","2025-07-02T10:34:18.012Z","","","","","","ControlQ","","","","","","","","","","","","","","","","","","","","","","","","","","","","","","","","","","","","","","50"
"3201","","<div style=""width:500px;"">
  <p>How would you describe your current emotional state?</p>
  </div>","37","html-slider-response","64","917292","0.0-10.0-3.5","72","1","2025-07-02 10:19:01","80fe4187154257d5fb01684ea91b68b9","148.252.133.74","Mozilla/5.0 (Windows NT 10.0; Win64; x64) AppleWebKit/537.36 (KHTML, like Gecko) Chrome/137.0.0.0 Safari/537.36","WebKit","Chrome","137.0.0.0","Windows","10.0","https://app.prolific.com/","en-GB,en-US;q=0.9,en;q=0.8","676055e6c41940f91e59028c","683db6dfa200031b80f2a654","686507786076d0b3381d7473","676055e6c41940f91e59028c","2025-07-02T10:34:21.214Z","","","","","","StressQ","","","","","","","","","","","","","","","","","","","","","","","","","","","","","","","","","","","","","","50"
"3700","","<div style=""width:500px;"">
  <p>What best describes how you currently feel?</p>
  </div>","92","html-slider-response","65","920994","0.0-10.0-4.5","72","1","2025-07-02 10:19:01","80fe4187154257d5fb01684ea91b68b9","148.252.133.74","Mozilla/5.0 (Windows NT 10.0; Win64; x64) AppleWebKit/537.36 (KHTML, like Gecko) Chrome/137.0.0.0 Safari/537.36","WebKit","Chrome","137.0.0.0","Windows","10.0","https://app.prolific.com/","en-GB,en-US;q=0.9,en;q=0.8","676055e6c41940f91e59028c","683db6dfa200031b80f2a654","686507786076d0b3381d7473","676055e6c41940f91e59028c","2025-07-02T10:34:24.916Z","","","","","","MotivationQ","","","","","","","","","","","","","","","","","","","","","","","","","","","","","","","","","","","","","","50"
"","","","","ctl-task-cpt","66","948728","0.0-10.0-0.6","72","1","2025-07-02 10:19:01","80fe4187154257d5fb01684ea91b68b9","148.252.133.74","Mozilla/5.0 (Windows NT 10.0; Win64; x64) AppleWebKit/537.36 (KHTML, like Gecko) Chrome/137.0.0.0 Safari/537.36","WebKit","Chrome","137.0.0.0","Windows","10.0","https://app.prolific.com/","en-GB,en-US;q=0.9,en;q=0.8","676055e6c41940f91e59028c","683db6dfa200031b80f2a654","686507786076d0b3381d7473","676055e6c41940f91e59028c","2025-07-02T10:34:52.650Z","","","","","","","","","","","","","","","","win-only","2","g1:SE,g2:NW","0.4","7","0","923352.2","1485.8","6486.6","24722","1","4","8","6","2","8","8","34","26","0.25757575757575757","1089.4","3000","1355","[""left"",""up""]","{""num_key_presses"":6,""num_perfect"":3,""num_errors"":0,""num_randdir"":3,""num_randdir_good_moves"":3,""num_whilered"":0,""num_whileblue"":0,""num_blue"":1,""num_good_moves"":6}","[411.57142857142856,412.47767857142856,0.3,411.57142857142856,412.47767857142856,105.6,411.57142857142856,412.47767857142856,210.3,411.57142857142856,412.47767857142856,310.5,411.57142857142856,412.47767857142856,415.7,411.57142857142856,412.47767857142856,516.8,388.57142857142856,393.47767857142856,621.9,139.57142857142856,117.47767857142857,725.8,88.57142857142857,72.47767857142857,827.4,75.57142857142857,2.4776785714285694,930.8,74.57142857142857,2.4776785714285694,1031,74.57142857142857,2.4776785714285694,1132.1,74.57142857142857,2.4776785714285694,1236.8,74.57142857142857,2.4776785714285694,1340.9,74.57142857142857,2.4776785714285694,1448.9,74.57142857142857,2.4776785714285694,1551.7,74.57142857142857,2.4776785714285694,1651.8,-90.42857142857143,101.47767857142857,1755.2,-124.42857142857143,132.47767857142856,1855.3,-124.42857142857143,132.47767857142856,1955.6,-124.42857142857143,132.47767857142856,2056.7,-124.42857142857143,132.47767857142856,2160,-124.42857142857143,132.47767857142856,2264.1,-124.42857142857143,132.47767857142856,2368.4,-124.42857142857143,132.47767857142856,2470.3,-124.42857142857143,132.47767857142856,2575.6,-124.42857142857143,132.47767857142856,2685.9,-124.42857142857143,132.47767857142856,2786.1,-124.42857142857143,132.47767857142856,2886.2,-124.42857142857143,132.47767857142856,2989.8,-124.42857142857143,132.47767857142856,3092.8,-124.42857142857143,132.47767857142856,3195.9,-124.42857142857143,132.47767857142856,3296.9,-124.42857142857143,132.47767857142856,3399.6,-124.42857142857143,132.47767857142856,3500.4,-124.42857142857143,132.47767857142856,3602.5,-124.42857142857143,132.47767857142856,3703.5,-124.42857142857143,132.47767857142856,3807.4,-124.42857142857143,132.47767857142856,3911.4,-124.42857142857143,132.47767857142856,4016.2,-124.42857142857143,132.47767857142856,4118.1,-124.42857142857143,132.47767857142856,4219.6,-124.42857142857143,132.47767857142856,4319.8,-124.42857142857143,132.47767857142856,4420.4,-124.42857142857143,132.47767857142856,4525.2,-124.42857142857143,132.47767857142856,4628.8,-124.42857142857143,132.47767857142856,4730.5,-124.42857142857143,132.47767857142856,4831.1,-124.42857142857143,132.47767857142856,4933.9]","[1363.1,1363.1,1000,0,363.1,""oops"",""up"",""left"",""good_move"",4031.4,2667.7,2359.9,1363.7,307.8,""smooth"",""up"",""up"",""good_move"",7181.7,3150,2815.2,4031.7,334.8,""smooth"",""up"",""up"",""good_move"",9910.3,2728.1,2380.2,7182.2,347.9,""oops"",""up"",""up"",""good_move"",12564.1,2653.7,2337.8,9910.5,315.9,""oops"",""left"",""left"",""good_move"",18127.1,5562.4,1913.3,15945.2,268.6,""smooth"",""left"",""left"",""good_move""]","",""
"7961","","<div style=""width:500px;"">
  <p>What determined the result of this run?</p>
  </div>","94","html-slider-response","67","956691","0.0-10.0-1.6","72","1","2025-07-02 10:19:01","80fe4187154257d5fb01684ea91b68b9","148.252.133.74","Mozilla/5.0 (Windows NT 10.0; Win64; x64) AppleWebKit/537.36 (KHTML, like Gecko) Chrome/137.0.0.0 Safari/537.36","WebKit","Chrome","137.0.0.0","Windows","10.0","https://app.prolific.com/","en-GB,en-US;q=0.9,en;q=0.8","676055e6c41940f91e59028c","683db6dfa200031b80f2a654","686507786076d0b3381d7473","676055e6c41940f91e59028c","2025-07-02T10:35:00.613Z","","","","","","AttribQ","","","","","","","","","","","","","","","","","","","","","","","","","","","","","","","","","","","","","","50"
"4593","","<div style=""width:500px;"">
  <p>How much control did you have over the ball?</p>
  </div>","90","html-slider-response","68","961285","0.0-10.0-2.6","72","1","2025-07-02 10:19:01","80fe4187154257d5fb01684ea91b68b9","148.252.133.74","Mozilla/5.0 (Windows NT 10.0; Win64; x64) AppleWebKit/537.36 (KHTML, like Gecko) Chrome/137.0.0.0 Safari/537.36","WebKit","Chrome","137.0.0.0","Windows","10.0","https://app.prolific.com/","en-GB,en-US;q=0.9,en;q=0.8","676055e6c41940f91e59028c","683db6dfa200031b80f2a654","686507786076d0b3381d7473","676055e6c41940f91e59028c","2025-07-02T10:35:05.207Z","","","","","","ControlQ","","","","","","","","","","","","","","","","","","","","","","","","","","","","","","","","","","","","","","50"
"5112","","<div style=""width:500px;"">
  <p>How would you describe your current emotional state?</p>
  </div>","16","html-slider-response","69","966398","0.0-10.0-3.6","72","1","2025-07-02 10:19:01","80fe4187154257d5fb01684ea91b68b9","148.252.133.74","Mozilla/5.0 (Windows NT 10.0; Win64; x64) AppleWebKit/537.36 (KHTML, like Gecko) Chrome/137.0.0.0 Safari/537.36","WebKit","Chrome","137.0.0.0","Windows","10.0","https://app.prolific.com/","en-GB,en-US;q=0.9,en;q=0.8","676055e6c41940f91e59028c","683db6dfa200031b80f2a654","686507786076d0b3381d7473","676055e6c41940f91e59028c","2025-07-02T10:35:10.320Z","","","","","","StressQ","","","","","","","","","","","","","","","","","","","","","","","","","","","","","","","","","","","","","","50"
"4392","","<div style=""width:500px;"">
  <p>What best describes how you currently feel?</p>
  </div>","88","html-slider-response","70","970791","0.0-10.0-4.6","72","1","2025-07-02 10:19:01","80fe4187154257d5fb01684ea91b68b9","148.252.133.74","Mozilla/5.0 (Windows NT 10.0; Win64; x64) AppleWebKit/537.36 (KHTML, like Gecko) Chrome/137.0.0.0 Safari/537.36","WebKit","Chrome","137.0.0.0","Windows","10.0","https://app.prolific.com/","en-GB,en-US;q=0.9,en;q=0.8","676055e6c41940f91e59028c","683db6dfa200031b80f2a654","686507786076d0b3381d7473","676055e6c41940f91e59028c","2025-07-02T10:35:14.714Z","","","","","","MotivationQ","","","","","","","","","","","","","","","","","","","","","","","","","","","","","","","","","","","","","","50"
"","","","","ctl-task-cpt","71","1054093","0.0-10.0-0.7","72","1","2025-07-02 10:19:01","80fe4187154257d5fb01684ea91b68b9","148.252.133.74","Mozilla/5.0 (Windows NT 10.0; Win64; x64) AppleWebKit/537.36 (KHTML, like Gecko) Chrome/137.0.0.0 Safari/537.36","WebKit","Chrome","137.0.0.0","Windows","10.0","https://app.prolific.com/","en-GB,en-US;q=0.9,en;q=0.8","676055e6c41940f91e59028c","683db6dfa200031b80f2a654","686507786076d0b3381d7473","676055e6c41940f91e59028c","2025-07-02T10:36:38.015Z","","","","","","","","","","","","","","","","win-only","1","g1:NE,g2:SW","0.3","8","0","973150","24809.6","29818","80285.4","1","4","4","6","2","-4","-4","30","34","0.22727272727272727","1309.1","3000","-2295","[""down"",""left""]","{""num_key_presses"":12,""num_perfect"":3,""num_errors"":0,""num_randdir"":9,""num_randdir_good_moves"":3,""num_whilered"":0,""num_whileblue"":0,""num_blue"":4,""num_good_moves"":6}","[416.57142857142856,420.47767857142856,0.6,416.57142857142856,420.47767857142856,109.6,416.57142857142856,420.47767857142856,210.7,416.57142857142856,420.47767857142856,312.2,416.57142857142856,420.47767857142856,419.8,416.57142857142856,420.47767857142856,522,416.57142857142856,420.47767857142856,624.7,416.57142857142856,420.47767857142856,726.2,204.57142857142856,610.4776785714286,826.5,127.57142857142857,709.4776785714286,926.7,94.57142857142857,738.4776785714286,1031.6,93.57142857142857,742.4776785714286,1132.6,93.57142857142857,742.4776785714286,1243,93.57142857142857,742.4776785714286,1344.3,93.57142857142857,742.4776785714286,1457,93.57142857142857,742.4776785714286,1557.2,93.57142857142857,742.4776785714286,1661.2,93.57142857142857,742.4776785714286,1761.5,93.57142857142857,742.4776785714286,1862.8,93.57142857142857,742.4776785714286,1974.7,93.57142857142857,742.4776785714286,2075.8,93.57142857142857,742.4776785714286,2182.2,93.57142857142857,742.4776785714286,2290.7,93.57142857142857,742.4776785714286,2393.4,93.57142857142857,742.4776785714286,2497.7,93.57142857142857,742.4776785714286,2602.5,93.57142857142857,742.4776785714286,2702.6,93.57142857142857,742.4776785714286,2806,93.57142857142857,742.4776785714286,2906.8,93.57142857142857,742.4776785714286,3007.4,93.57142857142857,742.4776785714286,3107.9,93.57142857142857,742.4776785714286,3211.5,93.57142857142857,742.4776785714286,3317.6,93.57142857142857,742.4776785714286,3424.2,93.57142857142857,742.4776785714286,3526.7,93.57142857142857,742.4776785714286,3633.1,93.57142857142857,742.4776785714286,3738.6,93.57142857142857,742.4776785714286,3840.5,93.57142857142857,742.4776785714286,3941.8,93.57142857142857,742.4776785714286,4042,93.57142857142857,742.4776785714286,4157.1,93.57142857142857,742.4776785714286,4261,93.57142857142857,742.4776785714286,4368.6,93.57142857142857,742.4776785714286,4473.7,93.57142857142857,742.4776785714286,4574.3,93.57142857142857,742.4776785714286,4676.4,93.57142857142857,742.4776785714286,4776.6,93.57142857142857,742.4776785714286,4890.7,93.57142857142857,742.4776785714286,4993.6]","[1351.3,1351.3,1000,0,351.3,""smooth"",""down"",""down"",""good_move"",8045.4,6693.6,2902.6,4788.7,354.1,""smooth"",""down"",""down"",""good_move"",14163.8,6118.3,2415.7,11418.6,329.5,""oops"",""down"",""up"",""bad_move"",20041.5,5877.3,2310.2,17378.6,352.7,""oops"",""down"",""left"",""good_move"",23053.2,3011.4,2629.9,20041.8,381.5,""oops"",""down"",""down"",""good_move"",25954.5,2901,2590.2,23053.5,310.8,""oops"",""down"",""right"",""bad_move"",29629.4,3674.6,3364.2,25954.8,310.4,""oops"",""down"",""right"",""bad_move"",32718.3,3088.5,2746.7,29629.8,341.8,""smooth"",""down"",""down"",""good_move"",36501.8,3782.6,3467.1,32719.2,315.5,""oops"",""left"",""right"",""bad_move"",43287,6785,2812.3,40148.8,325.9,""oops"",""left"",""left"",""good_move"",45500.1,2212.7,1927,43287.4,285.7,""oops"",""left"",""up"",""bad_move"",48080.3,2579.8,2253.6,45500.5,326.2,""oops"",""left"",""right"",""bad_move""]","",""
"4105","","<div style=""width:500px;"">
  <p>What determined the result of this run?</p>
  </div>","3","html-slider-response","72","1058200","0.0-10.0-1.7","72","1","2025-07-02 10:19:01","80fe4187154257d5fb01684ea91b68b9","148.252.133.74","Mozilla/5.0 (Windows NT 10.0; Win64; x64) AppleWebKit/537.36 (KHTML, like Gecko) Chrome/137.0.0.0 Safari/537.36","WebKit","Chrome","137.0.0.0","Windows","10.0","https://app.prolific.com/","en-GB,en-US;q=0.9,en;q=0.8","676055e6c41940f91e59028c","683db6dfa200031b80f2a654","686507786076d0b3381d7473","676055e6c41940f91e59028c","2025-07-02T10:36:42.122Z","","","","","","AttribQ","","","","","","","","","","","","","","","","","","","","","","","","","","","","","","","","","","","","","","50"
"6137","","<div style=""width:500px;"">
  <p>How much control did you have over the ball?</p>
  </div>","4","html-slider-response","73","1064338","0.0-10.0-2.7","72","1","2025-07-02 10:19:01","80fe4187154257d5fb01684ea91b68b9","148.252.133.74","Mozilla/5.0 (Windows NT 10.0; Win64; x64) AppleWebKit/537.36 (KHTML, like Gecko) Chrome/137.0.0.0 Safari/537.36","WebKit","Chrome","137.0.0.0","Windows","10.0","https://app.prolific.com/","en-GB,en-US;q=0.9,en;q=0.8","676055e6c41940f91e59028c","683db6dfa200031b80f2a654","686507786076d0b3381d7473","676055e6c41940f91e59028c","2025-07-02T10:36:48.260Z","","","","","","ControlQ","","","","","","","","","","","","","","","","","","","","","","","","","","","","","","","","","","","","","","50"
"3863","","<div style=""width:500px;"">
  <p>How would you describe your current emotional state?</p>
  </div>","89","html-slider-response","74","1068202","0.0-10.0-3.7","72","1","2025-07-02 10:19:01","80fe4187154257d5fb01684ea91b68b9","148.252.133.74","Mozilla/5.0 (Windows NT 10.0; Win64; x64) AppleWebKit/537.36 (KHTML, like Gecko) Chrome/137.0.0.0 Safari/537.36","WebKit","Chrome","137.0.0.0","Windows","10.0","https://app.prolific.com/","en-GB,en-US;q=0.9,en;q=0.8","676055e6c41940f91e59028c","683db6dfa200031b80f2a654","686507786076d0b3381d7473","676055e6c41940f91e59028c","2025-07-02T10:36:52.124Z","","","","","","StressQ","","","","","","","","","","","","","","","","","","","","","","","","","","","","","","","","","","","","","","50"
"3409","","<div style=""width:500px;"">
  <p>What best describes how you currently feel?</p>
  </div>","94","html-slider-response","75","1071611","0.0-10.0-4.7","72","1","2025-07-02 10:19:01","80fe4187154257d5fb01684ea91b68b9","148.252.133.74","Mozilla/5.0 (Windows NT 10.0; Win64; x64) AppleWebKit/537.36 (KHTML, like Gecko) Chrome/137.0.0.0 Safari/537.36","WebKit","Chrome","137.0.0.0","Windows","10.0","https://app.prolific.com/","en-GB,en-US;q=0.9,en;q=0.8","676055e6c41940f91e59028c","683db6dfa200031b80f2a654","686507786076d0b3381d7473","676055e6c41940f91e59028c","2025-07-02T10:36:55.534Z","","","","","","MotivationQ","","","","","","","","","","","","","","","","","","","","","","","","","","","","","","","","","","","","","","50"
"","","","","ctl-task-cpt","76","1148294","0.0-10.0-0.8","72","1","2025-07-02 10:19:01","80fe4187154257d5fb01684ea91b68b9","148.252.133.74","Mozilla/5.0 (Windows NT 10.0; Win64; x64) AppleWebKit/537.36 (KHTML, like Gecko) Chrome/137.0.0.0 Safari/537.36","WebKit","Chrome","137.0.0.0","Windows","10.0","https://app.prolific.com/","en-GB,en-US;q=0.9,en;q=0.8","676055e6c41940f91e59028c","683db6dfa200031b80f2a654","686507786076d0b3381d7473","676055e6c41940f91e59028c","2025-07-02T10:38:12.216Z","","","","","","","","","","","","","","","","win-only","3","g1:SW,g2:NE","0.4","9","0","1073969.9","20149.5","25150","73667.5","1","4","8","6","2","-8","-9","21","30","0.1590909090909091","1369.3","3000","-2205","[""up"",""right""]","{""num_key_presses"":14,""num_perfect"":6,""num_errors"":1,""num_randdir"":7,""num_randdir_good_moves"":3,""num_whilered"":0,""num_whileblue"":1,""num_blue"":3,""num_good_moves"":9}","[417.57142857142856,414.47767857142856,0.4,417.57142857142856,414.47767857142856,102,417.57142857142856,414.47767857142856,219,417.57142857142856,414.47767857142856,322,417.57142857142856,414.47767857142856,427.8,417.57142857142856,414.47767857142856,533.3,417.57142857142856,414.47767857142856,636.3,420.57142857142856,407.47767857142856,736.9,592.5714285714286,155.47767857142856,851.4,667.5714285714286,110.47767857142857,951.9,698.5714285714286,90.47767857142857,1067.4,716.5714285714286,84.47767857142857,1171.6,716.5714285714286,84.47767857142857,1272,716.5714285714286,84.47767857142857,1381.8,716.5714285714286,84.47767857142857,1484.9,716.5714285714286,84.47767857142857,1587.3,716.5714285714286,84.47767857142857,1687.3,716.5714285714286,84.47767857142857,1791.7,716.5714285714286,84.47767857142857,1894.4,716.5714285714286,84.47767857142857,1996.4,716.5714285714286,84.47767857142857,2099.2,716.5714285714286,84.47767857142857,2199.2,716.5714285714286,84.47767857142857,2302.7,716.5714285714286,84.47767857142857,2408.4,716.5714285714286,84.47767857142857,2513.4,716.5714285714286,84.47767857142857,2614.9,716.5714285714286,84.47767857142857,2715.8,716.5714285714286,84.47767857142857,2816.4,716.5714285714286,84.47767857142857,2916.5,716.5714285714286,84.47767857142857,3016.5,716.5714285714286,84.47767857142857,3116.7,716.5714285714286,84.47767857142857,3222.4,716.5714285714286,84.47767857142857,3328.9,716.5714285714286,84.47767857142857,3432.7,716.5714285714286,84.47767857142857,3536.1,716.5714285714286,84.47767857142857,3636.3,716.5714285714286,84.47767857142857,3744.5,716.5714285714286,84.47767857142857,3847.8,716.5714285714286,84.47767857142857,3947.8,716.5714285714286,84.47767857142857,4048.9,716.5714285714286,84.47767857142857,4150.8,716.5714285714286,84.47767857142857,4251,716.5714285714286,84.47767857142857,4358.6,716.5714285714286,84.47767857142857,4458.8,716.5714285714286,84.47767857142857,4564.1,716.5714285714286,84.47767857142857,4666.5,716.5714285714286,84.47767857142857,4772.5,716.5714285714286,84.47767857142857,4874,716.5714285714286,84.47767857142857,4977.7]","[1411.2,1411.2,1000,0,411.2,""smooth"",""up"",""up"",""good_move"",4189.6,2777.8,2436.1,1411.8,341.7,""oops"",""up"",""left"",""bad_move"",6715.7,2525.1,2223.5,4190.6,301.6,""smooth"",""up"",""up"",""good_move"",9725.3,3009.4,2724,6716,285.3,""oops"",""up"",""right"",""good_move"",16154.3,6428.4,2626.3,13166.4,361.6,""oops"",""up"",""left"",""bad_move"",19505,3350.4,3031.3,16154.6,319.1,""smooth"",""up"",""up"",""good_move"",22513,3007.7,2716.6,19505.3,291.1,""oops"",""right"",""right"",""good_move"",25289.7,2776,2495.4,22513.7,280.6,""smooth"",""right"",""right"",""good_move"",32014.2,6724.1,2679.4,29027,307.8,""oops"",""right"",""down"",""bad_move"",34912.1,2897.4,2591.3,32014.7,306.1,""oops"",""right"",""up"",""good_move"",37549.7,2637,2355.1,34912.7,281.9,""oops"",""right"",""down"",""bad_move"",40515.5,2965.6,2706.3,37549.9,259.3,""while_blue"",""right"",""down"",""bad_move"",43683.8,3168,2844.1,40515.8,323.9,""smooth"",""right"",""right"",""good_move"",45979.2,2294.8,1981.3,43684.4,313.5,""smooth"",""up"",""up"",""good_move""]","",""
"5385","","<div style=""width:500px;"">
  <p>What determined the result of this run?</p>
  </div>","17","html-slider-response","77","1153679","0.0-10.0-1.8","72","1","2025-07-02 10:19:01","80fe4187154257d5fb01684ea91b68b9","148.252.133.74","Mozilla/5.0 (Windows NT 10.0; Win64; x64) AppleWebKit/537.36 (KHTML, like Gecko) Chrome/137.0.0.0 Safari/537.36","WebKit","Chrome","137.0.0.0","Windows","10.0","https://app.prolific.com/","en-GB,en-US;q=0.9,en;q=0.8","676055e6c41940f91e59028c","683db6dfa200031b80f2a654","686507786076d0b3381d7473","676055e6c41940f91e59028c","2025-07-02T10:38:17.602Z","","","","","","AttribQ","","","","","","","","","","","","","","","","","","","","","","","","","","","","","","","","","","","","","","50"
"4112","","<div style=""width:500px;"">
  <p>How much control did you have over the ball?</p>
  </div>","28","html-slider-response","78","1157792","0.0-10.0-2.8","72","1","2025-07-02 10:19:01","80fe4187154257d5fb01684ea91b68b9","148.252.133.74","Mozilla/5.0 (Windows NT 10.0; Win64; x64) AppleWebKit/537.36 (KHTML, like Gecko) Chrome/137.0.0.0 Safari/537.36","WebKit","Chrome","137.0.0.0","Windows","10.0","https://app.prolific.com/","en-GB,en-US;q=0.9,en;q=0.8","676055e6c41940f91e59028c","683db6dfa200031b80f2a654","686507786076d0b3381d7473","676055e6c41940f91e59028c","2025-07-02T10:38:21.714Z","","","","","","ControlQ","","","","","","","","","","","","","","","","","","","","","","","","","","","","","","","","","","","","","","50"
"3743","","<div style=""width:500px;"">
  <p>How would you describe your current emotional state?</p>
  </div>","94","html-slider-response","79","1161536","0.0-10.0-3.8","72","1","2025-07-02 10:19:01","80fe4187154257d5fb01684ea91b68b9","148.252.133.74","Mozilla/5.0 (Windows NT 10.0; Win64; x64) AppleWebKit/537.36 (KHTML, like Gecko) Chrome/137.0.0.0 Safari/537.36","WebKit","Chrome","137.0.0.0","Windows","10.0","https://app.prolific.com/","en-GB,en-US;q=0.9,en;q=0.8","676055e6c41940f91e59028c","683db6dfa200031b80f2a654","686507786076d0b3381d7473","676055e6c41940f91e59028c","2025-07-02T10:38:25.458Z","","","","","","StressQ","","","","","","","","","","","","","","","","","","","","","","","","","","","","","","","","","","","","","","50"
"9937","","<div style=""width:500px;"">
  <p>What best describes how you currently feel?</p>
  </div>","84","html-slider-response","80","1171474","0.0-10.0-4.8","72","1","2025-07-02 10:19:01","80fe4187154257d5fb01684ea91b68b9","148.252.133.74","Mozilla/5.0 (Windows NT 10.0; Win64; x64) AppleWebKit/537.36 (KHTML, like Gecko) Chrome/137.0.0.0 Safari/537.36","WebKit","Chrome","137.0.0.0","Windows","10.0","https://app.prolific.com/","en-GB,en-US;q=0.9,en;q=0.8","676055e6c41940f91e59028c","683db6dfa200031b80f2a654","686507786076d0b3381d7473","676055e6c41940f91e59028c","2025-07-02T10:38:35.397Z","","","","","","MotivationQ","","","","","","","","","","","","","","","","","","","","","","","","","","","","","","","","","","","","","","50"
"","","","","ctl-task-cpt","81","1198993","0.0-10.0-0.9","72","1","2025-07-02 10:19:01","80fe4187154257d5fb01684ea91b68b9","148.252.133.74","Mozilla/5.0 (Windows NT 10.0; Win64; x64) AppleWebKit/537.36 (KHTML, like Gecko) Chrome/137.0.0.0 Safari/537.36","WebKit","Chrome","137.0.0.0","Windows","10.0","https://app.prolific.com/","en-GB,en-US;q=0.9,en;q=0.8","676055e6c41940f91e59028c","683db6dfa200031b80f2a654","686507786076d0b3381d7473","676055e6c41940f91e59028c","2025-07-02T10:39:02.915Z","","","","","","","","","","","","","","","","win-only","3","g1:SW,g2:NE","0.5","10","0","1173835.1","1497.3","6502.7","24493.5","1","4","4","6","1","1","1","22","21","0.16666666666666666","2144","3000","1520","[""down"",""left""]","{""num_key_presses"":6,""num_perfect"":4,""num_errors"":0,""num_randdir"":2,""num_randdir_good_moves"":1,""num_whilered"":0,""num_whileblue"":0,""num_blue"":1,""num_good_moves"":5}","[415.57142857142856,413.47767857142856,0.3,415.57142857142856,413.47767857142856,100.2,415.57142857142856,413.47767857142856,209.4,415.57142857142856,413.47767857142856,313.2,415.57142857142856,413.47767857142856,415.3,415.57142857142856,413.47767857142856,526.8,415.57142857142856,413.47767857142856,629,415.57142857142856,413.47767857142856,736.2,415.57142857142856,413.47767857142856,836.2,415.57142857142856,413.47767857142856,944.3,415.57142857142856,413.47767857142856,1049.2,415.57142857142856,413.47767857142856,1150.1,415.57142857142856,413.47767857142856,1260.9,415.57142857142856,413.47767857142856,1364.4,415.57142857142856,413.47767857142856,1474.2,299.57142857142856,515.4776785714286,1577.1,167.57142857142856,639.4776785714286,1679,92.57142857142857,702.4776785714286,1788.9,71.57142857142857,726.4776785714286,1890.5,61.57142857142857,737.4776785714286,1991.4,61.57142857142857,737.4776785714286,2095.2,61.57142857142857,737.4776785714286,2208.5,61.57142857142857,737.4776785714286,2309.1,61.57142857142857,737.4776785714286,2409.3,61.57142857142857,737.4776785714286,2523.9,61.57142857142857,737.4776785714286,2627.4,61.57142857142857,737.4776785714286,2728.2,61.57142857142857,737.4776785714286,2829.1,61.57142857142857,737.4776785714286,2942.8,61.57142857142857,737.4776785714286,3043.5,61.57142857142857,737.4776785714286,3144.9,61.57142857142857,737.4776785714286,3249.1,61.57142857142857,737.4776785714286,3352.9,61.57142857142857,737.4776785714286,3456.8,61.57142857142857,737.4776785714286,3559.9,61.57142857142857,737.4776785714286,3675.4,61.57142857142857,737.4776785714286,3778.5,61.57142857142857,737.4776785714286,3886.9,61.57142857142857,737.4776785714286,3987.1,61.57142857142857,737.4776785714286,4089.8,61.57142857142857,737.4776785714286,4191.2,61.57142857142857,737.4776785714286,4293.4,61.57142857142857,737.4776785714286,4393.4,61.57142857142857,737.4776785714286,4493.5,61.57142857142857,737.4776785714286,4594,61.57142857142857,737.4776785714286,4701,61.57142857142857,737.4776785714286,4806.4,61.57142857142857,737.4776785714286,4909.2]","[1400,1400,1000,0,400,""oops"",""down"",""down"",""good_move"",3427.3,2026.7,1686.8,1400.6,339.9,""oops"",""down"",""right"",""bad_move"",6216,2788.2,2496.6,3427.8,291.6,""smooth"",""down"",""down"",""good_move"",12557.9,6341.7,2089.6,10148.1,320.2,""smooth"",""left"",""left"",""good_move"",15286.4,2728,2437,12558.4,291,""smooth"",""left"",""left"",""good_move"",17881.2,2594.5,2282.2,15286.7,312.3,""smooth"",""left"",""left"",""good_move""]","",""
"4292","","<div style=""width:500px;"">
  <p>What determined the result of this run?</p>
  </div>","94","html-slider-response","82","1203287","0.0-10.0-1.9","72","1","2025-07-02 10:19:01","80fe4187154257d5fb01684ea91b68b9","148.252.133.74","Mozilla/5.0 (Windows NT 10.0; Win64; x64) AppleWebKit/537.36 (KHTML, like Gecko) Chrome/137.0.0.0 Safari/537.36","WebKit","Chrome","137.0.0.0","Windows","10.0","https://app.prolific.com/","en-GB,en-US;q=0.9,en;q=0.8","676055e6c41940f91e59028c","683db6dfa200031b80f2a654","686507786076d0b3381d7473","676055e6c41940f91e59028c","2025-07-02T10:39:07.209Z","","","","","","AttribQ","","","","","","","","","","","","","","","","","","","","","","","","","","","","","","","","","","","","","","50"
"2675","","<div style=""width:500px;"">
  <p>How much control did you have over the ball?</p>
  </div>","89","html-slider-response","83","1205963","0.0-10.0-2.9","72","1","2025-07-02 10:19:01","80fe4187154257d5fb01684ea91b68b9","148.252.133.74","Mozilla/5.0 (Windows NT 10.0; Win64; x64) AppleWebKit/537.36 (KHTML, like Gecko) Chrome/137.0.0.0 Safari/537.36","WebKit","Chrome","137.0.0.0","Windows","10.0","https://app.prolific.com/","en-GB,en-US;q=0.9,en;q=0.8","676055e6c41940f91e59028c","683db6dfa200031b80f2a654","686507786076d0b3381d7473","676055e6c41940f91e59028c","2025-07-02T10:39:09.885Z","","","","","","ControlQ","","","","","","","","","","","","","","","","","","","","","","","","","","","","","","","","","","","","","","50"
