"rt","response_timestamp","stimulus","response","trial_type","trial_index","time_elapsed","internal_node_id","run_id","condition","recorded_at","source_code_version","ip","user_agent","device","browser","browser_version","platform","platform_version","referer","accept_language","PROLIFIC_PID","STUDY_ID","SESSION_ID","prolific_id","realtime","view_history","question_order","consent","success","question_id","eventType","responses","item_order","radio_event_ids","radio_event_times","key_event_times","mouse_event_times","straightlining","zigzagging","honeypot","which_type","canvas_config","goals_layout","control_level","trial_number","tutorial_trial_number","trial_start_time","phase1_start_time","phase2_start_time","phase3_start_time","goal_1_value","goal_1_distance","goal_2_value","goal_2_distance","goal_selected","outcome","outcome_total","participant_final_score","participant_initial_score","participant_final_score_prop","goal_choice_rt","allocated_time","allocated_time_remaining","goal_direction","counts","mouse_movements","key_presses","correct","slider_start","sub_question"
"17178","1751451778051","<p style='font-size:40px;line-height:1.25'><strong>Welcome to the experiment!</strong></p><p style='font-size:1.1em;line-height:1.25'>Thank you for your interest in our experiment! Before you begin, it is important that we obtain your informed consent to participate in the study.</p><p style='font-size:1.1em;line-height:1.25'>On the next screen will be an <strong>information sheet</strong> for you to read. To participate in the study we need you to read this information sheet and the following consent form carefully. If you agree with all the statements, please click the <strong>I agree</strong> button.</p><p style='font-size:1.1em;line-height:1.25'>Press <strong>Next</strong> to read the information sheet.</p>","0","custom-html-button-response","0","17200","0.0-0.0","158","1","2025-07-02 10:22:04","80fe4187154257d5fb01684ea91b68b9","105.12.1.92","Mozilla/5.0 (Windows NT 10.0; Win64; x64) AppleWebKit/537.36 (KHTML, like Gecko) Chrome/137.0.0.0 Safari/537.36","WebKit","Chrome","137.0.0.0","Windows","10.0","https://app.prolific.com/","en-ZA,en-GB;q=0.9,en-US;q=0.8,en;q=0.7","6771ad00548b3a182d5f80e0","683db6dfa200031b80f2a654","68650787de883a7c167790a8","6771ad00548b3a182d5f80e0","2025-07-02T10:22:58.057Z","","","","","","","","","","","","","","","","","","","","","","","","","","","","","","","","","","","","","","","","","","","","",""
"43319","","","","instructions","1","60528","0.0-1.0","158","1","2025-07-02 10:22:04","80fe4187154257d5fb01684ea91b68b9","105.12.1.92","Mozilla/5.0 (Windows NT 10.0; Win64; x64) AppleWebKit/537.36 (KHTML, like Gecko) Chrome/137.0.0.0 Safari/537.36","WebKit","Chrome","137.0.0.0","Windows","10.0","https://app.prolific.com/","en-ZA,en-GB;q=0.9,en-US;q=0.8,en;q=0.7","6771ad00548b3a182d5f80e0","683db6dfa200031b80f2a654","68650787de883a7c167790a8","6771ad00548b3a182d5f80e0","","[{""page_index"":0,""viewing_time"":35926},{""page_index"":1,""viewing_time"":7389}]","","","","","","","","","","","","","","","","","","","","","","","","","","","","","","","","","","","","","","","","","","","",""
"9834","","","{""Q0"":"""",""Q1"":"""",""Q2"":"""",""Q3"":"""",""Q4"":"""",""Q5"":"""",""Q6"":""I agree""}","survey-multi-choice","2","70383","0.0-2.0","158","1","2025-07-02 10:22:04","80fe4187154257d5fb01684ea91b68b9","105.12.1.92","Mozilla/5.0 (Windows NT 10.0; Win64; x64) AppleWebKit/537.36 (KHTML, like Gecko) Chrome/137.0.0.0 Safari/537.36","WebKit","Chrome","137.0.0.0","Windows","10.0","https://app.prolific.com/","en-ZA,en-GB;q=0.9,en-US;q=0.8,en;q=0.7","6771ad00548b3a182d5f80e0","683db6dfa200031b80f2a654","68650787de883a7c167790a8","6771ad00548b3a182d5f80e0","","","[0,1,2,3,4,5,6]","true","","","","","","","","","","","","","","","","","","","","","","","","","","","","","","","","","","","","","","","","","",""
"24237","","","","fullscreen","3","95642","0.0-4.0","158","1","2025-07-02 10:22:04","80fe4187154257d5fb01684ea91b68b9","105.12.1.92","Mozilla/5.0 (Windows NT 10.0; Win64; x64) AppleWebKit/537.36 (KHTML, like Gecko) Chrome/137.0.0.0 Safari/537.36","WebKit","Chrome","137.0.0.0","Windows","10.0","https://app.prolific.com/","en-ZA,en-GB;q=0.9,en-US;q=0.8,en;q=0.7","6771ad00548b3a182d5f80e0","683db6dfa200031b80f2a654","68650787de883a7c167790a8","6771ad00548b3a182d5f80e0","","","","","true","","","","","","","","","","","","","","","","","","","","","","","","","","","","","","","","","","","","","","","","",""
"8816","1751451865320"," <p style='font-size:1.1em;line-height:1.25'>Thank you for completing the consent form and closing all other tabs.</p><p style='font-size:1.1em;line-height:1.25'>We will now invite you to fill in some demographic information and questionnaires, before starting the game.<br>This will take about 5 minutes.<br></p><p style='font-size:1.1em;line-height:1.25'>Press the <strong>Next</strong> button to continue.</p>","0","custom-html-button-response","4","104469","0.0-5.0","158","1","2025-07-02 10:22:04","80fe4187154257d5fb01684ea91b68b9","105.12.1.92","Mozilla/5.0 (Windows NT 10.0; Win64; x64) AppleWebKit/537.36 (KHTML, like Gecko) Chrome/137.0.0.0 Safari/537.36","WebKit","Chrome","137.0.0.0","Windows","10.0","https://app.prolific.com/","en-ZA,en-GB;q=0.9,en-US;q=0.8,en;q=0.7","6771ad00548b3a182d5f80e0","683db6dfa200031b80f2a654","68650787de883a7c167790a8","6771ad00548b3a182d5f80e0","2025-07-02T10:24:25.325Z","","","","","","","","","","","","","","","","","","","","","","","","","","","","","","","","","","","","","","","","","","","","",""
"5589","","","{""age"":""30""}","survey-text","5","110088","0.0-6.0-0.0","158","1","2025-07-02 10:22:04","80fe4187154257d5fb01684ea91b68b9","105.12.1.92","Mozilla/5.0 (Windows NT 10.0; Win64; x64) AppleWebKit/537.36 (KHTML, like Gecko) Chrome/137.0.0.0 Safari/537.36","WebKit","Chrome","137.0.0.0","Windows","10.0","https://app.prolific.com/","en-ZA,en-GB;q=0.9,en-US;q=0.8,en;q=0.7","6771ad00548b3a182d5f80e0","683db6dfa200031b80f2a654","68650787de883a7c167790a8","6771ad00548b3a182d5f80e0","","","","","","0","demographics","","","","","","","","","","","","","","","","","","","","","","","","","","","","","","","","","","","","","","",""
"5107","","","{""gender_identity"":""male/man""}","survey-multi-choice","6","115205","0.0-6.0-1.0","158","1","2025-07-02 10:22:04","80fe4187154257d5fb01684ea91b68b9","105.12.1.92","Mozilla/5.0 (Windows NT 10.0; Win64; x64) AppleWebKit/537.36 (KHTML, like Gecko) Chrome/137.0.0.0 Safari/537.36","WebKit","Chrome","137.0.0.0","Windows","10.0","https://app.prolific.com/","en-ZA,en-GB;q=0.9,en-US;q=0.8,en;q=0.7","6771ad00548b3a182d5f80e0","683db6dfa200031b80f2a654","68650787de883a7c167790a8","6771ad00548b3a182d5f80e0","","","[0]","","","1","demographics","","","","","","","","","","","","","","","","","","","","","","","","","","","","","","","","","","","","","","",""
"5151","","","{""assigned_sex"":""male""}","survey-multi-choice","7","120367","0.0-6.0-2.0","158","1","2025-07-02 10:22:04","80fe4187154257d5fb01684ea91b68b9","105.12.1.92","Mozilla/5.0 (Windows NT 10.0; Win64; x64) AppleWebKit/537.36 (KHTML, like Gecko) Chrome/137.0.0.0 Safari/537.36","WebKit","Chrome","137.0.0.0","Windows","10.0","https://app.prolific.com/","en-ZA,en-GB;q=0.9,en-US;q=0.8,en;q=0.7","6771ad00548b3a182d5f80e0","683db6dfa200031b80f2a654","68650787de883a7c167790a8","6771ad00548b3a182d5f80e0","","","[0]","","","2","demographics","","","","","","","","","","","","","","","","","","","","","","","","","","","","","","","","","","","","","","",""
"111414","","","{""menstrual_cycle"":""Yes""}","survey-multi-choice","8","231793","0.0-6.0-3.0","158","1","2025-07-02 10:22:04","80fe4187154257d5fb01684ea91b68b9","105.12.1.92","Mozilla/5.0 (Windows NT 10.0; Win64; x64) AppleWebKit/537.36 (KHTML, like Gecko) Chrome/137.0.0.0 Safari/537.36","WebKit","Chrome","137.0.0.0","Windows","10.0","https://app.prolific.com/","en-ZA,en-GB;q=0.9,en-US;q=0.8,en;q=0.7","6771ad00548b3a182d5f80e0","683db6dfa200031b80f2a654","68650787de883a7c167790a8","6771ad00548b3a182d5f80e0","","","[0]","","","4","demographics","","","","","","","","","","","","","","","","","","","","","","","","","","","","","","","","","","","","","","",""
"5222","","","{""education"":""Bachelor's Degree (e.g., BA)""}","survey-multi-choice","9","237027","0.0-6.0-4.0","158","1","2025-07-02 10:22:04","80fe4187154257d5fb01684ea91b68b9","105.12.1.92","Mozilla/5.0 (Windows NT 10.0; Win64; x64) AppleWebKit/537.36 (KHTML, like Gecko) Chrome/137.0.0.0 Safari/537.36","WebKit","Chrome","137.0.0.0","Windows","10.0","https://app.prolific.com/","en-ZA,en-GB;q=0.9,en-US;q=0.8,en;q=0.7","6771ad00548b3a182d5f80e0","683db6dfa200031b80f2a654","68650787de883a7c167790a8","6771ad00548b3a182d5f80e0","","","[0]","","","5","demographics","","","","","","","","","","","","","","","","","","","","","","","","","","","","","","","","","","","","","","",""
"6446","","","{""education"":""Bachelor's Degree (e.g., BA)""}","survey-multi-choice","10","243485","0.0-6.0-5.0","158","1","2025-07-02 10:22:04","80fe4187154257d5fb01684ea91b68b9","105.12.1.92","Mozilla/5.0 (Windows NT 10.0; Win64; x64) AppleWebKit/537.36 (KHTML, like Gecko) Chrome/137.0.0.0 Safari/537.36","WebKit","Chrome","137.0.0.0","Windows","10.0","https://app.prolific.com/","en-ZA,en-GB;q=0.9,en-US;q=0.8,en;q=0.7","6771ad00548b3a182d5f80e0","683db6dfa200031b80f2a654","68650787de883a7c167790a8","6771ad00548b3a182d5f80e0","2025-07-02T10:26:44.341Z","","[0]","","","6","demographics","","","","","","","","","","","","","","","","","","","","","","","","","","","","","","","","","","","","","","",""
"107146","","","{""mental_health_condition"":""Yes, Depression"",""mental_health_treatment"":""Antidrepressants"",""psychiatric_medication"":""None""}","survey-text","11","350654","0.0-7.0-0.0","158","1","2025-07-02 10:22:04","80fe4187154257d5fb01684ea91b68b9","105.12.1.92","Mozilla/5.0 (Windows NT 10.0; Win64; x64) AppleWebKit/537.36 (KHTML, like Gecko) Chrome/137.0.0.0 Safari/537.36","WebKit","Chrome","137.0.0.0","Windows","10.0","https://app.prolific.com/","en-ZA,en-GB;q=0.9,en-US;q=0.8,en;q=0.7","6771ad00548b3a182d5f80e0","683db6dfa200031b80f2a654","68650787de883a7c167790a8","6771ad00548b3a182d5f80e0","2025-07-02T10:28:31.512Z","","","","","1","mental_health","","","","","","","","","","","","","","","","","","","","","","","","","","","","","","","","","","","","","","",""
"9897","","","{""depression_history"":[""Yes""]}","survey-multi-select","12","360575","0.0-7.0-1.0","158","1","2025-07-02 10:22:04","80fe4187154257d5fb01684ea91b68b9","105.12.1.92","Mozilla/5.0 (Windows NT 10.0; Win64; x64) AppleWebKit/537.36 (KHTML, like Gecko) Chrome/137.0.0.0 Safari/537.36","WebKit","Chrome","137.0.0.0","Windows","10.0","https://app.prolific.com/","en-ZA,en-GB;q=0.9,en-US;q=0.8,en;q=0.7","6771ad00548b3a182d5f80e0","683db6dfa200031b80f2a654","68650787de883a7c167790a8","6771ad00548b3a182d5f80e0","","","[0]","","","","mental_health","","","","","","","","","","","","","","","","","","","","","","","","","","","","","","","","","","","","","","",""
"22021","","","{""depression_episodes"":""more than 5"",""depression_recent"":""Currently experiencing an episode""}","survey-multi-choice","13","382610","0.0-7.0-2.0-0.0","158","1","2025-07-02 10:22:04","80fe4187154257d5fb01684ea91b68b9","105.12.1.92","Mozilla/5.0 (Windows NT 10.0; Win64; x64) AppleWebKit/537.36 (KHTML, like Gecko) Chrome/137.0.0.0 Safari/537.36","WebKit","Chrome","137.0.0.0","Windows","10.0","https://app.prolific.com/","en-ZA,en-GB;q=0.9,en-US;q=0.8,en;q=0.7","6771ad00548b3a182d5f80e0","683db6dfa200031b80f2a654","68650787de883a7c167790a8","6771ad00548b3a182d5f80e0","2025-07-02T10:29:03.467Z","","[0,1]","","","3","mental_health","","","","","","","","","","","","","","","","","","","","","","","","","","","","","","","","","","","","","","",""
"127355","","","","survey-template","14","510000","0.0-7.0-3.0","158","1","2025-07-02 10:22:04","80fe4187154257d5fb01684ea91b68b9","105.12.1.92","Mozilla/5.0 (Windows NT 10.0; Win64; x64) AppleWebKit/537.36 (KHTML, like Gecko) Chrome/137.0.0.0 Safari/537.36","WebKit","Chrome","137.0.0.0","Windows","10.0","https://app.prolific.com/","en-ZA,en-GB;q=0.9,en-US;q=0.8,en;q=0.7","6771ad00548b3a182d5f80e0","683db6dfa200031b80f2a654","68650787de883a7c167790a8","6771ad00548b3a182d5f80e0","2025-07-02T10:31:10.857Z","","","","","","ius","{""Q01"":""2"",""Q02"":""3"",""Q03"":""3"",""Q04"":""4"",""Q05"":""3"",""Q06"":""3"",""Q07"":""2"",""Q08"":""0"",""Q09"":""4"",""Q10"":""3"",""Q11"":""3"",""Q12"":""3"",""Q13"":""3""}","[0,1,2,3,4,5,6,7,8,9,10,11,12]","[""Q01"",""Q02"",""Q03"",""Q04"",""Q05"",""Q06"",""Q07"",""Q08"",""Q09"",""Q10"",""Q11"",""Q12"",""Q13""]","[66060.59999999963,71131,74758.40000000037,80399.90000000037,86708.09999999963,91278.90000000037,95029.40000000037,101661.20000000019,108263,110910.29999999981,115780.90000000037,120862.70000000019,124814.5]","[]","[66060.59999999963,71131,74758.40000000037,80399.90000000037,86708.09999999963,91278.90000000037,95029.40000000037,101661.20000000019,108263,110910.29999999981,115780.90000000037,120862.70000000019,124814.5,127345.90000000037]","0.6153846153846154","0.5","0","","","","","","","","","","","","","","","","","","","","","","","","","","","","","",""
"59261","1751452330127","<p style='font-size:1.1em;line-height:1.25'>In the following, we will ask you a few questions relating to your experiences over the past month.<br></p><p style='font-size:1.1em;line-height:1.25'>Press the <strong>Next</strong> button to continue.</p>","0","custom-html-button-response","15","569274","0.0-7.0-4.0","158","1","2025-07-02 10:22:04","80fe4187154257d5fb01684ea91b68b9","105.12.1.92","Mozilla/5.0 (Windows NT 10.0; Win64; x64) AppleWebKit/537.36 (KHTML, like Gecko) Chrome/137.0.0.0 Safari/537.36","WebKit","Chrome","137.0.0.0","Windows","10.0","https://app.prolific.com/","en-ZA,en-GB;q=0.9,en-US;q=0.8,en;q=0.7","6771ad00548b3a182d5f80e0","683db6dfa200031b80f2a654","68650787de883a7c167790a8","6771ad00548b3a182d5f80e0","2025-07-02T10:32:10.130Z","","","","","","","","","","","","","","","","","","","","","","","","","","","","","","","","","","","","","","","","","","","","",""
"64075.09999999963","","","","survey-template","16","633372","0.0-7.0-5.0","158","1","2025-07-02 10:22:04","80fe4187154257d5fb01684ea91b68b9","105.12.1.92","Mozilla/5.0 (Windows NT 10.0; Win64; x64) AppleWebKit/537.36 (KHTML, like Gecko) Chrome/137.0.0.0 Safari/537.36","WebKit","Chrome","137.0.0.0","Windows","10.0","https://app.prolific.com/","en-ZA,en-GB;q=0.9,en-US;q=0.8,en;q=0.7","6771ad00548b3a182d5f80e0","683db6dfa200031b80f2a654","68650787de883a7c167790a8","6771ad00548b3a182d5f80e0","2025-07-02T10:33:14.232Z","","","","","","pss","{""Q01"":""3"",""Q02"":""3"",""Q03"":""4"",""Q04"":""1"",""Q05"":""2"",""Q06"":""3"",""Q07"":""2"",""Q08"":""2"",""Q09"":""4"",""Q10"":""3""}","[0,1,2,3,4,5,6,7,8,9]","[""Q01"",""Q02"",""Q03"",""Q04"",""Q05"",""Q06"",""Q07"",""Q08"",""Q08"",""Q09"",""Q10""]","[5084,17700,19986.39999999944,22866.599999999627,26317.200000000186,36033.09999999963,41318,50865.39999999944,53601.299999999814,59185.299999999814,62367.200000000186]","[]","[1.5,5084,17700,19986.39999999944,22866.599999999627,26317.200000000186,36033.09999999963,41318,50865.39999999944,53601.299999999814,59185.299999999814,62367.200000000186,64066.700000000186]","0.5","0.6666666666666666","0","","","","","","","","","","","","","","","","","","","","","","","","","","","","","",""
"5067","1751452399310","<p style='font-size:1.1em;line-height:1.25'>Thank you for your answers! Now we will ask you a few more questions relating to your feelings in the last 24 hours.<br></p><p style='font-size:1.1em;line-height:1.25'>Press the <strong>Next</strong> button to continue.</p>","0","custom-html-button-response","17","638456","0.0-7.0-6.0","158","1","2025-07-02 10:22:04","80fe4187154257d5fb01684ea91b68b9","105.12.1.92","Mozilla/5.0 (Windows NT 10.0; Win64; x64) AppleWebKit/537.36 (KHTML, like Gecko) Chrome/137.0.0.0 Safari/537.36","WebKit","Chrome","137.0.0.0","Windows","10.0","https://app.prolific.com/","en-ZA,en-GB;q=0.9,en-US;q=0.8,en;q=0.7","6771ad00548b3a182d5f80e0","683db6dfa200031b80f2a654","68650787de883a7c167790a8","6771ad00548b3a182d5f80e0","2025-07-02T10:33:19.312Z","","","","","","","","","","","","","","","","","","","","","","","","","","","","","","","","","","","","","","","","","","","","",""
"89766.20000000019","","","","survey-template","18","728256","0.0-7.0-7.0","158","1","2025-07-02 10:22:04","80fe4187154257d5fb01684ea91b68b9","105.12.1.92","Mozilla/5.0 (Windows NT 10.0; Win64; x64) AppleWebKit/537.36 (KHTML, like Gecko) Chrome/137.0.0.0 Safari/537.36","WebKit","Chrome","137.0.0.0","Windows","10.0","https://app.prolific.com/","en-ZA,en-GB;q=0.9,en-US;q=0.8,en;q=0.7","6771ad00548b3a182d5f80e0","683db6dfa200031b80f2a654","68650787de883a7c167790a8","6771ad00548b3a182d5f80e0","2025-07-02T10:34:49.112Z","","","","","","drsp","{""Q01"":""3"",""Q02"":""3"",""Q03"":""2"",""Q04"":""2"",""Q05"":""4"",""Q06"":""4"",""Q07"":""3"",""Q08"":""1"",""Q09"":""4"",""Q10"":""5"",""Q11"":""4"",""Q12"":""2"",""Q13"":""4"",""Q14"":""3"",""Q15"":""4"",""Q16"":""3"",""Q17"":""2"",""Q18"":""4"",""Q19"":""3"",""Q20"":""4"",""Q21"":""4""}","[0,1,2,3,4,5,6,7,8,9,10,11,12,13,14,15,16,17,18,19,20]","[""Q01"",""Q02"",""Q03"",""Q04"",""Q05"",""Q06"",""Q07"",""Q08"",""Q09"",""Q09"",""Q10"",""Q11"",""Q12"",""Q13"",""Q13"",""Q14"",""Q15"",""Q16"",""Q17"",""Q18"",""Q19"",""Q20"",""Q21""]","[3752.7999999998137,7845.600000000559,13361.100000000559,18876.700000000186,20492.299999999814,25493.400000000373,28907.400000000373,32343.60000000056,36293.10000000056,38566.10000000056,41400,44043.60000000056,46991.700000000186,49724.5,52560.60000000056,61559.799999999814,64792.60000000056,67289.10000000056,70047.5,72927.90000000037,75919.5,83624.70000000019,87208]","[]","[1.5,3752.7999999998137,7845.600000000559,13361.100000000559,16667.5,18876.700000000186,20492.299999999814,25493.400000000373,28907.400000000373,32343.60000000056,36293.10000000056,38566.10000000056,41400,44043.60000000056,46991.700000000186,49724.5,52560.60000000056,61559.799999999814,64792.60000000056,67289.10000000056,70047.5,72927.90000000037,75919.5,83624.70000000019,87208,89755.40000000037]","0.42857142857142855","0.5","0","","","","","","","","","","","","","","","","","","","","","","","","","","","","","",""
"13186","","","","survey-template","19","741456","0.0-7.0-8.0","158","1","2025-07-02 10:22:04","80fe4187154257d5fb01684ea91b68b9","105.12.1.92","Mozilla/5.0 (Windows NT 10.0; Win64; x64) AppleWebKit/537.36 (KHTML, like Gecko) Chrome/137.0.0.0 Safari/537.36","WebKit","Chrome","137.0.0.0","Windows","10.0","https://app.prolific.com/","en-ZA,en-GB;q=0.9,en-US;q=0.8,en;q=0.7","6771ad00548b3a182d5f80e0","683db6dfa200031b80f2a654","68650787de883a7c167790a8","6771ad00548b3a182d5f80e0","2025-07-02T10:35:02.312Z","","","","","","stress","{""Q01"":""4"",""Q02"":""3"",""Q03"":""3""}","[0,1,2]","[""Q01"",""Q02"",""Q03""]","[4501.399999999441,8269.5,10352.899999999441]","[]","[4501.399999999441,8269.5,10352.899999999441,13183]","0.3333333333333333","0.5","0","","","","","","","","","","","","","","","","","","","","","","","","","","","","","",""
"124266","","","","instructions","20","865730","0.0-8.0-0.0","158","1","2025-07-02 10:22:04","80fe4187154257d5fb01684ea91b68b9","105.12.1.92","Mozilla/5.0 (Windows NT 10.0; Win64; x64) AppleWebKit/537.36 (KHTML, like Gecko) Chrome/137.0.0.0 Safari/537.36","WebKit","Chrome","137.0.0.0","Windows","10.0","https://app.prolific.com/","en-ZA,en-GB;q=0.9,en-US;q=0.8,en;q=0.7","6771ad00548b3a182d5f80e0","683db6dfa200031b80f2a654","68650787de883a7c167790a8","6771ad00548b3a182d5f80e0","","[{""page_index"":0,""viewing_time"":42684},{""page_index"":1,""viewing_time"":39947},{""page_index"":2,""viewing_time"":12616},{""page_index"":3,""viewing_time"":29017}]","","","","","","","","","","","","","","","","","","","","","","","","","","","","","","","","","","","","","","","","","","","",""
"","","","","ctl-task-cpt","21","894228","0.0-8.0-1.0","158","1","2025-07-02 10:22:04","80fe4187154257d5fb01684ea91b68b9","105.12.1.92","Mozilla/5.0 (Windows NT 10.0; Win64; x64) AppleWebKit/537.36 (KHTML, like Gecko) Chrome/137.0.0.0 Safari/537.36","WebKit","Chrome","137.0.0.0","Windows","10.0","https://app.prolific.com/","en-ZA,en-GB;q=0.9,en-US;q=0.8,en;q=0.7","6771ad00548b3a182d5f80e0","683db6dfa200031b80f2a654","68650787de883a7c167790a8","6771ad00548b3a182d5f80e0","","","","","","","","","","","","","","","","","win-only","3","g1:SW,g2:NE","1","0","1","902295.8","2387.2","6393.6","25460.8","2","4","4","6","1","2","0","0","0","0","4006.2","4000","1830","[""down"",""left""]","{""num_key_presses"":5,""num_perfect"":3,""num_errors"":2,""num_randdir"":0,""num_randdir_good_moves"":0,""num_whilered"":0,""num_whileblue"":1,""num_blue"":3,""num_good_moves"":4}","[294.22232142857143,295.12857142857143,3.5,294.22232142857143,295.12857142857143,103.7,294.22232142857143,295.12857142857143,232.5,294.22232142857143,295.12857142857143,332.7,294.22232142857143,295.12857142857143,435,294.22232142857143,295.12857142857143,540.3,294.22232142857143,295.12857142857143,644.6,294.22232142857143,295.12857142857143,745.8,301.22232142857143,314.12857142857143,847.5,269.22232142857143,339.12857142857143,947.7,220.22232142857143,366.12857142857143,1051.7,215.22232142857143,368.12857142857143,1164,214.22232142857143,374.12857142857143,1276.4,225.22232142857143,375.12857142857143,1387.6,262.22232142857143,351.12857142857143,1489,278.22232142857143,338.12857142857143,1591.3,278.22232142857143,327.12857142857143,1696.2,274.22232142857143,308.12857142857143,1803,252.22232142857143,301.12857142857143,1905.3,225.22232142857143,303.12857142857143,2010.4,202.22232142857143,333.12857142857143,2124.2,221.22232142857143,356.12857142857143,2226.1,302.22232142857143,348.12857142857143,2342.3,319.22232142857143,326.12857142857143,2446.8,300.22232142857143,294.12857142857143,2549.9,267.22232142857143,287.12857142857143,2657.6,242.22232142857143,314.12857142857143,2760.1,243.22232142857143,347.12857142857143,2862.4,302.22232142857143,354.12857142857143,2978,304.22232142857143,351.12857142857143,3082.1,278.22232142857143,346.12857142857143,3182.3,251.22232142857143,347.12857142857143,3285,236.22232142857143,349.12857142857143,3386.1,233.22232142857143,349.12857142857143,3490.7,233.22232142857143,350.12857142857143,3591.2,239.22232142857143,354.12857142857143,3691.2,266.22232142857143,353.12857142857143,3796.4,270.22232142857143,350.12857142857143,3896.4]","[8166.7,8166.7,2607.4,5342.8,216.5,""while_blue"",""down"",""left"",""good_move"",12507.7,4339.6,2712.9,8168.2,1626.7,""smooth"",""down"",""down"",""good_move"",13014.7,504,2433.5,12510.7,-1929.5,""error"",""-"",""-"",""no_move"",16560.2,3543.7,1848.4,14018.6,693.2,""smooth"",""down"",""down"",""good_move"",18936.1,2374.8,1749.8,16561.4,624.9,""smooth"",""left"",""left"",""good_move""]","","",""
"16315","","","","instructions","22","910545","0.0-8.0-2.0","158","1","2025-07-02 10:22:04","80fe4187154257d5fb01684ea91b68b9","105.12.1.92","Mozilla/5.0 (Windows NT 10.0; Win64; x64) AppleWebKit/537.36 (KHTML, like Gecko) Chrome/137.0.0.0 Safari/537.36","WebKit","Chrome","137.0.0.0","Windows","10.0","https://app.prolific.com/","en-ZA,en-GB;q=0.9,en-US;q=0.8,en;q=0.7","6771ad00548b3a182d5f80e0","683db6dfa200031b80f2a654","68650787de883a7c167790a8","6771ad00548b3a182d5f80e0","","[{""page_index"":0,""viewing_time"":16314}]","","","","","","","","","","","","","","","","","","","","","","","","","","","","","","","","","","","","","","","","","","","",""
"","","","","ctl-task-cpt","23","962432","0.0-8.0-3.0","158","1","2025-07-02 10:22:04","80fe4187154257d5fb01684ea91b68b9","105.12.1.92","Mozilla/5.0 (Windows NT 10.0; Win64; x64) AppleWebKit/537.36 (KHTML, like Gecko) Chrome/137.0.0.0 Safari/537.36","WebKit","Chrome","137.0.0.0","Windows","10.0","https://app.prolific.com/","en-ZA,en-GB;q=0.9,en-US;q=0.8,en;q=0.7","6771ad00548b3a182d5f80e0","683db6dfa200031b80f2a654","68650787de883a7c167790a8","6771ad00548b3a182d5f80e0","","","","","","","","","","","","","","","","","win-only","3","g1:SW,g2:NE","0.35","0","3","947097.6","2784.9","6801.4","48859.2","2","4","8","6","2","-8","-10","0","0","0","4016.4","4000","-1995","[""up"",""right""]","{""num_key_presses"":14,""num_perfect"":5,""num_errors"":2,""num_randdir"":7,""num_randdir_good_moves"":1,""num_whilered"":0,""num_whileblue"":2,""num_blue"":2,""num_good_moves"":6}","[296.22232142857143,294.12857142857143,1,296.22232142857143,294.12857142857143,102.6,296.22232142857143,294.12857142857143,203,296.22232142857143,294.12857142857143,304.4,296.22232142857143,294.12857142857143,404.5,296.22232142857143,294.12857142857143,506.6,296.22232142857143,294.12857142857143,610.4,392.22232142857143,334.12857142857143,721.2,430.22232142857143,370.12857142857143,822.7,386.22232142857143,432.12857142857143,931,277.22232142857143,455.12857142857143,1035.1,245.22232142857143,459.12857142857143,1149.4,245.22232142857143,459.12857142857143,1251.7,245.22232142857143,459.12857142857143,1352.4,245.22232142857143,459.12857142857143,1452.9,245.22232142857143,459.12857142857143,1558.1,245.22232142857143,459.12857142857143,1664.8,245.22232142857143,459.12857142857143,1767.4,245.22232142857143,459.12857142857143,1868.6,245.22232142857143,459.12857142857143,1973.1,245.22232142857143,459.12857142857143,2078,245.22232142857143,459.12857142857143,2191.7,245.22232142857143,459.12857142857143,2297,245.22232142857143,459.12857142857143,2411.9,245.22232142857143,459.12857142857143,2514.7,245.22232142857143,459.12857142857143,2617.5,245.22232142857143,459.12857142857143,2728.7,245.22232142857143,459.12857142857143,2845.8,245.22232142857143,459.12857142857143,2947.5,245.22232142857143,459.12857142857143,3050.8,245.22232142857143,459.12857142857143,3154.9,245.22232142857143,459.12857142857143,3256.6,245.22232142857143,459.12857142857143,3357.3,245.22232142857143,459.12857142857143,3458.7,245.22232142857143,459.12857142857143,3563.4,245.22232142857143,459.12857142857143,3675.3,245.22232142857143,459.12857142857143,3777.6,245.22232142857143,459.12857142857143,3879.4,245.22232142857143,459.12857142857143,3980.4]","[1728.2,1728.3,1000,0,728.3,""smooth"",""up"",""up"",""good_move"",4658,2926.4,2358.6,1731.6,567.9,""oops"",""up"",""up"",""good_move"",7383.2,2722.8,2224.9,4660.6,497.8,""smooth"",""right"",""right"",""good_move"",10086.3,2701.5,2288.6,7384.8,412.9,""oops"",""right"",""down"",""bad_move"",12966.5,2879.3,2537.9,10087.2,341.4,""oops"",""right"",""left"",""bad_move"",15783.7,2815.8,2419.9,12967.9,395.9,""oops"",""up"",""left"",""bad_move"",18420.4,2635.1,2049,15785.4,586.1,""smooth"",""down"",""down"",""bad_move"",22133.3,3711.1,3140.1,18422.3,571,""smooth"",""up"",""up"",""good_move"",25812.9,3678,3290.1,22134.9,387.9,""oops"",""up"",""down"",""bad_move"",28815.9,3001.2,2564.1,25814.8,437,""while_blue"",""up"",""right"",""good_move"",31375.7,2557.1,1789.7,28818.6,767.4,""oops"",""up"",""down"",""bad_move"",34016.3,2636.9,2122.3,31379.5,514.6,""smooth"",""left"",""left"",""bad_move"",36851.6,2833.7,2426,34017.9,407.7,""oops"",""right"",""left"",""bad_move"",39622.7,2769.8,2357,36853,412.7,""while_blue"",""up"",""up"",""good_move""]","","",""
"54531","","","","instructions","24","1016966","0.0-8.0-4.0","158","1","2025-07-02 10:22:04","80fe4187154257d5fb01684ea91b68b9","105.12.1.92","Mozilla/5.0 (Windows NT 10.0; Win64; x64) AppleWebKit/537.36 (KHTML, like Gecko) Chrome/137.0.0.0 Safari/537.36","WebKit","Chrome","137.0.0.0","Windows","10.0","https://app.prolific.com/","en-ZA,en-GB;q=0.9,en-US;q=0.8,en;q=0.7","6771ad00548b3a182d5f80e0","683db6dfa200031b80f2a654","68650787de883a7c167790a8","6771ad00548b3a182d5f80e0","","[{""page_index"":0,""viewing_time"":32673},{""page_index"":1,""viewing_time"":21855}]","","","","","","","","","","","","","","","","","","","","","","","","","","","","","","","","","","","","","","","","","","","",""
"19498","","","{""green_ball"":[""Ball always moves in the direction I press""]}","survey-multi-select","25","1036485","0.0-8.0-5.0-0.0","158","1","2025-07-02 10:22:04","80fe4187154257d5fb01684ea91b68b9","105.12.1.92","Mozilla/5.0 (Windows NT 10.0; Win64; x64) AppleWebKit/537.36 (KHTML, like Gecko) Chrome/137.0.0.0 Safari/537.36","WebKit","Chrome","137.0.0.0","Windows","10.0","https://app.prolific.com/","en-ZA,en-GB;q=0.9,en-US;q=0.8,en;q=0.7","6771ad00548b3a182d5f80e0","683db6dfa200031b80f2a654","68650787de883a7c167790a8","6771ad00548b3a182d5f80e0","","","[0]","","","","quiz","","","","","","","","","","","","","","","","","","","","","","","","","","","","","","","","","","","","","false","",""
"6888","","<p align='center'><b>INCORRECT.</b> Usually the green ball moves in the indicated direction, but sometimes it shakes and moves randomly. </p>","0","html-button-response","26","1043390","0.0-8.0-5.0-1.0","158","1","2025-07-02 10:22:04","80fe4187154257d5fb01684ea91b68b9","105.12.1.92","Mozilla/5.0 (Windows NT 10.0; Win64; x64) AppleWebKit/537.36 (KHTML, like Gecko) Chrome/137.0.0.0 Safari/537.36","WebKit","Chrome","137.0.0.0","Windows","10.0","https://app.prolific.com/","en-ZA,en-GB;q=0.9,en-US;q=0.8,en;q=0.7","6771ad00548b3a182d5f80e0","683db6dfa200031b80f2a654","68650787de883a7c167790a8","6771ad00548b3a182d5f80e0","","","","","","","","","","","","","","","","","","","","","","","","","","","","","","","","","","","","","","","","","","","","","",""
"19109","","","{""green_ball"":[""Ball sometimes shakes and moves in a random direction""]}","survey-multi-select","27","1062526","0.0-8.0-5.1-0.1","158","1","2025-07-02 10:22:04","80fe4187154257d5fb01684ea91b68b9","105.12.1.92","Mozilla/5.0 (Windows NT 10.0; Win64; x64) AppleWebKit/537.36 (KHTML, like Gecko) Chrome/137.0.0.0 Safari/537.36","WebKit","Chrome","137.0.0.0","Windows","10.0","https://app.prolific.com/","en-ZA,en-GB;q=0.9,en-US;q=0.8,en;q=0.7","6771ad00548b3a182d5f80e0","683db6dfa200031b80f2a654","68650787de883a7c167790a8","6771ad00548b3a182d5f80e0","","","[0]","","","","quiz","","","","","","","","","","","","","","","","","","","","","","","","","","","","","","","","","","","","","true","",""
"3479","","<p align='center'><b>CORRECT!</b> Indeed, the green ball may sometimes shake and move in a random direction.</p>","0","html-button-response","28","1066018","0.0-8.0-5.1-1.1","158","1","2025-07-02 10:22:04","80fe4187154257d5fb01684ea91b68b9","105.12.1.92","Mozilla/5.0 (Windows NT 10.0; Win64; x64) AppleWebKit/537.36 (KHTML, like Gecko) Chrome/137.0.0.0 Safari/537.36","WebKit","Chrome","137.0.0.0","Windows","10.0","https://app.prolific.com/","en-ZA,en-GB;q=0.9,en-US;q=0.8,en;q=0.7","6771ad00548b3a182d5f80e0","683db6dfa200031b80f2a654","68650787de883a7c167790a8","6771ad00548b3a182d5f80e0","","","","","","","","","","","","","","","","","","","","","","","","","","","","","","","","","","","","","","","","","","","","","",""
"17703","","","{""yellow_ball"":[""Ball doesn‘t move and I get -1 penalty point""]}","survey-multi-select","29","1083738","0.0-8.0-6.0-0.0","158","1","2025-07-02 10:22:04","80fe4187154257d5fb01684ea91b68b9","105.12.1.92","Mozilla/5.0 (Windows NT 10.0; Win64; x64) AppleWebKit/537.36 (KHTML, like Gecko) Chrome/137.0.0.0 Safari/537.36","WebKit","Chrome","137.0.0.0","Windows","10.0","https://app.prolific.com/","en-ZA,en-GB;q=0.9,en-US;q=0.8,en;q=0.7","6771ad00548b3a182d5f80e0","683db6dfa200031b80f2a654","68650787de883a7c167790a8","6771ad00548b3a182d5f80e0","","","[0]","","","","quiz","","","","","","","","","","","","","","","","","","","","","","","","","","","","","","","","","","","","","true","",""
"4252","","<p align='center'><b>CORRECT!</b> Indeed, the yellow ball never moves and you receive a penalty.</p>","0","html-button-response","30","1088004","0.0-8.0-6.0-1.0","158","1","2025-07-02 10:22:04","80fe4187154257d5fb01684ea91b68b9","105.12.1.92","Mozilla/5.0 (Windows NT 10.0; Win64; x64) AppleWebKit/537.36 (KHTML, like Gecko) Chrome/137.0.0.0 Safari/537.36","WebKit","Chrome","137.0.0.0","Windows","10.0","https://app.prolific.com/","en-ZA,en-GB;q=0.9,en-US;q=0.8,en;q=0.7","6771ad00548b3a182d5f80e0","683db6dfa200031b80f2a654","68650787de883a7c167790a8","6771ad00548b3a182d5f80e0","","","","","","","","","","","","","","","","","","","","","","","","","","","","","","","","","","","","","","","","","","","","","",""
"26883","","","{""blue_ball"":[""Ball always shakes and moves in a random direction""]}","survey-multi-select","31","1114905","0.0-8.0-7.0-0.0","158","1","2025-07-02 10:22:04","80fe4187154257d5fb01684ea91b68b9","105.12.1.92","Mozilla/5.0 (Windows NT 10.0; Win64; x64) AppleWebKit/537.36 (KHTML, like Gecko) Chrome/137.0.0.0 Safari/537.36","WebKit","Chrome","137.0.0.0","Windows","10.0","https://app.prolific.com/","en-ZA,en-GB;q=0.9,en-US;q=0.8,en;q=0.7","6771ad00548b3a182d5f80e0","683db6dfa200031b80f2a654","68650787de883a7c167790a8","6771ad00548b3a182d5f80e0","","","[0]","","","","quiz","","","","","","","","","","","","","","","","","","","","","","","","","","","","","","","","","","","","","true","",""
"3670","","<p align='center'><b>CORRECT!</b> Indeed, the blue ball always shakes and moves in a random direction. Also there is a penalty of -1 point.</p>","0","html-button-response","32","1118588","0.0-8.0-7.0-1.0","158","1","2025-07-02 10:22:04","80fe4187154257d5fb01684ea91b68b9","105.12.1.92","Mozilla/5.0 (Windows NT 10.0; Win64; x64) AppleWebKit/537.36 (KHTML, like Gecko) Chrome/137.0.0.0 Safari/537.36","WebKit","Chrome","137.0.0.0","Windows","10.0","https://app.prolific.com/","en-ZA,en-GB;q=0.9,en-US;q=0.8,en;q=0.7","6771ad00548b3a182d5f80e0","683db6dfa200031b80f2a654","68650787de883a7c167790a8","6771ad00548b3a182d5f80e0","","","","","","","","","","","","","","","","","","","","","","","","","","","","","","","","","","","","","","","","","","","","","",""
"6370","","","{""bonus"":[""When I reach 50% of points""]}","survey-multi-select","33","1124977","0.0-8.0-8.0-0.0","158","1","2025-07-02 10:22:04","80fe4187154257d5fb01684ea91b68b9","105.12.1.92","Mozilla/5.0 (Windows NT 10.0; Win64; x64) AppleWebKit/537.36 (KHTML, like Gecko) Chrome/137.0.0.0 Safari/537.36","WebKit","Chrome","137.0.0.0","Windows","10.0","https://app.prolific.com/","en-ZA,en-GB;q=0.9,en-US;q=0.8,en;q=0.7","6771ad00548b3a182d5f80e0","683db6dfa200031b80f2a654","68650787de883a7c167790a8","6771ad00548b3a182d5f80e0","","","[0]","","","","quiz","","","","","","","","","","","","","","","","","","","","","","","","","","","","","","","","","","","","","true","",""
"3150","","<p align='center'><b>CORRECT!</b> Indeed, you receive 2 pounds extra when you reach 50% of points.</p>","0","html-button-response","34","1128137","0.0-8.0-8.0-1.0","158","1","2025-07-02 10:22:04","80fe4187154257d5fb01684ea91b68b9","105.12.1.92","Mozilla/5.0 (Windows NT 10.0; Win64; x64) AppleWebKit/537.36 (KHTML, like Gecko) Chrome/137.0.0.0 Safari/537.36","WebKit","Chrome","137.0.0.0","Windows","10.0","https://app.prolific.com/","en-ZA,en-GB;q=0.9,en-US;q=0.8,en;q=0.7","6771ad00548b3a182d5f80e0","683db6dfa200031b80f2a654","68650787de883a7c167790a8","6771ad00548b3a182d5f80e0","","","","","","","","","","","","","","","","","","","","","","","","","","","","","","","","","","","","","","","","","","","","","",""
"6884","","","","instructions","35","1135036","0.0-8.0-9.0","158","1","2025-07-02 10:22:04","80fe4187154257d5fb01684ea91b68b9","105.12.1.92","Mozilla/5.0 (Windows NT 10.0; Win64; x64) AppleWebKit/537.36 (KHTML, like Gecko) Chrome/137.0.0.0 Safari/537.36","WebKit","Chrome","137.0.0.0","Windows","10.0","https://app.prolific.com/","en-ZA,en-GB;q=0.9,en-US;q=0.8,en;q=0.7","6771ad00548b3a182d5f80e0","683db6dfa200031b80f2a654","68650787de883a7c167790a8","6771ad00548b3a182d5f80e0","","[{""page_index"":0,""viewing_time"":6883}]","","","","","","","","","","","","","","","","","","","","","","","","","","","","","","","","","","","","","","","","","","","",""
"19277","","<p>Before you start with this game please answer the following three questions yourself. </p>
  <p>Through this game, we measure several aspects of your cognitive performance, such as reaction times, multi-tasking capabilities </p>
  <p>and the ability to assess the situation you are in.</p>
  <p></p>
  <p><b>How good do you usually are in such tasks?</b></p>","85","html-slider-response","36","1154330","0.0-9.0-0.0","158","1","2025-07-02 10:22:04","80fe4187154257d5fb01684ea91b68b9","105.12.1.92","Mozilla/5.0 (Windows NT 10.0; Win64; x64) AppleWebKit/537.36 (KHTML, like Gecko) Chrome/137.0.0.0 Safari/537.36","WebKit","Chrome","137.0.0.0","Windows","10.0","https://app.prolific.com/","en-ZA,en-GB;q=0.9,en-US;q=0.8,en;q=0.7","6771ad00548b3a182d5f80e0","683db6dfa200031b80f2a654","68650787de883a7c167790a8","6771ad00548b3a182d5f80e0","2025-07-02T10:41:55.186Z","","","","","","PreSkillQ","","","","","","","","","","","","","","","","","","","","","","","","","","","","","","","","","","","","","","50",""
"7192","","<div style=""width:500px;"">
  <p>How well do you think you will perform in this task compared to other participants?</p>
  </div>","90","html-slider-response","37","1161534","0.0-9.0-1.0","158","1","2025-07-02 10:22:04","80fe4187154257d5fb01684ea91b68b9","105.12.1.92","Mozilla/5.0 (Windows NT 10.0; Win64; x64) AppleWebKit/537.36 (KHTML, like Gecko) Chrome/137.0.0.0 Safari/537.36","WebKit","Chrome","137.0.0.0","Windows","10.0","https://app.prolific.com/","en-ZA,en-GB;q=0.9,en-US;q=0.8,en;q=0.7","6771ad00548b3a182d5f80e0","683db6dfa200031b80f2a654","68650787de883a7c167790a8","6771ad00548b3a182d5f80e0","2025-07-02T10:42:02.390Z","","","","","","PrePerfQ","","","","","","","","","","","","","","","","","","","","","","","","","","","","","","","","","","","","","","50",""
"6689","","<div style=""width:500px;"">
  <p>What best describes how you currently feel?</p>
  </div>","100","html-slider-response","38","1168234","0.0-9.0-2.0","158","1","2025-07-02 10:22:04","80fe4187154257d5fb01684ea91b68b9","105.12.1.92","Mozilla/5.0 (Windows NT 10.0; Win64; x64) AppleWebKit/537.36 (KHTML, like Gecko) Chrome/137.0.0.0 Safari/537.36","WebKit","Chrome","137.0.0.0","Windows","10.0","https://app.prolific.com/","en-ZA,en-GB;q=0.9,en-US;q=0.8,en;q=0.7","6771ad00548b3a182d5f80e0","683db6dfa200031b80f2a654","68650787de883a7c167790a8","6771ad00548b3a182d5f80e0","2025-07-02T10:42:09.091Z","","","","","","PreMotivationQ","","","","","","","","","","","","","","","","","","","","","","","","","","","","","","","","","","","","","","50",""
"","","","","ctl-task-cpt","39","1203134","0.0-10.0-0.0","158","1","2025-07-02 10:22:04","80fe4187154257d5fb01684ea91b68b9","105.12.1.92","Mozilla/5.0 (Windows NT 10.0; Win64; x64) AppleWebKit/537.36 (KHTML, like Gecko) Chrome/137.0.0.0 Safari/537.36","WebKit","Chrome","137.0.0.0","Windows","10.0","https://app.prolific.com/","en-ZA,en-GB;q=0.9,en-US;q=0.8,en;q=0.7","6771ad00548b3a182d5f80e0","683db6dfa200031b80f2a654","68650787de883a7c167790a8","6771ad00548b3a182d5f80e0","2025-07-02T10:42:43.991Z","","","","","","","","","","","","","","","","win-only","3","g1:SW,g2:NE","1","1","0","1204794","1931.7","6943.7","31865.6","1","4","4","6","2","4","3","3","0","0.022727272727272728","5011.9","3000","1430","[""up"",""right""]","{""num_key_presses"":8,""num_perfect"":7,""num_errors"":1,""num_randdir"":0,""num_randdir_good_moves"":0,""num_whilered"":0,""num_whileblue"":1,""num_blue"":2,""num_good_moves"":7}","[293.22232142857143,300.12857142857143,1.2,293.22232142857143,300.12857142857143,102.3,293.22232142857143,300.12857142857143,203.6,293.22232142857143,300.12857142857143,304.3,293.22232142857143,300.12857142857143,410.8,293.22232142857143,300.12857142857143,511.1,293.22232142857143,300.12857142857143,616.5,326.22232142857143,338.12857142857143,726,292.22232142857143,390.12857142857143,835.6,259.22232142857143,406.12857142857143,936.8,254.22232142857143,406.12857142857143,1052.6,254.22232142857143,406.12857142857143,1158.6,254.22232142857143,406.12857142857143,1265.5,254.22232142857143,406.12857142857143,1367.6,254.22232142857143,406.12857142857143,1469.4,254.22232142857143,406.12857142857143,1585.2,254.22232142857143,406.12857142857143,1686.1,254.22232142857143,406.12857142857143,1787.9,254.22232142857143,406.12857142857143,1897.8,254.22232142857143,406.12857142857143,1997.8,254.22232142857143,406.12857142857143,2103.3,254.22232142857143,406.12857142857143,2209.3,254.22232142857143,406.12857142857143,2314.8,254.22232142857143,406.12857142857143,2416.7,254.22232142857143,406.12857142857143,2524.8,254.22232142857143,406.12857142857143,2626.6,254.22232142857143,406.12857142857143,2735.6,254.22232142857143,406.12857142857143,2842.4,254.22232142857143,406.12857142857143,2947.6,254.22232142857143,406.12857142857143,3053.2,254.22232142857143,406.12857142857143,3154.4,254.22232142857143,406.12857142857143,3263.2,254.22232142857143,406.12857142857143,3368.2,254.22232142857143,406.12857142857143,3476.2,254.22232142857143,406.12857142857143,3579.7,254.22232142857143,406.12857142857143,3690.6,254.22232142857143,406.12857142857143,3791.9,254.22232142857143,406.12857142857143,3899.9,254.22232142857143,406.12857142857143,4009,254.22232142857143,406.12857142857143,4115.5,254.22232142857143,406.12857142857143,4216.1,254.22232142857143,406.12857142857143,4320,254.22232142857143,406.12857142857143,4427.5,254.22232142857143,406.12857142857143,4544.6,254.22232142857143,406.12857142857143,4648.3,254.22232142857143,406.12857142857143,4750.6,254.22232142857143,406.12857142857143,4853.4,254.22232142857143,406.12857142857143,4954.8]","[1720.5,1720.5,1000,0,720.5,""smooth"",""up"",""up"",""good_move"",5099.3,3377.1,2806.3,1722.3,570.7,""smooth"",""up"",""up"",""good_move"",8139.9,3038.9,2609.1,5101,429.8,""smooth"",""right"",""right"",""good_move"",11365.9,3224,2753.8,8141.9,470.3,""smooth"",""right"",""right"",""good_move"",14002.3,2632.6,2237.6,11369.9,394.9,""smooth"",""right"",""right"",""good_move"",16248.4,2244.5,1915.7,14004,328.7,""while_blue"",""up"",""left"",""bad_move"",19099.3,2848,2342.6,16251.4,505.4,""smooth"",""right"",""right"",""good_move"",24682.1,5581.5,2505.7,21796.6,379.8,""smooth"",""up"",""up"",""good_move""]","","",""
"7542","","<div style=""width:500px;"">
  <p>What determined the result of this run?</p>
  </div>","100","html-slider-response","40","1210686","0.0-10.0-1.0","158","1","2025-07-02 10:22:04","80fe4187154257d5fb01684ea91b68b9","105.12.1.92","Mozilla/5.0 (Windows NT 10.0; Win64; x64) AppleWebKit/537.36 (KHTML, like Gecko) Chrome/137.0.0.0 Safari/537.36","WebKit","Chrome","137.0.0.0","Windows","10.0","https://app.prolific.com/","en-ZA,en-GB;q=0.9,en-US;q=0.8,en;q=0.7","6771ad00548b3a182d5f80e0","683db6dfa200031b80f2a654","68650787de883a7c167790a8","6771ad00548b3a182d5f80e0","2025-07-02T10:42:51.545Z","","","","","","AttribQ","","","","","","","","","","","","","","","","","","","","","","","","","","","","","","","","","","","","","","50",""
"5437","","<div style=""width:500px;"">
  <p>How much control did you have over the ball?</p>
  </div>","91","html-slider-response","41","1216135","0.0-10.0-2.0","158","1","2025-07-02 10:22:04","80fe4187154257d5fb01684ea91b68b9","105.12.1.92","Mozilla/5.0 (Windows NT 10.0; Win64; x64) AppleWebKit/537.36 (KHTML, like Gecko) Chrome/137.0.0.0 Safari/537.36","WebKit","Chrome","137.0.0.0","Windows","10.0","https://app.prolific.com/","en-ZA,en-GB;q=0.9,en-US;q=0.8,en;q=0.7","6771ad00548b3a182d5f80e0","683db6dfa200031b80f2a654","68650787de883a7c167790a8","6771ad00548b3a182d5f80e0","2025-07-02T10:42:56.994Z","","","","","","ControlQ","","","","","","","","","","","","","","","","","","","","","","","","","","","","","","","","","","","","","","50",""
"7551","","<div style=""width:500px;"">
  <p>How would you describe your current emotional state?</p>
  </div>","40","html-slider-response","42","1223701","0.0-10.0-3.0","158","1","2025-07-02 10:22:04","80fe4187154257d5fb01684ea91b68b9","105.12.1.92","Mozilla/5.0 (Windows NT 10.0; Win64; x64) AppleWebKit/537.36 (KHTML, like Gecko) Chrome/137.0.0.0 Safari/537.36","WebKit","Chrome","137.0.0.0","Windows","10.0","https://app.prolific.com/","en-ZA,en-GB;q=0.9,en-US;q=0.8,en;q=0.7","6771ad00548b3a182d5f80e0","683db6dfa200031b80f2a654","68650787de883a7c167790a8","6771ad00548b3a182d5f80e0","2025-07-02T10:43:04.558Z","","","","","","StressQ","","","","","","","","","","","","","","","","","","","","","","","","","","","","","","","","","","","","","","50",""
"5974","","<div style=""width:500px;"">
  <p>What best describes how you currently feel?</p>
  </div>","100","html-slider-response","43","1229689","0.0-10.0-4.0","158","1","2025-07-02 10:22:04","80fe4187154257d5fb01684ea91b68b9","105.12.1.92","Mozilla/5.0 (Windows NT 10.0; Win64; x64) AppleWebKit/537.36 (KHTML, like Gecko) Chrome/137.0.0.0 Safari/537.36","WebKit","Chrome","137.0.0.0","Windows","10.0","https://app.prolific.com/","en-ZA,en-GB;q=0.9,en-US;q=0.8,en;q=0.7","6771ad00548b3a182d5f80e0","683db6dfa200031b80f2a654","68650787de883a7c167790a8","6771ad00548b3a182d5f80e0","2025-07-02T10:43:10.545Z","","","","","","MotivationQ","","","","","","","","","","","","","","","","","","","","","","","","","","","","","","","","","","","","","","50",""
"","","","","ctl-task-cpt","44","1258443","0.0-10.0-0.1","158","1","2025-07-02 10:22:04","80fe4187154257d5fb01684ea91b68b9","105.12.1.92","Mozilla/5.0 (Windows NT 10.0; Win64; x64) AppleWebKit/537.36 (KHTML, like Gecko) Chrome/137.0.0.0 Safari/537.36","WebKit","Chrome","137.0.0.0","Windows","10.0","https://app.prolific.com/","en-ZA,en-GB;q=0.9,en-US;q=0.8,en;q=0.7","6771ad00548b3a182d5f80e0","683db6dfa200031b80f2a654","68650787de883a7c167790a8","6771ad00548b3a182d5f80e0","2025-07-02T10:43:39.299Z","","","","","","","","","","","","","","","","win-only","3","g1:SW,g2:NE","0.9","2","0","1266246.1","1537.3","6545.9","25710.9","1","4","8","6","2","8","8","11","3","0.08333333333333333","2657.6","3000","2140","[""up"",""right""]","{""num_key_presses"":6,""num_perfect"":5,""num_errors"":0,""num_randdir"":1,""num_randdir_good_moves"":1,""num_whilered"":0,""num_whileblue"":0,""num_blue"":0,""num_good_moves"":6}","[297.22232142857143,298.12857142857143,0.6,297.22232142857143,298.12857142857143,100.4,297.22232142857143,298.12857142857143,237.1,297.22232142857143,298.12857142857143,353.2,297.22232142857143,298.12857142857143,472.5,297.22232142857143,298.12857142857143,583.1,327.22232142857143,298.12857142857143,703.4,402.22232142857143,341.12857142857143,819.4,396.22232142857143,392.12857142857143,935.4,389.22232142857143,409.12857142857143,1050.9,391.22232142857143,438.12857142857143,1159.8,400.22232142857143,423.12857142857143,1274.1,470.22232142857143,260.12857142857143,1384.4,480.22232142857143,211.12857142857143,1487.4,479.22232142857143,210.12857142857143,1592.1,476.22232142857143,210.12857142857143,1704.3,478.22232142857143,195.12857142857143,1815.1,487.22232142857143,168.12857142857143,1929.4,503.22232142857143,144.12857142857143,2048.9,503.22232142857143,144.12857142857143,2159.2,538.2223214285714,82.12857142857143,2262.6,558.2223214285714,48.128571428571426,2375.4,558.2223214285714,48.128571428571426,2475.8,558.2223214285714,48.128571428571426,2580.4,558.2223214285714,48.128571428571426,2686.3,558.2223214285714,48.128571428571426,2791.8,558.2223214285714,48.128571428571426,2900.1,558.2223214285714,48.128571428571426,3013.6,555.2223214285714,80.12857142857143,3124.4,525.2223214285714,211.12857142857143,3236.8,493.22232142857143,255.12857142857143,3354.1,493.22232142857143,255.12857142857143,3473.2,470.22232142857143,268.12857142857143,3577.2,434.22232142857143,325.12857142857143,3689.6,433.22232142857143,328.12857142857143,3802,433.22232142857143,328.12857142857143,3904.5,433.22232142857143,328.12857142857143,4011.9,433.22232142857143,328.12857142857143,4117,433.22232142857143,328.12857142857143,4231.5,433.22232142857143,328.12857142857143,4339.3,433.22232142857143,328.12857142857143,4449,433.22232142857143,328.12857142857143,4556,433.22232142857143,328.12857142857143,4667.6,433.22232142857143,328.12857142857143,4780.3,433.22232142857143,328.12857142857143,4896.6]","[1750.4,1750.5,1000,0,750.5,""smooth"",""up"",""up"",""good_move"",5849.9,4096.4,2611.9,1753.5,1484.5,""smooth"",""right"",""right"",""good_move"",8564,2712.7,1953.8,5851.3,758.9,""oops"",""right"",""right"",""good_move"",11138.6,2573.2,2004.7,8565.4,568.6,""smooth"",""right"",""right"",""good_move"",14343.9,3203.9,2740.9,11140,463.1,""smooth"",""up"",""up"",""good_move"",18743.1,4397.8,1830.8,14345.5,2566.9,""smooth"",""up"",""up"",""good_move""]","","",""
"3767","","<div style=""width:500px;"">
  <p>What determined the result of this run?</p>
  </div>","100","html-slider-response","45","1262220","0.0-10.0-1.1","158","1","2025-07-02 10:22:04","80fe4187154257d5fb01684ea91b68b9","105.12.1.92","Mozilla/5.0 (Windows NT 10.0; Win64; x64) AppleWebKit/537.36 (KHTML, like Gecko) Chrome/137.0.0.0 Safari/537.36","WebKit","Chrome","137.0.0.0","Windows","10.0","https://app.prolific.com/","en-ZA,en-GB;q=0.9,en-US;q=0.8,en;q=0.7","6771ad00548b3a182d5f80e0","683db6dfa200031b80f2a654","68650787de883a7c167790a8","6771ad00548b3a182d5f80e0","2025-07-02T10:43:43.076Z","","","","","","AttribQ","","","","","","","","","","","","","","","","","","","","","","","","","","","","","","","","","","","","","","50",""
"3780","","<div style=""width:500px;"">
  <p>How much control did you have over the ball?</p>
  </div>","100","html-slider-response","46","1266015","0.0-10.0-2.1","158","1","2025-07-02 10:22:04","80fe4187154257d5fb01684ea91b68b9","105.12.1.92","Mozilla/5.0 (Windows NT 10.0; Win64; x64) AppleWebKit/537.36 (KHTML, like Gecko) Chrome/137.0.0.0 Safari/537.36","WebKit","Chrome","137.0.0.0","Windows","10.0","https://app.prolific.com/","en-ZA,en-GB;q=0.9,en-US;q=0.8,en;q=0.7","6771ad00548b3a182d5f80e0","683db6dfa200031b80f2a654","68650787de883a7c167790a8","6771ad00548b3a182d5f80e0","2025-07-02T10:43:46.871Z","","","","","","ControlQ","","","","","","","","","","","","","","","","","","","","","","","","","","","","","","","","","","","","","","50",""
"3321","","<div style=""width:500px;"">
  <p>How would you describe your current emotional state?</p>
  </div>","0","html-slider-response","47","1269347","0.0-10.0-3.1","158","1","2025-07-02 10:22:04","80fe4187154257d5fb01684ea91b68b9","105.12.1.92","Mozilla/5.0 (Windows NT 10.0; Win64; x64) AppleWebKit/537.36 (KHTML, like Gecko) Chrome/137.0.0.0 Safari/537.36","WebKit","Chrome","137.0.0.0","Windows","10.0","https://app.prolific.com/","en-ZA,en-GB;q=0.9,en-US;q=0.8,en;q=0.7","6771ad00548b3a182d5f80e0","683db6dfa200031b80f2a654","68650787de883a7c167790a8","6771ad00548b3a182d5f80e0","2025-07-02T10:43:50.203Z","","","","","","StressQ","","","","","","","","","","","","","","","","","","","","","","","","","","","","","","","","","","","","","","50",""
"3297","","<div style=""width:500px;"">
  <p>What best describes how you currently feel?</p>
  </div>","100","html-slider-response","48","1272657","0.0-10.0-4.1","158","1","2025-07-02 10:22:04","80fe4187154257d5fb01684ea91b68b9","105.12.1.92","Mozilla/5.0 (Windows NT 10.0; Win64; x64) AppleWebKit/537.36 (KHTML, like Gecko) Chrome/137.0.0.0 Safari/537.36","WebKit","Chrome","137.0.0.0","Windows","10.0","https://app.prolific.com/","en-ZA,en-GB;q=0.9,en-US;q=0.8,en;q=0.7","6771ad00548b3a182d5f80e0","683db6dfa200031b80f2a654","68650787de883a7c167790a8","6771ad00548b3a182d5f80e0","2025-07-02T10:43:53.513Z","","","","","","MotivationQ","","","","","","","","","","","","","","","","","","","","","","","","","","","","","","","","","","","","","","50",""
"","","","","ctl-task-cpt","49","1303029","0.0-10.0-0.2","158","1","2025-07-02 10:22:04","80fe4187154257d5fb01684ea91b68b9","105.12.1.92","Mozilla/5.0 (Windows NT 10.0; Win64; x64) AppleWebKit/537.36 (KHTML, like Gecko) Chrome/137.0.0.0 Safari/537.36","WebKit","Chrome","137.0.0.0","Windows","10.0","https://app.prolific.com/","en-ZA,en-GB;q=0.9,en-US;q=0.8,en;q=0.7","6771ad00548b3a182d5f80e0","683db6dfa200031b80f2a654","68650787de883a7c167790a8","6771ad00548b3a182d5f80e0","2025-07-02T10:44:23.885Z","","","","","","","","","","","","","","","","win-only","2","g1:SE,g2:NW","0.8","3","0","1309222.3","1501.1","6516.4","27334.9","1","4","8","6","1","1","1","12","11","0.09090909090909091","2175.4","3000","1725","[""down"",""right""]","{""num_key_presses"":6,""num_perfect"":4,""num_errors"":0,""num_randdir"":2,""num_randdir_good_moves"":1,""num_whilered"":0,""num_whileblue"":0,""num_blue"":1,""num_good_moves"":5}","[297.22232142857143,305.12857142857143,1.3,297.22232142857143,305.12857142857143,106.7,297.22232142857143,305.12857142857143,236.5,297.22232142857143,305.12857142857143,338.5,297.22232142857143,305.12857142857143,449.3,297.22232142857143,305.12857142857143,550.6,312.22232142857143,308.12857142857143,679.4,346.22232142857143,329.12857142857143,793.9,347.22232142857143,335.12857142857143,894.9,321.22232142857143,345.12857142857143,1002,317.22232142857143,346.12857142857143,1106.6,347.22232142857143,354.12857142857143,1210.7,474.22232142857143,441.12857142857143,1322.3,494.22232142857143,474.12857142857143,1423.5,499.22232142857143,485.12857142857143,1531.7,500.22232142857143,488.12857142857143,1641.2,520.2223214285714,503.12857142857143,1757.3,526.2223214285714,508.12857142857143,1869,529.2223214285714,519.1285714285714,1973.1,529.2223214285714,526.1285714285714,2082.6,529.2223214285714,526.1285714285714,2191.5,529.2223214285714,526.1285714285714,2296,529.2223214285714,526.1285714285714,2406.8,529.2223214285714,526.1285714285714,2509.1,529.2223214285714,526.1285714285714,2622.2,529.2223214285714,526.1285714285714,2742.2,359.22232142857143,572.1285714285714,2845,354.22232142857143,566.1285714285714,2946.6,363.22232142857143,534.1285714285714,3065.1,365.22232142857143,488.12857142857143,3165.3,356.22232142857143,413.12857142857143,3281,348.22232142857143,376.12857142857143,3399.1,346.22232142857143,374.12857142857143,3513.6,345.22232142857143,370.12857142857143,3627.5,345.22232142857143,361.12857142857143,3731.6,345.22232142857143,361.12857142857143,3843.9,345.22232142857143,361.12857142857143,3959,345.22232142857143,361.12857142857143,4066.2,345.22232142857143,361.12857142857143,4171.8,345.22232142857143,361.12857142857143,4281.7,345.22232142857143,361.12857142857143,4395.5,345.22232142857143,361.12857142857143,4499.2,345.22232142857143,361.12857142857143,4612.2,375.22232142857143,364.12857142857143,4731.1,386.22232142857143,402.12857142857143,4844.6,371.22232142857143,440.12857142857143,4950.7]","[1714.8,1714.8,1000,0,714.8,""oops"",""down"",""right"",""good_move"",5112.1,3395.3,2920.1,1716.8,475.2,""smooth"",""down"",""down"",""good_move"",10769.4,5656.8,2229.6,8059.3,482.5,""oops"",""down"",""left"",""bad_move"",14285.5,3507.1,2651.1,10778.6,855.9,""smooth"",""down"",""down"",""good_move"",16812.3,2520.8,1920.9,14291.8,599.6,""smooth"",""right"",""right"",""good_move"",20582.4,3767.1,3350.8,16815.8,416.2,""smooth"",""right"",""right"",""good_move""]","","",""
"6039","","<div style=""width:500px;"">
  <p>What determined the result of this run?</p>
  </div>","23","html-slider-response","50","1309074","0.0-10.0-1.2","158","1","2025-07-02 10:22:04","80fe4187154257d5fb01684ea91b68b9","105.12.1.92","Mozilla/5.0 (Windows NT 10.0; Win64; x64) AppleWebKit/537.36 (KHTML, like Gecko) Chrome/137.0.0.0 Safari/537.36","WebKit","Chrome","137.0.0.0","Windows","10.0","https://app.prolific.com/","en-ZA,en-GB;q=0.9,en-US;q=0.8,en;q=0.7","6771ad00548b3a182d5f80e0","683db6dfa200031b80f2a654","68650787de883a7c167790a8","6771ad00548b3a182d5f80e0","2025-07-02T10:44:29.930Z","","","","","","AttribQ","","","","","","","","","","","","","","","","","","","","","","","","","","","","","","","","","","","","","","50",""
"5423","","<div style=""width:500px;"">
  <p>How much control did you have over the ball?</p>
  </div>","32","html-slider-response","51","1314511","0.0-10.0-2.2","158","1","2025-07-02 10:22:04","80fe4187154257d5fb01684ea91b68b9","105.12.1.92","Mozilla/5.0 (Windows NT 10.0; Win64; x64) AppleWebKit/537.36 (KHTML, like Gecko) Chrome/137.0.0.0 Safari/537.36","WebKit","Chrome","137.0.0.0","Windows","10.0","https://app.prolific.com/","en-ZA,en-GB;q=0.9,en-US;q=0.8,en;q=0.7","6771ad00548b3a182d5f80e0","683db6dfa200031b80f2a654","68650787de883a7c167790a8","6771ad00548b3a182d5f80e0","2025-07-02T10:44:35.368Z","","","","","","ControlQ","","","","","","","","","","","","","","","","","","","","","","","","","","","","","","","","","","","","","","50",""
"3978","","<div style=""width:500px;"">
  <p>How would you describe your current emotional state?</p>
  </div>","66","html-slider-response","52","1318501","0.0-10.0-3.2","158","1","2025-07-02 10:22:04","80fe4187154257d5fb01684ea91b68b9","105.12.1.92","Mozilla/5.0 (Windows NT 10.0; Win64; x64) AppleWebKit/537.36 (KHTML, like Gecko) Chrome/137.0.0.0 Safari/537.36","WebKit","Chrome","137.0.0.0","Windows","10.0","https://app.prolific.com/","en-ZA,en-GB;q=0.9,en-US;q=0.8,en;q=0.7","6771ad00548b3a182d5f80e0","683db6dfa200031b80f2a654","68650787de883a7c167790a8","6771ad00548b3a182d5f80e0","2025-07-02T10:44:39.357Z","","","","","","StressQ","","","","","","","","","","","","","","","","","","","","","","","","","","","","","","","","","","","","","","50",""
"3949","","<div style=""width:500px;"">
  <p>What best describes how you currently feel?</p>
  </div>","92","html-slider-response","53","1322460","0.0-10.0-4.2","158","1","2025-07-02 10:22:04","80fe4187154257d5fb01684ea91b68b9","105.12.1.92","Mozilla/5.0 (Windows NT 10.0; Win64; x64) AppleWebKit/537.36 (KHTML, like Gecko) Chrome/137.0.0.0 Safari/537.36","WebKit","Chrome","137.0.0.0","Windows","10.0","https://app.prolific.com/","en-ZA,en-GB;q=0.9,en-US;q=0.8,en;q=0.7","6771ad00548b3a182d5f80e0","683db6dfa200031b80f2a654","68650787de883a7c167790a8","6771ad00548b3a182d5f80e0","2025-07-02T10:44:43.316Z","","","","","","MotivationQ","","","","","","","","","","","","","","","","","","","","","","","","","","","","","","","","","","","","","","50",""
"","","","","ctl-task-cpt","54","1386669","0.0-10.0-0.3","158","1","2025-07-02 10:22:04","80fe4187154257d5fb01684ea91b68b9","105.12.1.92","Mozilla/5.0 (Windows NT 10.0; Win64; x64) AppleWebKit/537.36 (KHTML, like Gecko) Chrome/137.0.0.0 Safari/537.36","WebKit","Chrome","137.0.0.0","Windows","10.0","https://app.prolific.com/","en-ZA,en-GB;q=0.9,en-US;q=0.8,en;q=0.7","6771ad00548b3a182d5f80e0","683db6dfa200031b80f2a654","68650787de883a7c167790a8","6771ad00548b3a182d5f80e0","2025-07-02T10:45:47.525Z","","","","","","","","","","","","","","","","win-only","3","g1:SW,g2:NE","0.7","4","0","1359017.9","1320.1","6326.8","61164.5","1","4","4","6","2","4","2","14","12","0.10606060606060606","1233.3","3000","1375","[""up"",""right""]","{""num_key_presses"":13,""num_perfect"":7,""num_errors"":2,""num_randdir"":4,""num_randdir_good_moves"":2,""num_whilered"":0,""num_whileblue"":1,""num_blue"":5,""num_good_moves"":9}","[297.22232142857143,295.12857142857143,0.6,297.22232142857143,295.12857142857143,104.9,297.22232142857143,295.12857142857143,239.3,297.22232142857143,295.12857142857143,354.2,297.22232142857143,295.12857142857143,457.6,305.22232142857143,293.12857142857143,574.7,498.22232142857143,158.12857142857143,698.4,567.2223214285714,67.12857142857143,798.6,564.2223214285714,55.128571428571426,905.2,556.2223214285714,52.128571428571426,1020.5,556.2223214285714,52.128571428571426,1132.7,556.2223214285714,52.128571428571426,1244.5,556.2223214285714,52.128571428571426,1353.4,556.2223214285714,52.128571428571426,1474.8,556.2223214285714,52.128571428571426,1592.9,556.2223214285714,52.128571428571426,1693.3,556.2223214285714,52.128571428571426,1800.9,556.2223214285714,52.128571428571426,1916,609.2223214285714,145.12857142857143,2021.1,534.2223214285714,279.12857142857143,2141.7,472.22232142857143,306.12857142857143,2247.6,472.22232142857143,306.12857142857143,2351.1,472.22232142857143,306.12857142857143,2469.1,427.22232142857143,314.12857142857143,2577,316.22232142857143,362.12857142857143,2698.3,298.22232142857143,370.12857142857143,2803.7,294.22232142857143,371.12857142857143,2918.1,294.22232142857143,371.12857142857143,3032.9,294.22232142857143,371.12857142857143,3137.3,294.22232142857143,371.12857142857143,3253.7,294.22232142857143,371.12857142857143,3370.3,294.22232142857143,371.12857142857143,3484.8,294.22232142857143,371.12857142857143,3600.4,294.22232142857143,371.12857142857143,3714.2,294.22232142857143,371.12857142857143,3834,294.22232142857143,371.12857142857143,3951.6,294.22232142857143,371.12857142857143,4073,294.22232142857143,371.12857142857143,4177.6,294.22232142857143,371.12857142857143,4292.7,294.22232142857143,371.12857142857143,4401.1,294.22232142857143,371.12857142857143,4522.3,294.22232142857143,371.12857142857143,4636.4,294.22232142857143,371.12857142857143,4744.5,294.22232142857143,371.12857142857143,4850.7,294.22232142857143,371.12857142857143,4965.7]","[2365.3,2365.3,2420,2018.1,-2072.7,""error"",""-"",""-"",""no_move"",6448.6,4082.1,2548.1,3369.9,530.6,""smooth"",""right"",""right"",""good_move"",10297.9,3846.9,3191.6,6451.1,655.2,""smooth"",""right"",""right"",""good_move"",13525,3223.8,2650.8,10301.3,573,""oops"",""right"",""up"",""good_move"",17117.9,3589.7,2555.9,13528.4,1033.7,""oops"",""right"",""down"",""bad_move"",20158.7,3038.2,2541.2,17120.6,496.9,""smooth"",""right"",""right"",""good_move"",26306.7,6141.1,2319.3,23605.4,382.1,""while_blue"",""up"",""down"",""bad_move"",32763.7,6456,2950.1,29236.3,577.4,""oops"",""up"",""left"",""bad_move"",36415.3,3647.9,1907.1,32767.4,1740.8,""smooth"",""up"",""up"",""good_move"",40308.7,3892.2,2809.4,36416.6,1082.8,""smooth"",""up"",""up"",""good_move"",44524.6,4212.1,1851.2,40312.5,2360.9,""smooth"",""up"",""up"",""good_move"",51038.6,6508.7,2646.4,47879.9,512.3,""smooth"",""up"",""up"",""good_move"",54500.1,3459.3,2033.1,51040.8,1426.2,""oops"",""right"",""right"",""good_move""]","","",""
"3394","","<div style=""width:500px;"">
  <p>What determined the result of this run?</p>
  </div>","15","html-slider-response","55","1390069","0.0-10.0-1.3","158","1","2025-07-02 10:22:04","80fe4187154257d5fb01684ea91b68b9","105.12.1.92","Mozilla/5.0 (Windows NT 10.0; Win64; x64) AppleWebKit/537.36 (KHTML, like Gecko) Chrome/137.0.0.0 Safari/537.36","WebKit","Chrome","137.0.0.0","Windows","10.0","https://app.prolific.com/","en-ZA,en-GB;q=0.9,en-US;q=0.8,en;q=0.7","6771ad00548b3a182d5f80e0","683db6dfa200031b80f2a654","68650787de883a7c167790a8","6771ad00548b3a182d5f80e0","2025-07-02T10:45:50.925Z","","","","","","AttribQ","","","","","","","","","","","","","","","","","","","","","","","","","","","","","","","","","","","","","","50",""
"5040","","<div style=""width:500px;"">
  <p>How much control did you have over the ball?</p>
  </div>","27","html-slider-response","56","1395119","0.0-10.0-2.3","158","1","2025-07-02 10:22:04","80fe4187154257d5fb01684ea91b68b9","105.12.1.92","Mozilla/5.0 (Windows NT 10.0; Win64; x64) AppleWebKit/537.36 (KHTML, like Gecko) Chrome/137.0.0.0 Safari/537.36","WebKit","Chrome","137.0.0.0","Windows","10.0","https://app.prolific.com/","en-ZA,en-GB;q=0.9,en-US;q=0.8,en;q=0.7","6771ad00548b3a182d5f80e0","683db6dfa200031b80f2a654","68650787de883a7c167790a8","6771ad00548b3a182d5f80e0","2025-07-02T10:45:55.975Z","","","","","","ControlQ","","","","","","","","","","","","","","","","","","","","","","","","","","","","","","","","","","","","","","50",""
"4105","","<div style=""width:500px;"">
  <p>How would you describe your current emotional state?</p>
  </div>","62","html-slider-response","57","1399235","0.0-10.0-3.3","158","1","2025-07-02 10:22:04","80fe4187154257d5fb01684ea91b68b9","105.12.1.92","Mozilla/5.0 (Windows NT 10.0; Win64; x64) AppleWebKit/537.36 (KHTML, like Gecko) Chrome/137.0.0.0 Safari/537.36","WebKit","Chrome","137.0.0.0","Windows","10.0","https://app.prolific.com/","en-ZA,en-GB;q=0.9,en-US;q=0.8,en;q=0.7","6771ad00548b3a182d5f80e0","683db6dfa200031b80f2a654","68650787de883a7c167790a8","6771ad00548b3a182d5f80e0","2025-07-02T10:46:00.092Z","","","","","","StressQ","","","","","","","","","","","","","","","","","","","","","","","","","","","","","","","","","","","","","","50",""
"3882","","<div style=""width:500px;"">
  <p>What best describes how you currently feel?</p>
  </div>","80","html-slider-response","58","1403127","0.0-10.0-4.3","158","1","2025-07-02 10:22:04","80fe4187154257d5fb01684ea91b68b9","105.12.1.92","Mozilla/5.0 (Windows NT 10.0; Win64; x64) AppleWebKit/537.36 (KHTML, like Gecko) Chrome/137.0.0.0 Safari/537.36","WebKit","Chrome","137.0.0.0","Windows","10.0","https://app.prolific.com/","en-ZA,en-GB;q=0.9,en-US;q=0.8,en;q=0.7","6771ad00548b3a182d5f80e0","683db6dfa200031b80f2a654","68650787de883a7c167790a8","6771ad00548b3a182d5f80e0","2025-07-02T10:46:03.984Z","","","","","","MotivationQ","","","","","","","","","","","","","","","","","","","","","","","","","","","","","","","","","","","","","","50",""
"","","","","ctl-task-cpt","59","1439218","0.0-10.0-0.4","158","1","2025-07-02 10:22:04","80fe4187154257d5fb01684ea91b68b9","105.12.1.92","Mozilla/5.0 (Windows NT 10.0; Win64; x64) AppleWebKit/537.36 (KHTML, like Gecko) Chrome/137.0.0.0 Safari/537.36","WebKit","Chrome","137.0.0.0","Windows","10.0","https://app.prolific.com/","en-ZA,en-GB;q=0.9,en-US;q=0.8,en;q=0.7","6771ad00548b3a182d5f80e0","683db6dfa200031b80f2a654","68650787de883a7c167790a8","6771ad00548b3a182d5f80e0","2025-07-02T10:46:40.074Z","","","","","","","","","","","","","","","","win-only","0","g1:NW,g2:SE","0.6","5","0","1439683.5","1467.5","6478.7","33028.6","1","4","8","6","2","8","8","22","14","0.16666666666666666","1933.4","3000","2245","[""down"",""right""]","{""num_key_presses"":6,""num_perfect"":4,""num_errors"":0,""num_randdir"":2,""num_randdir_good_moves"":2,""num_whilered"":0,""num_whileblue"":0,""num_blue"":2,""num_good_moves"":6}","[302.22232142857143,296.12857142857143,1,302.22232142857143,296.12857142857143,116.4,302.22232142857143,296.12857142857143,230.5,302.22232142857143,296.12857142857143,337.1,302.22232142857143,296.12857142857143,449.1,302.22232142857143,296.12857142857143,549.9,296.22232142857143,285.12857142857143,655,274.22232142857143,245.12857142857143,761.8,316.22232142857143,251.12857142857143,878.3,424.22232142857143,325.12857142857143,981.1,485.22232142857143,403.12857142857143,1082.6,495.22232142857143,423.12857142857143,1187.6,495.22232142857143,423.12857142857143,1291,495.22232142857143,423.12857142857143,1393.3,544.2223214285714,483.12857142857143,1497.4,554.2223214285714,507.12857142857143,1602.2,553.2223214285714,525.1285714285714,1717.7,552.2223214285714,529.1285714285714,1825.5,552.2223214285714,529.1285714285714,1937.7,552.2223214285714,529.1285714285714,2056.1,552.2223214285714,529.1285714285714,2177.6,552.2223214285714,529.1285714285714,2286,552.2223214285714,529.1285714285714,2391.2,420.22232142857143,428.12857142857143,2508,230.22232142857143,315.12857142857143,2609.5,219.22232142857143,314.12857142857143,2717.1,218.22232142857143,320.12857142857143,2834.8,226.22232142857143,329.12857142857143,2952.7,230.22232142857143,342.12857142857143,3064.6,230.22232142857143,342.12857142857143,3176,230.22232142857143,342.12857142857143,3282.3,230.22232142857143,342.12857142857143,3384.7,230.22232142857143,342.12857142857143,3491.3,230.22232142857143,342.12857142857143,3597.2,230.22232142857143,342.12857142857143,3708.1,230.22232142857143,342.12857142857143,3811.5,230.22232142857143,342.12857142857143,3918.7,230.22232142857143,342.12857142857143,4026.5,230.22232142857143,342.12857142857143,4140.1,230.22232142857143,342.12857142857143,4254.2,230.22232142857143,342.12857142857143,4357.1,230.22232142857143,342.12857142857143,4463.8,230.22232142857143,342.12857142857143,4572.3,230.22232142857143,342.12857142857143,4684.5,230.22232142857143,342.12857142857143,4792.6,230.22232142857143,342.12857142857143,4900.4]","[1686.1,1686.1,1000,0,686.1,""smooth"",""right"",""right"",""good_move"",4862.3,3175.2,2470.2,1687.1,705,""oops"",""right"",""down"",""good_move"",8753.2,3888.1,3320.6,4865.1,567.5,""oops"",""right"",""down"",""good_move"",14977.8,6222.4,2716.3,11765.7,495.8,""smooth"",""right"",""right"",""good_move"",21913.9,6935.1,2656,18710.9,547.1,""smooth"",""right"",""right"",""good_move"",26053.8,4138.4,3576.1,21915.4,562.3,""smooth"",""down"",""down"",""good_move""]","","",""
"8324","","<div style=""width:500px;"">
  <p>What determined the result of this run?</p>
  </div>","37","html-slider-response","60","1447548","0.0-10.0-1.4","158","1","2025-07-02 10:22:04","80fe4187154257d5fb01684ea91b68b9","105.12.1.92","Mozilla/5.0 (Windows NT 10.0; Win64; x64) AppleWebKit/537.36 (KHTML, like Gecko) Chrome/137.0.0.0 Safari/537.36","WebKit","Chrome","137.0.0.0","Windows","10.0","https://app.prolific.com/","en-ZA,en-GB;q=0.9,en-US;q=0.8,en;q=0.7","6771ad00548b3a182d5f80e0","683db6dfa200031b80f2a654","68650787de883a7c167790a8","6771ad00548b3a182d5f80e0","2025-07-02T10:46:48.404Z","","","","","","AttribQ","","","","","","","","","","","","","","","","","","","","","","","","","","","","","","","","","","","","","","50",""
"9487","","<div style=""width:500px;"">
  <p>How much control did you have over the ball?</p>
  </div>","61","html-slider-response","61","1457049","0.0-10.0-2.4","158","1","2025-07-02 10:22:04","80fe4187154257d5fb01684ea91b68b9","105.12.1.92","Mozilla/5.0 (Windows NT 10.0; Win64; x64) AppleWebKit/537.36 (KHTML, like Gecko) Chrome/137.0.0.0 Safari/537.36","WebKit","Chrome","137.0.0.0","Windows","10.0","https://app.prolific.com/","en-ZA,en-GB;q=0.9,en-US;q=0.8,en;q=0.7","6771ad00548b3a182d5f80e0","683db6dfa200031b80f2a654","68650787de883a7c167790a8","6771ad00548b3a182d5f80e0","2025-07-02T10:46:57.905Z","","","","","","ControlQ","","","","","","","","","","","","","","","","","","","","","","","","","","","","","","","","","","","","","","50",""
"3410","","<div style=""width:500px;"">
  <p>How would you describe your current emotional state?</p>
  </div>","35","html-slider-response","62","1460474","0.0-10.0-3.4","158","1","2025-07-02 10:22:04","80fe4187154257d5fb01684ea91b68b9","105.12.1.92","Mozilla/5.0 (Windows NT 10.0; Win64; x64) AppleWebKit/537.36 (KHTML, like Gecko) Chrome/137.0.0.0 Safari/537.36","WebKit","Chrome","137.0.0.0","Windows","10.0","https://app.prolific.com/","en-ZA,en-GB;q=0.9,en-US;q=0.8,en;q=0.7","6771ad00548b3a182d5f80e0","683db6dfa200031b80f2a654","68650787de883a7c167790a8","6771ad00548b3a182d5f80e0","2025-07-02T10:47:01.331Z","","","","","","StressQ","","","","","","","","","","","","","","","","","","","","","","","","","","","","","","","","","","","","","","50",""
"4346","","<div style=""width:500px;"">
  <p>What best describes how you currently feel?</p>
  </div>","100","html-slider-response","63","1464834","0.0-10.0-4.4","158","1","2025-07-02 10:22:04","80fe4187154257d5fb01684ea91b68b9","105.12.1.92","Mozilla/5.0 (Windows NT 10.0; Win64; x64) AppleWebKit/537.36 (KHTML, like Gecko) Chrome/137.0.0.0 Safari/537.36","WebKit","Chrome","137.0.0.0","Windows","10.0","https://app.prolific.com/","en-ZA,en-GB;q=0.9,en-US;q=0.8,en;q=0.7","6771ad00548b3a182d5f80e0","683db6dfa200031b80f2a654","68650787de883a7c167790a8","6771ad00548b3a182d5f80e0","2025-07-02T10:47:05.691Z","","","","","","MotivationQ","","","","","","","","","","","","","","","","","","","","","","","","","","","","","","","","","","","","","","50",""
"","","","","ctl-task-cpt","64","1559212","0.0-10.0-0.5","158","1","2025-07-02 10:22:04","80fe4187154257d5fb01684ea91b68b9","105.12.1.92","Mozilla/5.0 (Windows NT 10.0; Win64; x64) AppleWebKit/537.36 (KHTML, like Gecko) Chrome/137.0.0.0 Safari/537.36","WebKit","Chrome","137.0.0.0","Windows","10.0","https://app.prolific.com/","en-ZA,en-GB;q=0.9,en-US;q=0.8,en;q=0.7","6771ad00548b3a182d5f80e0","683db6dfa200031b80f2a654","68650787de883a7c167790a8","6771ad00548b3a182d5f80e0","2025-07-02T10:48:40.069Z","","","","","","","","","","","","","","","","win-only","1","g1:NE,g2:SW","0.5","6","0","1501392.6","1878.8","6883","91331.6","1","4","4","6","2","4","4","26","22","0.19696969696969696","2037.6","3000","1350","[""down"",""left""]","{""num_key_presses"":14,""num_perfect"":7,""num_errors"":0,""num_randdir"":7,""num_randdir_good_moves"":3,""num_whilered"":0,""num_whileblue"":0,""num_blue"":6,""num_good_moves"":10}","[299.22232142857143,299.12857142857143,0.4,299.22232142857143,299.12857142857143,110.3,299.22232142857143,299.12857142857143,255.5,299.22232142857143,299.12857142857143,388.8,299.22232142857143,299.12857142857143,525.6,303.22232142857143,299.12857142857143,670.7,347.22232142857143,321.12857142857143,788.2,225.22232142857143,402.12857142857143,901,99.22232142857143,491.12857142857143,1009.7,115.22232142857143,476.12857142857143,1158.6,258.22232142857143,352.12857142857143,1263.5,178.22232142857143,387.12857142857143,1365.6,69.22232142857143,476.12857142857143,1475.1,44.222321428571426,499.12857142857143,1577.2,17.222321428571426,526.1285714285714,1691.8,5.222321428571426,547.1285714285714,1799.1,5.222321428571426,547.1285714285714,1936.6,5.222321428571426,547.1285714285714,2048.6,5.222321428571426,547.1285714285714,2191.4,5.222321428571426,547.1285714285714,2297.2,5.222321428571426,547.1285714285714,2430,5.222321428571426,547.1285714285714,2559.8,56.222321428571426,547.1285714285714,2664.9,170.22232142857143,550.1285714285714,2773.3,219.22232142857143,584.1285714285714,2912.1,219.22232142857143,584.1285714285714,3044.6,219.22232142857143,584.1285714285714,3184.7,219.22232142857143,584.1285714285714,3324.4,219.22232142857143,584.1285714285714,3456.5,219.22232142857143,584.1285714285714,3599.5,219.22232142857143,584.1285714285714,3735.7,219.22232142857143,584.1285714285714,3868.6,219.22232142857143,584.1285714285714,4004.1,219.22232142857143,584.1285714285714,4136.9,219.22232142857143,584.1285714285714,4277.3,219.22232142857143,584.1285714285714,4408.9,219.22232142857143,584.1285714285714,4542.3,219.22232142857143,584.1285714285714,4681.7,219.22232142857143,584.1285714285714,4817.5,219.22232142857143,584.1285714285714,4959]","[5738.3,5738.3,2989.3,2012.2,736.8,""smooth"",""left"",""left"",""good_move"",14071.8,8331.4,2702.9,5740.4,5628.5,""smooth"",""left"",""left"",""good_move"",18675.3,4602.3,2317.1,14073,2285.2,""oops"",""left"",""left"",""good_move"",23679.7,5002.2,2042.5,18677.5,2959.7,""oops"",""down"",""up"",""bad_move"",29235.3,5553.7,3054.5,23681.7,2499.2,""oops"",""down"",""up"",""bad_move"",34974.7,5738.4,2437.5,29236.4,3300.8,""oops"",""down"",""right"",""bad_move"",45139.7,10163,2518.5,42101.2,520,""smooth"",""left"",""left"",""good_move"",52793.8,7652.7,1550.4,45141.1,6102.3,""oops"",""down"",""down"",""good_move"",55880.3,3083.5,2416,52796.9,667.4,""smooth"",""down"",""down"",""good_move"",62431,6548.6,2296.7,59608.1,526.2,""smooth"",""down"",""down"",""good_move"",65432.5,3000.4,2280.5,62432.1,719.9,""smooth"",""down"",""down"",""good_move"",68995.9,3560.8,2993.2,65435.2,567.5,""oops"",""down"",""up"",""bad_move"",73306.1,4308.6,2166.5,68997.5,2142.1,""oops"",""down"",""down"",""good_move"",84072.6,10764.2,3064.1,80493.5,515.1,""smooth"",""down"",""down"",""good_move""]","","",""
"5100","","<div style=""width:500px;"">
  <p>What determined the result of this run?</p>
  </div>","8","html-slider-response","65","1564318","0.0-10.0-1.5","158","1","2025-07-02 10:22:04","80fe4187154257d5fb01684ea91b68b9","105.12.1.92","Mozilla/5.0 (Windows NT 10.0; Win64; x64) AppleWebKit/537.36 (KHTML, like Gecko) Chrome/137.0.0.0 Safari/537.36","WebKit","Chrome","137.0.0.0","Windows","10.0","https://app.prolific.com/","en-ZA,en-GB;q=0.9,en-US;q=0.8,en;q=0.7","6771ad00548b3a182d5f80e0","683db6dfa200031b80f2a654","68650787de883a7c167790a8","6771ad00548b3a182d5f80e0","2025-07-02T10:48:45.175Z","","","","","","AttribQ","","","","","","","","","","","","","","","","","","","","","","","","","","","","","","","","","","","","","","50",""
"5595","","<div style=""width:500px;"">
  <p>How much control did you have over the ball?</p>
  </div>","15","html-slider-response","66","1569930","0.0-10.0-2.5","158","1","2025-07-02 10:22:04","80fe4187154257d5fb01684ea91b68b9","105.12.1.92","Mozilla/5.0 (Windows NT 10.0; Win64; x64) AppleWebKit/537.36 (KHTML, like Gecko) Chrome/137.0.0.0 Safari/537.36","WebKit","Chrome","137.0.0.0","Windows","10.0","https://app.prolific.com/","en-ZA,en-GB;q=0.9,en-US;q=0.8,en;q=0.7","6771ad00548b3a182d5f80e0","683db6dfa200031b80f2a654","68650787de883a7c167790a8","6771ad00548b3a182d5f80e0","2025-07-02T10:48:50.786Z","","","","","","ControlQ","","","","","","","","","","","","","","","","","","","","","","","","","","","","","","","","","","","","","","50",""
"4038","","<div style=""width:500px;"">
  <p>How would you describe your current emotional state?</p>
  </div>","71","html-slider-response","67","1573984","0.0-10.0-3.5","158","1","2025-07-02 10:22:04","80fe4187154257d5fb01684ea91b68b9","105.12.1.92","Mozilla/5.0 (Windows NT 10.0; Win64; x64) AppleWebKit/537.36 (KHTML, like Gecko) Chrome/137.0.0.0 Safari/537.36","WebKit","Chrome","137.0.0.0","Windows","10.0","https://app.prolific.com/","en-ZA,en-GB;q=0.9,en-US;q=0.8,en;q=0.7","6771ad00548b3a182d5f80e0","683db6dfa200031b80f2a654","68650787de883a7c167790a8","6771ad00548b3a182d5f80e0","2025-07-02T10:48:54.841Z","","","","","","StressQ","","","","","","","","","","","","","","","","","","","","","","","","","","","","","","","","","","","","","","50",""
"4397","","<div style=""width:500px;"">
  <p>What best describes how you currently feel?</p>
  </div>","72","html-slider-response","68","1578393","0.0-10.0-4.5","158","1","2025-07-02 10:22:04","80fe4187154257d5fb01684ea91b68b9","105.12.1.92","Mozilla/5.0 (Windows NT 10.0; Win64; x64) AppleWebKit/537.36 (KHTML, like Gecko) Chrome/137.0.0.0 Safari/537.36","WebKit","Chrome","137.0.0.0","Windows","10.0","https://app.prolific.com/","en-ZA,en-GB;q=0.9,en-US;q=0.8,en;q=0.7","6771ad00548b3a182d5f80e0","683db6dfa200031b80f2a654","68650787de883a7c167790a8","6771ad00548b3a182d5f80e0","2025-07-02T10:48:59.249Z","","","","","","MotivationQ","","","","","","","","","","","","","","","","","","","","","","","","","","","","","","","","","","","","","","50",""
"","","","","ctl-task-cpt","69","1762487","0.0-10.0-0.6","158","1","2025-07-02 10:22:04","80fe4187154257d5fb01684ea91b68b9","105.12.1.92","Mozilla/5.0 (Windows NT 10.0; Win64; x64) AppleWebKit/537.36 (KHTML, like Gecko) Chrome/137.0.0.0 Safari/537.36","WebKit","Chrome","137.0.0.0","Windows","10.0","https://app.prolific.com/","en-ZA,en-GB;q=0.9,en-US;q=0.8,en;q=0.7","6771ad00548b3a182d5f80e0","683db6dfa200031b80f2a654","68650787de883a7c167790a8","6771ad00548b3a182d5f80e0","2025-07-02T10:52:03.344Z","","","","","","","","","","","","","","","","win-only","3","g1:SW,g2:NE","0.4","7","0","1614948.7","1598.5","6604.1","181049.5","1","4","4","6","2","-4","-4","22","26","0.16666666666666666","1807.8","3000","-600","[""up"",""right""]","{""num_key_presses"":30,""num_perfect"":12,""num_errors"":0,""num_randdir"":18,""num_randdir_good_moves"":5,""num_whilered"":0,""num_whileblue"":0,""num_blue"":11,""num_good_moves"":16}","[298.22232142857143,293.12857142857143,0.6,298.22232142857143,293.12857142857143,101.1,298.22232142857143,293.12857142857143,251.8,298.22232142857143,293.12857142857143,355.5,298.22232142857143,293.12857142857143,490.5,298.22232142857143,293.12857142857143,626.5,271.22232142857143,308.12857142857143,727.7,253.22232142857143,309.12857142857143,834,603.2223214285714,-33.871428571428574,943.7,633.2223214285714,-75.87142857142857,1120.6,600.2223214285714,-45.871428571428574,1275,585.2223214285714,-9.871428571428574,1394.4,572.2223214285714,19.128571428571426,1513,561.2223214285714,31.128571428571426,1620.1,560.2223214285714,32.128571428571426,1754.4,560.2223214285714,32.128571428571426,1886.7,560.2223214285714,32.128571428571426,2051,560.2223214285714,32.128571428571426,2188.1,560.2223214285714,32.128571428571426,2331.6,560.2223214285714,32.128571428571426,2472,494.22232142857143,139.12857142857143,2593.4,474.22232142857143,188.12857142857143,2768.4,456.22232142857143,226.12857142857143,2875.2,456.22232142857143,226.12857142857143,2991.6,456.22232142857143,226.12857142857143,3104.6,456.22232142857143,226.12857142857143,3209.6,456.22232142857143,226.12857142857143,3315.3,456.22232142857143,226.12857142857143,3418.9,456.22232142857143,226.12857142857143,3525.5,456.22232142857143,226.12857142857143,3627.6,456.22232142857143,226.12857142857143,3732.8,456.22232142857143,226.12857142857143,3842,456.22232142857143,226.12857142857143,3944.5,456.22232142857143,226.12857142857143,4058,456.22232142857143,226.12857142857143,4168.1,456.22232142857143,226.12857142857143,4268.9,456.22232142857143,226.12857142857143,4387.8,456.22232142857143,226.12857142857143,4490.3,456.22232142857143,226.12857142857143,4591.7,456.22232142857143,226.12857142857143,4705,456.22232142857143,226.12857142857143,4823,456.22232142857143,226.12857142857143,4933.8]","[1557.1,1557.2,1000,0,557.2,""smooth"",""right"",""right"",""good_move"",4331.1,2768.4,2148.2,1562.8,620.4,""smooth"",""right"",""right"",""good_move"",7618.7,3286,2738.1,4332.7,547.9,""oops"",""right"",""down"",""bad_move"",10324,2703.9,2179.6,7620.1,524.3,""oops"",""right"",""right"",""good_move"",12893.5,2565.1,1982.5,10328.4,582.6,""oops"",""up"",""down"",""bad_move"",15795.2,2896.3,2429,12899,467.3,""oops"",""up"",""left"",""bad_move"",20331.4,4534.2,2344.8,15797.3,2189.4,""oops"",""right"",""left"",""bad_move"",25336.8,5003.9,2605.7,20333.1,2398.2,""smooth"",""right"",""right"",""good_move"",28364.4,3026.3,2454.8,25338.1,571.5,""oops"",""right"",""left"",""bad_move"",42062.6,13696.8,3311.7,38230.1,520.8,""smooth"",""right"",""right"",""good_move"",49035.4,6971.6,2327.1,45944.1,764.2,""smooth"",""right"",""right"",""good_move"",51869.6,2833.2,2218.3,49036.5,614.8,""oops"",""up"",""left"",""bad_move"",58048.5,6176.9,3564.4,51871.6,2612.5,""smooth"",""up"",""up"",""good_move"",65026,6976,2184.1,58050,4791.9,""oops"",""up"",""down"",""bad_move"",68607.2,3580.6,2563.3,65026.9,1017.2,""oops"",""right"",""right"",""good_move"",71104.5,2494.9,1808.1,68609.6,686.8,""smooth"",""up"",""up"",""good_move"",82882.3,11775.4,2452.8,79961.6,468,""oops"",""up"",""down"",""bad_move"",90082.8,7199,2895.5,86646.5,540.8,""oops"",""up"",""up"",""good_move"",95503.1,5419,2191.5,90084.2,3227.5,""oops"",""up"",""down"",""bad_move"",98863.3,3358.8,1864,95504.5,1494.9,""smooth"",""up"",""up"",""good_move"",102953.9,4088.5,2906.9,98865.5,1181.6,""oops"",""left"",""down"",""bad_move"",112392.6,9435.1,2158.8,109740.8,493,""oops"",""up"",""up"",""good_move"",118327.5,5933.7,3218.9,112393.8,2714.8,""oops"",""up"",""down"",""bad_move"",128743.5,10414.7,2283.7,125915,544.8,""smooth"",""left"",""left"",""bad_move"",136785,8040.1,1700.9,128744.9,6339.2,""smooth"",""up"",""up"",""good_move"",145242.1,8454.5,2323.3,136787.7,6131.1,""smooth"",""up"",""up"",""good_move"",156915.4,11671.9,2192.5,154238.5,484.4,""oops"",""up"",""left"",""bad_move"",161264.8,4348.7,3514,156916.2,834.7,""smooth"",""up"",""up"",""good_move"",166125,4855.8,2033.9,161269.2,2821.9,""oops"",""up"",""right"",""good_move"",169273.3,3147,2571.5,166126.3,575.5,""oops"",""up"",""down"",""bad_move""]","","",""
"5690","","<div style=""width:500px;"">
  <p>What determined the result of this run?</p>
  </div>","0","html-slider-response","70","1768182","0.0-10.0-1.6","158","1","2025-07-02 10:22:04","80fe4187154257d5fb01684ea91b68b9","105.12.1.92","Mozilla/5.0 (Windows NT 10.0; Win64; x64) AppleWebKit/537.36 (KHTML, like Gecko) Chrome/137.0.0.0 Safari/537.36","WebKit","Chrome","137.0.0.0","Windows","10.0","https://app.prolific.com/","en-ZA,en-GB;q=0.9,en-US;q=0.8,en;q=0.7","6771ad00548b3a182d5f80e0","683db6dfa200031b80f2a654","68650787de883a7c167790a8","6771ad00548b3a182d5f80e0","2025-07-02T10:52:09.039Z","","","","","","AttribQ","","","","","","","","","","","","","","","","","","","","","","","","","","","","","","","","","","","","","","50",""
"3942","","<div style=""width:500px;"">
  <p>How much control did you have over the ball?</p>
  </div>","0","html-slider-response","71","1772134","0.0-10.0-2.6","158","1","2025-07-02 10:22:04","80fe4187154257d5fb01684ea91b68b9","105.12.1.92","Mozilla/5.0 (Windows NT 10.0; Win64; x64) AppleWebKit/537.36 (KHTML, like Gecko) Chrome/137.0.0.0 Safari/537.36","WebKit","Chrome","137.0.0.0","Windows","10.0","https://app.prolific.com/","en-ZA,en-GB;q=0.9,en-US;q=0.8,en;q=0.7","6771ad00548b3a182d5f80e0","683db6dfa200031b80f2a654","68650787de883a7c167790a8","6771ad00548b3a182d5f80e0","2025-07-02T10:52:12.991Z","","","","","","ControlQ","","","","","","","","","","","","","","","","","","","","","","","","","","","","","","","","","","","","","","50",""
"4073","","<div style=""width:500px;"">
  <p>How would you describe your current emotional state?</p>
  </div>","100","html-slider-response","72","1776219","0.0-10.0-3.6","158","1","2025-07-02 10:22:04","80fe4187154257d5fb01684ea91b68b9","105.12.1.92","Mozilla/5.0 (Windows NT 10.0; Win64; x64) AppleWebKit/537.36 (KHTML, like Gecko) Chrome/137.0.0.0 Safari/537.36","WebKit","Chrome","137.0.0.0","Windows","10.0","https://app.prolific.com/","en-ZA,en-GB;q=0.9,en-US;q=0.8,en;q=0.7","6771ad00548b3a182d5f80e0","683db6dfa200031b80f2a654","68650787de883a7c167790a8","6771ad00548b3a182d5f80e0","2025-07-02T10:52:17.075Z","","","","","","StressQ","","","","","","","","","","","","","","","","","","","","","","","","","","","","","","","","","","","","","","50",""
"11173","","<div style=""width:500px;"">
  <p>What best describes how you currently feel?</p>
  </div>","32","html-slider-response","73","1787404","0.0-10.0-4.6","158","1","2025-07-02 10:22:04","80fe4187154257d5fb01684ea91b68b9","105.12.1.92","Mozilla/5.0 (Windows NT 10.0; Win64; x64) AppleWebKit/537.36 (KHTML, like Gecko) Chrome/137.0.0.0 Safari/537.36","WebKit","Chrome","137.0.0.0","Windows","10.0","https://app.prolific.com/","en-ZA,en-GB;q=0.9,en-US;q=0.8,en;q=0.7","6771ad00548b3a182d5f80e0","683db6dfa200031b80f2a654","68650787de883a7c167790a8","6771ad00548b3a182d5f80e0","2025-07-02T10:52:28.261Z","","","","","","MotivationQ","","","","","","","","","","","","","","","","","","","","","","","","","","","","","","","","","","","","","","50",""
"","","","","ctl-task-cpt","74","1954018","0.0-10.0-0.7","158","1","2025-07-02 10:22:04","80fe4187154257d5fb01684ea91b68b9","105.12.1.92","Mozilla/5.0 (Windows NT 10.0; Win64; x64) AppleWebKit/537.36 (KHTML, like Gecko) Chrome/137.0.0.0 Safari/537.36","WebKit","Chrome","137.0.0.0","Windows","10.0","https://app.prolific.com/","en-ZA,en-GB;q=0.9,en-US;q=0.8,en;q=0.7","6771ad00548b3a182d5f80e0","683db6dfa200031b80f2a654","68650787de883a7c167790a8","6771ad00548b3a182d5f80e0","2025-07-02T10:55:14.874Z","","","","","","","","","","","","","","","","win-only","2","g1:SE,g2:NW","0.3","8","0","1823963","1709","6727.8","163568.2","1","4","8","6","2","-8","-8","14","22","0.10606060606060606","1593.2","3000","-565","[""left"",""up""]","{""num_key_presses"":28,""num_perfect"":9,""num_errors"":0,""num_randdir"":19,""num_randdir_good_moves"":8,""num_whilered"":0,""num_whileblue"":0,""num_blue"":5,""num_good_moves"":15}","[294.22232142857143,303.12857142857143,0.6,294.22232142857143,303.12857142857143,134.7,294.22232142857143,303.12857142857143,234.8,294.22232142857143,303.12857142857143,335.4,294.22232142857143,303.12857142857143,464.2,294.22232142857143,303.12857142857143,583.6,294.22232142857143,303.12857142857143,708.9,268.22232142857143,277.12857142857143,842.3,101.22232142857143,125.12857142857143,979.2,29.222321428571426,82.12857142857143,1084.2,24.222321428571426,81.12857142857143,1184.2,24.222321428571426,79.12857142857143,1325.1,28.222321428571426,80.12857142857143,1455,28.222321428571426,80.12857142857143,1609.7,28.222321428571426,80.12857142857143,1749.5,28.222321428571426,80.12857142857143,1889.7,28.222321428571426,80.12857142857143,2011.8,57.222321428571426,119.12857142857143,2141.8,154.22232142857143,216.12857142857143,2247.1,182.22232142857143,270.12857142857143,2380.7,182.22232142857143,270.12857142857143,2501.1,182.22232142857143,270.12857142857143,2640.9,218.22232142857143,325.12857142857143,2787.9,228.22232142857143,338.12857142857143,2891.5,251.22232142857143,382.12857142857143,3035.6,251.22232142857143,382.12857142857143,3173.6,251.22232142857143,382.12857142857143,3308.2,251.22232142857143,382.12857142857143,3435.6,251.22232142857143,382.12857142857143,3566.8,251.22232142857143,382.12857142857143,3692.9,251.22232142857143,382.12857142857143,3825.9,251.22232142857143,382.12857142857143,3951.9,251.22232142857143,382.12857142857143,4073.7,251.22232142857143,382.12857142857143,4215.3,251.22232142857143,382.12857142857143,4339.6,251.22232142857143,382.12857142857143,4465.5,251.22232142857143,382.12857142857143,4588.4,251.22232142857143,382.12857142857143,4717.2,251.22232142857143,382.12857142857143,4850.7,251.22232142857143,382.12857142857143,4976.4]","[1577.9,1577.9,1000,0,578.1,""smooth"",""up"",""up"",""good_move"",10936.8,9355.4,2844.7,1581.4,6510.7,""oops"",""up"",""up"",""good_move"",20476.9,9539.2,2486.9,10937.7,7052.4,""smooth"",""left"",""left"",""good_move"",28200,7719.5,1906.5,25681.9,611.6,""oops"",""down"",""right"",""bad_move"",31616.9,3415.9,2369.7,28201.1,1046.1,""oops"",""down"",""down"",""bad_move"",34869.4,3249,2104.3,31620.4,1144.7,""smooth"",""left"",""left"",""good_move"",41588.2,6717.4,3008.7,34870.8,3708.7,""oops"",""left"",""left"",""good_move"",48706.8,7117.3,3247.2,41589.6,3870,""oops"",""up"",""right"",""bad_move"",52468.3,3760.7,3088.4,48707.6,672.3,""oops"",""down"",""right"",""bad_move"",56100.1,3630.6,3117.3,52469.5,513.3,""oops"",""up"",""up"",""good_move"",60741.5,4637.1,2643,56104.5,1994.1,""smooth"",""left"",""left"",""good_move"",66099.8,5355.1,2060.7,60744.7,3294.4,""oops"",""up"",""right"",""bad_move"",69387.9,3287.4,2511.9,66100.5,775.5,""smooth"",""down"",""down"",""bad_move"",72201.2,2812.2,2118.4,69389,693.8,""oops"",""down"",""left"",""good_move"",78945.3,6741.1,2602,72204.2,4139.1,""oops"",""down"",""right"",""bad_move"",88934.9,9988.5,2017.5,86328.1,589.3,""smooth"",""right"",""right"",""bad_move"",96895.4,7959.5,3460.5,92910.8,524.1,""oops"",""down"",""down"",""bad_move"",100830.7,3934,3003.6,96896.7,930.4,""oops"",""down"",""down"",""bad_move"",104194.8,3362.5,2744.4,100832.4,618.1,""oops"",""down"",""right"",""bad_move"",111597.6,7401.2,3079,107844.7,674,""oops"",""down"",""up"",""good_move"",116053.4,4454.1,3102.8,111599.4,1351.3,""oops"",""up"",""up"",""good_move"",121190.1,5132.3,1857,116057.8,3275.3,""smooth"",""up"",""up"",""good_move"",125848,4653.7,2213.3,121194.4,2440.4,""oops"",""up"",""down"",""bad_move"",129805.6,3955.4,3068.7,125850.2,886.7,""oops"",""up"",""up"",""good_move"",135312.6,5504.4,2638.4,129808.4,2866,""smooth"",""up"",""up"",""good_move"",141929.1,6614.9,2358.9,135314.3,4256,""oops"",""left"",""left"",""good_move"",147316.8,5386.6,2630.8,141930.2,2755.8,""smooth"",""left"",""left"",""good_move"",152350.3,5031.7,1975.4,147318.7,3056.3,""oops"",""left"",""right"",""bad_move""]","","",""
"14699","","<div style=""width:500px;"">
  <p>What determined the result of this run?</p>
  </div>","0","html-slider-response","75","1968723","0.0-10.0-1.7","158","1","2025-07-02 10:22:04","80fe4187154257d5fb01684ea91b68b9","105.12.1.92","Mozilla/5.0 (Windows NT 10.0; Win64; x64) AppleWebKit/537.36 (KHTML, like Gecko) Chrome/137.0.0.0 Safari/537.36","WebKit","Chrome","137.0.0.0","Windows","10.0","https://app.prolific.com/","en-ZA,en-GB;q=0.9,en-US;q=0.8,en;q=0.7","6771ad00548b3a182d5f80e0","683db6dfa200031b80f2a654","68650787de883a7c167790a8","6771ad00548b3a182d5f80e0","2025-07-02T10:55:29.580Z","","","","","","AttribQ","","","","","","","","","","","","","","","","","","","","","","","","","","","","","","","","","","","","","","50",""
"3612","","<div style=""width:500px;"">
  <p>How much control did you have over the ball?</p>
  </div>","0","html-slider-response","76","1972345","0.0-10.0-2.7","158","1","2025-07-02 10:22:04","80fe4187154257d5fb01684ea91b68b9","105.12.1.92","Mozilla/5.0 (Windows NT 10.0; Win64; x64) AppleWebKit/537.36 (KHTML, like Gecko) Chrome/137.0.0.0 Safari/537.36","WebKit","Chrome","137.0.0.0","Windows","10.0","https://app.prolific.com/","en-ZA,en-GB;q=0.9,en-US;q=0.8,en;q=0.7","6771ad00548b3a182d5f80e0","683db6dfa200031b80f2a654","68650787de883a7c167790a8","6771ad00548b3a182d5f80e0","2025-07-02T10:55:33.202Z","","","","","","ControlQ","","","","","","","","","","","","","","","","","","","","","","","","","","","","","","","","","","","","","","50",""
"30439","","<div style=""width:500px;"">
  <p>How would you describe your current emotional state?</p>
  </div>","100","html-slider-response","77","2002798","0.0-10.0-3.7","158","1","2025-07-02 10:22:04","80fe4187154257d5fb01684ea91b68b9","105.12.1.92","Mozilla/5.0 (Windows NT 10.0; Win64; x64) AppleWebKit/537.36 (KHTML, like Gecko) Chrome/137.0.0.0 Safari/537.36","WebKit","Chrome","137.0.0.0","Windows","10.0","https://app.prolific.com/","en-ZA,en-GB;q=0.9,en-US;q=0.8,en;q=0.7","6771ad00548b3a182d5f80e0","683db6dfa200031b80f2a654","68650787de883a7c167790a8","6771ad00548b3a182d5f80e0","2025-07-02T10:56:03.655Z","","","","","","StressQ","","","","","","","","","","","","","","","","","","","","","","","","","","","","","","","","","","","","","","50",""
"9615","","<div style=""width:500px;"">
  <p>What best describes how you currently feel?</p>
  </div>","92","html-slider-response","78","2012429","0.0-10.0-4.7","158","1","2025-07-02 10:22:04","80fe4187154257d5fb01684ea91b68b9","105.12.1.92","Mozilla/5.0 (Windows NT 10.0; Win64; x64) AppleWebKit/537.36 (KHTML, like Gecko) Chrome/137.0.0.0 Safari/537.36","WebKit","Chrome","137.0.0.0","Windows","10.0","https://app.prolific.com/","en-ZA,en-GB;q=0.9,en-US;q=0.8,en;q=0.7","6771ad00548b3a182d5f80e0","683db6dfa200031b80f2a654","68650787de883a7c167790a8","6771ad00548b3a182d5f80e0","2025-07-02T10:56:13.285Z","","","","","","MotivationQ","","","","","","","","","","","","","","","","","","","","","","","","","","","","","","","","","","","","","","50",""
"","","","","ctl-task-cpt","79","2074385","0.0-10.0-0.8","158","1","2025-07-02 10:22:04","80fe4187154257d5fb01684ea91b68b9","105.12.1.92","Mozilla/5.0 (Windows NT 10.0; Win64; x64) AppleWebKit/537.36 (KHTML, like Gecko) Chrome/137.0.0.0 Safari/537.36","WebKit","Chrome","137.0.0.0","Windows","10.0","https://app.prolific.com/","en-ZA,en-GB;q=0.9,en-US;q=0.8,en;q=0.7","6771ad00548b3a182d5f80e0","683db6dfa200031b80f2a654","68650787de883a7c167790a8","6771ad00548b3a182d5f80e0","2025-07-02T10:57:15.242Z","","","","","","","","","","","","","","","","win-only","1","g1:NE,g2:SW","0.4","9","0","2048992.2","1781","6789.3","58887.7","1","4","8","6","2","8","8","22","14","0.16666666666666666","1613.3","3000","2240","[""down"",""left""]","{""num_key_presses"":8,""num_perfect"":4,""num_errors"":0,""num_randdir"":4,""num_randdir_good_moves"":3,""num_whilered"":0,""num_whileblue"":0,""num_blue"":3,""num_good_moves"":7}","[295.22232142857143,297.12857142857143,1,295.22232142857143,297.12857142857143,120.6,295.22232142857143,297.12857142857143,240.2,295.22232142857143,297.12857142857143,360,295.22232142857143,297.12857142857143,461.8,295.22232142857143,297.12857142857143,572.3,295.22232142857143,297.12857142857143,695.7,285.22232142857143,304.12857142857143,816.1,239.22232142857143,359.12857142857143,916.8,148.22232142857143,417.12857142857143,1039.1,92.22232142857143,486.12857142857143,1160.1,64.22232142857143,528.1285714285714,1270.7,53.222321428571426,553.1285714285714,1385.8,53.222321428571426,553.1285714285714,1495,53.222321428571426,553.1285714285714,1609.1,53.222321428571426,553.1285714285714,1729.6,53.222321428571426,553.1285714285714,1864.2,53.222321428571426,553.1285714285714,1972.3,53.222321428571426,553.1285714285714,2079.8,53.222321428571426,553.1285714285714,2205.7,53.222321428571426,553.1285714285714,2313.9,53.222321428571426,553.1285714285714,2430.4,53.222321428571426,553.1285714285714,2566.4,53.222321428571426,553.1285714285714,2688,53.222321428571426,553.1285714285714,2814.4,53.222321428571426,553.1285714285714,2925.4,53.222321428571426,553.1285714285714,3046,53.222321428571426,553.1285714285714,3175,53.222321428571426,553.1285714285714,3286.6,53.222321428571426,553.1285714285714,3406.7,53.222321428571426,553.1285714285714,3522.5,53.222321428571426,553.1285714285714,3639.5,53.222321428571426,553.1285714285714,3750.2,53.222321428571426,553.1285714285714,3853,53.222321428571426,553.1285714285714,3968.3,53.222321428571426,553.1285714285714,4091,53.222321428571426,553.1285714285714,4210.1,53.222321428571426,553.1285714285714,4328.6,53.222321428571426,553.1285714285714,4448.2,53.222321428571426,553.1285714285714,4566.4,53.222321428571426,553.1285714285714,4667.9,53.222321428571426,553.1285714285714,4771.7,53.222321428571426,553.1285714285714,4904.2]","[5330.6,5330.7,2744.7,2035.5,550.5,""oops"",""down"",""left"",""good_move"",12801.5,7468.3,3159.8,5333.2,4308.5,""smooth"",""down"",""down"",""good_move"",16034.2,3231.7,2552.2,12802.6,679.4,""smooth"",""left"",""left"",""good_move"",28548.1,12512.1,3456.2,24293.6,798.3,""oops"",""down"",""left"",""good_move"",34940.2,6391.1,2779.7,28549.1,3611.4,""oops"",""down"",""up"",""bad_move"",40596,5651,2622.1,34945.1,3028.8,""oops"",""down"",""down"",""good_move"",47318.7,6721.3,2154.1,44355.7,808.9,""smooth"",""down"",""down"",""good_move"",51219.7,3900.1,2664.4,47319.7,1235.7,""smooth"",""down"",""down"",""good_move""]","","",""
"27312","","<div style=""width:500px;"">
  <p>What determined the result of this run?</p>
  </div>","18","html-slider-response","80","2101703","0.0-10.0-1.8","158","1","2025-07-02 10:22:04","80fe4187154257d5fb01684ea91b68b9","105.12.1.92","Mozilla/5.0 (Windows NT 10.0; Win64; x64) AppleWebKit/537.36 (KHTML, like Gecko) Chrome/137.0.0.0 Safari/537.36","WebKit","Chrome","137.0.0.0","Windows","10.0","https://app.prolific.com/","en-ZA,en-GB;q=0.9,en-US;q=0.8,en;q=0.7","6771ad00548b3a182d5f80e0","683db6dfa200031b80f2a654","68650787de883a7c167790a8","6771ad00548b3a182d5f80e0","2025-07-02T10:57:42.560Z","","","","","","AttribQ","","","","","","","","","","","","","","","","","","","","","","","","","","","","","","","","","","","","","","50",""
"3258","","<div style=""width:500px;"">
  <p>How much control did you have over the ball?</p>
  </div>","79","html-slider-response","81","2104976","0.0-10.0-2.8","158","1","2025-07-02 10:22:04","80fe4187154257d5fb01684ea91b68b9","105.12.1.92","Mozilla/5.0 (Windows NT 10.0; Win64; x64) AppleWebKit/537.36 (KHTML, like Gecko) Chrome/137.0.0.0 Safari/537.36","WebKit","Chrome","137.0.0.0","Windows","10.0","https://app.prolific.com/","en-ZA,en-GB;q=0.9,en-US;q=0.8,en;q=0.7","6771ad00548b3a182d5f80e0","683db6dfa200031b80f2a654","68650787de883a7c167790a8","6771ad00548b3a182d5f80e0","2025-07-02T10:57:45.832Z","","","","","","ControlQ","","","","","","","","","","","","","","","","","","","","","","","","","","","","","","","","","","","","","","50",""
"2762","","<div style=""width:500px;"">
  <p>How would you describe your current emotional state?</p>
  </div>","50","html-slider-response","82","2107754","0.0-10.0-3.8","158","1","2025-07-02 10:22:04","80fe4187154257d5fb01684ea91b68b9","105.12.1.92","Mozilla/5.0 (Windows NT 10.0; Win64; x64) AppleWebKit/537.36 (KHTML, like Gecko) Chrome/137.0.0.0 Safari/537.36","WebKit","Chrome","137.0.0.0","Windows","10.0","https://app.prolific.com/","en-ZA,en-GB;q=0.9,en-US;q=0.8,en;q=0.7","6771ad00548b3a182d5f80e0","683db6dfa200031b80f2a654","68650787de883a7c167790a8","6771ad00548b3a182d5f80e0","2025-07-02T10:57:48.610Z","","","","","","StressQ","","","","","","","","","","","","","","","","","","","","","","","","","","","","","","","","","","","","","","50",""
"4373","","<div style=""width:500px;"">
  <p>What best describes how you currently feel?</p>
