"rt","response_timestamp","stimulus","response","trial_type","trial_index","time_elapsed","internal_node_id","run_id","condition","recorded_at","source_code_version","ip","user_agent","device","browser","browser_version","platform","platform_version","referer","accept_language","PROLIFIC_PID","STUDY_ID","SESSION_ID","prolific_id","realtime","view_history","question_order","consent","success","question_id","eventType","responses","item_order","radio_event_ids","radio_event_times","key_event_times","mouse_event_times","straightlining","zigzagging","honeypot","which_type","canvas_config","goals_layout","control_level","trial_number","tutorial_trial_number","trial_start_time","phase1_start_time","phase2_start_time","phase3_start_time","goal_1_value","goal_1_distance","goal_2_value","goal_2_distance","goal_selected","outcome","outcome_total","participant_final_score","participant_initial_score","participant_final_score_prop","goal_choice_rt","allocated_time","allocated_time_remaining","goal_direction","counts","mouse_movements","key_presses","correct","slider_start"
"3321","1751451922942","<p style='font-size:40px;line-height:1.25'><strong>Welcome to the experiment!</strong></p><p style='font-size:1.1em;line-height:1.25'>Thank you for your interest in our experiment! Before you begin, it is important that we obtain your informed consent to participate in the study.</p><p style='font-size:1.1em;line-height:1.25'>On the next screen will be an <strong>information sheet</strong> for you to read. To participate in the study we need you to read this information sheet and the following consent form carefully. If you agree with all the statements, please click the <strong>I agree</strong> button.</p><p style='font-size:1.1em;line-height:1.25'>Press <strong>Next</strong> to read the information sheet.</p>","0","custom-html-button-response","0","3329","0.0-0.0","185","1","2025-07-02 10:25:15","80fe4187154257d5fb01684ea91b68b9","105.1.249.166","Mozilla/5.0 (Windows NT 10.0; Win64; x64) AppleWebKit/537.36 (KHTML, like Gecko) Chrome/137.0.0.0 Safari/537.36","WebKit","Chrome","137.0.0.0","Windows","10.0","https://app.prolific.com/","en-US,en;q=0.9","6784c90859e5f785c2789c73","683db6dfa200031b80f2a654","6865076e9d4aa05445a3fc41","6784c90859e5f785c2789c73","2025-07-02T10:25:22.947Z","","","","","","","","","","","","","","","","","","","","","","","","","","","","","","","","","","","","","","","","","","","",""
"12099","","","","instructions","1","15434","0.0-1.0","185","1","2025-07-02 10:25:15","80fe4187154257d5fb01684ea91b68b9","105.1.249.166","Mozilla/5.0 (Windows NT 10.0; Win64; x64) AppleWebKit/537.36 (KHTML, like Gecko) Chrome/137.0.0.0 Safari/537.36","WebKit","Chrome","137.0.0.0","Windows","10.0","https://app.prolific.com/","en-US,en;q=0.9","6784c90859e5f785c2789c73","683db6dfa200031b80f2a654","6865076e9d4aa05445a3fc41","6784c90859e5f785c2789c73","","[{""page_index"":0,""viewing_time"":6869},{""page_index"":1,""viewing_time"":5227}]","","","","","","","","","","","","","","","","","","","","","","","","","","","","","","","","","","","","","","","","","","",""
"6963","","","{""Q0"":"""",""Q1"":"""",""Q2"":"""",""Q3"":"""",""Q4"":"""",""Q5"":"""",""Q6"":""I agree""}","survey-multi-choice","2","22408","0.0-2.0","185","1","2025-07-02 10:25:15","80fe4187154257d5fb01684ea91b68b9","105.1.249.166","Mozilla/5.0 (Windows NT 10.0; Win64; x64) AppleWebKit/537.36 (KHTML, like Gecko) Chrome/137.0.0.0 Safari/537.36","WebKit","Chrome","137.0.0.0","Windows","10.0","https://app.prolific.com/","en-US,en;q=0.9","6784c90859e5f785c2789c73","683db6dfa200031b80f2a654","6865076e9d4aa05445a3fc41","6784c90859e5f785c2789c73","","","[0,1,2,3,4,5,6]","true","","","","","","","","","","","","","","","","","","","","","","","","","","","","","","","","","","","","","","","","",""
"205008","","","","fullscreen","3","228439","0.0-4.0","185","1","2025-07-02 10:25:15","80fe4187154257d5fb01684ea91b68b9","105.1.249.166","Mozilla/5.0 (Windows NT 10.0; Win64; x64) AppleWebKit/537.36 (KHTML, like Gecko) Chrome/137.0.0.0 Safari/537.36","WebKit","Chrome","137.0.0.0","Windows","10.0","https://app.prolific.com/","en-US,en;q=0.9","6784c90859e5f785c2789c73","683db6dfa200031b80f2a654","6865076e9d4aa05445a3fc41","6784c90859e5f785c2789c73","","","","","true","","","","","","","","","","","","","","","","","","","","","","","","","","","","","","","","","","","","","","","",""
"2041","1751452150100"," <p style='font-size:1.1em;line-height:1.25'>Thank you for completing the consent form and closing all other tabs.</p><p style='font-size:1.1em;line-height:1.25'>We will now invite you to fill in some demographic information and questionnaires, before starting the game.<br>This will take about 5 minutes.<br></p><p style='font-size:1.1em;line-height:1.25'>Press the <strong>Next</strong> button to continue.</p>","0","custom-html-button-response","4","230484","0.0-5.0","185","1","2025-07-02 10:25:15","80fe4187154257d5fb01684ea91b68b9","105.1.249.166","Mozilla/5.0 (Windows NT 10.0; Win64; x64) AppleWebKit/537.36 (KHTML, like Gecko) Chrome/137.0.0.0 Safari/537.36","WebKit","Chrome","137.0.0.0","Windows","10.0","https://app.prolific.com/","en-US,en;q=0.9","6784c90859e5f785c2789c73","683db6dfa200031b80f2a654","6865076e9d4aa05445a3fc41","6784c90859e5f785c2789c73","2025-07-02T10:29:10.101Z","","","","","","","","","","","","","","","","","","","","","","","","","","","","","","","","","","","","","","","","","","","",""
"4422","","","{""age"":""33""}","survey-text","5","234918","0.0-6.0-0.0","185","1","2025-07-02 10:25:15","80fe4187154257d5fb01684ea91b68b9","105.1.249.166","Mozilla/5.0 (Windows NT 10.0; Win64; x64) AppleWebKit/537.36 (KHTML, like Gecko) Chrome/137.0.0.0 Safari/537.36","WebKit","Chrome","137.0.0.0","Windows","10.0","https://app.prolific.com/","en-US,en;q=0.9","6784c90859e5f785c2789c73","683db6dfa200031b80f2a654","6865076e9d4aa05445a3fc41","6784c90859e5f785c2789c73","","","","","","0","demographics","","","","","","","","","","","","","","","","","","","","","","","","","","","","","","","","","","","","","",""
"3584","","","{""gender_identity"":""male/man""}","survey-multi-choice","6","238515","0.0-6.0-1.0","185","1","2025-07-02 10:25:15","80fe4187154257d5fb01684ea91b68b9","105.1.249.166","Mozilla/5.0 (Windows NT 10.0; Win64; x64) AppleWebKit/537.36 (KHTML, like Gecko) Chrome/137.0.0.0 Safari/537.36","WebKit","Chrome","137.0.0.0","Windows","10.0","https://app.prolific.com/","en-US,en;q=0.9","6784c90859e5f785c2789c73","683db6dfa200031b80f2a654","6865076e9d4aa05445a3fc41","6784c90859e5f785c2789c73","","","[0]","","","1","demographics","","","","","","","","","","","","","","","","","","","","","","","","","","","","","","","","","","","","","",""
"4025","","","{""assigned_sex"":""male""}","survey-multi-choice","7","242545","0.0-6.0-2.0","185","1","2025-07-02 10:25:15","80fe4187154257d5fb01684ea91b68b9","105.1.249.166","Mozilla/5.0 (Windows NT 10.0; Win64; x64) AppleWebKit/537.36 (KHTML, like Gecko) Chrome/137.0.0.0 Safari/537.36","WebKit","Chrome","137.0.0.0","Windows","10.0","https://app.prolific.com/","en-US,en;q=0.9","6784c90859e5f785c2789c73","683db6dfa200031b80f2a654","6865076e9d4aa05445a3fc41","6784c90859e5f785c2789c73","","","[0]","","","2","demographics","","","","","","","","","","","","","","","","","","","","","","","","","","","","","","","","","","","","","",""
"6727","","","{""menstrual_cycle"":""No""}","survey-multi-choice","8","249275","0.0-6.0-3.0","185","1","2025-07-02 10:25:15","80fe4187154257d5fb01684ea91b68b9","105.1.249.166","Mozilla/5.0 (Windows NT 10.0; Win64; x64) AppleWebKit/537.36 (KHTML, like Gecko) Chrome/137.0.0.0 Safari/537.36","WebKit","Chrome","137.0.0.0","Windows","10.0","https://app.prolific.com/","en-US,en;q=0.9","6784c90859e5f785c2789c73","683db6dfa200031b80f2a654","6865076e9d4aa05445a3fc41","6784c90859e5f785c2789c73","","","[0]","","","4","demographics","","","","","","","","","","","","","","","","","","","","","","","","","","","","","","","","","","","","","",""
"7973","","","{""education"":""Master's Degree (e.g., MSc)""}","survey-multi-choice","9","257254","0.0-6.0-4.0","185","1","2025-07-02 10:25:15","80fe4187154257d5fb01684ea91b68b9","105.1.249.166","Mozilla/5.0 (Windows NT 10.0; Win64; x64) AppleWebKit/537.36 (KHTML, like Gecko) Chrome/137.0.0.0 Safari/537.36","WebKit","Chrome","137.0.0.0","Windows","10.0","https://app.prolific.com/","en-US,en;q=0.9","6784c90859e5f785c2789c73","683db6dfa200031b80f2a654","6865076e9d4aa05445a3fc41","6784c90859e5f785c2789c73","","","[0]","","","5","demographics","","","","","","","","","","","","","","","","","","","","","","","","","","","","","","","","","","","","","",""
"7689","","","{""education"":""Doctoral Degree (e.g., PhD)""}","survey-multi-choice","10","264950","0.0-6.0-5.0","185","1","2025-07-02 10:25:15","80fe4187154257d5fb01684ea91b68b9","105.1.249.166","Mozilla/5.0 (Windows NT 10.0; Win64; x64) AppleWebKit/537.36 (KHTML, like Gecko) Chrome/137.0.0.0 Safari/537.36","WebKit","Chrome","137.0.0.0","Windows","10.0","https://app.prolific.com/","en-US,en;q=0.9","6784c90859e5f785c2789c73","683db6dfa200031b80f2a654","6865076e9d4aa05445a3fc41","6784c90859e5f785c2789c73","2025-07-02T10:29:44.568Z","","[0]","","","6","demographics","","","","","","","","","","","","","","","","","","","","","","","","","","","","","","","","","","","","","",""
"31400","","","{""mental_health_condition"":""anxiety"",""mental_health_treatment"":""pills"",""psychiatric_medication"":""""}","survey-text","11","296386","0.0-7.0-0.0","185","1","2025-07-02 10:25:15","80fe4187154257d5fb01684ea91b68b9","105.1.249.166","Mozilla/5.0 (Windows NT 10.0; Win64; x64) AppleWebKit/537.36 (KHTML, like Gecko) Chrome/137.0.0.0 Safari/537.36","WebKit","Chrome","137.0.0.0","Windows","10.0","https://app.prolific.com/","en-US,en;q=0.9","6784c90859e5f785c2789c73","683db6dfa200031b80f2a654","6865076e9d4aa05445a3fc41","6784c90859e5f785c2789c73","2025-07-02T10:30:16.004Z","","","","","1","mental_health","","","","","","","","","","","","","","","","","","","","","","","","","","","","","","","","","","","","","",""
"6335","","","{""depression_history"":[""Yes""]}","survey-multi-select","12","302729","0.0-7.0-1.0","185","1","2025-07-02 10:25:15","80fe4187154257d5fb01684ea91b68b9","105.1.249.166","Mozilla/5.0 (Windows NT 10.0; Win64; x64) AppleWebKit/537.36 (KHTML, like Gecko) Chrome/137.0.0.0 Safari/537.36","WebKit","Chrome","137.0.0.0","Windows","10.0","https://app.prolific.com/","en-US,en;q=0.9","6784c90859e5f785c2789c73","683db6dfa200031b80f2a654","6865076e9d4aa05445a3fc41","6784c90859e5f785c2789c73","","","[0]","","","","mental_health","","","","","","","","","","","","","","","","","","","","","","","","","","","","","","","","","","","","","",""
"13040","","","{""depression_episodes"":""more than 5"",""depression_recent"":""Within the past year""}","survey-multi-choice","13","315775","0.0-7.0-2.0-0.0","185","1","2025-07-02 10:25:15","80fe4187154257d5fb01684ea91b68b9","105.1.249.166","Mozilla/5.0 (Windows NT 10.0; Win64; x64) AppleWebKit/537.36 (KHTML, like Gecko) Chrome/137.0.0.0 Safari/537.36","WebKit","Chrome","137.0.0.0","Windows","10.0","https://app.prolific.com/","en-US,en;q=0.9","6784c90859e5f785c2789c73","683db6dfa200031b80f2a654","6865076e9d4aa05445a3fc41","6784c90859e5f785c2789c73","2025-07-02T10:30:35.393Z","","[0,1]","","","3","mental_health","","","","","","","","","","","","","","","","","","","","","","","","","","","","","","","","","","","","","",""
"79419.69999999925","","","","survey-template","14","395213","0.0-7.0-3.0","185","1","2025-07-02 10:25:15","80fe4187154257d5fb01684ea91b68b9","105.1.249.166","Mozilla/5.0 (Windows NT 10.0; Win64; x64) AppleWebKit/537.36 (KHTML, like Gecko) Chrome/137.0.0.0 Safari/537.36","WebKit","Chrome","137.0.0.0","Windows","10.0","https://app.prolific.com/","en-US,en;q=0.9","6784c90859e5f785c2789c73","683db6dfa200031b80f2a654","6865076e9d4aa05445a3fc41","6784c90859e5f785c2789c73","2025-07-02T10:31:54.830Z","","","","","","ius","{""Q01"":""2"",""Q02"":""1"",""Q03"":""0"",""Q04"":""3"",""Q05"":""1"",""Q06"":""1"",""Q07"":""0"",""Q08"":""0"",""Q09"":""4"",""Q10"":""1"",""Q11"":""1"",""Q12"":""1"",""Q13"":""1""}","[0,1,2,3,4,5,6,7,8,9,10,11,12]","[""Q01"",""Q02"",""Q03"",""Q04"",""Q06"",""Q07"",""Q08"",""Q09"",""Q10"",""Q11"",""Q12"",""Q13"",""Q05""]","[7358,13156.400000000373,19802.5,27083.699999999255,32329,37742.5,42256.59999999963,48220.59999999963,57280.09999999963,58491.699999999255,62443.5,66571.59999999963,75020.90000000037]","[]","[205.7999999988824,7358,13156.400000000373,19802.5,23982.699999999255,27083.699999999255,28463.699999999255,32329,37742.5,40508.40000000037,42256.59999999963,46938.5,48220.59999999963,54167.40000000037,56047.29999999888,57280.09999999963,58491.699999999255,62443.5,66571.59999999963,67858.40000000037,73157.90000000037,75020.90000000037,79417]","0.5384615384615384","0.3333333333333333","0","","","","","","","","","","","","","","","","","","","","","","","","","","","","",""
"2805","1751452317637","<p style='font-size:1.1em;line-height:1.25'>In the following, we will ask you a few questions relating to your experiences over the past month.<br></p><p style='font-size:1.1em;line-height:1.25'>Press the <strong>Next</strong> button to continue.</p>","0","custom-html-button-response","15","398020","0.0-7.0-4.0","185","1","2025-07-02 10:25:15","80fe4187154257d5fb01684ea91b68b9","105.1.249.166","Mozilla/5.0 (Windows NT 10.0; Win64; x64) AppleWebKit/537.36 (KHTML, like Gecko) Chrome/137.0.0.0 Safari/537.36","WebKit","Chrome","137.0.0.0","Windows","10.0","https://app.prolific.com/","en-US,en;q=0.9","6784c90859e5f785c2789c73","683db6dfa200031b80f2a654","6865076e9d4aa05445a3fc41","6784c90859e5f785c2789c73","2025-07-02T10:31:57.638Z","","","","","","","","","","","","","","","","","","","","","","","","","","","","","","","","","","","","","","","","","","","",""
"103642","","","","survey-template","16","501666","0.0-7.0-5.0","185","1","2025-07-02 10:25:15","80fe4187154257d5fb01684ea91b68b9","105.1.249.166","Mozilla/5.0 (Windows NT 10.0; Win64; x64) AppleWebKit/537.36 (KHTML, like Gecko) Chrome/137.0.0.0 Safari/537.36","WebKit","Chrome","137.0.0.0","Windows","10.0","https://app.prolific.com/","en-US,en;q=0.9","6784c90859e5f785c2789c73","683db6dfa200031b80f2a654","6865076e9d4aa05445a3fc41","6784c90859e5f785c2789c73","2025-07-02T10:33:41.283Z","","","","","","pss","{""Q01"":""2"",""Q02"":""2"",""Q03"":""2"",""Q04"":""1"",""Q05"":""1"",""Q06"":""1"",""Q07"":""2"",""Q08"":""1"",""Q09"":""2"",""Q10"":""3""}","[0,1,2,3,4,5,6,7,8,9]","[""Q01"",""Q02"",""Q03"",""Q04"",""Q05"",""Q06"",""Q07"",""Q08"",""Q09"",""Q10""]","[31585.800000000745,38296.20000000112,40946,45459.5,49655,55421.20000000112,62100.800000000745,68948.80000000075,76227.90000000037,101263.5]","[]","[0.2000000011175871,31585.800000000745,33784.59999999963,38296.20000000112,40946,42562.800000000745,45459.5,49655,55421.20000000112,62100.800000000745,67350.09999999963,68948.80000000075,74544.80000000075,76227.90000000037,101263.5,103639.80000000075]","0.5","0.5555555555555556","0","","","","","","","","","","","","","","","","","","","","","","","","","","","","",""
"3715","1751452425000","<p style='font-size:1.1em;line-height:1.25'>Thank you for your answers! Now we will ask you a few more questions relating to your feelings in the last 24 hours.<br></p><p style='font-size:1.1em;line-height:1.25'>Press the <strong>Next</strong> button to continue.</p>","0","custom-html-button-response","17","505384","0.0-7.0-6.0","185","1","2025-07-02 10:25:15","80fe4187154257d5fb01684ea91b68b9","105.1.249.166","Mozilla/5.0 (Windows NT 10.0; Win64; x64) AppleWebKit/537.36 (KHTML, like Gecko) Chrome/137.0.0.0 Safari/537.36","WebKit","Chrome","137.0.0.0","Windows","10.0","https://app.prolific.com/","en-US,en;q=0.9","6784c90859e5f785c2789c73","683db6dfa200031b80f2a654","6865076e9d4aa05445a3fc41","6784c90859e5f785c2789c73","2025-07-02T10:33:45.001Z","","","","","","","","","","","","","","","","","","","","","","","","","","","","","","","","","","","","","","","","","","","",""
"87786.80000000075","","","","survey-template","18","593184","0.0-7.0-7.0","185","1","2025-07-02 10:25:15","80fe4187154257d5fb01684ea91b68b9","105.1.249.166","Mozilla/5.0 (Windows NT 10.0; Win64; x64) AppleWebKit/537.36 (KHTML, like Gecko) Chrome/137.0.0.0 Safari/537.36","WebKit","Chrome","137.0.0.0","Windows","10.0","https://app.prolific.com/","en-US,en;q=0.9","6784c90859e5f785c2789c73","683db6dfa200031b80f2a654","6865076e9d4aa05445a3fc41","6784c90859e5f785c2789c73","2025-07-02T10:35:12.801Z","","","","","","drsp","{""Q01"":""2"",""Q02"":""0"",""Q03"":""0"",""Q04"":""1"",""Q05"":""1"",""Q06"":""1"",""Q07"":""1"",""Q08"":""0"",""Q09"":""1"",""Q10"":""1"",""Q11"":""2"",""Q12"":""1"",""Q13"":""2"",""Q14"":""1"",""Q15"":""3"",""Q16"":""2"",""Q17"":""0"",""Q18"":""2"",""Q19"":""1"",""Q20"":""1"",""Q21"":""1""}","[0,1,2,3,4,5,6,7,8,9,10,11,12,13,14,15,16,17,18,19,20]","[""Q01"",""Q02"",""Q03"",""Q04"",""Q05"",""Q06"",""Q07"",""Q08"",""Q09"",""Q10"",""Q11"",""Q12"",""Q13"",""Q14"",""Q15"",""Q16"",""Q17"",""Q18"",""Q18"",""Q19"",""Q20"",""Q21""]","[3204.5,9981.199999999255,11243.800000000745,13428.300000000745,18859.800000000745,20044.5,21974.099999999627,26840.300000000745,33285.59999999963,36401.59999999963,40096.800000000745,48346.5,50294.199999999255,51744.09999999963,57489.199999999255,63204.40000000037,65636.80000000075,68335.69999999925,74198.09999999963,81393.19999999925,84142.69999999925,86173.40000000037]","[]","[0.40000000037252903,3204.5,5902.5999999996275,7430.300000000745,8881.400000000373,9981.199999999255,11243.800000000745,13428.300000000745,15561.300000000745,18859.800000000745,20044.5,21974.099999999627,24673.699999999255,26840.300000000745,33285.59999999963,35003.699999999255,36401.59999999963,40096.800000000745,47178.90000000037,48346.5,50294.199999999255,51744.09999999963,57489.199999999255,63204.40000000037,65636.80000000075,68335.69999999925,72847.59999999963,74198.09999999963,81393.19999999925,82626.19999999925,84142.69999999925,86173.40000000037,87773.5]","0.5238095238095238","0.45","0","","","","","","","","","","","","","","","","","","","","","","","","","","","","",""
"10927.800000000745","","","","survey-template","19","604117","0.0-7.0-8.0","185","1","2025-07-02 10:25:15","80fe4187154257d5fb01684ea91b68b9","105.1.249.166","Mozilla/5.0 (Windows NT 10.0; Win64; x64) AppleWebKit/537.36 (KHTML, like Gecko) Chrome/137.0.0.0 Safari/537.36","WebKit","Chrome","137.0.0.0","Windows","10.0","https://app.prolific.com/","en-US,en;q=0.9","6784c90859e5f785c2789c73","683db6dfa200031b80f2a654","6865076e9d4aa05445a3fc41","6784c90859e5f785c2789c73","2025-07-02T10:35:23.734Z","","","","","","stress","{""Q01"":""1"",""Q02"":""2"",""Q03"":""2""}","[0,1,2]","[""Q01"",""Q02"",""Q03""]","[3162.5,5928.9000000003725,9475]","[]","[3162.5,5928.9000000003725,9475,10925.099999999627]","0.3333333333333333","0.5","0","","","","","","","","","","","","","","","","","","","","","","","","","","","","",""
"248007","","","","instructions","20","852130","0.0-8.0-0.0","185","1","2025-07-02 10:25:15","80fe4187154257d5fb01684ea91b68b9","105.1.249.166","Mozilla/5.0 (Windows NT 10.0; Win64; x64) AppleWebKit/537.36 (KHTML, like Gecko) Chrome/137.0.0.0 Safari/537.36","WebKit","Chrome","137.0.0.0","Windows","10.0","https://app.prolific.com/","en-US,en;q=0.9","6784c90859e5f785c2789c73","683db6dfa200031b80f2a654","6865076e9d4aa05445a3fc41","6784c90859e5f785c2789c73","","[{""page_index"":0,""viewing_time"":30258},{""page_index"":1,""viewing_time"":186594},{""page_index"":2,""viewing_time"":13195},{""page_index"":3,""viewing_time"":17959}]","","","","","","","","","","","","","","","","","","","","","","","","","","","","","","","","","","","","","","","","","","",""
"","","","","ctl-task-cpt","21","878726","0.0-8.0-1.0","185","1","2025-07-02 10:25:15","80fe4187154257d5fb01684ea91b68b9","105.1.249.166","Mozilla/5.0 (Windows NT 10.0; Win64; x64) AppleWebKit/537.36 (KHTML, like Gecko) Chrome/137.0.0.0 Safari/537.36","WebKit","Chrome","137.0.0.0","Windows","10.0","https://app.prolific.com/","en-US,en;q=0.9","6784c90859e5f785c2789c73","683db6dfa200031b80f2a654","6865076e9d4aa05445a3fc41","6784c90859e5f785c2789c73","","","","","","","","","","","","","","","","","win-only","2","g1:SE,g2:NW","1","0","1","856386.4","2352.2","6359.7","23574.4","2","4","4","6","1","2","1","1","0","0.007575757575757576","4007.4","4000","1075","[""down"",""right""]","{""num_key_presses"":7,""num_perfect"":4,""num_errors"":1,""num_randdir"":0,""num_randdir_good_moves"":0,""num_whilered"":2,""num_whileblue"":0,""num_blue"":1,""num_good_moves"":4}","[301.22232142857143,297.12857142857143,3.8,301.22232142857143,297.12857142857143,107.4,301.22232142857143,297.12857142857143,207.4,301.22232142857143,297.12857142857143,307.4,301.22232142857143,297.12857142857143,409,301.22232142857143,297.12857142857143,509.5,301.22232142857143,297.12857142857143,614.2,301.22232142857143,297.12857142857143,714.2,301.22232142857143,297.12857142857143,814.3,301.22232142857143,297.12857142857143,914.4,301.22232142857143,297.12857142857143,1015,301.22232142857143,297.12857142857143,1123.7,306.22232142857143,299.12857142857143,1224.1,363.22232142857143,332.12857142857143,1324.5,367.22232142857143,335.12857142857143,1429,370.22232142857143,340.12857142857143,1534.9,370.22232142857143,342.12857142857143,1641,370.22232142857143,342.12857142857143,1743.8,370.22232142857143,342.12857142857143,1844.2,370.22232142857143,342.12857142857143,1948.9,370.22232142857143,342.12857142857143,2049.3,370.22232142857143,342.12857142857143,2149.4,370.22232142857143,342.12857142857143,2249.4,370.22232142857143,342.12857142857143,2356,370.22232142857143,342.12857142857143,2459.5,370.22232142857143,342.12857142857143,2564.2,370.22232142857143,342.12857142857143,2672.8,370.22232142857143,342.12857142857143,2772.9,370.22232142857143,342.12857142857143,2872.9,370.22232142857143,342.12857142857143,2972.9,370.22232142857143,342.12857142857143,3074.3,370.22232142857143,342.12857142857143,3184.6,370.22232142857143,342.12857142857143,3289.7,370.22232142857143,342.12857142857143,3394,370.22232142857143,342.12857142857143,3498.7,370.22232142857143,342.12857142857143,3598.8,370.22232142857143,342.12857142857143,3705.4,370.22232142857143,342.12857142857143,3809.3,370.22232142857143,342.12857142857143,3909.3]","[2462.8,2462.8,1000,0,1462.8,""smooth"",""down"",""down"",""good_move"",2698.2,234.4,2615.6,2463.9,-2381.2,""error"",""-"",""-"",""no_move"",2832,132.9,2615.6,2463.9,-2247.4,""while_red"",""-"",""-"",""no_move"",3100.4,401.2,2615.6,2463.9,-1979.1,""while_red"",""-"",""-"",""no_move"",10522.4,7823.2,2613,7416.4,493,""smooth"",""right"",""right"",""good_move"",13793.3,3270.1,2718.5,10523.2,551.6,""smooth"",""right"",""right"",""good_move"",17107.7,3313.6,2666.3,13794.2,647.2,""smooth"",""down"",""down"",""good_move""]","",""
"4411","","","","instructions","22","883138","0.0-8.0-2.0","185","1","2025-07-02 10:25:15","80fe4187154257d5fb01684ea91b68b9","105.1.249.166","Mozilla/5.0 (Windows NT 10.0; Win64; x64) AppleWebKit/537.36 (KHTML, like Gecko) Chrome/137.0.0.0 Safari/537.36","WebKit","Chrome","137.0.0.0","Windows","10.0","https://app.prolific.com/","en-US,en;q=0.9","6784c90859e5f785c2789c73","683db6dfa200031b80f2a654","6865076e9d4aa05445a3fc41","6784c90859e5f785c2789c73","","[{""page_index"":0,""viewing_time"":4410}]","","","","","","","","","","","","","","","","","","","","","","","","","","","","","","","","","","","","","","","","","","",""
"","","","","ctl-task-cpt","23","925780","0.0-8.0-3.0","185","1","2025-07-02 10:25:15","80fe4187154257d5fb01684ea91b68b9","105.1.249.166","Mozilla/5.0 (Windows NT 10.0; Win64; x64) AppleWebKit/537.36 (KHTML, like Gecko) Chrome/137.0.0.0 Safari/537.36","WebKit","Chrome","137.0.0.0","Windows","10.0","https://app.prolific.com/","en-US,en;q=0.9","6784c90859e5f785c2789c73","683db6dfa200031b80f2a654","6865076e9d4aa05445a3fc41","6784c90859e5f785c2789c73","","","","","","","","","","","","","","","","","win-only","2","g1:SE,g2:NW","0.35","0","3","887382.8","4807.2","8812.8","39631","2","4","8","6","1","2","2","2","0","0.015151515151515152","4005.6","4000","1020","[""down"",""right""]","{""num_key_presses"":8,""num_perfect"":4,""num_errors"":0,""num_randdir"":4,""num_randdir_good_moves"":2,""num_whilered"":0,""num_whileblue"":0,""num_blue"":2,""num_good_moves"":6}","[293.22232142857143,297.12857142857143,1.2,293.22232142857143,297.12857142857143,112.6,293.22232142857143,297.12857142857143,215.7,293.22232142857143,297.12857142857143,318.9,293.22232142857143,297.12857142857143,419.5,293.22232142857143,297.12857142857143,519.6,293.22232142857143,297.12857142857143,624.6,293.22232142857143,297.12857142857143,724.8,293.22232142857143,297.12857142857143,825,293.22232142857143,297.12857142857143,928.8,293.22232142857143,297.12857142857143,1029.3,293.22232142857143,297.12857142857143,1134.4,293.22232142857143,297.12857142857143,1243.1,293.22232142857143,297.12857142857143,1344.7,296.22232142857143,297.12857142857143,1444.8,306.22232142857143,298.12857142857143,1545.1,309.22232142857143,298.12857142857143,1663.1,309.22232142857143,296.12857142857143,1781.3,309.22232142857143,294.12857142857143,1883.7,309.22232142857143,294.12857142857143,1984.3,309.22232142857143,294.12857142857143,2096.2,317.22232142857143,296.12857142857143,2196.2,335.22232142857143,306.12857142857143,2313.2,337.22232142857143,308.12857142857143,2415.1,343.22232142857143,318.12857142857143,2515.1,344.22232142857143,331.12857142857143,2628.8,344.22232142857143,336.12857142857143,2734.9,346.22232142857143,340.12857142857143,2839.2,354.22232142857143,348.12857142857143,2939.3,354.22232142857143,348.12857142857143,3044.4,354.22232142857143,348.12857142857143,3144.6,354.22232142857143,348.12857142857143,3261.1,354.22232142857143,348.12857142857143,3361.4,354.22232142857143,348.12857142857143,3461.9,354.22232142857143,348.12857142857143,3562,354.22232142857143,348.12857142857143,3663.7,354.22232142857143,348.12857142857143,3764.4,354.22232142857143,348.12857142857143,3869.4,354.22232142857143,348.12857142857143,3970.8]","[4728.7,4728.7,2299.6,2004.4,424.7,""smooth"",""right"",""right"",""good_move"",7912,3182.2,2726.6,4729.8,455.6,""oops"",""right"",""right"",""good_move"",10359.8,2446.9,1889,7912.9,557.9,""smooth"",""down"",""down"",""good_move"",14055.6,3694.8,3301.2,10360.8,393.6,""oops"",""down"",""up"",""bad_move"",21236.7,7179.9,2531.3,18039.8,665.6,""oops"",""down"",""up"",""bad_move"",24204.2,2966.8,2363.8,21237.4,603,""oops"",""down"",""down"",""good_move"",27301.2,3095.9,2730.6,24205.3,365.3,""smooth"",""down"",""down"",""good_move"",30706.6,3404.1,3082.1,27302.5,322,""smooth"",""down"",""down"",""good_move""]","",""
"13176","","","","instructions","24","938958","0.0-8.0-4.0","185","1","2025-07-02 10:25:15","80fe4187154257d5fb01684ea91b68b9","105.1.249.166","Mozilla/5.0 (Windows NT 10.0; Win64; x64) AppleWebKit/537.36 (KHTML, like Gecko) Chrome/137.0.0.0 Safari/537.36","WebKit","Chrome","137.0.0.0","Windows","10.0","https://app.prolific.com/","en-US,en;q=0.9","6784c90859e5f785c2789c73","683db6dfa200031b80f2a654","6865076e9d4aa05445a3fc41","6784c90859e5f785c2789c73","","[{""page_index"":0,""viewing_time"":2547},{""page_index"":1,""viewing_time"":10629}]","","","","","","","","","","","","","","","","","","","","","","","","","","","","","","","","","","","","","","","","","","",""
"12533","","","{""green_ball"":[""Ball always moves in the direction I press""]}","survey-multi-select","25","951497","0.0-8.0-5.0-0.0","185","1","2025-07-02 10:25:15","80fe4187154257d5fb01684ea91b68b9","105.1.249.166","Mozilla/5.0 (Windows NT 10.0; Win64; x64) AppleWebKit/537.36 (KHTML, like Gecko) Chrome/137.0.0.0 Safari/537.36","WebKit","Chrome","137.0.0.0","Windows","10.0","https://app.prolific.com/","en-US,en;q=0.9","6784c90859e5f785c2789c73","683db6dfa200031b80f2a654","6865076e9d4aa05445a3fc41","6784c90859e5f785c2789c73","","","[0]","","","","quiz","","","","","","","","","","","","","","","","","","","","","","","","","","","","","","","","","","","","","false",""
"8686","","<p align='center'><b>INCORRECT.</b> Usually the green ball moves in the indicated direction, but sometimes it shakes and moves randomly. </p>","0","html-button-response","26","960188","0.0-8.0-5.0-1.0","185","1","2025-07-02 10:25:15","80fe4187154257d5fb01684ea91b68b9","105.1.249.166","Mozilla/5.0 (Windows NT 10.0; Win64; x64) AppleWebKit/537.36 (KHTML, like Gecko) Chrome/137.0.0.0 Safari/537.36","WebKit","Chrome","137.0.0.0","Windows","10.0","https://app.prolific.com/","en-US,en;q=0.9","6784c90859e5f785c2789c73","683db6dfa200031b80f2a654","6865076e9d4aa05445a3fc41","6784c90859e5f785c2789c73","","","","","","","","","","","","","","","","","","","","","","","","","","","","","","","","","","","","","","","","","","","","",""
"9826","","","{""green_ball"":[""Ball sometimes shakes and moves in a random direction""]}","survey-multi-select","27","970021","0.0-8.0-5.1-0.1","185","1","2025-07-02 10:25:15","80fe4187154257d5fb01684ea91b68b9","105.1.249.166","Mozilla/5.0 (Windows NT 10.0; Win64; x64) AppleWebKit/537.36 (KHTML, like Gecko) Chrome/137.0.0.0 Safari/537.36","WebKit","Chrome","137.0.0.0","Windows","10.0","https://app.prolific.com/","en-US,en;q=0.9","6784c90859e5f785c2789c73","683db6dfa200031b80f2a654","6865076e9d4aa05445a3fc41","6784c90859e5f785c2789c73","","","[0]","","","","quiz","","","","","","","","","","","","","","","","","","","","","","","","","","","","","","","","","","","","","true",""
"3731","","<p align='center'><b>CORRECT!</b> Indeed, the green ball may sometimes shake and move in a random direction.</p>","0","html-button-response","28","973755","0.0-8.0-5.1-1.1","185","1","2025-07-02 10:25:15","80fe4187154257d5fb01684ea91b68b9","105.1.249.166","Mozilla/5.0 (Windows NT 10.0; Win64; x64) AppleWebKit/537.36 (KHTML, like Gecko) Chrome/137.0.0.0 Safari/537.36","WebKit","Chrome","137.0.0.0","Windows","10.0","https://app.prolific.com/","en-US,en;q=0.9","6784c90859e5f785c2789c73","683db6dfa200031b80f2a654","6865076e9d4aa05445a3fc41","6784c90859e5f785c2789c73","","","","","","","","","","","","","","","","","","","","","","","","","","","","","","","","","","","","","","","","","","","","",""
"14020","","","{""yellow_ball"":[""Ball always shakes and moves in a random direction""]}","survey-multi-select","29","987778","0.0-8.0-6.0-0.0","185","1","2025-07-02 10:25:15","80fe4187154257d5fb01684ea91b68b9","105.1.249.166","Mozilla/5.0 (Windows NT 10.0; Win64; x64) AppleWebKit/537.36 (KHTML, like Gecko) Chrome/137.0.0.0 Safari/537.36","WebKit","Chrome","137.0.0.0","Windows","10.0","https://app.prolific.com/","en-US,en;q=0.9","6784c90859e5f785c2789c73","683db6dfa200031b80f2a654","6865076e9d4aa05445a3fc41","6784c90859e5f785c2789c73","","","[0]","","","","quiz","","","","","","","","","","","","","","","","","","","","","","","","","","","","","","","","","","","","","false",""
"4967","","<p align='center'><b>INCORRECT.</b> The yellow ball never moves and you reveice a penalty if you press anyways. </p>","0","html-button-response","30","992748","0.0-8.0-6.0-1.0","185","1","2025-07-02 10:25:15","80fe4187154257d5fb01684ea91b68b9","105.1.249.166","Mozilla/5.0 (Windows NT 10.0; Win64; x64) AppleWebKit/537.36 (KHTML, like Gecko) Chrome/137.0.0.0 Safari/537.36","WebKit","Chrome","137.0.0.0","Windows","10.0","https://app.prolific.com/","en-US,en;q=0.9","6784c90859e5f785c2789c73","683db6dfa200031b80f2a654","6865076e9d4aa05445a3fc41","6784c90859e5f785c2789c73","","","","","","","","","","","","","","","","","","","","","","","","","","","","","","","","","","","","","","","","","","","","",""
"3141","","","{""yellow_ball"":[""Ball doesn‘t move and I get -1 penalty point""]}","survey-multi-select","31","995893","0.0-8.0-6.1-0.1","185","1","2025-07-02 10:25:15","80fe4187154257d5fb01684ea91b68b9","105.1.249.166","Mozilla/5.0 (Windows NT 10.0; Win64; x64) AppleWebKit/537.36 (KHTML, like Gecko) Chrome/137.0.0.0 Safari/537.36","WebKit","Chrome","137.0.0.0","Windows","10.0","https://app.prolific.com/","en-US,en;q=0.9","6784c90859e5f785c2789c73","683db6dfa200031b80f2a654","6865076e9d4aa05445a3fc41","6784c90859e5f785c2789c73","","","[0]","","","","quiz","","","","","","","","","","","","","","","","","","","","","","","","","","","","","","","","","","","","","true",""
"1847","","<p align='center'><b>CORRECT!</b> Indeed, the yellow ball never moves and you receive a penalty.</p>","0","html-button-response","32","997742","0.0-8.0-6.1-1.1","185","1","2025-07-02 10:25:15","80fe4187154257d5fb01684ea91b68b9","105.1.249.166","Mozilla/5.0 (Windows NT 10.0; Win64; x64) AppleWebKit/537.36 (KHTML, like Gecko) Chrome/137.0.0.0 Safari/537.36","WebKit","Chrome","137.0.0.0","Windows","10.0","https://app.prolific.com/","en-US,en;q=0.9","6784c90859e5f785c2789c73","683db6dfa200031b80f2a654","6865076e9d4aa05445a3fc41","6784c90859e5f785c2789c73","","","","","","","","","","","","","","","","","","","","","","","","","","","","","","","","","","","","","","","","","","","","",""
"6562","","","{""blue_ball"":[""Ball always shakes and moves in a random direction""]}","survey-multi-select","33","1004307","0.0-8.0-7.0-0.0","185","1","2025-07-02 10:25:15","80fe4187154257d5fb01684ea91b68b9","105.1.249.166","Mozilla/5.0 (Windows NT 10.0; Win64; x64) AppleWebKit/537.36 (KHTML, like Gecko) Chrome/137.0.0.0 Safari/537.36","WebKit","Chrome","137.0.0.0","Windows","10.0","https://app.prolific.com/","en-US,en;q=0.9","6784c90859e5f785c2789c73","683db6dfa200031b80f2a654","6865076e9d4aa05445a3fc41","6784c90859e5f785c2789c73","","","[0]","","","","quiz","","","","","","","","","","","","","","","","","","","","","","","","","","","","","","","","","","","","","true",""
"2011","","<p align='center'><b>CORRECT!</b> Indeed, the blue ball always shakes and moves in a random direction. Also there is a penalty of -1 point.</p>","0","html-button-response","34","1006322","0.0-8.0-7.0-1.0","185","1","2025-07-02 10:25:15","80fe4187154257d5fb01684ea91b68b9","105.1.249.166","Mozilla/5.0 (Windows NT 10.0; Win64; x64) AppleWebKit/537.36 (KHTML, like Gecko) Chrome/137.0.0.0 Safari/537.36","WebKit","Chrome","137.0.0.0","Windows","10.0","https://app.prolific.com/","en-US,en;q=0.9","6784c90859e5f785c2789c73","683db6dfa200031b80f2a654","6865076e9d4aa05445a3fc41","6784c90859e5f785c2789c73","","","","","","","","","","","","","","","","","","","","","","","","","","","","","","","","","","","","","","","","","","","","",""
"8210","","","{""bonus"":[""When I reach 50% of points""]}","survey-multi-select","35","1014538","0.0-8.0-8.0-0.0","185","1","2025-07-02 10:25:15","80fe4187154257d5fb01684ea91b68b9","105.1.249.166","Mozilla/5.0 (Windows NT 10.0; Win64; x64) AppleWebKit/537.36 (KHTML, like Gecko) Chrome/137.0.0.0 Safari/537.36","WebKit","Chrome","137.0.0.0","Windows","10.0","https://app.prolific.com/","en-US,en;q=0.9","6784c90859e5f785c2789c73","683db6dfa200031b80f2a654","6865076e9d4aa05445a3fc41","6784c90859e5f785c2789c73","","","[0]","","","","quiz","","","","","","","","","","","","","","","","","","","","","","","","","","","","","","","","","","","","","true",""
"3463","","<p align='center'><b>CORRECT!</b> Indeed, you receive 2 pounds extra when you reach 50% of points.</p>","0","html-button-response","36","1018003","0.0-8.0-8.0-1.0","185","1","2025-07-02 10:25:15","80fe4187154257d5fb01684ea91b68b9","105.1.249.166","Mozilla/5.0 (Windows NT 10.0; Win64; x64) AppleWebKit/537.36 (KHTML, like Gecko) Chrome/137.0.0.0 Safari/537.36","WebKit","Chrome","137.0.0.0","Windows","10.0","https://app.prolific.com/","en-US,en;q=0.9","6784c90859e5f785c2789c73","683db6dfa200031b80f2a654","6865076e9d4aa05445a3fc41","6784c90859e5f785c2789c73","","","","","","","","","","","","","","","","","","","","","","","","","","","","","","","","","","","","","","","","","","","","",""
"7840","","","","instructions","37","1025845","0.0-8.0-9.0","185","1","2025-07-02 10:25:15","80fe4187154257d5fb01684ea91b68b9","105.1.249.166","Mozilla/5.0 (Windows NT 10.0; Win64; x64) AppleWebKit/537.36 (KHTML, like Gecko) Chrome/137.0.0.0 Safari/537.36","WebKit","Chrome","137.0.0.0","Windows","10.0","https://app.prolific.com/","en-US,en;q=0.9","6784c90859e5f785c2789c73","683db6dfa200031b80f2a654","6865076e9d4aa05445a3fc41","6784c90859e5f785c2789c73","","[{""page_index"":0,""viewing_time"":7839}]","","","","","","","","","","","","","","","","","","","","","","","","","","","","","","","","","","","","","","","","","","",""
"28435","","<p>Before you start with this game please answer the following three questions yourself. </p>
  <p>Through this game, we measure several aspects of your cognitive performance, such as reaction times, multi-tasking capabilities </p>
  <p>and the ability to assess the situation you are in.</p>
  <p></p>
  <p><b>How good do you usually are in such tasks?</b></p>","70","html-slider-response","38","1054284","0.0-9.0-0.0","185","1","2025-07-02 10:25:15","80fe4187154257d5fb01684ea91b68b9","105.1.249.166","Mozilla/5.0 (Windows NT 10.0; Win64; x64) AppleWebKit/537.36 (KHTML, like Gecko) Chrome/137.0.0.0 Safari/537.36","WebKit","Chrome","137.0.0.0","Windows","10.0","https://app.prolific.com/","en-US,en;q=0.9","6784c90859e5f785c2789c73","683db6dfa200031b80f2a654","6865076e9d4aa05445a3fc41","6784c90859e5f785c2789c73","2025-07-02T10:42:53.901Z","","","","","","PreSkillQ","","","","","","","","","","","","","","","","","","","","","","","","","","","","","","","","","","","","","","50"
"6176","","<div style=""width:500px;"">
  <p>How well do you think you will perform in this task compared to other participants?</p>
  </div>","71","html-slider-response","39","1060463","0.0-9.0-1.0","185","1","2025-07-02 10:25:15","80fe4187154257d5fb01684ea91b68b9","105.1.249.166","Mozilla/5.0 (Windows NT 10.0; Win64; x64) AppleWebKit/537.36 (KHTML, like Gecko) Chrome/137.0.0.0 Safari/537.36","WebKit","Chrome","137.0.0.0","Windows","10.0","https://app.prolific.com/","en-US,en;q=0.9","6784c90859e5f785c2789c73","683db6dfa200031b80f2a654","6865076e9d4aa05445a3fc41","6784c90859e5f785c2789c73","2025-07-02T10:43:00.080Z","","","","","","PrePerfQ","","","","","","","","","","","","","","","","","","","","","","","","","","","","","","","","","","","","","","50"
"5106","","<div style=""width:500px;"">
  <p>What best describes how you currently feel?</p>
  </div>","67","html-slider-response","40","1065571","0.0-9.0-2.0","185","1","2025-07-02 10:25:15","80fe4187154257d5fb01684ea91b68b9","105.1.249.166","Mozilla/5.0 (Windows NT 10.0; Win64; x64) AppleWebKit/537.36 (KHTML, like Gecko) Chrome/137.0.0.0 Safari/537.36","WebKit","Chrome","137.0.0.0","Windows","10.0","https://app.prolific.com/","en-US,en;q=0.9","6784c90859e5f785c2789c73","683db6dfa200031b80f2a654","6865076e9d4aa05445a3fc41","6784c90859e5f785c2789c73","2025-07-02T10:43:05.188Z","","","","","","PreMotivationQ","","","","","","","","","","","","","","","","","","","","","","","","","","","","","","","","","","","","","","50"
"","","","","ctl-task-cpt","41","1099777","0.0-10.0-0.0","185","1","2025-07-02 10:25:15","80fe4187154257d5fb01684ea91b68b9","105.1.249.166","Mozilla/5.0 (Windows NT 10.0; Win64; x64) AppleWebKit/537.36 (KHTML, like Gecko) Chrome/137.0.0.0 Safari/537.36","WebKit","Chrome","137.0.0.0","Windows","10.0","https://app.prolific.com/","en-US,en;q=0.9","6784c90859e5f785c2789c73","683db6dfa200031b80f2a654","6865076e9d4aa05445a3fc41","6784c90859e5f785c2789c73","2025-07-02T10:43:39.394Z","","","","","","","","","","","","","","","","win-only","0","g1:NW,g2:SE","1","1","0","1069817.6","2492.4","7508","31176.1","1","4","8","6","1","1","0","0","0","0","5015.6","3000","1585","[""left"",""up""]","{""num_key_presses"":6,""num_perfect"":5,""num_errors"":1,""num_randdir"":0,""num_randdir_good_moves"":0,""num_whilered"":0,""num_whileblue"":1,""num_blue"":3,""num_good_moves"":5}","[296.22232142857143,305.12857142857143,0.8,296.22232142857143,305.12857142857143,109.8,296.22232142857143,305.12857142857143,209.9,296.22232142857143,305.12857142857143,316,296.22232142857143,305.12857142857143,416.1,296.22232142857143,305.12857142857143,519.1,296.22232142857143,305.12857142857143,620.3,296.22232142857143,305.12857142857143,727,296.22232142857143,305.12857142857143,828.7,290.22232142857143,299.12857142857143,930.6,287.22232142857143,291.12857142857143,1043.8,287.22232142857143,291.12857142857143,1149.1,287.22232142857143,291.12857142857143,1260.5,295.22232142857143,301.12857142857143,1371.4,340.22232142857143,354.12857142857143,1478.7,345.22232142857143,363.12857142857143,1584.8,383.22232142857143,413.12857142857143,1688.6,383.22232142857143,413.12857142857143,1798.6,383.22232142857143,413.12857142857143,1899.5,509.22232142857143,502.12857142857143,2020.7,585.2223214285714,566.1285714285714,2125.3,594.2223214285714,581.1285714285714,2225.4,594.2223214285714,581.1285714285714,2333.7,594.2223214285714,581.1285714285714,2440.7,594.2223214285714,581.1285714285714,2544.6,594.2223214285714,581.1285714285714,2664,594.2223214285714,581.1285714285714,2766.9,594.2223214285714,581.1285714285714,2869,594.2223214285714,581.1285714285714,2973.9,594.2223214285714,581.1285714285714,3075,594.2223214285714,581.1285714285714,3181.2,594.2223214285714,581.1285714285714,3283.8,594.2223214285714,581.1285714285714,3383.8,594.2223214285714,581.1285714285714,3491.7,594.2223214285714,581.1285714285714,3598.4,566.2223214285714,518.1285714285714,3704.3,566.2223214285714,518.1285714285714,3805.1,374.22232142857143,417.12857142857143,3917.5,202.22232142857143,316.12857142857143,4030.4,202.22232142857143,316.12857142857143,4131.7,202.22232142857143,316.12857142857143,4232.2,202.22232142857143,316.12857142857143,4334.2,202.22232142857143,316.12857142857143,4439.1,202.22232142857143,316.12857142857143,4543.2,202.22232142857143,316.12857142857143,4647.9,202.22232142857143,316.12857142857143,4756.1,214.22232142857143,279.12857142857143,4859.8,238.22232142857143,224.12857142857143,4970.9]","[5048.4,5048.4,2714.5,2003.3,330.6,""smooth"",""up"",""up"",""good_move"",11551.7,6502,3166,8023,362.7,""smooth"",""left"",""left"",""good_move"",14849.5,3296.9,2888.3,11552.7,408.6,""smooth"",""up"",""up"",""good_move"",17661.7,2810.9,2462.7,14850.8,348.2,""while_blue"",""left"",""right"",""bad_move"",20646.6,2983.7,2539.8,17663,443.8,""smooth"",""left"",""left"",""good_move"",23542.4,2895.3,2454.9,20647.3,440.3,""smooth"",""left"",""left"",""good_move""]","",""
"6973","","<div style=""width:500px;"">
  <p>What determined the result of this run?</p>
  </div>","100","html-slider-response","42","1106752","0.0-10.0-1.0","185","1","2025-07-02 10:25:15","80fe4187154257d5fb01684ea91b68b9","105.1.249.166","Mozilla/5.0 (Windows NT 10.0; Win64; x64) AppleWebKit/537.36 (KHTML, like Gecko) Chrome/137.0.0.0 Safari/537.36","WebKit","Chrome","137.0.0.0","Windows","10.0","https://app.prolific.com/","en-US,en;q=0.9","6784c90859e5f785c2789c73","683db6dfa200031b80f2a654","6865076e9d4aa05445a3fc41","6784c90859e5f785c2789c73","2025-07-02T10:43:46.370Z","","","","","","AttribQ","","","","","","","","","","","","","","","","","","","","","","","","","","","","","","","","","","","","","","50"
"4201","","<div style=""width:500px;"">
  <p>How much control did you have over the ball?</p>
  </div>","100","html-slider-response","43","1110957","0.0-10.0-2.0","185","1","2025-07-02 10:25:15","80fe4187154257d5fb01684ea91b68b9","105.1.249.166","Mozilla/5.0 (Windows NT 10.0; Win64; x64) AppleWebKit/537.36 (KHTML, like Gecko) Chrome/137.0.0.0 Safari/537.36","WebKit","Chrome","137.0.0.0","Windows","10.0","https://app.prolific.com/","en-US,en;q=0.9","6784c90859e5f785c2789c73","683db6dfa200031b80f2a654","6865076e9d4aa05445a3fc41","6784c90859e5f785c2789c73","2025-07-02T10:43:50.575Z","","","","","","ControlQ","","","","","","","","","","","","","","","","","","","","","","","","","","","","","","","","","","","","","","50"
"5166","","<div style=""width:500px;"">
  <p>How would you describe your current emotional state?</p>
  </div>","15","html-slider-response","44","1116127","0.0-10.0-3.0","185","1","2025-07-02 10:25:15","80fe4187154257d5fb01684ea91b68b9","105.1.249.166","Mozilla/5.0 (Windows NT 10.0; Win64; x64) AppleWebKit/537.36 (KHTML, like Gecko) Chrome/137.0.0.0 Safari/537.36","WebKit","Chrome","137.0.0.0","Windows","10.0","https://app.prolific.com/","en-US,en;q=0.9","6784c90859e5f785c2789c73","683db6dfa200031b80f2a654","6865076e9d4aa05445a3fc41","6784c90859e5f785c2789c73","2025-07-02T10:43:55.744Z","","","","","","StressQ","","","","","","","","","","","","","","","","","","","","","","","","","","","","","","","","","","","","","","50"
"5096","","<div style=""width:500px;"">
  <p>What best describes how you currently feel?</p>
  </div>","89","html-slider-response","45","1121225","0.0-10.0-4.0","185","1","2025-07-02 10:25:15","80fe4187154257d5fb01684ea91b68b9","105.1.249.166","Mozilla/5.0 (Windows NT 10.0; Win64; x64) AppleWebKit/537.36 (KHTML, like Gecko) Chrome/137.0.0.0 Safari/537.36","WebKit","Chrome","137.0.0.0","Windows","10.0","https://app.prolific.com/","en-US,en;q=0.9","6784c90859e5f785c2789c73","683db6dfa200031b80f2a654","6865076e9d4aa05445a3fc41","6784c90859e5f785c2789c73","2025-07-02T10:44:00.842Z","","","","","","MotivationQ","","","","","","","","","","","","","","","","","","","","","","","","","","","","","","","","","","","","","","50"
"","","","","ctl-task-cpt","46","1149075","0.0-10.0-0.1","185","1","2025-07-02 10:25:15","80fe4187154257d5fb01684ea91b68b9","105.1.249.166","Mozilla/5.0 (Windows NT 10.0; Win64; x64) AppleWebKit/537.36 (KHTML, like Gecko) Chrome/137.0.0.0 Safari/537.36","WebKit","Chrome","137.0.0.0","Windows","10.0","https://app.prolific.com/","en-US,en;q=0.9","6784c90859e5f785c2789c73","683db6dfa200031b80f2a654","6865076e9d4aa05445a3fc41","6784c90859e5f785c2789c73","2025-07-02T10:44:28.692Z","","","","","","","","","","","","","","","","win-only","1","g1:NE,g2:SW","0.9","2","0","1125472.8","4511.2","9521.1","24832.3","1","4","4","6","1","1","1","1","0","0.007575757575757576","4332.7","3000","1730","[""up"",""right""]","{""num_key_presses"":4,""num_perfect"":3,""num_errors"":0,""num_randdir"":1,""num_randdir_good_moves"":1,""num_whilered"":0,""num_whileblue"":0,""num_blue"":1,""num_good_moves"":4}","[294.22232142857143,297.12857142857143,0.9,294.22232142857143,297.12857142857143,102.3,294.22232142857143,297.12857142857143,202.6,294.22232142857143,297.12857142857143,305.6,294.22232142857143,297.12857142857143,430.4,294.22232142857143,297.12857142857143,549.8,294.22232142857143,297.12857142857143,663.4,294.22232142857143,294.12857142857143,764.9,358.22232142857143,200.12857142857143,872.2,362.22232142857143,195.12857142857143,1005.1,362.22232142857143,195.12857142857143,1119.6,353.22232142857143,209.12857142857143,1298.4,348.22232142857143,212.12857142857143,1402.6,336.22232142857143,230.12857142857143,1502.6,336.22232142857143,233.12857142857143,1602.6,336.22232142857143,233.12857142857143,1704.6,336.22232142857143,233.12857142857143,1825.8,336.22232142857143,233.12857142857143,1932.3,336.22232142857143,233.12857142857143,2037.2,453.22232142857143,130.12857142857143,2151.2,545.2223214285714,49.128571428571426,2290.4,545.2223214285714,49.128571428571426,2394.4,545.2223214285714,49.128571428571426,2496.8,545.2223214285714,49.128571428571426,2603.6,545.2223214285714,49.128571428571426,2711,545.2223214285714,49.128571428571426,2813.7,545.2223214285714,49.128571428571426,2943.9,545.2223214285714,49.128571428571426,3044.3,545.2223214285714,49.128571428571426,3150.5,545.2223214285714,49.128571428571426,3255.1,545.2223214285714,49.128571428571426,3357.4,545.2223214285714,49.128571428571426,3461.6,545.2223214285714,49.128571428571426,3566.4,545.2223214285714,49.128571428571426,3666.8,545.2223214285714,49.128571428571426,3770,545.2223214285714,49.128571428571426,3879.1,545.2223214285714,49.128571428571426,3983.9,545.2223214285714,49.128571428571426,4085.9,545.2223214285714,49.128571428571426,4186.1,545.2223214285714,49.128571428571426,4291.4,545.2223214285714,49.128571428571426,4402.1,545.2223214285714,49.128571428571426,4507,545.2223214285714,49.128571428571426,4607.2,545.2223214285714,49.128571428571426,4707.3,545.2223214285714,49.128571428571426,4826.6,545.2223214285714,49.128571428571426,4931.2]","[1791.2,1791.2,1000,0,791.2,""smooth"",""right"",""right"",""good_move"",8223.2,6430.9,2592.6,5063,567.6,""smooth"",""up"",""up"",""good_move"",11385.4,3159.6,2720.9,8225.8,438.7,""oops"",""up"",""up"",""good_move"",15157.2,3770.7,3353.2,11386.5,417.6,""smooth"",""right"",""right"",""good_move""]","",""
"19425","","<div style=""width:500px;"">
  <p>What determined the result of this run?</p>
  </div>","100","html-slider-response","47","1168502","0.0-10.0-1.1","185","1","2025-07-02 10:25:15","80fe4187154257d5fb01684ea91b68b9","105.1.249.166","Mozilla/5.0 (Windows NT 10.0; Win64; x64) AppleWebKit/537.36 (KHTML, like Gecko) Chrome/137.0.0.0 Safari/537.36","WebKit","Chrome","137.0.0.0","Windows","10.0","https://app.prolific.com/","en-US,en;q=0.9","6784c90859e5f785c2789c73","683db6dfa200031b80f2a654","6865076e9d4aa05445a3fc41","6784c90859e5f785c2789c73","2025-07-02T10:44:48.119Z","","","","","","AttribQ","","","","","","","","","","","","","","","","","","","","","","","","","","","","","","","","","","","","","","50"
"4461","","<div style=""width:500px;"">
  <p>How much control did you have over the ball?</p>
  </div>","100","html-slider-response","48","1172967","0.0-10.0-2.1","185","1","2025-07-02 10:25:15","80fe4187154257d5fb01684ea91b68b9","105.1.249.166","Mozilla/5.0 (Windows NT 10.0; Win64; x64) AppleWebKit/537.36 (KHTML, like Gecko) Chrome/137.0.0.0 Safari/537.36","WebKit","Chrome","137.0.0.0","Windows","10.0","https://app.prolific.com/","en-US,en;q=0.9","6784c90859e5f785c2789c73","683db6dfa200031b80f2a654","6865076e9d4aa05445a3fc41","6784c90859e5f785c2789c73","2025-07-02T10:44:52.584Z","","","","","","ControlQ","","","","","","","","","","","","","","","","","","","","","","","","","","","","","","","","","","","","","","50"
"3752","","<div style=""width:500px;"">
  <p>How would you describe your current emotional state?</p>
  </div>","0","html-slider-response","49","1176722","0.0-10.0-3.1","185","1","2025-07-02 10:25:15","80fe4187154257d5fb01684ea91b68b9","105.1.249.166","Mozilla/5.0 (Windows NT 10.0; Win64; x64) AppleWebKit/537.36 (KHTML, like Gecko) Chrome/137.0.0.0 Safari/537.36","WebKit","Chrome","137.0.0.0","Windows","10.0","https://app.prolific.com/","en-US,en;q=0.9","6784c90859e5f785c2789c73","683db6dfa200031b80f2a654","6865076e9d4aa05445a3fc41","6784c90859e5f785c2789c73","2025-07-02T10:44:56.340Z","","","","","","StressQ","","","","","","","","","","","","","","","","","","","","","","","","","","","","","","","","","","","","","","50"
"4501","","<div style=""width:500px;"">
  <p>What best describes how you currently feel?</p>
  </div>","100","html-slider-response","50","1181227","0.0-10.0-4.1","185","1","2025-07-02 10:25:15","80fe4187154257d5fb01684ea91b68b9","105.1.249.166","Mozilla/5.0 (Windows NT 10.0; Win64; x64) AppleWebKit/537.36 (KHTML, like Gecko) Chrome/137.0.0.0 Safari/537.36","WebKit","Chrome","137.0.0.0","Windows","10.0","https://app.prolific.com/","en-US,en;q=0.9","6784c90859e5f785c2789c73","683db6dfa200031b80f2a654","6865076e9d4aa05445a3fc41","6784c90859e5f785c2789c73","2025-07-02T10:45:00.844Z","","","","","","MotivationQ","","","","","","","","","","","","","","","","","","","","","","","","","","","","","","","","","","","","","","50"
"","","","","ctl-task-cpt","51","1207692","0.0-10.0-0.2","185","1","2025-07-02 10:25:15","80fe4187154257d5fb01684ea91b68b9","105.1.249.166","Mozilla/5.0 (Windows NT 10.0; Win64; x64) AppleWebKit/537.36 (KHTML, like Gecko) Chrome/137.0.0.0 Safari/537.36","WebKit","Chrome","137.0.0.0","Windows","10.0","https://app.prolific.com/","en-US,en;q=0.9","6784c90859e5f785c2789c73","683db6dfa200031b80f2a654","6865076e9d4aa05445a3fc41","6784c90859e5f785c2789c73","2025-07-02T10:45:27.309Z","","","","","","","","","","","","","","","","win-only","3","g1:SW,g2:NE","0.8","3","0","1185475.9","1971.5","6976.4","23426.5","1","4","4","6","1","1","1","2","1","0.015151515151515152","2020.8","3000","970","[""down"",""left""]","{""num_key_presses"":6,""num_perfect"":5,""num_errors"":0,""num_randdir"":1,""num_randdir_good_moves"":0,""num_whilered"":0,""num_whileblue"":0,""num_blue"":0,""num_good_moves"":5}","[294.22232142857143,294.12857142857143,0.8,294.22232142857143,294.12857142857143,100.6,294.22232142857143,294.12857142857143,200.6,294.22232142857143,294.12857142857143,304.5,294.22232142857143,294.12857142857143,404.5,294.22232142857143,294.12857142857143,510.3,304.22232142857143,274.12857142857143,635.1,321.22232142857143,254.12857142857143,742.7,274.22232142857143,352.12857142857143,845.9,243.22232142857143,403.12857142857143,947.7,242.22232142857143,403.12857142857143,1050.8,242.22232142857143,403.12857142857143,1157.4,161.22232142857143,452.12857142857143,1272.6,159.22232142857143,453.12857142857143,1374.6,159.22232142857143,453.12857142857143,1497.5,75.22232142857143,508.12857142857143,1600.2,58.222321428571426,523.1285714285714,1702.6,58.222321428571426,523.1285714285714,1815.6,58.222321428571426,523.1285714285714,1916.4,58.222321428571426,523.1285714285714,2032.7,58.222321428571426,523.1285714285714,2135,58.222321428571426,523.1285714285714,2246.9,58.222321428571426,523.1285714285714,2363.5,58.222321428571426,523.1285714285714,2466.2,102.22232142857143,479.12857142857143,2569.6,115.22232142857143,467.12857142857143,2672.2,115.22232142857143,467.12857142857143,2774.9,115.22232142857143,467.12857142857143,2890.8,115.22232142857143,467.12857142857143,2994.6,115.22232142857143,467.12857142857143,3096.9,115.22232142857143,467.12857142857143,3223.9,115.22232142857143,467.12857142857143,3325,115.22232142857143,467.12857142857143,3425.2,115.22232142857143,467.12857142857143,3537.2,115.22232142857143,467.12857142857143,3640.5,115.22232142857143,467.12857142857143,3750.7,115.22232142857143,467.12857142857143,3855.5,115.22232142857143,467.12857142857143,3982.9,115.22232142857143,467.12857142857143,4085.6,115.22232142857143,467.12857142857143,4190.5,115.22232142857143,467.12857142857143,4295.5,115.22232142857143,467.12857142857143,4397.5,115.22232142857143,467.12857142857143,4506.9,115.22232142857143,467.12857142857143,4610.4,115.22232142857143,467.12857142857143,4716.2,115.22232142857143,467.12857142857143,4818.1,115.22232142857143,467.12857142857143,4919.4]","[1619.2,1619.2,1000,0,619.2,""smooth"",""left"",""left"",""good_move"",4421.6,2801.2,2102.9,1620.5,698.3,""smooth"",""down"",""down"",""good_move"",7537.8,3112.1,2623.2,4425.7,488.9,""smooth"",""down"",""down"",""good_move"",10525.3,2986.4,2495.6,7539,490.8,""oops"",""left"",""right"",""bad_move"",13406.9,2878.5,2305.9,10528.4,572.6,""smooth"",""left"",""left"",""good_move"",16316,2908.4,2331.8,13407.7,576.5,""smooth"",""left"",""left"",""good_move""]","",""
"4023","","<div style=""width:500px;"">
  <p>What determined the result of this run?</p>
  </div>","100","html-slider-response","52","1211717","0.0-10.0-1.2","185","1","2025-07-02 10:25:15","80fe4187154257d5fb01684ea91b68b9","105.1.249.166","Mozilla/5.0 (Windows NT 10.0; Win64; x64) AppleWebKit/537.36 (KHTML, like Gecko) Chrome/137.0.0.0 Safari/537.36","WebKit","Chrome","137.0.0.0","Windows","10.0","https://app.prolific.com/","en-US,en;q=0.9","6784c90859e5f785c2789c73","683db6dfa200031b80f2a654","6865076e9d4aa05445a3fc41","6784c90859e5f785c2789c73","2025-07-02T10:45:31.334Z","","","","","","AttribQ","","","","","","","","","","","","","","","","","","","","","","","","","","","","","","","","","","","","","","50"
"5683","","<div style=""width:500px;"">
  <p>How much control did you have over the ball?</p>
  </div>","100","html-slider-response","53","1217405","0.0-10.0-2.2","185","1","2025-07-02 10:25:15","80fe4187154257d5fb01684ea91b68b9","105.1.249.166","Mozilla/5.0 (Windows NT 10.0; Win64; x64) AppleWebKit/537.36 (KHTML, like Gecko) Chrome/137.0.0.0 Safari/537.36","WebKit","Chrome","137.0.0.0","Windows","10.0","https://app.prolific.com/","en-US,en;q=0.9","6784c90859e5f785c2789c73","683db6dfa200031b80f2a654","6865076e9d4aa05445a3fc41","6784c90859e5f785c2789c73","2025-07-02T10:45:37.022Z","","","","","","ControlQ","","","","","","","","","","","","","","","","","","","","","","","","","","","","","","","","","","","","","","50"
"5616","","<div style=""width:500px;"">
  <p>How would you describe your current emotional state?</p>
  </div>","3","html-slider-response","54","1223024","0.0-10.0-3.2","185","1","2025-07-02 10:25:15","80fe4187154257d5fb01684ea91b68b9","105.1.249.166","Mozilla/5.0 (Windows NT 10.0; Win64; x64) AppleWebKit/537.36 (KHTML, like Gecko) Chrome/137.0.0.0 Safari/537.36","WebKit","Chrome","137.0.0.0","Windows","10.0","https://app.prolific.com/","en-US,en;q=0.9","6784c90859e5f785c2789c73","683db6dfa200031b80f2a654","6865076e9d4aa05445a3fc41","6784c90859e5f785c2789c73","2025-07-02T10:45:42.641Z","","","","","","StressQ","","","","","","","","","","","","","","","","","","","","","","","","","","","","","","","","","","","","","","50"
"5186","","<div style=""width:500px;"">
  <p>What best describes how you currently feel?</p>
  </div>","100","html-slider-response","55","1228212","0.0-10.0-4.2","185","1","2025-07-02 10:25:15","80fe4187154257d5fb01684ea91b68b9","105.1.249.166","Mozilla/5.0 (Windows NT 10.0; Win64; x64) AppleWebKit/537.36 (KHTML, like Gecko) Chrome/137.0.0.0 Safari/537.36","WebKit","Chrome","137.0.0.0","Windows","10.0","https://app.prolific.com/","en-US,en;q=0.9","6784c90859e5f785c2789c73","683db6dfa200031b80f2a654","6865076e9d4aa05445a3fc41","6784c90859e5f785c2789c73","2025-07-02T10:45:47.829Z","","","","","","MotivationQ","","","","","","","","","","","","","","","","","","","","","","","","","","","","","","","","","","","","","","50"
"","","","","ctl-task-cpt","56","1253649","0.0-10.0-0.3","185","1","2025-07-02 10:25:15","80fe4187154257d5fb01684ea91b68b9","105.1.249.166","Mozilla/5.0 (Windows NT 10.0; Win64; x64) AppleWebKit/537.36 (KHTML, like Gecko) Chrome/137.0.0.0 Safari/537.36","WebKit","Chrome","137.0.0.0","Windows","10.0","https://app.prolific.com/","en-US,en;q=0.9","6784c90859e5f785c2789c73","683db6dfa200031b80f2a654","6865076e9d4aa05445a3fc41","6784c90859e5f785c2789c73","2025-07-02T10:46:13.266Z","","","","","","","","","","","","","","","","win-only","0","g1:NW,g2:SE","0.7","4","0","1232459.8","3011.3","8012.3","22411.4","1","4","8","6","1","1","1","3","2","0.022727272727272728","2547.8","3000","1845","[""left"",""up""]","{""num_key_presses"":4,""num_perfect"":3,""num_errors"":0,""num_randdir"":1,""num_randdir_good_moves"":1,""num_whilered"":0,""num_whileblue"":0,""num_blue"":1,""num_good_moves"":4}","[294.22232142857143,300.12857142857143,0.9,294.22232142857143,300.12857142857143,122.8,294.22232142857143,300.12857142857143,226.4,294.22232142857143,300.12857142857143,330.5,294.22232142857143,300.12857142857143,450.6,294.22232142857143,300.12857142857143,551,294.22232142857143,300.12857142857143,677.2,294.22232142857143,300.12857142857143,782.9,294.22232142857143,300.12857142857143,886.6,317.22232142857143,318.12857142857143,987.6,438.22232142857143,474.12857142857143,1108.8,438.22232142857143,474.12857142857143,1215.6,438.22232142857143,474.12857142857143,1333.2,482.22232142857143,503.12857142857143,1437.5,471.22232142857143,496.12857142857143,1543.5,193.22232142857143,250.12857142857143,1654.1,175.22232142857143,230.12857142857143,1754.1,175.22232142857143,230.12857142857143,1854.9,122.22232142857143,156.12857142857143,1984,62.222321428571426,67.12857142857143,2087.9,62.222321428571426,64.12857142857143,2190.3,62.222321428571426,64.12857142857143,2298.5,62.222321428571426,64.12857142857143,2402.9,62.222321428571426,64.12857142857143,2506.6,62.222321428571426,64.12857142857143,2610.9,62.222321428571426,64.12857142857143,2717.3,62.222321428571426,64.12857142857143,2835.5,62.222321428571426,64.12857142857143,2936.5,62.222321428571426,64.12857142857143,3040.2,62.222321428571426,64.12857142857143,3146.4,62.222321428571426,64.12857142857143,3256.8,62.222321428571426,64.12857142857143,3359.5,62.222321428571426,64.12857142857143,3480.8,62.222321428571426,64.12857142857143,3584.3,62.222321428571426,64.12857142857143,3686.4,62.222321428571426,64.12857142857143,3787.3,62.222321428571426,64.12857142857143,3890.6,62.222321428571426,64.12857142857143,3995.6,62.222321428571426,64.12857142857143,4095.8,62.222321428571426,64.12857142857143,4200.8,62.222321428571426,64.12857142857143,4302.6,62.222321428571426,64.12857142857143,4406.2,62.222321428571426,64.12857142857143,4511.5,62.222321428571426,64.12857142857143,4635.4,62.222321428571426,64.12857142857143,4737.7,62.222321428571426,64.12857142857143,4840.2,62.222321428571426,64.12857142857143,4941.3]","[1727.8,1727.8,1000,0,727.8,""smooth"",""left"",""left"",""good_move"",4300.9,2571.6,1930,1729.3,641.6,""smooth"",""up"",""up"",""good_move"",10840.1,6537.9,2788.5,7660.8,390.8,""smooth"",""left"",""left"",""good_move"",14238.6,3397.7,2840.7,10840.9,557,""oops"",""up"",""up"",""good_move""]","",""
"5335","","<div style=""width:500px;"">
  <p>What determined the result of this run?</p>
  </div>","100","html-slider-response","57","1258987","0.0-10.0-1.3","185","1","2025-07-02 10:25:15","80fe4187154257d5fb01684ea91b68b9","105.1.249.166","Mozilla/5.0 (Windows NT 10.0; Win64; x64) AppleWebKit/537.36 (KHTML, like Gecko) Chrome/137.0.0.0 Safari/537.36","WebKit","Chrome","137.0.0.0","Windows","10.0","https://app.prolific.com/","en-US,en;q=0.9","6784c90859e5f785c2789c73","683db6dfa200031b80f2a654","6865076e9d4aa05445a3fc41","6784c90859e5f785c2789c73","2025-07-02T10:46:18.605Z","","","","","","AttribQ","","","","","","","","","","","","","","","","","","","","","","","","","","","","","","","","","","","","","","50"
"7595","","<div style=""width:500px;"">
  <p>How much control did you have over the ball?</p>
  </div>","100","html-slider-response","58","1266587","0.0-10.0-2.3","185","1","2025-07-02 10:25:15","80fe4187154257d5fb01684ea91b68b9","105.1.249.166","Mozilla/5.0 (Windows NT 10.0; Win64; x64) AppleWebKit/537.36 (KHTML, like Gecko) Chrome/137.0.0.0 Safari/537.36","WebKit","Chrome","137.0.0.0","Windows","10.0","https://app.prolific.com/","en-US,en;q=0.9","6784c90859e5f785c2789c73","683db6dfa200031b80f2a654","6865076e9d4aa05445a3fc41","6784c90859e5f785c2789c73","2025-07-02T10:46:26.204Z","","","","","","ControlQ","","","","","","","","","","","","","","","","","","","","","","","","","","","","","","","","","","","","","","50"
"22278","","<div style=""width:500px;"">
  <p>How would you describe your current emotional state?</p>
  </div>","0","html-slider-response","59","1288870","0.0-10.0-3.3","185","1","2025-07-02 10:25:15","80fe4187154257d5fb01684ea91b68b9","105.1.249.166","Mozilla/5.0 (Windows NT 10.0; Win64; x64) AppleWebKit/537.36 (KHTML, like Gecko) Chrome/137.0.0.0 Safari/537.36","WebKit","Chrome","137.0.0.0","Windows","10.0","https://app.prolific.com/","en-US,en;q=0.9","6784c90859e5f785c2789c73","683db6dfa200031b80f2a654","6865076e9d4aa05445a3fc41","6784c90859e5f785c2789c73","2025-07-02T10:46:48.487Z","","","","","","StressQ","","","","","","","","","","","","","","","","","","","","","","","","","","","","","","","","","","","","","","50"
"19375","","<div style=""width:500px;"">
  <p>What best describes how you currently feel?</p>
  </div>","100","html-slider-response","60","1308252","0.0-10.0-4.3","185","1","2025-07-02 10:25:15","80fe4187154257d5fb01684ea91b68b9","105.1.249.166","Mozilla/5.0 (Windows NT 10.0; Win64; x64) AppleWebKit/537.36 (KHTML, like Gecko) Chrome/137.0.0.0 Safari/537.36","WebKit","Chrome","137.0.0.0","Windows","10.0","https://app.prolific.com/","en-US,en;q=0.9","6784c90859e5f785c2789c73","683db6dfa200031b80f2a654","6865076e9d4aa05445a3fc41","6784c90859e5f785c2789c73","2025-07-02T10:47:07.869Z","","","","","","MotivationQ","","","","","","","","","","","","","","","","","","","","","","","","","","","","","","","","","","","","","","50"
"","","","","ctl-task-cpt","61","1339687","0.0-10.0-0.4","185","1","2025-07-02 10:25:15","80fe4187154257d5fb01684ea91b68b9","105.1.249.166","Mozilla/5.0 (Windows NT 10.0; Win64; x64) AppleWebKit/537.36 (KHTML, like Gecko) Chrome/137.0.0.0 Safari/537.36","WebKit","Chrome","137.0.0.0","Windows","10.0","https://app.prolific.com/","en-US,en;q=0.9","6784c90859e5f785c2789c73","683db6dfa200031b80f2a654","6865076e9d4aa05445a3fc41","6784c90859e5f785c2789c73","2025-07-02T10:47:39.304Z","","","","","","","","","","","","","","","","win-only","1","g1:NE,g2:SW","0.6","5","0","1312500.2","11414.4","16417.3","28406.6","1","4","4","6","1","1","1","4","3","0.030303030303030304","2165.8","3000","1650","[""up"",""right""]","{""num_key_presses"":4,""num_perfect"":3,""num_errors"":0,""num_randdir"":1,""num_randdir_good_moves"":1,""num_whilered"":0,""num_whileblue"":0,""num_blue"":0,""num_good_moves"":4}","[292.22232142857143,291.12857142857143,1.1,292.22232142857143,291.12857142857143,100.7,292.22232142857143,291.12857142857143,201.1,292.22232142857143,291.12857142857143,312.1,292.22232142857143,291.12857142857143,422.8,292.22232142857143,291.12857142857143,563.8,292.22232142857143,291.12857142857143,680.9,292.22232142857143,291.12857142857143,796.3,337.22232142857143,221.12857142857143,900,415.22232142857143,120.12857142857143,1002,415.22232142857143,120.12857142857143,1103.2,415.22232142857143,120.12857142857143,1204,439.22232142857143,105.12857142857143,1335.9,439.22232142857143,105.12857142857143,1436.7,439.22232142857143,105.12857142857143,1538.7,492.22232142857143,83.12857142857143,1653.4,499.22232142857143,79.12857142857143,1755.9,503.22232142857143,77.12857142857143,1862.1,505.22232142857143,76.12857142857143,1968.1,505.22232142857143,76.12857142857143,2091.4,505.22232142857143,76.12857142857143,2200.5,505.22232142857143,76.12857142857143,2302,505.22232142857143,76.12857142857143,2407.4,505.22232142857143,76.12857142857143,2507.6,505.22232142857143,76.12857142857143,2608.5,505.22232142857143,76.12857142857143,2711.6,505.22232142857143,76.12857142857143,2831.9,505.22232142857143,76.12857142857143,2961.7,505.22232142857143,76.12857142857143,3065.8,505.22232142857143,76.12857142857143,3182.2,505.22232142857143,76.12857142857143,3284,505.22232142857143,76.12857142857143,3391.2,505.22232142857143,76.12857142857143,3495.7,505.22232142857143,76.12857142857143,3616.5,505.22232142857143,76.12857142857143,3723.1,505.22232142857143,76.12857142857143,3829.2,505.22232142857143,76.12857142857143,3934.5,505.22232142857143,76.12857142857143,4050,505.22232142857143,76.12857142857143,4155.4,505.22232142857143,76.12857142857143,4258.7,505.22232142857143,76.12857142857143,4361.1,505.22232142857143,76.12857142857143,4463.2,505.22232142857143,76.12857142857143,4566.4,505.22232142857143,76.12857142857143,4674.3,505.22232142857143,76.12857142857143,4779.2,505.22232142857143,76.12857142857143,4896.1,505.22232142857143,76.12857142857143,4996.9]","[1641,1641,1000,0,641,""smooth"",""right"",""right"",""good_move"",4510.5,2867.8,2072.6,1642.7,795.2,""oops"",""right"",""right"",""good_move"",8091.6,3580.2,2572,4511.6,1008.1,""smooth"",""up"",""up"",""good_move"",11800.3,3707,3073.7,8093.3,633.3,""smooth"",""up"",""up"",""good_move""]","",""
"4665","","<div style=""width:500px;"">
  <p>What determined the result of this run?</p>
  </div>","100","html-slider-response","62","1344354","0.0-10.0-1.4","185","1","2025-07-02 10:25:15","80fe4187154257d5fb01684ea91b68b9","105.1.249.166","Mozilla/5.0 (Windows NT 10.0; Win64; x64) AppleWebKit/537.36 (KHTML, like Gecko) Chrome/137.0.0.0 Safari/537.36","WebKit","Chrome","137.0.0.0","Windows","10.0","https://app.prolific.com/","en-US,en;q=0.9","6784c90859e5f785c2789c73","683db6dfa200031b80f2a654","6865076e9d4aa05445a3fc41","6784c90859e5f785c2789c73","2025-07-02T10:47:43.972Z","","","","","","AttribQ","","","","","","","","","","","","","","","","","","","","","","","","","","","","","","","","","","","","","","50"
"7516","","<div style=""width:500px;"">
  <p>How much control did you have over the ball?</p>
  </div>","100","html-slider-response","63","1351873","0.0-10.0-2.4","185","1","2025-07-02 10:25:15","80fe4187154257d5fb01684ea91b68b9","105.1.249.166","Mozilla/5.0 (Windows NT 10.0; Win64; x64) AppleWebKit/537.36 (KHTML, like Gecko) Chrome/137.0.0.0 Safari/537.36","WebKit","Chrome","137.0.0.0","Windows","10.0","https://app.prolific.com/","en-US,en;q=0.9","6784c90859e5f785c2789c73","683db6dfa200031b80f2a654","6865076e9d4aa05445a3fc41","6784c90859e5f785c2789c73","2025-07-02T10:47:51.490Z","","","","","","ControlQ","","","","","","","","","","","","","","","","","","","","","","","","","","","","","","","","","","","","","","50"
"5057","","<div style=""width:500px;"">
  <p>How would you describe your current emotional state?</p>
  </div>","0","html-slider-response","64","1356934","0.0-10.0-3.4","185","1","2025-07-02 10:25:15","80fe4187154257d5fb01684ea91b68b9","105.1.249.166","Mozilla/5.0 (Windows NT 10.0; Win64; x64) AppleWebKit/537.36 (KHTML, like Gecko) Chrome/137.0.0.0 Safari/537.36","WebKit","Chrome","137.0.0.0","Windows","10.0","https://app.prolific.com/","en-US,en;q=0.9","6784c90859e5f785c2789c73","683db6dfa200031b80f2a654","6865076e9d4aa05445a3fc41","6784c90859e5f785c2789c73","2025-07-02T10:47:56.551Z","","","","","","StressQ","","","","","","","","","","","","","","","","","","","","","","","","","","","","","","","","","","","","","","50"
"5978","","<div style=""width:500px;"">
  <p>What best describes how you currently feel?</p>
  </div>","100","html-slider-response","65","1362914","0.0-10.0-4.4","185","1","2025-07-02 10:25:15","80fe4187154257d5fb01684ea91b68b9","105.1.249.166","Mozilla/5.0 (Windows NT 10.0; Win64; x64) AppleWebKit/537.36 (KHTML, like Gecko) Chrome/137.0.0.0 Safari/537.36","WebKit","Chrome","137.0.0.0","Windows","10.0","https://app.prolific.com/","en-US,en;q=0.9","6784c90859e5f785c2789c73","683db6dfa200031b80f2a654","6865076e9d4aa05445a3fc41","6784c90859e5f785c2789c73","2025-07-02T10:48:02.531Z","","","","","","MotivationQ","","","","","","","","","","","","","","","","","","","","","","","","","","","","","","","","","","","","","","50"
"","","","","ctl-task-cpt","66","1400354","0.0-10.0-0.5","185","1","2025-07-02 10:25:15","80fe4187154257d5fb01684ea91b68b9","105.1.249.166","Mozilla/5.0 (Windows NT 10.0; Win64; x64) AppleWebKit/537.36 (KHTML, like Gecko) Chrome/137.0.0.0 Safari/537.36","WebKit","Chrome","137.0.0.0","Windows","10.0","https://app.prolific.com/","en-US,en;q=0.9","6784c90859e5f785c2789c73","683db6dfa200031b80f2a654","6865076e9d4aa05445a3fc41","6784c90859e5f785c2789c73","2025-07-02T10:48:39.972Z","","","","","","","","","","","","","","","","win-only","3","g1:SW,g2:NE","0.5","6","0","1367161.7","9518.4","14542.9","34354.9","1","4","8","6","1","1","1","5","4","0.03787878787878788","2546.5","3000","1685","[""down"",""left""]","{""num_key_presses"":6,""num_perfect"":4,""num_errors"":0,""num_randdir"":2,""num_randdir_good_moves"":1,""num_whilered"":0,""num_whileblue"":0,""num_blue"":1,""num_good_moves"":5}","[293.22232142857143,296.12857142857143,0.9,293.22232142857143,296.12857142857143,101,293.22232142857143,296.12857142857143,247.2,293.22232142857143,296.12857142857143,369.3,293.22232142857143,296.12857142857143,471.5,293.22232142857143,296.12857142857143,596.1,293.22232142857143,296.12857142857143,698.9,293.22232142857143,296.12857142857143,802.3,293.22232142857143,296.12857142857143,904.7,293.22232142857143,296.12857142857143,1011.6,205.22232142857143,367.12857142857143,1122.8,198.22232142857143,380.12857142857143,1223.3,198.22232142857143,380.12857142857143,1339.8,142.22232142857143,428.12857142857143,1455.3,119.22232142857143,451.12857142857143,1574.6,119.22232142857143,451.12857142857143,1680.1,119.22232142857143,451.12857142857143,1784.4,106.22232142857143,467.12857142857143,1890.4,93.22232142857143,479.12857142857143,2000.3,71.22232142857143,507.12857142857143,2104.4,46.222321428571426,523.1285714285714,2204.5,36.222321428571426,530.1285714285714,2308.8,34.222321428571426,531.1285714285714,2422,34.222321428571426,531.1285714285714,2551.9,34.222321428571426,531.1285714285714,2677.8,34.222321428571426,531.1285714285714,2777.9,34.222321428571426,531.1285714285714,2899,34.222321428571426,531.1285714285714,3033.9,34.222321428571426,531.1285714285714,3162.4,34.222321428571426,531.1285714285714,3280.1,34.222321428571426,531.1285714285714,3432.4,34.222321428571426,531.1285714285714,3538.9,34.222321428571426,531.1285714285714,3649.4,34.222321428571426,531.1285714285714,3780.5,34.222321428571426,531.1285714285714,3883.4,34.222321428571426,531.1285714285714,4001.4,34.222321428571426,531.1285714285714,4122.2,34.222321428571426,531.1285714285714,4227.9,34.222321428571426,531.1285714285714,4362.6,34.222321428571426,531.1285714285714,4479.8,34.222321428571426,531.1285714285714,4595.2,34.222321428571426,531.1285714285714,4699.8,34.222321428571426,531.1285714285714,4800.2,34.222321428571426,531.1285714285714,4903.3]","[1751.1,1751.1,1000,0,751.1,""oops"",""down"",""down"",""good_move"",4522.9,2770.3,2182.1,1752.6,588.2,""smooth"",""down"",""down"",""good_move"",7503.6,2979.8,2537.2,4523.8,442.6,""smooth"",""left"",""left"",""good_move"",10467.8,2963,2530.3,7504.9,432.7,""oops"",""left"",""right"",""bad_move"",16881,6408.6,2113.5,14318.5,449.1,""smooth"",""left"",""left"",""good_move"",19590.4,2705.9,2189,16884.5,516.9,""smooth"",""left"",""left"",""good_move""]","",""
"4488","","<div style=""width:500px;"">
  <p>What determined the result of this run?</p>
  </div>","100","html-slider-response","67","1404847","0.0-10.0-1.5","185","1","2025-07-02 10:25:15","80fe4187154257d5fb01684ea91b68b9","105.1.249.166","Mozilla/5.0 (Windows NT 10.0; Win64; x64) AppleWebKit/537.36 (KHTML, like Gecko) Chrome/137.0.0.0 Safari/537.36","WebKit","Chrome","137.0.0.0","Windows","10.0","https://app.prolific.com/","en-US,en;q=0.9","6784c90859e5f785c2789c73","683db6dfa200031b80f2a654","6865076e9d4aa05445a3fc41","6784c90859e5f785c2789c73","2025-07-02T10:48:44.464Z","","","","","","AttribQ","","","","","","","","","","","","","","","","","","","","","","","","","","","","","","","","","","","","","","50"
"5679","","<div style=""width:500px;"">
  <p>How much control did you have over the ball?</p>
  </div>","100","html-slider-response","68","1410532","0.0-10.0-2.5","185","1","2025-07-02 10:25:15","80fe4187154257d5fb01684ea91b68b9","105.1.249.166","Mozilla/5.0 (Windows NT 10.0; Win64; x64) AppleWebKit/537.36 (KHTML, like Gecko) Chrome/137.0.0.0 Safari/537.36","WebKit","Chrome","137.0.0.0","Windows","10.0","https://app.prolific.com/","en-US,en;q=0.9","6784c90859e5f785c2789c73","683db6dfa200031b80f2a654","6865076e9d4aa05445a3fc41","6784c90859e5f785c2789c73","2025-07-02T10:48:50.149Z","","","","","","ControlQ","","","","","","","","","","","","","","","","","","","","","","","","","","","","","","","","","","","","","","50"
"7626","","<div style=""width:500px;"">
  <p>How would you describe your current emotional state?</p>
  </div>","9","html-slider-response","69","1418162","0.0-10.0-3.5","185","1","2025-07-02 10:25:15","80fe4187154257d5fb01684ea91b68b9","105.1.249.166","Mozilla/5.0 (Windows NT 10.0; Win64; x64) AppleWebKit/537.36 (KHTML, like Gecko) Chrome/137.0.0.0 Safari/537.36","WebKit","Chrome","137.0.0.0","Windows","10.0","https://app.prolific.com/","en-US,en;q=0.9","6784c90859e5f785c2789c73","683db6dfa200031b80f2a654","6865076e9d4aa05445a3fc41","6784c90859e5f785c2789c73","2025-07-02T10:48:57.779Z","","","","","","StressQ","","","","","","","","","","","","","","","","","","","","","","","","","","","","","","","","","","","","","","50"
"8450","","<div style=""width:500px;"">
  <p>What best describes how you currently feel?</p>
  </div>","100","html-slider-response","70","1426616","0.0-10.0-4.5","185","1","2025-07-02 10:25:15","80fe4187154257d5fb01684ea91b68b9","105.1.249.166","Mozilla/5.0 (Windows NT 10.0; Win64; x64) AppleWebKit/537.36 (KHTML, like Gecko) Chrome/137.0.0.0 Safari/537.36","WebKit","Chrome","137.0.0.0","Windows","10.0","https://app.prolific.com/","en-US,en;q=0.9","6784c90859e5f785c2789c73","683db6dfa200031b80f2a654","6865076e9d4aa05445a3fc41","6784c90859e5f785c2789c73","2025-07-02T10:49:06.234Z","","","","","","MotivationQ","","","","","","","","","","","","","","","","","","","","","","","","","","","","","","","","","","","","","","50"
"","","","","ctl-task-cpt","71","1476060","0.0-10.0-0.6","185","1","2025-07-02 10:25:15","80fe4187154257d5fb01684ea91b68b9","105.1.249.166","Mozilla/5.0 (Windows NT 10.0; Win64; x64) AppleWebKit/537.36 (KHTML, like Gecko) Chrome/137.0.0.0 Safari/537.36","WebKit","Chrome","137.0.0.0","Windows","10.0","https://app.prolific.com/","en-US,en;q=0.9","6784c90859e5f785c2789c73","683db6dfa200031b80f2a654","6865076e9d4aa05445a3fc41","6784c90859e5f785c2789c73","2025-07-02T10:49:55.677Z","","","","","","","","","","","","","","","","win-only","0","g1:NW,g2:SE","0.4","7","0","1430865","14304.3","19308.7","46415.8","1","4","4","6","1","1","1","6","5","0.045454545454545456","2534","3000","1875","[""left"",""up""]","{""num_key_presses"":6,""num_perfect"":3,""num_errors"":0,""num_randdir"":3,""num_randdir_good_moves"":2,""num_whilered"":0,""num_whileblue"":0,""num_blue"":2,""num_good_moves"":5}","[294.22232142857143,292.12857142857143,1.1,294.22232142857143,292.12857142857143,104.6,294.22232142857143,292.12857142857143,231.1,294.22232142857143,292.12857142857143,344.9,294.22232142857143,292.12857142857143,448.4,294.22232142857143,292.12857142857143,582.2,294.22232142857143,292.12857142857143,685,294.22232142857143,292.12857142857143,785.3,277.22232142857143,266.12857142857143,891.3,193.22232142857143,154.12857142857143,994.2,193.22232142857143,154.12857142857143,1154,193.22232142857143,154.12857142857143,1259,85.22232142857143,87.12857142857143,1406.9,85.22232142857143,87.12857142857143,1510.7,85.22232142857143,87.12857142857143,1614.3,74.22232142857143,80.12857142857143,1719.2,66.22232142857143,74.12857142857143,1929.9,66.22232142857143,74.12857142857143,2038.9,65.22232142857143,74.12857142857143,2145.4,53.222321428571426,66.12857142857143,2253.9,50.222321428571426,64.12857142857143,2422.1,50.222321428571426,64.12857142857143,2543.2,50.222321428571426,64.12857142857143,2667.2,50.222321428571426,64.12857142857143,2771.2,50.222321428571426,64.12857142857143,2872.2,50.222321428571426,64.12857142857143,3000.9,50.222321428571426,64.12857142857143,3117.7,50.222321428571426,64.12857142857143,3220.9,50.222321428571426,64.12857142857143,3322.4,50.222321428571426,64.12857142857143,3426.8,50.222321428571426,64.12857142857143,3552.2,50.222321428571426,64.12857142857143,3656,50.222321428571426,64.12857142857143,3774.9,50.222321428571426,64.12857142857143,3879.1,50.222321428571426,64.12857142857143,3981.1,50.222321428571426,64.12857142857143,4082.4,50.222321428571426,64.12857142857143,4188.2,50.222321428571426,64.12857142857143,4348.2,50.222321428571426,64.12857142857143,4448.5,50.222321428571426,64.12857142857143,4551,50.222321428571426,64.12857142857143,4795.5,50.222321428571426,64.12857142857143,4901.7]","[2252.4,2252.4,1000,0,1252.4,""oops"",""up"",""left"",""good_move"",5862.2,3608.4,2998.8,2253.8,609.6,""oops"",""up"",""right"",""bad_move"",12354.9,6484.7,2419.6,9483,452.3,""smooth"",""up"",""up"",""good_move"",15859.8,3503.8,2606.1,12356.1,897.6,""smooth"",""up"",""up"",""good_move"",23382.8,7521.3,2529.3,20256.7,596.8,""smooth"",""left"",""left"",""good_move"",26854.1,3470.4,2421.1,23383.7,1049.3,""oops"",""left"",""left"",""good_move""]","",""
"8800","","<div style=""width:500px;"">
  <p>What determined the result of this run?</p>
  </div>","84","html-slider-response","72","1484864","0.0-10.0-1.6","185","1","2025-07-02 10:25:15","80fe4187154257d5fb01684ea91b68b9","105.1.249.166","Mozilla/5.0 (Windows NT 10.0; Win64; x64) AppleWebKit/537.36 (KHTML, like Gecko) Chrome/137.0.0.0 Safari/537.36","WebKit","Chrome","137.0.0.0","Windows","10.0","https://app.prolific.com/","en-US,en;q=0.9","6784c90859e5f785c2789c73","683db6dfa200031b80f2a654","6865076e9d4aa05445a3fc41","6784c90859e5f785c2789c73","2025-07-02T10:50:04.481Z","","","","","","AttribQ","","","","","","","","","","","","","","","","","","","","","","","","","","","","","","","","","","","","","","50"
"4618","","<div style=""width:500px;"">
  <p>How much control did you have over the ball?</p>
  </div>","100","html-slider-response","73","1489487","0.0-10.0-2.6","185","1","2025-07-02 10:25:15","80fe4187154257d5fb01684ea91b68b9","105.1.249.166","Mozilla/5.0 (Windows NT 10.0; Win64; x64) AppleWebKit/537.36 (KHTML, like Gecko) Chrome/137.0.0.0 Safari/537.36","WebKit","Chrome","137.0.0.0","Windows","10.0","https://app.prolific.com/","en-US,en;q=0.9","6784c90859e5f785c2789c73","683db6dfa200031b80f2a654","6865076e9d4aa05445a3fc41","6784c90859e5f785c2789c73","2025-07-02T10:50:09.104Z","","","","","","ControlQ","","","","","","","","","","","","","","","","","","","","","","","","","","","","","","","","","","","","","","50"
"11850","","<div style=""width:500px;"">
  <p>How would you describe your current emotional state?</p>
  </div>","0","html-slider-response","74","1501340","0.0-10.0-3.6","185","1","2025-07-02 10:25:15","80fe4187154257d5fb01684ea91b68b9","105.1.249.166","Mozilla/5.0 (Windows NT 10.0; Win64; x64) AppleWebKit/537.36 (KHTML, like Gecko) Chrome/137.0.0.0 Safari/537.36","WebKit","Chrome","137.0.0.0","Windows","10.0","https://app.prolific.com/","en-US,en;q=0.9","6784c90859e5f785c2789c73","683db6dfa200031b80f2a654","6865076e9d4aa05445a3fc41","6784c90859e5f785c2789c73","2025-07-02T10:50:20.957Z","","","","","","StressQ","","","","","","","","","","","","","","","","","","","","","","","","","","","","","","","","","","","","","","50"
"6446","","<div style=""width:500px;"">
  <p>What best describes how you currently feel?</p>
  </div>","86","html-slider-response","75","1507791","0.0-10.0-4.6","185","1","2025-07-02 10:25:15","80fe4187154257d5fb01684ea91b68b9","105.1.249.166","Mozilla/5.0 (Windows NT 10.0; Win64; x64) AppleWebKit/537.36 (KHTML, like Gecko) Chrome/137.0.0.0 Safari/537.36","WebKit","Chrome","137.0.0.0","Windows","10.0","https://app.prolific.com/","en-US,en;q=0.9","6784c90859e5f785c2789c73","683db6dfa200031b80f2a654","6865076e9d4aa05445a3fc41","6784c90859e5f785c2789c73","2025-07-02T10:50:27.408Z","","","","","","MotivationQ","","","","","","","","","","","","","","","","","","","","","","","","","","","","","","","","","","","","","","50"
"","","","","ctl-task-cpt","76","1572055","0.0-10.0-0.7","185","1","2025-07-02 10:25:15","80fe4187154257d5fb01684ea91b68b9","105.1.249.166","Mozilla/5.0 (Windows NT 10.0; Win64; x64) AppleWebKit/537.36 (KHTML, like Gecko) Chrome/137.0.0.0 Safari/537.36","WebKit","Chrome","137.0.0.0","Windows","10.0","https://app.prolific.com/","en-US,en;q=0.9","6784c90859e5f785c2789c73","683db6dfa200031b80f2a654","6865076e9d4aa05445a3fc41","6784c90859e5f785c2789c73","2025-07-02T10:51:31.673Z","","","","","","","","","","","","","","","","win-only","1","g1:NE,g2:SW","0.3","8","0","1512039.9","9986","15098.7","61219.3","1","4","8","6","1","1","1","7","6","0.05303030303030303","3083.7","3000","2050","[""up"",""right""]","{""num_key_presses"":8,""num_perfect"":3,""num_errors"":0,""num_randdir"":5,""num_randdir_good_moves"":3,""num_whilered"":0,""num_whileblue"":0,""num_blue"":3,""num_good_moves"":6}","[300.22232142857143,298.12857142857143,2.3,300.22232142857143,298.12857142857143,123.5,300.22232142857143,298.12857142857143,230.8,300.22232142857143,298.12857142857143,342.5,300.22232142857143,298.12857142857143,537.3,306.22232142857143,287.12857142857143,640.8,323.22232142857143,261.12857142857143,746.1,325.22232142857143,256.12857142857143,964.5,185.22232142857143,353.12857142857143,1074,115.22232142857143,424.12857142857143,1176.7,115.22232142857143,424.12857142857143,1380.2,55.222321428571426,490.12857142857143,1492.6,32.222321428571426,512.1285714285714,1606.7,32.222321428571426,512.1285714285714,1766,30.222321428571426,514.1285714285714,1869.9,25.222321428571426,523.1285714285714,1972.6,85.22232142857143,414.12857142857143,2081,214.22232142857143,239.12857142857143,2181.5,214.22232142857143,239.12857142857143,2342.5,473.22232142857143,80.12857142857143,2446.5,504.22232142857143,67.12857142857143,2546.8,511.22232142857143,60.128571428571426,2760.2,528.2223214285714,46.128571428571426,2872.3,531.2223214285714,44.128571428571426,2979.5,531.2223214285714,44.128571428571426,3095.2,531.2223214285714,44.128571428571426,3313.5,531.2223214285714,44.128571428571426,3421.9,531.2223214285714,44.128571428571426,3525.8,531.2223214285714,44.128571428571426,3658.6,531.2223214285714,44.128571428571426,3761.2,531.2223214285714,44.128571428571426,3875.5,531.2223214285714,44.128571428571426,3977.3,531.2223214285714,44.128571428571426,4163,531.2223214285714,44.128571428571426,4269.1,531.2223214285714,44.128571428571426,4370.2,531.2223214285714,44.128571428571426,4477.2,531.2223214285714,44.128571428571426,4702.3,531.2223214285714,44.128571428571426,4805.8,531.2223214285714,44.128571428571426,4910.3]","[5076.8,5076.8,2491.3,2019.1,566.4,""oops"",""right"",""right"",""good_move"",8139.4,3061.3,2176.8,5078.2,884.5,""smooth"",""right"",""right"",""good_move"",11676.7,3536.2,3025.7,8140.6,510.4,""oops"",""up"",""down"",""bad_move"",16055.2,4377.2,3280.5,11678,1096.7,""smooth"",""up"",""up"",""good_move"",23065.7,7009.2,3002.8,16056.5,4006.4,""oops"",""up"",""down"",""bad_move"",26699.8,3633.3,2807,23066.6,826.3,""oops"",""up"",""up"",""good_move"",41984.9,15284.1,2904.6,38603.3,477.1,""smooth"",""up"",""up"",""good_move"",45761.8,3776.1,2186.4,41985.8,1589.6,""oops"",""up"",""up"",""good_move""]","",""
"15098","","<div style=""width:500px;"">
  <p>What determined the result of this run?</p>
  </div>","97","html-slider-response","77","1587158","0.0-10.0-1.7","185","1","2025-07-02 10:25:15","80fe4187154257d5fb01684ea91b68b9","105.1.249.166","Mozilla/5.0 (Windows NT 10.0; Win64; x64) AppleWebKit/537.36 (KHTML, like Gecko) Chrome/137.0.0.0 Safari/537.36","WebKit","Chrome","137.0.0.0","Windows","10.0","https://app.prolific.com/","en-US,en;q=0.9","6784c90859e5f785c2789c73","683db6dfa200031b80f2a654","6865076e9d4aa05445a3fc41","6784c90859e5f785c2789c73","2025-07-02T10:51:46.776Z","","","","","","AttribQ","","","","","","","","","","","","","","","","","","","","","","","","","","","","","","","","","","","","","","50"
"4027","","<div style=""width:500px;"">
  <p>How much control did you have over the ball?</p>
  </div>","92","html-slider-response","78","1591190","0.0-10.0-2.7","185","1","2025-07-02 10:25:15","80fe4187154257d5fb01684ea91b68b9","105.1.249.166","Mozilla/5.0 (Windows NT 10.0; Win64; x64) AppleWebKit/537.36 (KHTML, like Gecko) Chrome/137.0.0.0 Safari/537.36","WebKit","Chrome","137.0.0.0","Windows","10.0","https://app.prolific.com/","en-US,en;q=0.9","6784c90859e5f785c2789c73","683db6dfa200031b80f2a654","6865076e9d4aa05445a3fc41","6784c90859e5f785c2789c73","2025-07-02T10:51:50.807Z","","","","","","ControlQ","","","","","","","","","","","","","","","","","","","","","","","","","","","","","","","","","","","","","","50"
"4375","","<div style=""width:500px;"">
  <p>How would you describe your current emotional state?</p>
  </div>","1","html-slider-response","79","1595570","0.0-10.0-3.7","185","1","2025-07-02 10:25:15","80fe4187154257d5fb01684ea91b68b9","105.1.249.166","Mozilla/5.0 (Windows NT 10.0; Win64; x64) AppleWebKit/537.36 (KHTML, like Gecko) Chrome/137.0.0.0 Safari/537.36","WebKit","Chrome","137.0.0.0","Windows","10.0","https://app.prolific.com/","en-US,en;q=0.9","6784c90859e5f785c2789c73","683db6dfa200031b80f2a654","6865076e9d4aa05445a3fc41","6784c90859e5f785c2789c73","2025-07-02T10:51:55.187Z","","","","","","StressQ","","","","","","","","","","","","","","","","","","","","","","","","","","","","","","","","","","","","","","50"
"11208","","<div style=""width:500px;"">
  <p>What best describes how you currently feel?</p>
  </div>","100","html-slider-response","80","1606783","0.0-10.0-4.7","185","1","2025-07-02 10:25:15","80fe4187154257d5fb01684ea91b68b9","105.1.249.166","Mozilla/5.0 (Windows NT 10.0; Win64; x64) AppleWebKit/537.36 (KHTML, like Gecko) Chrome/137.0.0.0 Safari/537.36","WebKit","Chrome","137.0.0.0","Windows","10.0","https://app.prolific.com/","en-US,en;q=0.9","6784c90859e5f785c2789c73","683db6dfa200031b80f2a654","6865076e9d4aa05445a3fc41","6784c90859e5f785c2789c73","2025-07-02T10:52:06.401Z","","","","","","MotivationQ","","","","","","","","","","","","","","","","","","","","","","","","","","","","","","","","","","","","","","50"
"","","","","ctl-task-cpt","81","1673094","0.0-10.0-0.8","185","1","2025-07-02 10:25:15","80fe4187154257d5fb01684ea91b68b9","105.1.249.166","Mozilla/5.0 (Windows NT 10.0; Win64; x64) AppleWebKit/537.36 (KHTML, like Gecko) Chrome/137.0.0.0 Safari/537.36","WebKit","Chrome","137.0.0.0","Windows","10.0","https://app.prolific.com/","en-US,en;q=0.9","6784c90859e5f785c2789c73","683db6dfa200031b80f2a654","6865076e9d4aa05445a3fc41","6784c90859e5f785c2789c73","2025-07-02T10:53:12.711Z","","","","","","","","","","","","","","","","win-only","3","g1:SW,g2:NE","0.4","9","0","1611035.4","2723.5","7746.7","63273.1","1","4","4","6","1","1","1","8","7","0.06060606060606061","1594.8","3000","1505","[""down"",""left""]","{""num_key_presses"":12,""num_perfect"":5,""num_errors"":0,""num_randdir"":7,""num_randdir_good_moves"":3,""num_whilered"":0,""num_whileblue"":0,""num_blue"":1,""num_good_moves"":8}","[290.22232142857143,289.12857142857143,2.5,290.22232142857143,289.12857142857143,107.5,290.22232142857143,289.12857142857143,232.2,290.22232142857143,289.12857142857143,359.8,290.22232142857143,289.12857142857143,462.2,290.22232142857143,289.12857142857143,566,290.22232142857143,289.12857142857143,679.1,264.22232142857143,309.12857142857143,808.2,75.22232142857143,495.12857142857143,958.8,75.22232142857143,495.12857142857143,1081.6,68.22232142857143,519.1285714285714,1211.4,63.222321428571426,538.1285714285714,1335.4,62.222321428571426,541.1285714285714,1455.8,62.222321428571426,541.1285714285714,1573.3,62.222321428571426,541.1285714285714,1684.8,62.222321428571426,541.1285714285714,1807.5,62.222321428571426,541.1285714285714,1915.7,62.222321428571426,541.1285714285714,2040.5,62.222321428571426,541.1285714285714,2143.9,62.222321428571426,541.1285714285714,2260.1,62.222321428571426,541.1285714285714,2365.6,62.222321428571426,541.1285714285714,2472.9,62.222321428571426,541.1285714285714,2589.5,62.222321428571426,541.1285714285714,2696.5,62.222321428571426,541.1285714285714,2812.1,62.222321428571426,541.1285714285714,2919.6,62.222321428571426,541.1285714285714,3030.5,62.222321428571426,541.1285714285714,3136.7,62.222321428571426,541.1285714285714,3240.6,62.222321428571426,541.1285714285714,3358.7,62.222321428571426,541.1285714285714,3474,62.222321428571426,541.1285714285714,3587.4,62.222321428571426,541.1285714285714,3692.2,62.222321428571426,541.1285714285714,3795.6,62.222321428571426,541.1285714285714,3896.6,62.222321428571426,541.1285714285714,4006,62.222321428571426,541.1285714285714,4118.1,62.222321428571426,541.1285714285714,4226.3,62.222321428571426,541.1285714285714,4329.4,62.222321428571426,541.1285714285714,4454.5,62.222321428571426,541.1285714285714,4563.2,62.222321428571426,541.1285714285714,4671.2,62.222321428571426,541.1285714285714,4778.7,62.222321428571426,541.1285714285714,4887.4,62.222321428571426,541.1285714285714,4999.6]","[1584.6,1584.6,1000,0,584.6,""oops"",""down"",""up"",""bad_move"",5021.1,3434.5,2563,1586.6,871.5,""oops"",""down"",""right"",""bad_move"",8406.6,3373.8,2633.9,5032.8,739.9,""oops"",""down"",""right"",""bad_move"",11910.2,3502.4,2247.4,8407.9,1254.9,""oops"",""down"",""down"",""good_move"",14788.1,2876.5,2272.1,11911.6,604.4,""smooth"",""down"",""down"",""good_move"",17853.6,3064.3,2519.4,14789.4,544.9,""smooth"",""down"",""down"",""good_move"",21098.8,3241.2,2511.1,17857.6,730.1,""oops"",""left"",""right"",""bad_move"",27262.6,6162.7,1936.5,24697,629.1,""oops"",""left"",""left"",""good_move"",34621.2,7357.1,2908.1,27264.2,4449,""smooth"",""left"",""left"",""good_move"",42391.8,7768.8,2112.6,34623.1,5656.2,""smooth"",""left"",""left"",""good_move"",50726.6,8334,2708.8,42392.7,5625.1,""smooth"",""left"",""left"",""good_move"",55260.4,4533,2764.8,50727.4,1768.2,""oops"",""left"",""left"",""good_move""]","",""
"7111","","<div style=""width:500px;"">
  <p>What determined the result of this run?</p>
  </div>","98","html-slider-response","82","1680208","0.0-10.0-1.8","185","1","2025-07-02 10:25:15","80fe4187154257d5fb01684ea91b68b9","105.1.249.166","Mozilla/5.0 (Windows NT 10.0; Win64; x64) AppleWebKit/537.36 (KHTML, like Gecko) Chrome/137.0.0.0 Safari/537.36","WebKit","Chrome","137.0.0.0","Windows","10.0","https://app.prolific.com/","en-US,en;q=0.9","6784c90859e5f785c2789c73","683db6dfa200031b80f2a654","6865076e9d4aa05445a3fc41","6784c90859e5f785c2789c73","2025-07-02T10:53:19.825Z","","","","","","AttribQ","","","","","","","","","","","","","","","","","","","","","","","","","","","","","","","","","","","","","","50"
"4276","","<div style=""width:500px;"">
  <p>How much control did you have over the ball?</p>
  </div>","91","html-slider-response","83","1684489","0.0-10.0-2.8","185","1","2025-07-02 10:25:15","80fe4187154257d5fb01684ea91b68b9","105.1.249.166","Mozilla/5.0 (Windows NT 10.0; Win64; x64) AppleWebKit/537.36 (KHTML, like Gecko) Chrome/137.0.0.0 Safari/537.36","WebKit","Chrome","137.0.0.0","Windows","10.0","https://app.prolific.com/","en-US,en;q=0.9","6784c90859e5f785c2789c73","683db6dfa200031b80f2a654","6865076e9d4aa05445a3fc41","6784c90859e5f785c2789c73","2025-07-02T10:53:24.106Z","","","","","","ControlQ","","","","","","","","","","","","","","","","","","","","","","","","","","","","","","","","","","","","","","50"
"4206","","<div style=""width:500px;"">
  <p>How would you describe your current emotional state?</p>
  </div>","1","html-slider-response","84","1688702","0.0-10.0-3.8","185","1","2025-07-02 10:25:15","80fe4187154257d5fb01684ea91b68b9","105.1.249.166","Mozilla/5.0 (Windows NT 10.0; Win64; x64) AppleWebKit/537.36 (KHTML, like Gecko) Chrome/137.0.0.0 Safari/537.36","WebKit","Chrome","137.0.0.0","Windows","10.0","https://app.prolific.com/","en-US,en;q=0.9","6784c90859e5f785c2789c73","683db6dfa200031b80f2a654","6865076e9d4aa05445a3fc41","6784c90859e5f785c2789c73","2025-07-02T10:53:28.319Z","","","","","","StressQ","","","","","","","","","","","","","","","","","","","","","","","","","","","","","","","","","","","","","","50"
"3741","","<div style=""width:500px;"">
  <p>What best describes how you currently feel?</p>
  </div>","95","html-slider-response","85","1692449","0.0-10.0-4.8","185","1","2025-07-02 10:25:15","80fe4187154257d5fb01684ea91b68b9","105.1.249.166","Mozilla/5.0 (Windows NT 10.0; Win64; x64) AppleWebKit/537.36 (KHTML, like Gecko) Chrome/137.0.0.0 Safari/537.36","WebKit","Chrome","137.0.0.0","Windows","10.0","https://app.prolific.com/","en-US,en;q=0.9","6784c90859e5f785c2789c73","683db6dfa200031b80f2a654","6865076e9d4aa05445a3fc41","6784c90859e5f785c2789c73","2025-07-02T10:53:32.066Z","","","","","","MotivationQ","","","","","","","","","","","","","","","","","","","","","","","","","","","","","","","","","","","","","","50"
"","","","","ctl-task-cpt","86","1765371","0.0-10.0-0.9","185","1","2025-07-02 10:25:15","80fe4187154257d5fb01684ea91b68b9","105.1.249.166","Mozilla/5.0 (Windows NT 10.0; Win64; x64) AppleWebKit/537.36 (KHTML, like Gecko) Chrome/137.0.0.0 Safari/537.36","WebKit","Chrome","137.0.0.0","Windows","10.0","https://app.prolific.com/","en-US,en;q=0.9","6784c90859e5f785c2789c73","683db6dfa200031b80f2a654","6865076e9d4aa05445a3fc41","6784c90859e5f785c2789c73","2025-07-02T10:54:44.988Z","","","","","","","","","","","","","","","","win-only","2","g1:SE,g2:NW","0.5","10","0","1696700.2","1776.4","6850.5","69883.8","1","4","8","6","1","1","1","9","8","0.06818181818181818","1394.7","3000","1680","[""down"",""right""]","{""num_key_presses"":12,""num_perfect"":7,""num_errors"":0,""num_randdir"":5,""num_randdir_good_moves"":1,""num_whilered"":0,""num_whileblue"":0,""num_blue"":2,""num_good_moves"":8}","[297.22232142857143,300.12857142857143,0.9,297.22232142857143,300.12857142857143,120.6,297.22232142857143,300.12857142857143,256.1,297.22232142857143,300.12857142857143,391.5,297.22232142857143,300.12857142857143,527.3,297.22232142857143,300.12857142857143,668.8,395.22232142857143,411.12857142857143,806.5,395.22232142857143,411.12857142857143,932,514.2223214285714,517.1285714285714,1079,527.2223214285714,540.1285714285714,1213.4,527.2223214285714,540.1285714285714,1347.8,527.2223214285714,540.1285714285714,1484.8,527.2223214285714,540.1285714285714,1621.4,527.2223214285714,540.1285714285714,1753.3,527.2223214285714,540.1285714285714,1882,527.2223214285714,540.1285714285714,2014,527.2223214285714,540.1285714285714,2154.8,527.2223214285714,540.1285714285714,2283.3,527.2223214285714,540.1285714285714,2411,527.2223214285714,540.1285714285714,2542.2,527.2223214285714,540.1285714285714,2678.8,527.2223214285714,540.1285714285714,2783.1,527.2223214285714,540.1285714285714,2926,527.2223214285714,540.1285714285714,3094.6,527.2223214285714,540.1285714285714,3239.5,527.2223214285714,540.1285714285714,3379.3,527.2223214285714,540.1285714285714,3517.7,527.2223214285714,540.1285714285714,3622.2,527.2223214285714,540.1285714285714,3768.3,527.2223214285714,540.1285714285714,3870.4,527.2223214285714,540.1285714285714,4010.6,527.2223214285714,540.1285714285714,4114.3,527.2223214285714,540.1285714285714,4225.8,527.2223214285714,540.1285714285714,4328,527.2223214285714,540.1285714285714,4476,527.2223214285714,540.1285714285714,4578,527.2223214285714,540.1285714285714,4730.7,527.2223214285714,540.1285714285714,4835]","[1701.1,1701.1,1000,0,701.1,""smooth"",""down"",""down"",""good_move"",8935.2,7232.9,2871.1,5589.5,474.6,""oops"",""down"",""left"",""bad_move"",18513.1,9576.6,2866.1,14879.6,767.4,""smooth"",""down"",""down"",""good_move"",22495,3980.9,3286.8,18514.2,694,""oops"",""right"",""left"",""bad_move"",31169.1,8672.5,2314.2,22496.6,6358.4,""oops"",""right"",""up"",""bad_move"",40266,9096,2346.5,31170.2,6749.4,""smooth"",""right"",""right"",""good_move"",43178.8,2911.8,2017.7,40267,894.1,""smooth"",""right"",""right"",""good_move"",46359.1,3179.2,2650.2,43180.1,528.9,""smooth"",""right"",""right"",""good_move"",48430.3,2070,1587.7,46360.4,482.2,""oops"",""right"",""down"",""good_move"",51941.5,3509.4,2978.5,48432.2,530.8,""oops"",""right"",""left"",""bad_move"",59447.7,7505,2044.3,51942.9,5460.6,""smooth"",""right"",""right"",""good_move"",62583.3,3134.8,2717.8,59448.5,417,""smooth"",""right"",""right"",""good_move""]","",""
"10981","","<div style=""width:500px;"">
  <p>What determined the result of this run?</p>
  </div>","96","html-slider-response","87","1776356","0.0-10.0-1.9","185","1","2025-07-02 10:25:15","80fe4187154257d5fb01684ea91b68b9","105.1.249.166","Mozilla/5.0 (Windows NT 10.0; Win64; x64) AppleWebKit/537.36 (KHTML, like Gecko) Chrome/137.0.0.0 Safari/537.36","WebKit","Chrome","137.0.0.0","Windows","10.0","https://app.prolific.com/","en-US,en;q=0.9","6784c90859e5f785c2789c73","683db6dfa200031b80f2a654","6865076e9d4aa05445a3fc41","6784c90859e5f785c2789c73","2025-07-02T10:54:55.973Z","","","","","","AttribQ","","","","","","","","","","","","","","","","","","","","","","","","","","","","","","","","","","","","","","50"
"4423","","<div style=""width:500px;"">
  <p>How much control did you have over the ball?</p>
