"rt","response_timestamp","stimulus","response","trial_type","trial_index","time_elapsed","internal_node_id","run_id","condition","recorded_at","source_code_version","ip","user_agent","device","browser","browser_version","platform","platform_version","referer","accept_language","PROLIFIC_PID","STUDY_ID","SESSION_ID","prolific_id","realtime","view_history","question_order","consent","success","question_id","eventType","responses","item_order","radio_event_ids","radio_event_times","key_event_times","mouse_event_times","straightlining","zigzagging","honeypot","which_type","canvas_config","goals_layout","control_level","trial_number","tutorial_trial_number","trial_start_time","phase1_start_time","phase2_start_time","phase3_start_time","goal_1_value","goal_1_distance","goal_2_value","goal_2_distance","goal_selected","outcome","outcome_total","participant_final_score","participant_initial_score","participant_final_score_prop","goal_choice_rt","allocated_time","allocated_time_remaining","goal_direction","counts","mouse_movements","key_presses","correct","slider_start"
"23489","1751451688940","<p style='font-size:40px;line-height:1.25'><strong>Welcome to the experiment!</strong></p><p style='font-size:1.1em;line-height:1.25'>Thank you for your interest in our experiment! Before you begin, it is important that we obtain your informed consent to participate in the study.</p><p style='font-size:1.1em;line-height:1.25'>On the next screen will be an <strong>information sheet</strong> for you to read. To participate in the study we need you to read this information sheet and the following consent form carefully. If you agree with all the statements, please click the <strong>I agree</strong> button.</p><p style='font-size:1.1em;line-height:1.25'>Press <strong>Next</strong> to read the information sheet.</p>","0","custom-html-button-response","0","23498","0.0-0.0","143","1","2025-07-02 10:20:55","80fe4187154257d5fb01684ea91b68b9","216.120.189.120","Mozilla/5.0 (Windows NT 10.0; Win64; x64) AppleWebKit/537.36 (KHTML, like Gecko) Chrome/138.0.0.0 Safari/537.36","WebKit","Chrome","138.0.0.0","Windows","10.0","https://app.prolific.com/","en-US,en;q=0.9","6786c32f329b1d694103f225","683db6dfa200031b80f2a654","686507720612f58983a28ad5","6786c32f329b1d694103f225","2025-07-02T10:21:28.944Z","","","","","","","","","","","","","","","","","","","","","","","","","","","","","","","","","","","","","","","","","","","",""
"107001","","","","instructions","1","130503","0.0-1.0","143","1","2025-07-02 10:20:55","80fe4187154257d5fb01684ea91b68b9","216.120.189.120","Mozilla/5.0 (Windows NT 10.0; Win64; x64) AppleWebKit/537.36 (KHTML, like Gecko) Chrome/138.0.0.0 Safari/537.36","WebKit","Chrome","138.0.0.0","Windows","10.0","https://app.prolific.com/","en-US,en;q=0.9","6786c32f329b1d694103f225","683db6dfa200031b80f2a654","686507720612f58983a28ad5","6786c32f329b1d694103f225","","[{""page_index"":0,""viewing_time"":82402},{""page_index"":1,""viewing_time"":24598}]","","","","","","","","","","","","","","","","","","","","","","","","","","","","","","","","","","","","","","","","","","",""
"20470","","","{""Q0"":"""",""Q1"":"""",""Q2"":"""",""Q3"":"""",""Q4"":"""",""Q5"":"""",""Q6"":""I agree""}","survey-multi-choice","2","150982","0.0-2.0","143","1","2025-07-02 10:20:55","80fe4187154257d5fb01684ea91b68b9","216.120.189.120","Mozilla/5.0 (Windows NT 10.0; Win64; x64) AppleWebKit/537.36 (KHTML, like Gecko) Chrome/138.0.0.0 Safari/537.36","WebKit","Chrome","138.0.0.0","Windows","10.0","https://app.prolific.com/","en-US,en;q=0.9","6786c32f329b1d694103f225","683db6dfa200031b80f2a654","686507720612f58983a28ad5","6786c32f329b1d694103f225","","","[0,1,2,3,4,5,6]","true","","","","","","","","","","","","","","","","","","","","","","","","","","","","","","","","","","","","","","","","",""
"17507","","","","fullscreen","3","169555","0.0-4.0","143","1","2025-07-02 10:20:55","80fe4187154257d5fb01684ea91b68b9","216.120.189.120","Mozilla/5.0 (Windows NT 10.0; Win64; x64) AppleWebKit/537.36 (KHTML, like Gecko) Chrome/138.0.0.0 Safari/537.36","WebKit","Chrome","138.0.0.0","Windows","10.0","https://app.prolific.com/","en-US,en;q=0.9","6786c32f329b1d694103f225","683db6dfa200031b80f2a654","686507720612f58983a28ad5","6786c32f329b1d694103f225","","","","","true","","","","","","","","","","","","","","","","","","","","","","","","","","","","","","","","","","","","","","","",""
"9957","1751451844964"," <p style='font-size:1.1em;line-height:1.25'>Thank you for completing the consent form and closing all other tabs.</p><p style='font-size:1.1em;line-height:1.25'>We will now invite you to fill in some demographic information and questionnaires, before starting the game.<br>This will take about 5 minutes.<br></p><p style='font-size:1.1em;line-height:1.25'>Press the <strong>Next</strong> button to continue.</p>","0","custom-html-button-response","4","179520","0.0-5.0","143","1","2025-07-02 10:20:55","80fe4187154257d5fb01684ea91b68b9","216.120.189.120","Mozilla/5.0 (Windows NT 10.0; Win64; x64) AppleWebKit/537.36 (KHTML, like Gecko) Chrome/138.0.0.0 Safari/537.36","WebKit","Chrome","138.0.0.0","Windows","10.0","https://app.prolific.com/","en-US,en;q=0.9","6786c32f329b1d694103f225","683db6dfa200031b80f2a654","686507720612f58983a28ad5","6786c32f329b1d694103f225","2025-07-02T10:24:04.967Z","","","","","","","","","","","","","","","","","","","","","","","","","","","","","","","","","","","","","","","","","","","",""
"10470","","","{""age"":""38""}","survey-text","5","190007","0.0-6.0-0.0","143","1","2025-07-02 10:20:55","80fe4187154257d5fb01684ea91b68b9","216.120.189.120","Mozilla/5.0 (Windows NT 10.0; Win64; x64) AppleWebKit/537.36 (KHTML, like Gecko) Chrome/138.0.0.0 Safari/537.36","WebKit","Chrome","138.0.0.0","Windows","10.0","https://app.prolific.com/","en-US,en;q=0.9","6786c32f329b1d694103f225","683db6dfa200031b80f2a654","686507720612f58983a28ad5","6786c32f329b1d694103f225","","","","","","0","demographics","","","","","","","","","","","","","","","","","","","","","","","","","","","","","","","","","","","","","",""
"6971","","","{""gender_identity"":""female/woman""}","survey-multi-choice","6","196983","0.0-6.0-1.0","143","1","2025-07-02 10:20:55","80fe4187154257d5fb01684ea91b68b9","216.120.189.120","Mozilla/5.0 (Windows NT 10.0; Win64; x64) AppleWebKit/537.36 (KHTML, like Gecko) Chrome/138.0.0.0 Safari/537.36","WebKit","Chrome","138.0.0.0","Windows","10.0","https://app.prolific.com/","en-US,en;q=0.9","6786c32f329b1d694103f225","683db6dfa200031b80f2a654","686507720612f58983a28ad5","6786c32f329b1d694103f225","","","[0]","","","1","demographics","","","","","","","","","","","","","","","","","","","","","","","","","","","","","","","","","","","","","",""
"5339","","","{""assigned_sex"":""female""}","survey-multi-choice","7","202325","0.0-6.0-2.0","143","1","2025-07-02 10:20:55","80fe4187154257d5fb01684ea91b68b9","216.120.189.120","Mozilla/5.0 (Windows NT 10.0; Win64; x64) AppleWebKit/537.36 (KHTML, like Gecko) Chrome/138.0.0.0 Safari/537.36","WebKit","Chrome","138.0.0.0","Windows","10.0","https://app.prolific.com/","en-US,en;q=0.9","6786c32f329b1d694103f225","683db6dfa200031b80f2a654","686507720612f58983a28ad5","6786c32f329b1d694103f225","","","[0]","","","2","demographics","","","","","","","","","","","","","","","","","","","","","","","","","","","","","","","","","","","","","",""
"9334","","","{""menstrual_cycle"":""Yes""}","survey-multi-choice","8","211662","0.0-6.0-3.0","143","1","2025-07-02 10:20:55","80fe4187154257d5fb01684ea91b68b9","216.120.189.120","Mozilla/5.0 (Windows NT 10.0; Win64; x64) AppleWebKit/537.36 (KHTML, like Gecko) Chrome/138.0.0.0 Safari/537.36","WebKit","Chrome","138.0.0.0","Windows","10.0","https://app.prolific.com/","en-US,en;q=0.9","6786c32f329b1d694103f225","683db6dfa200031b80f2a654","686507720612f58983a28ad5","6786c32f329b1d694103f225","","","[0]","","","4","demographics","","","","","","","","","","","","","","","","","","","","","","","","","","","","","","","","","","","","","",""
"7257","","","{""education"":""Master's Degree (e.g., MSc)""}","survey-multi-choice","9","218922","0.0-6.0-4.0","143","1","2025-07-02 10:20:55","80fe4187154257d5fb01684ea91b68b9","216.120.189.120","Mozilla/5.0 (Windows NT 10.0; Win64; x64) AppleWebKit/537.36 (KHTML, like Gecko) Chrome/138.0.0.0 Safari/537.36","WebKit","Chrome","138.0.0.0","Windows","10.0","https://app.prolific.com/","en-US,en;q=0.9","6786c32f329b1d694103f225","683db6dfa200031b80f2a654","686507720612f58983a28ad5","6786c32f329b1d694103f225","","","[0]","","","5","demographics","","","","","","","","","","","","","","","","","","","","","","","","","","","","","","","","","","","","","",""
"9167","","","{""education"":""Master's Degree (e.g., MSc)""}","survey-multi-choice","10","228092","0.0-6.0-5.0","143","1","2025-07-02 10:20:55","80fe4187154257d5fb01684ea91b68b9","216.120.189.120","Mozilla/5.0 (Windows NT 10.0; Win64; x64) AppleWebKit/537.36 (KHTML, like Gecko) Chrome/138.0.0.0 Safari/537.36","WebKit","Chrome","138.0.0.0","Windows","10.0","https://app.prolific.com/","en-US,en;q=0.9","6786c32f329b1d694103f225","683db6dfa200031b80f2a654","686507720612f58983a28ad5","6786c32f329b1d694103f225","2025-07-02T10:24:53.538Z","","[0]","","","6","demographics","","","","","","","","","","","","","","","","","","","","","","","","","","","","","","","","","","","","","",""
"20470","","","{""mental_health_condition"":""no"",""mental_health_treatment"":""no"",""psychiatric_medication"":""none""}","survey-text","11","248587","0.0-7.0-0.0","143","1","2025-07-02 10:20:55","80fe4187154257d5fb01684ea91b68b9","216.120.189.120","Mozilla/5.0 (Windows NT 10.0; Win64; x64) AppleWebKit/537.36 (KHTML, like Gecko) Chrome/138.0.0.0 Safari/537.36","WebKit","Chrome","138.0.0.0","Windows","10.0","https://app.prolific.com/","en-US,en;q=0.9","6786c32f329b1d694103f225","683db6dfa200031b80f2a654","686507720612f58983a28ad5","6786c32f329b1d694103f225","2025-07-02T10:25:14.033Z","","","","","1","mental_health","","","","","","","","","","","","","","","","","","","","","","","","","","","","","","","","","","","","","",""
"29679","","","{""depression_history"":[""No""]}","survey-multi-select","12","278274","0.0-7.0-1.0","143","1","2025-07-02 10:20:55","80fe4187154257d5fb01684ea91b68b9","216.120.189.120","Mozilla/5.0 (Windows NT 10.0; Win64; x64) AppleWebKit/537.36 (KHTML, like Gecko) Chrome/138.0.0.0 Safari/537.36","WebKit","Chrome","138.0.0.0","Windows","10.0","https://app.prolific.com/","en-US,en;q=0.9","6786c32f329b1d694103f225","683db6dfa200031b80f2a654","686507720612f58983a28ad5","6786c32f329b1d694103f225","","","[0]","","","","mental_health","","","","","","","","","","","","","","","","","","","","","","","","","","","","","","","","","","","","","",""
"121308.5","","","","survey-template","13","399593","0.0-7.0-3.0","143","1","2025-07-02 10:20:55","80fe4187154257d5fb01684ea91b68b9","216.120.189.120","Mozilla/5.0 (Windows NT 10.0; Win64; x64) AppleWebKit/537.36 (KHTML, like Gecko) Chrome/138.0.0.0 Safari/537.36","WebKit","Chrome","138.0.0.0","Windows","10.0","https://app.prolific.com/","en-US,en;q=0.9","6786c32f329b1d694103f225","683db6dfa200031b80f2a654","686507720612f58983a28ad5","6786c32f329b1d694103f225","2025-07-02T10:27:45.039Z","","","","","","ius","{""Q01"":""0"",""Q02"":""4"",""Q03"":""0"",""Q04"":""2"",""Q05"":""1"",""Q06"":""0"",""Q07"":""0"",""Q08"":""0"",""Q09"":""2"",""Q10"":""0"",""Q11"":""0"",""Q12"":""2"",""Q13"":""0""}","[0,1,2,3,4,5,6,7,8,9,10,11,12]","[""Q01"",""Q02"",""Q03"",""Q04"",""Q05"",""Q06"",""Q07"",""Q08"",""Q09"",""Q10"",""Q11"",""Q12"",""Q13""]","[20126.599999999627,24298.800000000745,29859.800000000745,33698.40000000037,43197.699999999255,46450.40000000037,52191.59999999963,66619.09999999963,73085,77609.5,81705.09999999963,114604.19999999925,117293]","[]","[20126.599999999627,24298.800000000745,29859.800000000745,33698.40000000037,43197.699999999255,46450.40000000037,52191.59999999963,65280.5,66619.09999999963,73085,77609.5,81705.09999999963,114604.19999999925,117293,121298.80000000075]","0.6153846153846154","0.3333333333333333","0","","","","","","","","","","","","","","","","","","","","","","","","","","","","",""
"9831","1751452074872","<p style='font-size:1.1em;line-height:1.25'>In the following, we will ask you a few questions relating to your experiences over the past month.<br></p><p style='font-size:1.1em;line-height:1.25'>Press the <strong>Next</strong> button to continue.</p>","0","custom-html-button-response","14","409427","0.0-7.0-4.0","143","1","2025-07-02 10:20:55","80fe4187154257d5fb01684ea91b68b9","216.120.189.120","Mozilla/5.0 (Windows NT 10.0; Win64; x64) AppleWebKit/537.36 (KHTML, like Gecko) Chrome/138.0.0.0 Safari/537.36","WebKit","Chrome","138.0.0.0","Windows","10.0","https://app.prolific.com/","en-US,en;q=0.9","6786c32f329b1d694103f225","683db6dfa200031b80f2a654","686507720612f58983a28ad5","6786c32f329b1d694103f225","2025-07-02T10:27:54.874Z","","","","","","","","","","","","","","","","","","","","","","","","","","","","","","","","","","","","","","","","","","","",""
"125601.19999999925","","","","survey-template","15","535036","0.0-7.0-5.0","143","1","2025-07-02 10:20:55","80fe4187154257d5fb01684ea91b68b9","216.120.189.120","Mozilla/5.0 (Windows NT 10.0; Win64; x64) AppleWebKit/537.36 (KHTML, like Gecko) Chrome/138.0.0.0 Safari/537.36","WebKit","Chrome","138.0.0.0","Windows","10.0","https://app.prolific.com/","en-US,en;q=0.9","6786c32f329b1d694103f225","683db6dfa200031b80f2a654","686507720612f58983a28ad5","6786c32f329b1d694103f225","2025-07-02T10:30:00.482Z","","","","","","pss","{""Q01"":""2"",""Q02"":""2"",""Q03"":""2"",""Q04"":""2"",""Q05"":""1"",""Q06"":""2"",""Q07"":""3"",""Q08"":""2"",""Q09"":""2"",""Q10"":""2""}","[0,1,2,3,4,5,6,7,8,9]","[""Q01"",""Q02"",""Q03"",""Q04"",""Q05"",""Q06"",""Q07"",""Q08"",""Q09"",""Q10""]","[18832.299999998882,34458.89999999851,42494.5,57769.699999999255,73651.89999999851,78995.69999999925,86432,98049.5,104642.39999999851,110685.5]","[]","[0,18832.299999998882,34458.89999999851,42494.5,57769.699999999255,73651.89999999851,78995.69999999925,86432,98049.5,104642.39999999851,109588.59999999963,110685.5,125593.09999999963]","0.8","0.4444444444444444","0","","","","","","","","","","","","","","","","","","","","","","","","","","","","",""
"7803","1751452208289","<p style='font-size:1.1em;line-height:1.25'>Thank you for your answers! Now we will ask you a few more questions relating to your feelings in the last 24 hours.<br></p><p style='font-size:1.1em;line-height:1.25'>Press the <strong>Next</strong> button to continue.</p>","0","custom-html-button-response","16","542843","0.0-7.0-6.0","143","1","2025-07-02 10:20:55","80fe4187154257d5fb01684ea91b68b9","216.120.189.120","Mozilla/5.0 (Windows NT 10.0; Win64; x64) AppleWebKit/537.36 (KHTML, like Gecko) Chrome/138.0.0.0 Safari/537.36","WebKit","Chrome","138.0.0.0","Windows","10.0","https://app.prolific.com/","en-US,en;q=0.9","6786c32f329b1d694103f225","683db6dfa200031b80f2a654","686507720612f58983a28ad5","6786c32f329b1d694103f225","2025-07-02T10:30:08.290Z","","","","","","","","","","","","","","","","","","","","","","","","","","","","","","","","","","","","","","","","","","","",""
"126670.79999999888","","","","survey-template","17","669526","0.0-7.0-7.0","143","1","2025-07-02 10:20:55","80fe4187154257d5fb01684ea91b68b9","216.120.189.120","Mozilla/5.0 (Windows NT 10.0; Win64; x64) AppleWebKit/537.36 (KHTML, like Gecko) Chrome/138.0.0.0 Safari/537.36","WebKit","Chrome","138.0.0.0","Windows","10.0","https://app.prolific.com/","en-US,en;q=0.9","6786c32f329b1d694103f225","683db6dfa200031b80f2a654","686507720612f58983a28ad5","6786c32f329b1d694103f225","2025-07-02T10:32:14.972Z","","","","","","drsp","{""Q01"":""1"",""Q02"":""0"",""Q03"":""0"",""Q04"":""1"",""Q05"":""2"",""Q06"":""1"",""Q07"":""1"",""Q08"":""1"",""Q09"":""1"",""Q10"":""1"",""Q11"":""3"",""Q12"":""3"",""Q13"":""3"",""Q14"":""2"",""Q15"":""1"",""Q16"":""3"",""Q17"":""1"",""Q18"":""3"",""Q19"":""2"",""Q20"":""2"",""Q21"":""0""}","[0,1,2,3,4,5,6,7,8,9,10,11,12,13,14,15,16,17,18,19,20]","[""Q01"",""Q02"",""Q03"",""Q04"",""Q05"",""Q06"",""Q07"",""Q08"",""Q09"",""Q10"",""Q11"",""Q12"",""Q13"",""Q13"",""Q14"",""Q15"",""Q16"",""Q17"",""Q18"",""Q19"",""Q20"",""Q21""]","[15133.199999999255,17926.099999999627,22324.099999999627,23663.199999999255,45157.39999999851,49711,51865.89999999851,56635.199999999255,59186.09999999963,61889.39999999851,64503,67577.39999999851,70266.19999999925,71784.89999999851,75101.09999999963,81604,87163.89999999851,89419.09999999963,96190.19999999925,106575.19999999925,112066,117664.09999999963]","[]","[0.09999999962747097,15133.199999999255,17926.099999999627,20361.5,20551.39999999851,22324.099999999627,23663.199999999255,45157.39999999851,49711,51865.89999999851,56635.199999999255,59186.09999999963,61889.39999999851,64503,67577.39999999851,70266.19999999925,71784.89999999851,75101.09999999963,81604,84868.19999999925,87163.89999999851,89419.09999999963,96190.19999999925,106575.19999999925,112066,117664.09999999963,126655.59999999963]","0.42857142857142855","0.35","0","","","","","","","","","","","","","","","","","","","","","","","","","","","","",""
"16797.5","","","","survey-template","18","686328","0.0-7.0-8.0","143","1","2025-07-02 10:20:55","80fe4187154257d5fb01684ea91b68b9","216.120.189.120","Mozilla/5.0 (Windows NT 10.0; Win64; x64) AppleWebKit/537.36 (KHTML, like Gecko) Chrome/138.0.0.0 Safari/537.36","WebKit","Chrome","138.0.0.0","Windows","10.0","https://app.prolific.com/","en-US,en;q=0.9","6786c32f329b1d694103f225","683db6dfa200031b80f2a654","686507720612f58983a28ad5","6786c32f329b1d694103f225","2025-07-02T10:32:31.775Z","","","","","","stress","{""Q01"":""1"",""Q02"":""2"",""Q03"":""2""}","[0,1,2]","[""Q01"",""Q02"",""Q03""]","[8940.599999999627,11450.5,15147.799999998882]","[]","[8940.599999999627,11450.5,15147.799999998882,16794.5]","0.3333333333333333","0.5","0","","","","","","","","","","","","","","","","","","","","","","","","","","","","",""
"135754","","","","instructions","19","822086","0.0-8.0-0.0","143","1","2025-07-02 10:20:55","80fe4187154257d5fb01684ea91b68b9","216.120.189.120","Mozilla/5.0 (Windows NT 10.0; Win64; x64) AppleWebKit/537.36 (KHTML, like Gecko) Chrome/138.0.0.0 Safari/537.36","WebKit","Chrome","138.0.0.0","Windows","10.0","https://app.prolific.com/","en-US,en;q=0.9","6786c32f329b1d694103f225","683db6dfa200031b80f2a654","686507720612f58983a28ad5","6786c32f329b1d694103f225","","[{""page_index"":0,""viewing_time"":41856},{""page_index"":1,""viewing_time"":39309},{""page_index"":2,""viewing_time"":21773},{""page_index"":3,""viewing_time"":32816}]","","","","","","","","","","","","","","","","","","","","","","","","","","","","","","","","","","","","","","","","","","",""
"","","","","ctl-task-cpt","20","857629","0.0-8.0-1.0","143","1","2025-07-02 10:20:55","80fe4187154257d5fb01684ea91b68b9","216.120.189.120","Mozilla/5.0 (Windows NT 10.0; Win64; x64) AppleWebKit/537.36 (KHTML, like Gecko) Chrome/138.0.0.0 Safari/537.36","WebKit","Chrome","138.0.0.0","Windows","10.0","https://app.prolific.com/","en-US,en;q=0.9","6786c32f329b1d694103f225","683db6dfa200031b80f2a654","686507720612f58983a28ad5","6786c32f329b1d694103f225","","","","","","","","","","","","","","","","","win-only","1","g1:NE,g2:SW","1","0","1","832495","7105.1","11107","32527.6","2","4","4","6","2","-4","-6","0","0","0","4001.8","4000","-2705","[""down"",""left""]","{""num_key_presses"":6,""num_perfect"":4,""num_errors"":2,""num_randdir"":0,""num_randdir_good_moves"":0,""num_whilered"":0,""num_whileblue"":0,""num_blue"":0,""num_good_moves"":0}","[297.22232142857143,303.12857142857143,1.2,297.22232142857143,303.12857142857143,101.6,297.22232142857143,303.12857142857143,201.9,297.22232142857143,303.12857142857143,306.3,297.22232142857143,303.12857142857143,406.4,297.22232142857143,303.12857142857143,506.7,297.22232142857143,303.12857142857143,613.4,297.22232142857143,303.12857142857143,716.7,297.22232142857143,303.12857142857143,821.4,297.22232142857143,303.12857142857143,921.5,297.22232142857143,303.12857142857143,1031.2,297.22232142857143,303.12857142857143,1131.4,297.22232142857143,303.12857142857143,1231.6,297.22232142857143,303.12857142857143,1336.1,297.22232142857143,303.12857142857143,1436.6,297.22232142857143,303.12857142857143,1542.9,297.22232142857143,303.12857142857143,1643.2,297.22232142857143,303.12857142857143,1747.3,297.22232142857143,303.12857142857143,1851.1,297.22232142857143,303.12857142857143,1951.1,297.22232142857143,303.12857142857143,2051.7,297.22232142857143,303.12857142857143,2156.5,297.22232142857143,303.12857142857143,2257.5,297.22232142857143,303.12857142857143,2361.9,297.22232142857143,303.12857142857143,2463.8,297.22232142857143,303.12857142857143,2567,297.22232142857143,303.12857142857143,2671.3,297.22232142857143,303.12857142857143,2771.4,297.22232142857143,303.12857142857143,2878.5,297.22232142857143,303.12857142857143,2979.1,297.22232142857143,303.12857142857143,3081,297.22232142857143,303.12857142857143,3181.6,297.22232142857143,303.12857142857143,3286.2,297.22232142857143,303.12857142857143,3387.2,297.22232142857143,303.12857142857143,3491.4,297.22232142857143,303.12857142857143,3592.9,297.22232142857143,303.12857142857143,3696.6,297.22232142857143,303.12857142857143,3798.8,297.22232142857143,303.12857142857143,3900.9]","[2238.1,2238.1,1000,0,1238.1,""smooth"",""up"",""up"",""bad_move"",3046.1,806.5,1480.3,2239.7,-673.9,""error"",""-"",""-"",""no_move"",6247.2,3200.2,2614.7,4047.6,-415.1,""error"",""-"",""-"",""no_move"",11379.7,5131.4,2646.2,7249.3,1484.2,""smooth"",""up"",""up"",""bad_move"",14884.1,3503.1,2780.6,11381.2,722.3,""smooth"",""right"",""right"",""bad_move"",18582.1,3696.6,2985.3,14885.5,711.3,""smooth"",""right"",""right"",""bad_move""]","",""
"360826","","","","instructions","21","1218456","0.0-8.0-2.0","143","1","2025-07-02 10:20:55","80fe4187154257d5fb01684ea91b68b9","216.120.189.120","Mozilla/5.0 (Windows NT 10.0; Win64; x64) AppleWebKit/537.36 (KHTML, like Gecko) Chrome/138.0.0.0 Safari/537.36","WebKit","Chrome","138.0.0.0","Windows","10.0","https://app.prolific.com/","en-US,en;q=0.9","6786c32f329b1d694103f225","683db6dfa200031b80f2a654","686507720612f58983a28ad5","6786c32f329b1d694103f225","","[{""page_index"":0,""viewing_time"":360825}]","","","","","","","","","","","","","","","","","","","","","","","","","","","","","","","","","","","","","","","","","","",""
"","","","","ctl-task-cpt","22","1277092","0.0-8.0-3.0","143","1","2025-07-02 10:20:55","80fe4187154257d5fb01684ea91b68b9","216.120.189.120","Mozilla/5.0 (Windows NT 10.0; Win64; x64) AppleWebKit/537.36 (KHTML, like Gecko) Chrome/138.0.0.0 Safari/537.36","WebKit","Chrome","138.0.0.0","Windows","10.0","https://app.prolific.com/","en-US,en;q=0.9","6786c32f329b1d694103f225","683db6dfa200031b80f2a654","686507720612f58983a28ad5","6786c32f329b1d694103f225","","","","","","","","","","","","","","","","","win-only","1","g1:NE,g2:SW","0.35","0","3","1228864.3","5266.8","9269.1","55622","2","4","8","6","1","-2","-3","0","0","0","4002.3","4000","-2495","[""up"",""right""]","{""num_key_presses"":12,""num_perfect"":4,""num_errors"":1,""num_randdir"":7,""num_randdir_good_moves"":4,""num_whilered"":0,""num_whileblue"":1,""num_blue"":4,""num_good_moves"":5}","[294.22232142857143,302.12857142857143,1.6,294.22232142857143,302.12857142857143,101.9,294.22232142857143,302.12857142857143,204.9,294.22232142857143,302.12857142857143,305.6,294.22232142857143,302.12857142857143,412.1,294.22232142857143,302.12857142857143,521.5,294.22232142857143,302.12857142857143,625.1,294.22232142857143,302.12857142857143,731.6,294.22232142857143,302.12857142857143,836.1,294.22232142857143,302.12857142857143,937.4,294.22232142857143,302.12857142857143,1040.8,294.22232142857143,302.12857142857143,1144.5,294.22232142857143,302.12857142857143,1251.8,294.22232142857143,302.12857142857143,1352,294.22232142857143,302.12857142857143,1455.1,294.22232142857143,302.12857142857143,1555.6,294.22232142857143,302.12857142857143,1661.5,294.22232142857143,302.12857142857143,1767.6,294.22232142857143,302.12857142857143,1871.4,294.22232142857143,302.12857142857143,1975,294.22232142857143,302.12857142857143,2081.5,294.22232142857143,302.12857142857143,2186,294.22232142857143,302.12857142857143,2290.7,294.22232142857143,302.12857142857143,2394.3,294.22232142857143,302.12857142857143,2494.6,294.22232142857143,302.12857142857143,2594.8,294.22232142857143,302.12857142857143,2694.9,294.22232142857143,302.12857142857143,2800.7,294.22232142857143,302.12857142857143,2905.7,294.22232142857143,302.12857142857143,3011.8,294.22232142857143,302.12857142857143,3114.8,294.22232142857143,302.12857142857143,3219.9,294.22232142857143,302.12857142857143,3341.8,294.22232142857143,302.12857142857143,3445.6,294.22232142857143,302.12857142857143,3545.8,294.22232142857143,302.12857142857143,3646.2,294.22232142857143,302.12857142857143,3751.1,294.22232142857143,302.12857142857143,3853.4,294.22232142857143,302.12857142857143,3955.1]","[1687.2,1687.1,1000,0.1,687.1,""smooth"",""left"",""left"",""bad_move"",4912.3,3223.5,2766.6,1688.9,456.8,""oops"",""down"",""down"",""bad_move"",7975.1,3060.9,2607.8,4914.2,453.2,""oops"",""left"",""left"",""bad_move"",13655,5678.6,1890.5,11364,400.5,""oops"",""down"",""down"",""bad_move"",16947.4,3291.6,2778.5,13655.8,513.1,""oops"",""left"",""up"",""good_move"",19494.7,2546,1865.9,16948.8,680.1,""smooth"",""right"",""right"",""good_move"",22114.4,2618.1,2269.2,19496.4,348.9,""smooth"",""down"",""down"",""bad_move"",25105.1,2989.4,2659,22115.8,330.3,""smooth"",""down"",""down"",""bad_move"",28479.3,3370.6,2865.3,25108.7,505.3,""while_blue"",""left"",""left"",""bad_move"",34597.5,6116.9,2251.7,31885.1,460.7,""oops"",""left"",""right"",""good_move"",41014.6,6416.1,2673.1,37963.4,378.1,""oops"",""right"",""right"",""good_move"",43812.8,2797.4,2373.2,41015.4,424.2,""oops"",""right"",""right"",""good_move""]","",""
"89262","","","","instructions","23","1366356","0.0-8.0-4.0","143","1","2025-07-02 10:20:55","80fe4187154257d5fb01684ea91b68b9","216.120.189.120","Mozilla/5.0 (Windows NT 10.0; Win64; x64) AppleWebKit/537.36 (KHTML, like Gecko) Chrome/138.0.0.0 Safari/537.36","WebKit","Chrome","138.0.0.0","Windows","10.0","https://app.prolific.com/","en-US,en;q=0.9","6786c32f329b1d694103f225","683db6dfa200031b80f2a654","686507720612f58983a28ad5","6786c32f329b1d694103f225","","[{""page_index"":0,""viewing_time"":24839},{""page_index"":1,""viewing_time"":64422}]","","","","","","","","","","","","","","","","","","","","","","","","","","","","","","","","","","","","","","","","","","",""
"113018","","","{""green_ball"":[""Ball sometimes shakes and moves in a random direction""]}","survey-multi-select","24","1479381","0.0-8.0-5.0-0.0","143","1","2025-07-02 10:20:55","80fe4187154257d5fb01684ea91b68b9","216.120.189.120","Mozilla/5.0 (Windows NT 10.0; Win64; x64) AppleWebKit/537.36 (KHTML, like Gecko) Chrome/138.0.0.0 Safari/537.36","WebKit","Chrome","138.0.0.0","Windows","10.0","https://app.prolific.com/","en-US,en;q=0.9","6786c32f329b1d694103f225","683db6dfa200031b80f2a654","686507720612f58983a28ad5","6786c32f329b1d694103f225","","","[0]","","","","quiz","","","","","","","","","","","","","","","","","","","","","","","","","","","","","","","","","","","","","true",""
"7133","","<p align='center'><b>CORRECT!</b> Indeed, the green ball may sometimes shake and move in a random direction.</p>","0","html-button-response","25","1486518","0.0-8.0-5.0-1.0","143","1","2025-07-02 10:20:55","80fe4187154257d5fb01684ea91b68b9","216.120.189.120","Mozilla/5.0 (Windows NT 10.0; Win64; x64) AppleWebKit/537.36 (KHTML, like Gecko) Chrome/138.0.0.0 Safari/537.36","WebKit","Chrome","138.0.0.0","Windows","10.0","https://app.prolific.com/","en-US,en;q=0.9","6786c32f329b1d694103f225","683db6dfa200031b80f2a654","686507720612f58983a28ad5","6786c32f329b1d694103f225","","","","","","","","","","","","","","","","","","","","","","","","","","","","","","","","","","","","","","","","","","","","",""
"27550","","","{""yellow_ball"":[""Ball doesn‘t move and I get -1 penalty point""]}","survey-multi-select","26","1514077","0.0-8.0-6.0-0.0","143","1","2025-07-02 10:20:55","80fe4187154257d5fb01684ea91b68b9","216.120.189.120","Mozilla/5.0 (Windows NT 10.0; Win64; x64) AppleWebKit/537.36 (KHTML, like Gecko) Chrome/138.0.0.0 Safari/537.36","WebKit","Chrome","138.0.0.0","Windows","10.0","https://app.prolific.com/","en-US,en;q=0.9","6786c32f329b1d694103f225","683db6dfa200031b80f2a654","686507720612f58983a28ad5","6786c32f329b1d694103f225","","","[0]","","","","quiz","","","","","","","","","","","","","","","","","","","","","","","","","","","","","","","","","","","","","true",""
"5664","","<p align='center'><b>CORRECT!</b> Indeed, the yellow ball never moves and you receive a penalty.</p>","0","html-button-response","27","1519745","0.0-8.0-6.0-1.0","143","1","2025-07-02 10:20:55","80fe4187154257d5fb01684ea91b68b9","216.120.189.120","Mozilla/5.0 (Windows NT 10.0; Win64; x64) AppleWebKit/537.36 (KHTML, like Gecko) Chrome/138.0.0.0 Safari/537.36","WebKit","Chrome","138.0.0.0","Windows","10.0","https://app.prolific.com/","en-US,en;q=0.9","6786c32f329b1d694103f225","683db6dfa200031b80f2a654","686507720612f58983a28ad5","6786c32f329b1d694103f225","","","","","","","","","","","","","","","","","","","","","","","","","","","","","","","","","","","","","","","","","","","","",""
"35065","","","{""blue_ball"":[""Ball always shakes and moves in a random direction""]}","survey-multi-select","28","1554815","0.0-8.0-7.0-0.0","143","1","2025-07-02 10:20:55","80fe4187154257d5fb01684ea91b68b9","216.120.189.120","Mozilla/5.0 (Windows NT 10.0; Win64; x64) AppleWebKit/537.36 (KHTML, like Gecko) Chrome/138.0.0.0 Safari/537.36","WebKit","Chrome","138.0.0.0","Windows","10.0","https://app.prolific.com/","en-US,en;q=0.9","6786c32f329b1d694103f225","683db6dfa200031b80f2a654","686507720612f58983a28ad5","6786c32f329b1d694103f225","","","[0]","","","","quiz","","","","","","","","","","","","","","","","","","","","","","","","","","","","","","","","","","","","","true",""
"5846","","<p align='center'><b>CORRECT!</b> Indeed, the blue ball always shakes and moves in a random direction. Also there is a penalty of -1 point.</p>","0","html-button-response","29","1560665","0.0-8.0-7.0-1.0","143","1","2025-07-02 10:20:55","80fe4187154257d5fb01684ea91b68b9","216.120.189.120","Mozilla/5.0 (Windows NT 10.0; Win64; x64) AppleWebKit/537.36 (KHTML, like Gecko) Chrome/138.0.0.0 Safari/537.36","WebKit","Chrome","138.0.0.0","Windows","10.0","https://app.prolific.com/","en-US,en;q=0.9","6786c32f329b1d694103f225","683db6dfa200031b80f2a654","686507720612f58983a28ad5","6786c32f329b1d694103f225","","","","","","","","","","","","","","","","","","","","","","","","","","","","","","","","","","","","","","","","","","","","",""
"10850","","","{""bonus"":[""When I reach 50% of points""]}","survey-multi-select","30","1571520","0.0-8.0-8.0-0.0","143","1","2025-07-02 10:20:55","80fe4187154257d5fb01684ea91b68b9","216.120.189.120","Mozilla/5.0 (Windows NT 10.0; Win64; x64) AppleWebKit/537.36 (KHTML, like Gecko) Chrome/138.0.0.0 Safari/537.36","WebKit","Chrome","138.0.0.0","Windows","10.0","https://app.prolific.com/","en-US,en;q=0.9","6786c32f329b1d694103f225","683db6dfa200031b80f2a654","686507720612f58983a28ad5","6786c32f329b1d694103f225","","","[0]","","","","quiz","","","","","","","","","","","","","","","","","","","","","","","","","","","","","","","","","","","","","true",""
"3116","","<p align='center'><b>CORRECT!</b> Indeed, you receive 2 pounds extra when you reach 50% of points.</p>","0","html-button-response","31","1574640","0.0-8.0-8.0-1.0","143","1","2025-07-02 10:20:55","80fe4187154257d5fb01684ea91b68b9","216.120.189.120","Mozilla/5.0 (Windows NT 10.0; Win64; x64) AppleWebKit/537.36 (KHTML, like Gecko) Chrome/138.0.0.0 Safari/537.36","WebKit","Chrome","138.0.0.0","Windows","10.0","https://app.prolific.com/","en-US,en;q=0.9","6786c32f329b1d694103f225","683db6dfa200031b80f2a654","686507720612f58983a28ad5","6786c32f329b1d694103f225","","","","","","","","","","","","","","","","","","","","","","","","","","","","","","","","","","","","","","","","","","","","",""
"14609","","","","instructions","32","1589251","0.0-8.0-9.0","143","1","2025-07-02 10:20:55","80fe4187154257d5fb01684ea91b68b9","216.120.189.120","Mozilla/5.0 (Windows NT 10.0; Win64; x64) AppleWebKit/537.36 (KHTML, like Gecko) Chrome/138.0.0.0 Safari/537.36","WebKit","Chrome","138.0.0.0","Windows","10.0","https://app.prolific.com/","en-US,en;q=0.9","6786c32f329b1d694103f225","683db6dfa200031b80f2a654","686507720612f58983a28ad5","6786c32f329b1d694103f225","","[{""page_index"":0,""viewing_time"":14608}]","","","","","","","","","","","","","","","","","","","","","","","","","","","","","","","","","","","","","","","","","","",""
"23271","","<p>Before you start with this game please answer the following three questions yourself. </p>
  <p>Through this game, we measure several aspects of your cognitive performance, such as reaction times, multi-tasking capabilities </p>
  <p>and the ability to assess the situation you are in.</p>
  <p></p>
  <p><b>How good do you usually are in such tasks?</b></p>","78","html-slider-response","33","1612527","0.0-9.0-0.0","143","1","2025-07-02 10:20:55","80fe4187154257d5fb01684ea91b68b9","216.120.189.120","Mozilla/5.0 (Windows NT 10.0; Win64; x64) AppleWebKit/537.36 (KHTML, like Gecko) Chrome/138.0.0.0 Safari/537.36","WebKit","Chrome","138.0.0.0","Windows","10.0","https://app.prolific.com/","en-US,en;q=0.9","6786c32f329b1d694103f225","683db6dfa200031b80f2a654","686507720612f58983a28ad5","6786c32f329b1d694103f225","2025-07-02T10:47:57.974Z","","","","","","PreSkillQ","","","","","","","","","","","","","","","","","","","","","","","","","","","","","","","","","","","","","","50"
"8845","","<div style=""width:500px;"">
  <p>How well do you think you will perform in this task compared to other participants?</p>
  </div>","50","html-slider-response","34","1621376","0.0-9.0-1.0","143","1","2025-07-02 10:20:55","80fe4187154257d5fb01684ea91b68b9","216.120.189.120","Mozilla/5.0 (Windows NT 10.0; Win64; x64) AppleWebKit/537.36 (KHTML, like Gecko) Chrome/138.0.0.0 Safari/537.36","WebKit","Chrome","138.0.0.0","Windows","10.0","https://app.prolific.com/","en-US,en;q=0.9","6786c32f329b1d694103f225","683db6dfa200031b80f2a654","686507720612f58983a28ad5","6786c32f329b1d694103f225","2025-07-02T10:48:06.822Z","","","","","","PrePerfQ","","","","","","","","","","","","","","","","","","","","","","","","","","","","","","","","","","","","","","50"
"6189","","<div style=""width:500px;"">
  <p>What best describes how you currently feel?</p>
  </div>","100","html-slider-response","35","1627568","0.0-9.0-2.0","143","1","2025-07-02 10:20:55","80fe4187154257d5fb01684ea91b68b9","216.120.189.120","Mozilla/5.0 (Windows NT 10.0; Win64; x64) AppleWebKit/537.36 (KHTML, like Gecko) Chrome/138.0.0.0 Safari/537.36","WebKit","Chrome","138.0.0.0","Windows","10.0","https://app.prolific.com/","en-US,en;q=0.9","6786c32f329b1d694103f225","683db6dfa200031b80f2a654","686507720612f58983a28ad5","6786c32f329b1d694103f225","2025-07-02T10:48:13.014Z","","","","","","PreMotivationQ","","","","","","","","","","","","","","","","","","","","","","","","","","","","","","","","","","","","","","50"
"","","","","ctl-task-cpt","36","1660062","0.0-10.0-0.0","143","1","2025-07-02 10:20:55","80fe4187154257d5fb01684ea91b68b9","216.120.189.120","Mozilla/5.0 (Windows NT 10.0; Win64; x64) AppleWebKit/537.36 (KHTML, like Gecko) Chrome/138.0.0.0 Safari/537.36","WebKit","Chrome","138.0.0.0","Windows","10.0","https://app.prolific.com/","en-US,en;q=0.9","6786c32f329b1d694103f225","683db6dfa200031b80f2a654","686507720612f58983a28ad5","6786c32f329b1d694103f225","2025-07-02T10:48:45.508Z","","","","","","","","","","","","","","","","win-only","1","g1:NE,g2:SW","1","1","0","1637976.1","2918.1","7924.1","29470.8","1","4","8","6","1","-1","-1","0","0","0","5005.9","3000","-2210","[""up"",""right""]","{""num_key_presses"":6,""num_perfect"":6,""num_errors"":0,""num_randdir"":0,""num_randdir_good_moves"":0,""num_whilered"":0,""num_whileblue"":0,""num_blue"":0,""num_good_moves"":0}","[300.22232142857143,293.12857142857143,3,300.22232142857143,293.12857142857143,114.2,300.22232142857143,293.12857142857143,223.6,300.22232142857143,293.12857142857143,329.9,300.22232142857143,293.12857142857143,433.2,300.22232142857143,293.12857142857143,534,300.22232142857143,293.12857142857143,637.6,300.22232142857143,293.12857142857143,744.9,300.22232142857143,293.12857142857143,857.6,300.22232142857143,293.12857142857143,961.9,300.22232142857143,293.12857142857143,1074.1,300.22232142857143,293.12857142857143,1180.4,300.22232142857143,293.12857142857143,1288.6,300.22232142857143,293.12857142857143,1390.6,300.22232142857143,293.12857142857143,1490.6,300.22232142857143,293.12857142857143,1604.6,300.22232142857143,293.12857142857143,1705.6,300.22232142857143,293.12857142857143,1813.1,300.22232142857143,293.12857142857143,1914.5,300.22232142857143,293.12857142857143,2020.7,300.22232142857143,293.12857142857143,2120.9,300.22232142857143,293.12857142857143,2222.9,300.22232142857143,293.12857142857143,2329.8,300.22232142857143,293.12857142857143,2430.3,300.22232142857143,293.12857142857143,2537.2,300.22232142857143,293.12857142857143,2639,300.22232142857143,293.12857142857143,2745.4,300.22232142857143,293.12857142857143,2848.5,300.22232142857143,293.12857142857143,2952.2,300.22232142857143,293.12857142857143,3055.2,300.22232142857143,293.12857142857143,3159.6,300.22232142857143,293.12857142857143,3266,300.22232142857143,293.12857142857143,3368.5,300.22232142857143,293.12857142857143,3470.2,300.22232142857143,293.12857142857143,3573.3,300.22232142857143,293.12857142857143,3673.3,300.22232142857143,293.12857142857143,3781.5,300.22232142857143,293.12857142857143,3883.8,300.22232142857143,293.12857142857143,3986,300.22232142857143,293.12857142857143,4089.7,300.22232142857143,293.12857142857143,4189.9,300.22232142857143,293.12857142857143,4295.6,300.22232142857143,293.12857142857143,4404,300.22232142857143,293.12857142857143,4505.6,300.22232142857143,293.12857142857143,4605.8,300.22232142857143,293.12857142857143,4709.6,300.22232142857143,293.12857142857143,4814.4,300.22232142857143,293.12857142857143,4916.6]","[1516.9,1516.9,1000,0,516.9,""smooth"",""left"",""left"",""bad_move"",4151.1,2626.3,2137.2,1524.9,489,""smooth"",""down"",""down"",""bad_move"",7017,2864.5,2479.4,4152.5,385.1,""smooth"",""down"",""down"",""bad_move"",10432.2,3409.6,3066.9,7022.6,342.7,""smooth"",""down"",""down"",""bad_move"",13549.7,3116.4,2754.9,10433.4,361.4,""smooth"",""left"",""left"",""bad_move"",17035.4,3484,3158.2,13551.4,325.8,""smooth"",""left"",""left"",""bad_move""]","",""
"11416","","<div style=""width:500px;"">
  <p>What determined the result of this run?</p>
  </div>","96","html-slider-response","37","1671482","0.0-10.0-1.0","143","1","2025-07-02 10:20:55","80fe4187154257d5fb01684ea91b68b9","216.120.189.120","Mozilla/5.0 (Windows NT 10.0; Win64; x64) AppleWebKit/537.36 (KHTML, like Gecko) Chrome/138.0.0.0 Safari/537.36","WebKit","Chrome","138.0.0.0","Windows","10.0","https://app.prolific.com/","en-US,en;q=0.9","6786c32f329b1d694103f225","683db6dfa200031b80f2a654","686507720612f58983a28ad5","6786c32f329b1d694103f225","2025-07-02T10:48:56.928Z","","","","","","AttribQ","","","","","","","","","","","","","","","","","","","","","","","","","","","","","","","","","","","","","","50"
"4636","","<div style=""width:500px;"">
  <p>How much control did you have over the ball?</p>
  </div>","100","html-slider-response","38","1676123","0.0-10.0-2.0","143","1","2025-07-02 10:20:55","80fe4187154257d5fb01684ea91b68b9","216.120.189.120","Mozilla/5.0 (Windows NT 10.0; Win64; x64) AppleWebKit/537.36 (KHTML, like Gecko) Chrome/138.0.0.0 Safari/537.36","WebKit","Chrome","138.0.0.0","Windows","10.0","https://app.prolific.com/","en-US,en;q=0.9","6786c32f329b1d694103f225","683db6dfa200031b80f2a654","686507720612f58983a28ad5","6786c32f329b1d694103f225","2025-07-02T10:49:01.569Z","","","","","","ControlQ","","","","","","","","","","","","","","","","","","","","","","","","","","","","","","","","","","","","","","50"
"6892","","<div style=""width:500px;"">
  <p>How would you describe your current emotional state?</p>
  </div>","0","html-slider-response","39","1683019","0.0-10.0-3.0","143","1","2025-07-02 10:20:55","80fe4187154257d5fb01684ea91b68b9","216.120.189.120","Mozilla/5.0 (Windows NT 10.0; Win64; x64) AppleWebKit/537.36 (KHTML, like Gecko) Chrome/138.0.0.0 Safari/537.36","WebKit","Chrome","138.0.0.0","Windows","10.0","https://app.prolific.com/","en-US,en;q=0.9","6786c32f329b1d694103f225","683db6dfa200031b80f2a654","686507720612f58983a28ad5","6786c32f329b1d694103f225","2025-07-02T10:49:08.465Z","","","","","","StressQ","","","","","","","","","","","","","","","","","","","","","","","","","","","","","","","","","","","","","","50"
"6856","","<div style=""width:500px;"">
  <p>What best describes how you currently feel?</p>
  </div>","100","html-slider-response","40","1689877","0.0-10.0-4.0","143","1","2025-07-02 10:20:55","80fe4187154257d5fb01684ea91b68b9","216.120.189.120","Mozilla/5.0 (Windows NT 10.0; Win64; x64) AppleWebKit/537.36 (KHTML, like Gecko) Chrome/138.0.0.0 Safari/537.36","WebKit","Chrome","138.0.0.0","Windows","10.0","https://app.prolific.com/","en-US,en;q=0.9","6786c32f329b1d694103f225","683db6dfa200031b80f2a654","686507720612f58983a28ad5","6786c32f329b1d694103f225","2025-07-02T10:49:15.323Z","","","","","","MotivationQ","","","","","","","","","","","","","","","","","","","","","","","","","","","","","","","","","","","","","","50"
"","","","","ctl-task-cpt","41","1721478","0.0-10.0-0.1","143","1","2025-07-02 10:20:55","80fe4187154257d5fb01684ea91b68b9","216.120.189.120","Mozilla/5.0 (Windows NT 10.0; Win64; x64) AppleWebKit/537.36 (KHTML, like Gecko) Chrome/138.0.0.0 Safari/537.36","WebKit","Chrome","138.0.0.0","Windows","10.0","https://app.prolific.com/","en-US,en;q=0.9","6786c32f329b1d694103f225","683db6dfa200031b80f2a654","686507720612f58983a28ad5","6786c32f329b1d694103f225","2025-07-02T10:49:46.925Z","","","","","","","","","","","","","","","","win-only","0","g1:NW,g2:SE","0.9","2","0","1700284.7","12539.6","17546","28581.9","1","4","4","6","1","1","1","1","0","0.007575757575757576","5006.4","3000","1075","[""left"",""up""]","{""num_key_presses"":4,""num_perfect"":4,""num_errors"":0,""num_randdir"":0,""num_randdir_good_moves"":0,""num_whilered"":0,""num_whileblue"":0,""num_blue"":0,""num_good_moves"":4}","[297.22232142857143,296.12857142857143,2.1,297.22232142857143,296.12857142857143,103.2,297.22232142857143,296.12857142857143,212.2,297.22232142857143,296.12857142857143,314.1,297.22232142857143,296.12857142857143,418.3,297.22232142857143,296.12857142857143,519.8,297.22232142857143,296.12857142857143,627.6,297.22232142857143,296.12857142857143,727.9,297.22232142857143,296.12857142857143,831.5,297.22232142857143,296.12857142857143,945.9,297.22232142857143,296.12857142857143,1047.8,297.22232142857143,296.12857142857143,1163.8,297.22232142857143,296.12857142857143,1265.7,297.22232142857143,296.12857142857143,1371.5,297.22232142857143,296.12857142857143,1477.2,297.22232142857143,296.12857142857143,1577.4,297.22232142857143,296.12857142857143,1687.2,297.22232142857143,296.12857142857143,1796.3,297.22232142857143,296.12857142857143,1897.8,297.22232142857143,296.12857142857143,2002,297.22232142857143,296.12857142857143,2106.4,297.22232142857143,296.12857142857143,2207.2,297.22232142857143,296.12857142857143,2312.9,297.22232142857143,296.12857142857143,2413.2,297.22232142857143,296.12857142857143,2514,297.22232142857143,296.12857142857143,2615.4,297.22232142857143,296.12857142857143,2715.5,297.22232142857143,296.12857142857143,2819.5,297.22232142857143,296.12857142857143,2925.2,297.22232142857143,296.12857142857143,3029.7,297.22232142857143,296.12857142857143,3130.5,297.22232142857143,296.12857142857143,3233.2,297.22232142857143,296.12857142857143,3343,297.22232142857143,296.12857142857143,3447.5,297.22232142857143,296.12857142857143,3564.7,297.22232142857143,296.12857142857143,3665.2,297.22232142857143,296.12857142857143,3770.1,297.22232142857143,296.12857142857143,3875.5,297.22232142857143,296.12857142857143,3982,297.22232142857143,296.12857142857143,4084.1,297.22232142857143,296.12857142857143,4185.5,297.22232142857143,296.12857142857143,4288.3,297.22232142857143,296.12857142857143,4396,297.22232142857143,296.12857142857143,4510.2,297.22232142857143,296.12857142857143,4626.3,297.22232142857143,296.12857142857143,4730.6,297.22232142857143,296.12857142857143,4832.9,297.22232142857143,296.12857142857143,4933.4]","[2445.5,2445.6,1000,0,1445.6,""smooth"",""up"",""up"",""good_move"",5534,3077.7,2227.6,2456.5,850,""smooth"",""up"",""up"",""good_move"",8163.1,2619.8,2083,5543.4,536.7,""smooth"",""left"",""left"",""good_move"",10889,2716.2,2362.5,8172.8,353.8,""smooth"",""left"",""left"",""good_move""]","",""
"6621","","<div style=""width:500px;"">
  <p>What determined the result of this run?</p>
  </div>","100","html-slider-response","42","1728105","0.0-10.0-1.1","143","1","2025-07-02 10:20:55","80fe4187154257d5fb01684ea91b68b9","216.120.189.120","Mozilla/5.0 (Windows NT 10.0; Win64; x64) AppleWebKit/537.36 (KHTML, like Gecko) Chrome/138.0.0.0 Safari/537.36","WebKit","Chrome","138.0.0.0","Windows","10.0","https://app.prolific.com/","en-US,en;q=0.9","6786c32f329b1d694103f225","683db6dfa200031b80f2a654","686507720612f58983a28ad5","6786c32f329b1d694103f225","2025-07-02T10:49:53.551Z","","","","","","AttribQ","","","","","","","","","","","","","","","","","","","","","","","","","","","","","","","","","","","","","","50"
"3541","","<div style=""width:500px;"">
  <p>How much control did you have over the ball?</p>
  </div>","100","html-slider-response","43","1731651","0.0-10.0-2.1","143","1","2025-07-02 10:20:55","80fe4187154257d5fb01684ea91b68b9","216.120.189.120","Mozilla/5.0 (Windows NT 10.0; Win64; x64) AppleWebKit/537.36 (KHTML, like Gecko) Chrome/138.0.0.0 Safari/537.36","WebKit","Chrome","138.0.0.0","Windows","10.0","https://app.prolific.com/","en-US,en;q=0.9","6786c32f329b1d694103f225","683db6dfa200031b80f2a654","686507720612f58983a28ad5","6786c32f329b1d694103f225","2025-07-02T10:49:57.097Z","","","","","","ControlQ","","","","","","","","","","","","","","","","","","","","","","","","","","","","","","","","","","","","","","50"
"5180","","<div style=""width:500px;"">
  <p>How would you describe your current emotional state?</p>
  </div>","0","html-slider-response","44","1736835","0.0-10.0-3.1","143","1","2025-07-02 10:20:55","80fe4187154257d5fb01684ea91b68b9","216.120.189.120","Mozilla/5.0 (Windows NT 10.0; Win64; x64) AppleWebKit/537.36 (KHTML, like Gecko) Chrome/138.0.0.0 Safari/537.36","WebKit","Chrome","138.0.0.0","Windows","10.0","https://app.prolific.com/","en-US,en;q=0.9","6786c32f329b1d694103f225","683db6dfa200031b80f2a654","686507720612f58983a28ad5","6786c32f329b1d694103f225","2025-07-02T10:50:02.281Z","","","","","","StressQ","","","","","","","","","","","","","","","","","","","","","","","","","","","","","","","","","","","","","","50"
"3539","","<div style=""width:500px;"">
  <p>What best describes how you currently feel?</p>
  </div>","100","html-slider-response","45","1740377","0.0-10.0-4.1","143","1","2025-07-02 10:20:55","80fe4187154257d5fb01684ea91b68b9","216.120.189.120","Mozilla/5.0 (Windows NT 10.0; Win64; x64) AppleWebKit/537.36 (KHTML, like Gecko) Chrome/138.0.0.0 Safari/537.36","WebKit","Chrome","138.0.0.0","Windows","10.0","https://app.prolific.com/","en-US,en;q=0.9","6786c32f329b1d694103f225","683db6dfa200031b80f2a654","686507720612f58983a28ad5","6786c32f329b1d694103f225","2025-07-02T10:50:05.824Z","","","","","","MotivationQ","","","","","","","","","","","","","","","","","","","","","","","","","","","","","","","","","","","","","","50"
"","","","","ctl-task-cpt","46","1763329","0.0-10.0-0.2","143","1","2025-07-02 10:20:55","80fe4187154257d5fb01684ea91b68b9","216.120.189.120","Mozilla/5.0 (Windows NT 10.0; Win64; x64) AppleWebKit/537.36 (KHTML, like Gecko) Chrome/138.0.0.0 Safari/537.36","WebKit","Chrome","138.0.0.0","Windows","10.0","https://app.prolific.com/","en-US,en;q=0.9","6786c32f329b1d694103f225","683db6dfa200031b80f2a654","686507720612f58983a28ad5","6786c32f329b1d694103f225","2025-07-02T10:50:28.775Z","","","","","","","","","","","","","","","","win-only","3","g1:SW,g2:NE","0.8","3","0","1750789.6","2196.9","7212.5","19919.4","1","4","4","6","1","1","1","2","1","0.015151515151515152","5015.6","3000","1825","[""down"",""left""]","{""num_key_presses"":4,""num_perfect"":3,""num_errors"":0,""num_randdir"":1,""num_randdir_good_moves"":1,""num_whilered"":0,""num_whileblue"":0,""num_blue"":0,""num_good_moves"":4}","[294.22232142857143,296.12857142857143,1.7,294.22232142857143,296.12857142857143,101.7,294.22232142857143,296.12857142857143,202.2,294.22232142857143,296.12857142857143,316.5,294.22232142857143,296.12857142857143,417.6,294.22232142857143,296.12857142857143,519.6,294.22232142857143,296.12857142857143,627.9,294.22232142857143,296.12857142857143,739.3,294.22232142857143,296.12857142857143,840.5,294.22232142857143,296.12857142857143,946.4,294.22232142857143,296.12857142857143,1048.1,294.22232142857143,296.12857142857143,1156.5,294.22232142857143,296.12857142857143,1257.2,294.22232142857143,296.12857142857143,1360.7,294.22232142857143,296.12857142857143,1465.4,294.22232142857143,296.12857142857143,1574.5,294.22232142857143,296.12857142857143,1684.7,294.22232142857143,296.12857142857143,1787.1,294.22232142857143,296.12857142857143,1895.2,294.22232142857143,296.12857142857143,2003,294.22232142857143,296.12857142857143,2107.1,294.22232142857143,296.12857142857143,2210.4,294.22232142857143,296.12857142857143,2318.9,294.22232142857143,296.12857142857143,2427.1,294.22232142857143,296.12857142857143,2535.9,294.22232142857143,296.12857142857143,2644.6,294.22232142857143,296.12857142857143,2752.5,294.22232142857143,296.12857142857143,2861.1,294.22232142857143,296.12857142857143,2971.8,294.22232142857143,296.12857142857143,3081.2,294.22232142857143,296.12857142857143,3186.9,294.22232142857143,296.12857142857143,3287.8,294.22232142857143,296.12857142857143,3393.9,294.22232142857143,296.12857142857143,3495.6,294.22232142857143,296.12857142857143,3597.9,294.22232142857143,296.12857142857143,3706.8,294.22232142857143,296.12857142857143,3810.9,294.22232142857143,296.12857142857143,3914.1,294.22232142857143,296.12857142857143,4019.5,294.22232142857143,296.12857142857143,4123,294.22232142857143,296.12857142857143,4226.6,294.22232142857143,296.12857142857143,4326.9,294.22232142857143,296.12857142857143,4430.5,294.22232142857143,296.12857142857143,4531.2,294.22232142857143,296.12857142857143,4643.3,294.22232142857143,296.12857142857143,4752.5,294.22232142857143,296.12857142857143,4862.1,294.22232142857143,296.12857142857143,4969]","[1634.9,1634.9,1000,0,634.9,""smooth"",""left"",""left"",""good_move"",5427.6,3781.2,3212.9,1647.2,567.5,""smooth"",""left"",""left"",""good_move"",9337,3908.3,3398.4,5428.8,509.8,""oops"",""down"",""down"",""good_move"",12490,3151.5,2566.4,9338.5,585.1,""smooth"",""down"",""down"",""good_move""]","",""
"4643","","<div style=""width:500px;"">
  <p>What determined the result of this run?</p>
  </div>","100","html-slider-response","47","1767978","0.0-10.0-1.2","143","1","2025-07-02 10:20:55","80fe4187154257d5fb01684ea91b68b9","216.120.189.120","Mozilla/5.0 (Windows NT 10.0; Win64; x64) AppleWebKit/537.36 (KHTML, like Gecko) Chrome/138.0.0.0 Safari/537.36","WebKit","Chrome","138.0.0.0","Windows","10.0","https://app.prolific.com/","en-US,en;q=0.9","6786c32f329b1d694103f225","683db6dfa200031b80f2a654","686507720612f58983a28ad5","6786c32f329b1d694103f225","2025-07-02T10:50:33.424Z","","","","","","AttribQ","","","","","","","","","","","","","","","","","","","","","","","","","","","","","","","","","","","","","","50"
"3949","","<div style=""width:500px;"">
  <p>How much control did you have over the ball?</p>
  </div>","100","html-slider-response","48","1771932","0.0-10.0-2.2","143","1","2025-07-02 10:20:55","80fe4187154257d5fb01684ea91b68b9","216.120.189.120","Mozilla/5.0 (Windows NT 10.0; Win64; x64) AppleWebKit/537.36 (KHTML, like Gecko) Chrome/138.0.0.0 Safari/537.36","WebKit","Chrome","138.0.0.0","Windows","10.0","https://app.prolific.com/","en-US,en;q=0.9","6786c32f329b1d694103f225","683db6dfa200031b80f2a654","686507720612f58983a28ad5","6786c32f329b1d694103f225","2025-07-02T10:50:37.379Z","","","","","","ControlQ","","","","","","","","","","","","","","","","","","","","","","","","","","","","","","","","","","","","","","50"
"5234","","<div style=""width:500px;"">
  <p>How would you describe your current emotional state?</p>
  </div>","0","html-slider-response","49","1777171","0.0-10.0-3.2","143","1","2025-07-02 10:20:55","80fe4187154257d5fb01684ea91b68b9","216.120.189.120","Mozilla/5.0 (Windows NT 10.0; Win64; x64) AppleWebKit/537.36 (KHTML, like Gecko) Chrome/138.0.0.0 Safari/537.36","WebKit","Chrome","138.0.0.0","Windows","10.0","https://app.prolific.com/","en-US,en;q=0.9","6786c32f329b1d694103f225","683db6dfa200031b80f2a654","686507720612f58983a28ad5","6786c32f329b1d694103f225","2025-07-02T10:50:42.618Z","","","","","","StressQ","","","","","","","","","","","","","","","","","","","","","","","","","","","","","","","","","","","","","","50"
"6841","","<div style=""width:500px;"">
  <p>What best describes how you currently feel?</p>
  </div>","99","html-slider-response","50","1784017","0.0-10.0-4.2","143","1","2025-07-02 10:20:55","80fe4187154257d5fb01684ea91b68b9","216.120.189.120","Mozilla/5.0 (Windows NT 10.0; Win64; x64) AppleWebKit/537.36 (KHTML, like Gecko) Chrome/138.0.0.0 Safari/537.36","WebKit","Chrome","138.0.0.0","Windows","10.0","https://app.prolific.com/","en-US,en;q=0.9","6786c32f329b1d694103f225","683db6dfa200031b80f2a654","686507720612f58983a28ad5","6786c32f329b1d694103f225","2025-07-02T10:50:49.463Z","","","","","","MotivationQ","","","","","","","","","","","","","","","","","","","","","","","","","","","","","","","","","","","","","","50"
"","","","","ctl-task-cpt","51","1840662","0.0-10.0-0.3","143","1","2025-07-02 10:20:55","80fe4187154257d5fb01684ea91b68b9","216.120.189.120","Mozilla/5.0 (Windows NT 10.0; Win64; x64) AppleWebKit/537.36 (KHTML, like Gecko) Chrome/138.0.0.0 Safari/537.36","WebKit","Chrome","138.0.0.0","Windows","10.0","https://app.prolific.com/","en-US,en;q=0.9","6786c32f329b1d694103f225","683db6dfa200031b80f2a654","686507720612f58983a28ad5","6786c32f329b1d694103f225","2025-07-02T10:51:46.109Z","","","","","","","","","","","","","","","","win-only","1","g1:NE,g2:SW","0.7","4","0","1794424.8","2881.1","7895.7","53613.9","1","4","8","6","2","8","8","10","2","0.07575757575757576","5014.6","3000","945","[""down"",""left""]","{""num_key_presses"":12,""num_perfect"":9,""num_errors"":0,""num_randdir"":3,""num_randdir_good_moves"":0,""num_whilered"":0,""num_whileblue"":0,""num_blue"":2,""num_good_moves"":9}","[291.22232142857143,293.12857142857143,0.8,291.22232142857143,293.12857142857143,109,291.22232142857143,293.12857142857143,218.7,291.22232142857143,293.12857142857143,320,291.22232142857143,293.12857142857143,432,291.22232142857143,293.12857142857143,535.3,291.22232142857143,293.12857142857143,642.1,291.22232142857143,293.12857142857143,743,291.22232142857143,293.12857142857143,860.7,291.22232142857143,293.12857142857143,962.9,291.22232142857143,293.12857142857143,1063.7,291.22232142857143,293.12857142857143,1177.9,291.22232142857143,293.12857142857143,1288.3,291.22232142857143,293.12857142857143,1390.1,291.22232142857143,293.12857142857143,1499.7,291.22232142857143,293.12857142857143,1601.3,291.22232142857143,293.12857142857143,1703,291.22232142857143,293.12857142857143,1816,291.22232142857143,293.12857142857143,1920.2,291.22232142857143,293.12857142857143,2031.4,291.22232142857143,293.12857142857143,2147.4,291.22232142857143,293.12857142857143,2249.2,291.22232142857143,293.12857142857143,2362.8,291.22232142857143,293.12857142857143,2471.2,291.22232142857143,293.12857142857143,2579.9,291.22232142857143,293.12857142857143,2695.1,291.22232142857143,293.12857142857143,2801.1,291.22232142857143,293.12857142857143,2904,291.22232142857143,293.12857142857143,3007.1,291.22232142857143,293.12857142857143,3118.9,291.22232142857143,293.12857142857143,3232.5,291.22232142857143,293.12857142857143,3332.9,291.22232142857143,293.12857142857143,3433.2,291.22232142857143,293.12857142857143,3534.8,291.22232142857143,293.12857142857143,3645.5,291.22232142857143,293.12857142857143,3751.2,291.22232142857143,293.12857142857143,3858.4,291.22232142857143,293.12857142857143,3967.2,291.22232142857143,293.12857142857143,4075.3,291.22232142857143,293.12857142857143,4178.1,291.22232142857143,293.12857142857143,4288,291.22232142857143,293.12857142857143,4397.9,291.22232142857143,293.12857142857143,4498.9,291.22232142857143,293.12857142857143,4600.8,291.22232142857143,293.12857142857143,4704.2,291.22232142857143,293.12857142857143,4816.4,291.22232142857143,293.12857142857143,4921]","[1629.8,1629.8,1000,0,629.8,""smooth"",""left"",""left"",""good_move"",5075.4,3442,2623.8,1633.6,818,""oops"",""down"",""up"",""bad_move"",8700.4,3620.5,2474.6,5079.9,1145.9,""smooth"",""left"",""left"",""good_move"",15473.6,6772,2200.4,12870.7,402.5,""smooth"",""left"",""left"",""good_move"",19696.6,4222.4,2391.1,15474.3,1831.2,""smooth"",""down"",""down"",""good_move"",22644.7,2939.4,2242.7,19705.3,696.7,""smooth"",""down"",""down"",""good_move"",25953.3,3307.5,2699.3,22645.9,608.2,""oops"",""down"",""right"",""bad_move"",30161.7,4205,3706.6,25956.7,498.4,""oops"",""left"",""up"",""bad_move"",36033.3,5870.4,2320.4,33318,394.9,""smooth"",""left"",""left"",""good_move"",39197.5,3163.2,2254.2,36034.4,908.9,""smooth"",""down"",""down"",""good_move"",42690.2,3488.6,2772.7,39201.6,715.9,""smooth"",""down"",""down"",""good_move"",45386.6,2692.4,2204.3,42694.2,488.1,""smooth"",""down"",""down"",""good_move""]","",""
"4893","","<div style=""width:500px;"">
  <p>What determined the result of this run?</p>
  </div>","100","html-slider-response","52","1845560","0.0-10.0-1.3","143","1","2025-07-02 10:20:55","80fe4187154257d5fb01684ea91b68b9","216.120.189.120","Mozilla/5.0 (Windows NT 10.0; Win64; x64) AppleWebKit/537.36 (KHTML, like Gecko) Chrome/138.0.0.0 Safari/537.36","WebKit","Chrome","138.0.0.0","Windows","10.0","https://app.prolific.com/","en-US,en;q=0.9","6786c32f329b1d694103f225","683db6dfa200031b80f2a654","686507720612f58983a28ad5","6786c32f329b1d694103f225","2025-07-02T10:51:51.006Z","","","","","","AttribQ","","","","","","","","","","","","","","","","","","","","","","","","","","","","","","","","","","","","","","50"
"6624","","<div style=""width:500px;"">
  <p>How much control did you have over the ball?</p>
  </div>","80","html-slider-response","53","1852187","0.0-10.0-2.3","143","1","2025-07-02 10:20:55","80fe4187154257d5fb01684ea91b68b9","216.120.189.120","Mozilla/5.0 (Windows NT 10.0; Win64; x64) AppleWebKit/537.36 (KHTML, like Gecko) Chrome/138.0.0.0 Safari/537.36","WebKit","Chrome","138.0.0.0","Windows","10.0","https://app.prolific.com/","en-US,en;q=0.9","6786c32f329b1d694103f225","683db6dfa200031b80f2a654","686507720612f58983a28ad5","6786c32f329b1d694103f225","2025-07-02T10:51:57.634Z","","","","","","ControlQ","","","","","","","","","","","","","","","","","","","","","","","","","","","","","","","","","","","","","","50"
"6963","","<div style=""width:500px;"">
  <p>How would you describe your current emotional state?</p>
  </div>","26","html-slider-response","54","1859154","0.0-10.0-3.3","143","1","2025-07-02 10:20:55","80fe4187154257d5fb01684ea91b68b9","216.120.189.120","Mozilla/5.0 (Windows NT 10.0; Win64; x64) AppleWebKit/537.36 (KHTML, like Gecko) Chrome/138.0.0.0 Safari/537.36","WebKit","Chrome","138.0.0.0","Windows","10.0","https://app.prolific.com/","en-US,en;q=0.9","6786c32f329b1d694103f225","683db6dfa200031b80f2a654","686507720612f58983a28ad5","6786c32f329b1d694103f225","2025-07-02T10:52:04.600Z","","","","","","StressQ","","","","","","","","","","","","","","","","","","","","","","","","","","","","","","","","","","","","","","50"
"5442","","<div style=""width:500px;"">
  <p>What best describes how you currently feel?</p>
  </div>","99","html-slider-response","55","1864600","0.0-10.0-4.3","143","1","2025-07-02 10:20:55","80fe4187154257d5fb01684ea91b68b9","216.120.189.120","Mozilla/5.0 (Windows NT 10.0; Win64; x64) AppleWebKit/537.36 (KHTML, like Gecko) Chrome/138.0.0.0 Safari/537.36","WebKit","Chrome","138.0.0.0","Windows","10.0","https://app.prolific.com/","en-US,en;q=0.9","6786c32f329b1d694103f225","683db6dfa200031b80f2a654","686507720612f58983a28ad5","6786c32f329b1d694103f225","2025-07-02T10:52:10.046Z","","","","","","MotivationQ","","","","","","","","","","","","","","","","","","","","","","","","","","","","","","","","","","","","","","50"
"","","","","ctl-task-cpt","56","1896049","0.0-10.0-0.4","143","1","2025-07-02 10:20:55","80fe4187154257d5fb01684ea91b68b9","216.120.189.120","Mozilla/5.0 (Windows NT 10.0; Win64; x64) AppleWebKit/537.36 (KHTML, like Gecko) Chrome/138.0.0.0 Safari/537.36","WebKit","Chrome","138.0.0.0","Windows","10.0","https://app.prolific.com/","en-US,en;q=0.9","6786c32f329b1d694103f225","683db6dfa200031b80f2a654","686507720612f58983a28ad5","6786c32f329b1d694103f225","2025-07-02T10:52:41.496Z","","","","","","","","","","","","","","","","win-only","0","g1:NW,g2:SE","0.6","5","0","1875010.8","2299.7","7309","28416.2","1","4","4","6","2","4","4","14","10","0.10606060606060606","5009.3","3000","2210","[""down"",""right""]","{""num_key_presses"":6,""num_perfect"":3,""num_errors"":0,""num_randdir"":3,""num_randdir_good_moves"":3,""num_whilered"":0,""num_whileblue"":0,""num_blue"":1,""num_good_moves"":6}","[298.22232142857143,289.12857142857143,1.3,298.22232142857143,289.12857142857143,111.3,298.22232142857143,289.12857142857143,222.7,298.22232142857143,289.12857142857143,336.6,298.22232142857143,289.12857142857143,447.6,298.22232142857143,289.12857142857143,559.2,298.22232142857143,289.12857142857143,663.2,298.22232142857143,289.12857142857143,768.8,298.22232142857143,289.12857142857143,894.3,298.22232142857143,289.12857142857143,999.2,298.22232142857143,289.12857142857143,1105,298.22232142857143,289.12857142857143,1206,298.22232142857143,289.12857142857143,1313.2,298.22232142857143,289.12857142857143,1423,298.22232142857143,289.12857142857143,1527,298.22232142857143,289.12857142857143,1629.3,298.22232142857143,289.12857142857143,1729.7,298.22232142857143,289.12857142857143,1831.3,298.22232142857143,289.12857142857143,1933.6,298.22232142857143,289.12857142857143,2038.7,298.22232142857143,289.12857142857143,2140.1,298.22232142857143,289.12857142857143,2253.6,298.22232142857143,289.12857142857143,2353.7,298.22232142857143,289.12857142857143,2455.3,298.22232142857143,289.12857142857143,2557,298.22232142857143,289.12857142857143,2666.8,298.22232142857143,289.12857142857143,2766.9,298.22232142857143,289.12857142857143,2881.6,298.22232142857143,289.12857142857143,2993.6,298.22232142857143,289.12857142857143,3104.4,298.22232142857143,289.12857142857143,3205.9,298.22232142857143,289.12857142857143,3307.8,298.22232142857143,289.12857142857143,3420,298.22232142857143,289.12857142857143,3531.5,298.22232142857143,289.12857142857143,3651.7,298.22232142857143,289.12857142857143,3751.8,298.22232142857143,289.12857142857143,3864.8,298.22232142857143,289.12857142857143,3967.4,298.22232142857143,289.12857142857143,4077.6,298.22232142857143,289.12857142857143,4188.5,298.22232142857143,289.12857142857143,4304.5,298.22232142857143,289.12857142857143,4406.7,298.22232142857143,289.12857142857143,4507,298.22232142857143,289.12857142857143,4608.8,298.22232142857143,289.12857142857143,4718.5,298.22232142857143,289.12857142857143,4821.1,298.22232142857143,289.12857142857143,4927.5]","[1567,1567.1,1000,0,567.1,""smooth"",""right"",""right"",""good_move"",4415.1,2846.6,2306.7,1568.5,539.9,""oops"",""right"",""down"",""good_move"",7531.4,3114.7,2600.2,4416.7,514.5,""oops"",""right"",""right"",""good_move"",10750.5,3217,2770.5,7533.5,446.5,""smooth"",""right"",""right"",""good_move"",13829.3,3077.7,2641.5,10751.7,436.1,""smooth"",""down"",""down"",""good_move"",20637.9,6807.1,3100.8,17037.9,499.2,""oops"",""down"",""down"",""good_move""]","",""
"6272","","<div style=""width:500px;"">
  <p>What determined the result of this run?</p>
  </div>","99","html-slider-response","57","1902326","0.0-10.0-1.4","143","1","2025-07-02 10:20:55","80fe4187154257d5fb01684ea91b68b9","216.120.189.120","Mozilla/5.0 (Windows NT 10.0; Win64; x64) AppleWebKit/537.36 (KHTML, like Gecko) Chrome/138.0.0.0 Safari/537.36","WebKit","Chrome","138.0.0.0","Windows","10.0","https://app.prolific.com/","en-US,en;q=0.9","6786c32f329b1d694103f225","683db6dfa200031b80f2a654","686507720612f58983a28ad5","6786c32f329b1d694103f225","2025-07-02T10:52:47.773Z","","","","","","AttribQ","","","","","","","","","","","","","","","","","","","","","","","","","","","","","","","","","","","","","","50"
"4128","","<div style=""width:500px;"">
  <p>How much control did you have over the ball?</p>
  </div>","100","html-slider-response","58","1906461","0.0-10.0-2.4","143","1","2025-07-02 10:20:55","80fe4187154257d5fb01684ea91b68b9","216.120.189.120","Mozilla/5.0 (Windows NT 10.0; Win64; x64) AppleWebKit/537.36 (KHTML, like Gecko) Chrome/138.0.0.0 Safari/537.36","WebKit","Chrome","138.0.0.0","Windows","10.0","https://app.prolific.com/","en-US,en;q=0.9","6786c32f329b1d694103f225","683db6dfa200031b80f2a654","686507720612f58983a28ad5","6786c32f329b1d694103f225","2025-07-02T10:52:51.907Z","","","","","","ControlQ","","","","","","","","","","","","","","","","","","","","","","","","","","","","","","","","","","","","","","50"
"4757","","<div style=""width:500px;"">
  <p>How would you describe your current emotional state?</p>
  </div>","7","html-slider-response","59","1911222","0.0-10.0-3.4","143","1","2025-07-02 10:20:55","80fe4187154257d5fb01684ea91b68b9","216.120.189.120","Mozilla/5.0 (Windows NT 10.0; Win64; x64) AppleWebKit/537.36 (KHTML, like Gecko) Chrome/138.0.0.0 Safari/537.36","WebKit","Chrome","138.0.0.0","Windows","10.0","https://app.prolific.com/","en-US,en;q=0.9","6786c32f329b1d694103f225","683db6dfa200031b80f2a654","686507720612f58983a28ad5","6786c32f329b1d694103f225","2025-07-02T10:52:56.668Z","","","","","","StressQ","","","","","","","","","","","","","","","","","","","","","","","","","","","","","","","","","","","","","","50"
"5740","","<div style=""width:500px;"">
  <p>What best describes how you currently feel?</p>
  </div>","100","html-slider-response","60","1916968","0.0-10.0-4.4","143","1","2025-07-02 10:20:55","80fe4187154257d5fb01684ea91b68b9","216.120.189.120","Mozilla/5.0 (Windows NT 10.0; Win64; x64) AppleWebKit/537.36 (KHTML, like Gecko) Chrome/138.0.0.0 Safari/537.36","WebKit","Chrome","138.0.0.0","Windows","10.0","https://app.prolific.com/","en-US,en;q=0.9","6786c32f329b1d694103f225","683db6dfa200031b80f2a654","686507720612f58983a28ad5","6786c32f329b1d694103f225","2025-07-02T10:53:02.415Z","","","","","","MotivationQ","","","","","","","","","","","","","","","","","","","","","","","","","","","","","","","","","","","","","","50"
"","","","","ctl-task-cpt","61","2043802","0.0-10.0-0.5","143","1","2025-07-02 10:20:55","80fe4187154257d5fb01684ea91b68b9","216.120.189.120","Mozilla/5.0 (Windows NT 10.0; Win64; x64) AppleWebKit/537.36 (KHTML, like Gecko) Chrome/138.0.0.0 Safari/537.36","WebKit","Chrome","138.0.0.0","Windows","10.0","https://app.prolific.com/","en-US,en;q=0.9","6786c32f329b1d694103f225","683db6dfa200031b80f2a654","686507720612f58983a28ad5","6786c32f329b1d694103f225","2025-07-02T10:55:09.248Z","","","","","","","","","","","","","","","","win-only","2","g1:SE,g2:NW","0.5","6","0","1927378.4","2947.3","7966.9","123799.8","1","4","8","6","2","-8","-9","5","14","0.03787878787878788","5019.6","3000","-895","[""left"",""up""]","{""num_key_presses"":24,""num_perfect"":11,""num_errors"":1,""num_randdir"":12,""num_randdir_good_moves"":5,""num_whilered"":0,""num_whileblue"":1,""num_blue"":8,""num_good_moves"":14}","[294.22232142857143,292.12857142857143,0.9,294.22232142857143,292.12857142857143,118.8,294.22232142857143,292.12857142857143,224.4,294.22232142857143,292.12857142857143,326.8,294.22232142857143,292.12857142857143,438,294.22232142857143,292.12857142857143,538.7,294.22232142857143,292.12857142857143,667.6,294.22232142857143,292.12857142857143,769.1,294.22232142857143,292.12857142857143,896.1,294.22232142857143,292.12857142857143,1029.7,294.22232142857143,292.12857142857143,1160.9,294.22232142857143,292.12857142857143,1291.6,294.22232142857143,292.12857142857143,1415.3,294.22232142857143,292.12857142857143,1541,294.22232142857143,292.12857142857143,1671,294.22232142857143,292.12857142857143,1797.6,294.22232142857143,292.12857142857143,1930.5,294.22232142857143,292.12857142857143,2065.3,294.22232142857143,292.12857142857143,2199,294.22232142857143,292.12857142857143,2304.6,294.22232142857143,292.12857142857143,2437.3,294.22232142857143,292.12857142857143,2563,294.22232142857143,292.12857142857143,2693.3,294.22232142857143,292.12857142857143,2819.1,294.22232142857143,292.12857142857143,2944.4,294.22232142857143,292.12857142857143,3074.6,294.22232142857143,292.12857142857143,3209.9,294.22232142857143,292.12857142857143,3340.5,294.22232142857143,292.12857142857143,3471.7,294.22232142857143,292.12857142857143,3571.9,294.22232142857143,292.12857142857143,3699.7,294.22232142857143,292.12857142857143,3828.6,294.22232142857143,292.12857142857143,3929.2,294.22232142857143,292.12857142857143,4057.3,294.22232142857143,292.12857142857143,4160.9,294.22232142857143,292.12857142857143,4290.9,294.22232142857143,292.12857142857143,4425.1,294.22232142857143,292.12857142857143,4525.3,294.22232142857143,292.12857142857143,4654.1,294.22232142857143,292.12857142857143,4786.4,294.22232142857143,292.12857142857143,4916.7]","[1514.9,1514.9,1000,0,514.9,""smooth"",""left"",""left"",""good_move"",12523.3,11002.7,3272.6,8798,452.7,""smooth"",""up"",""up"",""good_move"",17562.8,5038.3,2689.7,12524.6,2348.6,""smooth"",""up"",""up"",""good_move"",22830.1,5266.2,2649.3,17564.1,2616.8,""oops"",""up"",""left"",""good_move"",29338.4,6500.9,2528.5,26342.5,467.4,""oops"",""up"",""left"",""good_move"",32883.1,3543.5,2905.1,29339.6,638.4,""oops"",""up"",""down"",""bad_move"",35920.8,3036.1,2329.1,32884.7,707,""smooth"",""down"",""down"",""bad_move"",38408.8,2486.6,1744.7,35922.2,741.9,""oops"",""up"",""down"",""bad_move"",41595.5,3183.1,2751.5,38412.4,431.6,""smooth"",""left"",""down"",""bad_move"",45207.1,3610,3018.3,41597.1,591.7,""oops"",""up"",""right"",""bad_move"",48294.8,3086.3,2512.1,45208.6,574.1,""oops"",""down"",""left"",""good_move"",56363.1,8067,2437.6,53448.4,477.1,""smooth"",""up"",""up"",""good_move"",63327.4,6956.6,2138.6,60670.9,517.9,""smooth"",""up"",""up"",""good_move"",67643.9,4306.9,3058.5,63337,1248.4,""smooth"",""up"",""up"",""good_move"",79830.4,12185.1,2723.2,76640.4,466.8,""oops"",""up"",""down"",""bad_move"",82993,3161.4,2502.1,79831.6,659.3,""oops"",""up"",""down"",""bad_move"",85628.7,2634.3,1909.2,82994.4,725.1,""smooth"",""down"",""down"",""bad_move"",88281.7,2651.8,2035.4,85630,616.3,""oops"",""up"",""up"",""good_move"",91835.3,3541.1,3098.8,88294.2,442.3,""smooth"",""up"",""up"",""good_move"",95317.5,3480.8,3037.2,91836.7,443.6,""oops"",""up"",""right"",""bad_move"",98598.2,3277.7,2874.8,95320.5,402.9,""oops"",""up"",""up"",""good_move"",102261.3,3661.5,3240.3,98599.8,421.2,""while_blue"",""up"",""left"",""good_move"",109255.2,6989.6,1987.8,106749.6,517.8,""smooth"",""up"",""up"",""good_move"",112399,3132.4,2347.2,109266.8,785.1,""oops"",""up"",""down"",""bad_move""]","",""
"5536","","<div style=""width:500px;"">
  <p>What determined the result of this run?</p>
  </div>","71","html-slider-response","62","2049342","0.0-10.0-1.5","143","1","2025-07-02 10:20:55","80fe4187154257d5fb01684ea91b68b9","216.120.189.120","Mozilla/5.0 (Windows NT 10.0; Win64; x64) AppleWebKit/537.36 (KHTML, like Gecko) Chrome/138.0.0.0 Safari/537.36","WebKit","Chrome","138.0.0.0","Windows","10.0","https://app.prolific.com/","en-US,en;q=0.9","6786c32f329b1d694103f225","683db6dfa200031b80f2a654","686507720612f58983a28ad5","6786c32f329b1d694103f225","2025-07-02T10:55:14.789Z","","","","","","AttribQ","","","","","","","","","","","","","","","","","","","","","","","","","","","","","","","","","","","","","","50"
"9510","","<div style=""width:500px;"">
  <p>How much control did you have over the ball?</p>
  </div>","30","html-slider-response","63","2058856","0.0-10.0-2.5","143","1","2025-07-02 10:20:55","80fe4187154257d5fb01684ea91b68b9","216.120.189.120","Mozilla/5.0 (Windows NT 10.0; Win64; x64) AppleWebKit/537.36 (KHTML, like Gecko) Chrome/138.0.0.0 Safari/537.36","WebKit","Chrome","138.0.0.0","Windows","10.0","https://app.prolific.com/","en-US,en;q=0.9","6786c32f329b1d694103f225","683db6dfa200031b80f2a654","686507720612f58983a28ad5","6786c32f329b1d694103f225","2025-07-02T10:55:24.302Z","","","","","","ControlQ","","","","","","","","","","","","","","","","","","","","","","","","","","","","","","","","","","","","","","50"
"6266","","<div style=""width:500px;"">
  <p>How would you describe your current emotional state?</p>
  </div>","26","html-slider-response","64","2065126","0.0-10.0-3.5","143","1","2025-07-02 10:20:55","80fe4187154257d5fb01684ea91b68b9","216.120.189.120","Mozilla/5.0 (Windows NT 10.0; Win64; x64) AppleWebKit/537.36 (KHTML, like Gecko) Chrome/138.0.0.0 Safari/537.36","WebKit","Chrome","138.0.0.0","Windows","10.0","https://app.prolific.com/","en-US,en;q=0.9","6786c32f329b1d694103f225","683db6dfa200031b80f2a654","686507720612f58983a28ad5","6786c32f329b1d694103f225","2025-07-02T10:55:30.572Z","","","","","","StressQ","","","","","","","","","","","","","","","","","","","","","","","","","","","","","","","","","","","","","","50"
"6993","","<div style=""width:500px;"">
  <p>What best describes how you currently feel?</p>
  </div>","92","html-slider-response","65","2072123","0.0-10.0-4.5","143","1","2025-07-02 10:20:55","80fe4187154257d5fb01684ea91b68b9","216.120.189.120","Mozilla/5.0 (Windows NT 10.0; Win64; x64) AppleWebKit/537.36 (KHTML, like Gecko) Chrome/138.0.0.0 Safari/537.36","WebKit","Chrome","138.0.0.0","Windows","10.0","https://app.prolific.com/","en-US,en;q=0.9","6786c32f329b1d694103f225","683db6dfa200031b80f2a654","686507720612f58983a28ad5","6786c32f329b1d694103f225","2025-07-02T10:55:37.569Z","","","","","","MotivationQ","","","","","","","","","","","","","","","","","","","","","","","","","","","","","","","","","","","","","","50"
"","","","","ctl-task-cpt","66","2163190","0.0-10.0-0.6","143","1","2025-07-02 10:20:55","80fe4187154257d5fb01684ea91b68b9","216.120.189.120","Mozilla/5.0 (Windows NT 10.0; Win64; x64) AppleWebKit/537.36 (KHTML, like Gecko) Chrome/138.0.0.0 Safari/537.36","WebKit","Chrome","138.0.0.0","Windows","10.0","https://app.prolific.com/","en-US,en;q=0.9","6786c32f329b1d694103f225","683db6dfa200031b80f2a654","686507720612f58983a28ad5","6786c32f329b1d694103f225","2025-07-02T10:57:08.636Z","","","","","","","","","","","","","","","","win-only","1","g1:NE,g2:SW","0.4","7","0","2082531.6","11856.2","16874.8","88041.4","1","4","8","6","2","8","8","13","5","0.09848484848484848","5018.6","3000","1120","[""down"",""left""]","{""num_key_presses"":16,""num_perfect"":7,""num_errors"":0,""num_randdir"":9,""num_randdir_good_moves"":5,""num_whilered"":0,""num_whileblue"":0,""num_blue"":4,""num_good_moves"":11}","[299.22232142857143,303.12857142857143,1.9,299.22232142857143,303.12857142857143,122.3,299.22232142857143,303.12857142857143,233.8,299.22232142857143,303.12857142857143,356,299.22232142857143,303.12857142857143,468.1,299.22232142857143,303.12857142857143,587.6,299.22232142857143,303.12857142857143,698.1,299.22232142857143,303.12857142857143,805.6,299.22232142857143,303.12857142857143,916.4,299.22232142857143,303.12857142857143,1027.8,299.22232142857143,303.12857142857143,1139.4,299.22232142857143,303.12857142857143,1249.8,299.22232142857143,303.12857142857143,1359.5,299.22232142857143,303.12857142857143,1468.2,299.22232142857143,303.12857142857143,1572.5,299.22232142857143,303.12857142857143,1681.5,299.22232142857143,303.12857142857143,1788.6,299.22232142857143,303.12857142857143,1899.9,299.22232142857143,303.12857142857143,2005.9,299.22232142857143,303.12857142857143,2121.1,299.22232142857143,303.12857142857143,2231.7,299.22232142857143,303.12857142857143,2349.5,299.22232142857143,303.12857142857143,2455.2,299.22232142857143,303.12857142857143,2567.3,299.22232142857143,303.12857142857143,2675.9,299.22232142857143,303.12857142857143,2782,299.22232142857143,303.12857142857143,2897.8,299.22232142857143,303.12857142857143,3003,299.22232142857143,303.12857142857143,3104.6,299.22232142857143,303.12857142857143,3218.2,299.22232142857143,303.12857142857143,3338.1,299.22232142857143,303.12857142857143,3450.6,299.22232142857143,303.12857142857143,3560.7,299.22232142857143,303.12857142857143,3677.3,299.22232142857143,303.12857142857143,3788.7,299.22232142857143,303.12857142857143,3899.1,299.22232142857143,303.12857142857143,4016.7,299.22232142857143,303.12857142857143,4117.1,299.22232142857143,303.12857142857143,4231.6,299.22232142857143,303.12857142857143,4350.1,299.22232142857143,303.12857142857143,4463.7,299.22232142857143,303.12857142857143,4580,299.22232142857143,303.12857142857143,4693,299.22232142857143,303.12857142857143,4805.4,299.22232142857143,303.12857142857143,4922.7]","[1533,1533,1000,0,533,""oops"",""down"",""right"",""bad_move"",8505.3,6963.6,2748.9,5298,458.5,""smooth"",""down"",""down"",""good_move"",11791.7,3283.4,2650.5,8508.3,632.9,""oops"",""down"",""down"",""good_move"",15411,3616.6,3111.9,11794.4,504.7,""oops"",""down"",""up"",""bad_move"",23176.8,7764.5,2679.7,20088.6,408.6,""oops"",""left"",""down"",""good_move"",26184.3,3006.6,2474.5,23177.7,532.1,""smooth"",""right"",""right"",""bad_move"",28897.8,2712,2133.8,26185.8,578.2,""oops"",""left"",""down"",""good_move"",31734.8,2835.7,1699.2,28899.1,1136.5,""oops"",""left"",""left"",""good_move"",37399.3,5662.3,2276,31737,3386.3,""smooth"",""left"",""left"",""good_move"",46139.1,8738.5,1802.9,43888.4,447.9,""smooth"",""left"",""left"",""good_move"",50493.6,4353.6,1497.2,46140,2856.4,""oops"",""left"",""right"",""bad_move"",55021.9,4523.1,1488.1,52995.5,538.3,""oops"",""left"",""up"",""bad_move"",58786,3762.4,2479.6,55023.6,1282.8,""smooth"",""down"",""down"",""good_move"",62121.7,3334.2,2605.2,58787.5,729,""oops"",""left"",""left"",""good_move"",66414.5,4291.7,2323.9,62122.9,1967.7,""smooth"",""left"",""left"",""good_move"",70730.9,4314.7,1857.8,66416.3,2456.8,""smooth"",""left"",""left"",""good_move""]","",""
"10071","","<div style=""width:500px;"">
  <p>What determined the result of this run?</p>
  </div>","85","html-slider-response","67","2173264","0.0-10.0-1.6","143","1","2025-07-02 10:20:55","80fe4187154257d5fb01684ea91b68b9","216.120.189.120","Mozilla/5.0 (Windows NT 10.0; Win64; x64) AppleWebKit/537.36 (KHTML, like Gecko) Chrome/138.0.0.0 Safari/537.36","WebKit","Chrome","138.0.0.0","Windows","10.0","https://app.prolific.com/","en-US,en;q=0.9","6786c32f329b1d694103f225","683db6dfa200031b80f2a654","686507720612f58983a28ad5","6786c32f329b1d694103f225","2025-07-02T10:57:18.710Z","","","","","","AttribQ","","","","","","","","","","","","","","","","","","","","","","","","","","","","","","","","","","","","","","50"
"3418","","<div style=""width:500px;"">
  <p>How much control did you have over the ball?</p>
  </div>","99","html-slider-response","68","2176686","0.0-10.0-2.6","143","1","2025-07-02 10:20:55","80fe4187154257d5fb01684ea91b68b9","216.120.189.120","Mozilla/5.0 (Windows NT 10.0; Win64; x64) AppleWebKit/537.36 (KHTML, like Gecko) Chrome/138.0.0.0 Safari/537.36","WebKit","Chrome","138.0.0.0","Windows","10.0","https://app.prolific.com/","en-US,en;q=0.9","6786c32f329b1d694103f225","683db6dfa200031b80f2a654","686507720612f58983a28ad5","6786c32f329b1d694103f225","2025-07-02T10:57:22.132Z","","","","","","ControlQ","","","","","","","","","","","","","","","","","","","","","","","","","","","","","","","","","","","","","","50"
"5231","","<div style=""width:500px;"">
  <p>How would you describe your current emotional state?</p>
  </div>","16","html-slider-response","69","2181921","0.0-10.0-3.6","143","1","2025-07-02 10:20:55","80fe4187154257d5fb01684ea91b68b9","216.120.189.120","Mozilla/5.0 (Windows NT 10.0; Win64; x64) AppleWebKit/537.36 (KHTML, like Gecko) Chrome/138.0.0.0 Safari/537.36","WebKit","Chrome","138.0.0.0","Windows","10.0","https://app.prolific.com/","en-US,en;q=0.9","6786c32f329b1d694103f225","683db6dfa200031b80f2a654","686507720612f58983a28ad5","6786c32f329b1d694103f225","2025-07-02T10:57:27.368Z","","","","","","StressQ","","","","","","","","","","","","","","","","","","","","","","","","","","","","","","","","","","","","","","50"
"4264","","<div style=""width:500px;"">
  <p>What best describes how you currently feel?</p>
  </div>","95","html-slider-response","70","2186190","0.0-10.0-4.6","143","1","2025-07-02 10:20:55","80fe4187154257d5fb01684ea91b68b9","216.120.189.120","Mozilla/5.0 (Windows NT 10.0; Win64; x64) AppleWebKit/537.36 (KHTML, like Gecko) Chrome/138.0.0.0 Safari/537.36","WebKit","Chrome","138.0.0.0","Windows","10.0","https://app.prolific.com/","en-US,en;q=0.9","6786c32f329b1d694103f225","683db6dfa200031b80f2a654","686507720612f58983a28ad5","6786c32f329b1d694103f225","2025-07-02T10:57:31.636Z","","","","","","MotivationQ","","","","","","","","","","","","","","","","","","","","","","","","","","","","","","","","","","","","","","50"
"","","","","ctl-task-cpt","71","2387945","0.0-10.0-0.7","143","1","2025-07-02 10:20:55","80fe4187154257d5fb01684ea91b68b9","216.120.189.120","Mozilla/5.0 (Windows NT 10.0; Win64; x64) AppleWebKit/537.36 (KHTML, like Gecko) Chrome/138.0.0.0 Safari/537.36","WebKit","Chrome","138.0.0.0","Windows","10.0","https://app.prolific.com/","en-US,en;q=0.9","6786c32f329b1d694103f225","683db6dfa200031b80f2a654","686507720612f58983a28ad5","6786c32f329b1d694103f225","2025-07-02T11:00:53.391Z","","","","","","","","","","","","","","","","win-only","1","g1:NE,g2:SW","0.3","8","0","2196602.5","33046.8","38077.3","198713.5","1","4","4","6","2","-4","-5","8","13","0.06060606060606061","5030.5","3000","-850","[""down"",""left""]","{""num_key_presses"":31,""num_perfect"":9,""num_errors"":1,""num_randdir"":21,""num_randdir_good_moves"":9,""num_whilered"":0,""num_whileblue"":1,""num_blue"":13,""num_good_moves"":16}","[294.22232142857143,291.12857142857143,1.2,294.22232142857143,291.12857142857143,129.5,294.22232142857143,291.12857142857143,239.2,294.22232142857143,291.12857142857143,346.9,294.22232142857143,291.12857142857143,449.6,294.22232142857143,291.12857142857143,567.4,294.22232142857143,291.12857142857143,673.4,294.22232142857143,291.12857142857143,779,294.22232142857143,291.12857142857143,889.8,294.22232142857143,291.12857142857143,1005.2,294.22232142857143,291.12857142857143,1112.8,294.22232142857143,291.12857142857143,1216.3,294.22232142857143,291.12857142857143,1317.3,294.22232142857143,291.12857142857143,1417.9,294.22232142857143,291.12857142857143,1518.5,294.22232142857143,291.12857142857143,1620.9,294.22232142857143,291.12857142857143,1754.5,294.22232142857143,291.12857142857143,1886.3,294.22232142857143,291.12857142857143,1988.6,294.22232142857143,291.12857142857143,2115.6,294.22232142857143,291.12857142857143,2220.4,294.22232142857143,291.12857142857143,2327.6,294.22232142857143,291.12857142857143,2434.1,294.22232142857143,291.12857142857143,2538.9,294.22232142857143,291.12857142857143,2642.4,294.22232142857143,291.12857142857143,2748.1,294.22232142857143,291.12857142857143,2849.2,294.22232142857143,291.12857142857143,2950,294.22232142857143,291.12857142857143,3089.1,294.22232142857143,291.12857142857143,3191.9,294.22232142857143,291.12857142857143,3299.1,294.22232142857143,291.12857142857143,3403.6,294.22232142857143,291.12857142857143,3504.6,294.22232142857143,291.12857142857143,3608.7,294.22232142857143,291.12857142857143,3715.5,294.22232142857143,291.12857142857143,3832.4,294.22232142857143,291.12857142857143,3936.3,294.22232142857143,291.12857142857143,4037.8,294.22232142857143,291.12857142857143,4155.3,294.22232142857143,291.12857142857143,4286,294.22232142857143,291.12857142857143,4404.8,294.22232142857143,291.12857142857143,4522.3,294.22232142857143,291.12857142857143,4630.9,294.22232142857143,291.12857142857143,4733.6,294.22232142857143,291.12857142857143,4844.3,294.22232142857143,291.12857142857143,4950.6]","[12668.3,12668.3,2564.5,9503.7,600.1,""oops"",""down"",""right"",""bad_move"",15986.6,3316.8,1960.5,12669.8,1356.3,""oops"",""down"",""down"",""good_move"",19057.6,3069.4,2484,15988.2,585.4,""smooth"",""down"",""down"",""good_move"",21797.7,2729.1,1771.9,19068.6,957.2,""smooth"",""down"",""down"",""good_move"",25034.1,3235,2453.7,21799.1,781.3,""oops"",""left"",""left"",""good_move"",37966.4,12917.3,2882.1,34432.9,651.4,""oops"",""left"",""right"",""bad_move"",41073.2,3105.9,2271.2,37967.3,834.7,""oops"",""left"",""up"",""bad_move"",44736.9,3662.1,2562.5,41075,1099.5,""oops"",""left"",""up"",""bad_move"",51886.8,7147.3,2439,49009.1,438.7,""smooth"",""up"",""up"",""bad_move"",55921.1,4028.5,2135.6,51892.6,1892.9,""oops"",""down"",""left"",""good_move"",60438.6,4508.6,2430.2,55930.1,2078.4,""oops"",""down"",""left"",""good_move"",65397.7,4957.7,2066.7,60440,2891,""oops"",""down"",""right"",""bad_move"",68807.4,3404.7,2905.9,65402.7,498.8,""smooth"",""down"",""down"",""good_move"",72316,3506.9,2694.3,68809.1,812.6,""oops"",""left"",""left"",""good_move"",78523.2,6206,2980.2,72317.2,3225.8,""oops"",""left"",""right"",""bad_move"",81780.3,3245.3,2489.3,78535.1,755.9,""smooth"",""right"",""right"",""bad_move"",85123.6,3342.2,2816.5,81781.6,525.6,""oops"",""left"",""right"",""bad_move"",90824.8,5697.5,1820.5,88516.9,487.4,""smooth"",""down"",""down"",""good_move"",93946.2,3118.6,2615.1,90827.7,503.5,""oops"",""down"",""down"",""good_move"",99727.3,5779.7,2071.3,97217.8,438.2,""oops"",""left"",""up"",""bad_move"",103017.1,3288.6,2783,99728.5,505.6,""oops"",""right"",""up"",""bad_move"",106560.9,3536.9,2622.7,103024,914.2,""oops"",""down"",""up"",""bad_move"",110500.3,3929.8,1266.5,106570.6,2663.2,""smooth"",""up"",""up"",""bad_move"",115006.3,4496.1,4095.7,110510.3,400.3,""while_blue"",""down"",""left"",""good_move"",122758.1,7742.4,1927.8,120360.4,469.9,""oops"",""down"",""down"",""good_move"",125852.9,3093,2644.7,122759.9,448.3,""oops"",""down"",""left"",""good_move"",130293.8,4439.6,2498.8,125854.3,1940.7,""oops"",""down"",""up"",""bad_move"",140950.7,10655.6,2837.6,137609.6,503.6,""smooth"",""down"",""down"",""good_move"",143713.5,2748.1,2278.1,140965.4,470,""oops"",""down"",""left"",""good_move"",148395.5,4673.7,2511.5,143721.8,2162.2,""smooth"",""down"",""down"",""good_move"",150914,2512.7,2065.4,148401.4,447.3,""oops"",""down"",""up"",""bad_move""]","",""
"7945","","<div style=""width:500px;"">
  <p>What determined the result of this run?</p>
  </div>","50","html-slider-response","72","2395893","0.0-10.0-1.7","143","1","2025-07-02 10:20:55","80fe4187154257d5fb01684ea91b68b9","216.120.189.120","Mozilla/5.0 (Windows NT 10.0; Win64; x64) AppleWebKit/537.36 (KHTML, like Gecko) Chrome/138.0.0.0 Safari/537.36","WebKit","Chrome","138.0.0.0","Windows","10.0","https://app.prolific.com/","en-US,en;q=0.9","6786c32f329b1d694103f225","683db6dfa200031b80f2a654","686507720612f58983a28ad5","6786c32f329b1d694103f225","2025-07-02T11:01:01.340Z","","","","","","AttribQ","","","","","","","","","","","","","","","","","","","","","","","","","","","","","","","","","","","","","","50"
"5764","","<div style=""width:500px;"">
  <p>How much control did you have over the ball?</p>
  </div>","1","html-slider-response","73","2401661","0.0-10.0-2.7","143","1","2025-07-02 10:20:55","80fe4187154257d5fb01684ea91b68b9","216.120.189.120","Mozilla/5.0 (Windows NT 10.0; Win64; x64) AppleWebKit/537.36 (KHTML, like Gecko) Chrome/138.0.0.0 Safari/537.36","WebKit","Chrome","138.0.0.0","Windows","10.0","https://app.prolific.com/","en-US,en;q=0.9","6786c32f329b1d694103f225","683db6dfa200031b80f2a654","686507720612f58983a28ad5","6786c32f329b1d694103f225","2025-07-02T11:01:07.107Z","","","","","","ControlQ","","","","","","","","","","","","","","","","","","","","","","","","","","","","","","","","","","","","","","50"
"4710","","<div style=""width:500px;"">
  <p>How would you describe your current emotional state?</p>
  </div>","21","html-slider-response","74","2406375","0.0-10.0-3.7","143","1","2025-07-02 10:20:55","80fe4187154257d5fb01684ea91b68b9","216.120.189.120","Mozilla/5.0 (Windows NT 10.0; Win64; x64) AppleWebKit/537.36 (KHTML, like Gecko) Chrome/138.0.0.0 Safari/537.36","WebKit","Chrome","138.0.0.0","Windows","10.0","https://app.prolific.com/","en-US,en;q=0.9","6786c32f329b1d694103f225","683db6dfa200031b80f2a654","686507720612f58983a28ad5","6786c32f329b1d694103f225","2025-07-02T11:01:11.821Z","","","","","","StressQ","","","","","","","","","","","","","","","","","","","","","","","","","","","","","","","","","","","","","","50"
"5206","","<div style=""width:500px;"">
  <p>What best describes how you currently feel?</p>
  </div>","74","html-slider-response","75","2411585","0.0-10.0-4.7","143","1","2025-07-02 10:20:55","80fe4187154257d5fb01684ea91b68b9","216.120.189.120","Mozilla/5.0 (Windows NT 10.0; Win64; x64) AppleWebKit/537.36 (KHTML, like Gecko) Chrome/138.0.0.0 Safari/537.36","WebKit","Chrome","138.0.0.0","Windows","10.0","https://app.prolific.com/","en-US,en;q=0.9","6786c32f329b1d694103f225","683db6dfa200031b80f2a654","686507720612f58983a28ad5","6786c32f329b1d694103f225","2025-07-02T11:01:17.032Z","","","","","","MotivationQ","","","","","","","","","","","","","","","","","","","","","","","","","","","","","","","","","","","","","","50"
"","","","","ctl-task-cpt","76","2610625","0.0-10.0-0.8","143","1","2025-07-02 10:20:55","80fe4187154257d5fb01684ea91b68b9","216.120.189.120","Mozilla/5.0 (Windows NT 10.0; Win64; x64) AppleWebKit/537.36 (KHTML, like Gecko) Chrome/138.0.0.0 Safari/537.36","WebKit","Chrome","138.0.0.0","Windows","10.0","https://app.prolific.com/","en-US,en;q=0.9","6786c32f329b1d694103f225","683db6dfa200031b80f2a654","686507720612f58983a28ad5","6786c32f329b1d694103f225","2025-07-02T11:04:36.071Z","","","","","","","","","","","","","","","","win-only","1","g1:NE,g2:SW","0.4","9","0","2421994.2","7751.8","12792.8","195918.8","1","4","8","6","2","8","7","15","8","0.11363636363636363","5041","3000","1975","[""down"",""left""]","{""num_key_presses"":22,""num_perfect"":9,""num_errors"":1,""num_randdir"":12,""num_randdir_good_moves"":5,""num_whilered"":0,""num_whileblue"":0,""num_blue"":6,""num_good_moves"":14}","[289.22232142857143,294.12857142857143,1.4,289.22232142857143,294.12857142857143,124.4,289.22232142857143,294.12857142857143,261.7,289.22232142857143,294.12857142857143,400.3,289.22232142857143,294.12857142857143,534.8,289.22232142857143,294.12857142857143,669.2,289.22232142857143,294.12857142857143,804.3,289.22232142857143,294.12857142857143,930.5,289.22232142857143,294.12857142857143,1071.3,289.22232142857143,294.12857142857143,1200.5,289.22232142857143,294.12857142857143,1331,289.22232142857143,294.12857142857143,1459.3,289.22232142857143,294.12857142857143,1586.1,289.22232142857143,294.12857142857143,1715.2,289.22232142857143,294.12857142857143,1844.5,289.22232142857143,294.12857142857143,1983.1,289.22232142857143,294.12857142857143,2119.3,289.22232142857143,294.12857142857143,2248.5,289.22232142857143,294.12857142857143,2379.6,289.22232142857143,294.12857142857143,2510.3,289.22232142857143,294.12857142857143,2633.8,289.22232142857143,294.12857142857143,2763.1,289.22232142857143,294.12857142857143,2885.6,289.22232142857143,294.12857142857143,3025.8,289.22232142857143,294.12857142857143,3158.8,289.22232142857143,294.12857142857143,3284.1,289.22232142857143,294.12857142857143,3417.7,289.22232142857143,294.12857142857143,3545.3,289.22232142857143,294.12857142857143,3668.8,289.22232142857143,294.12857142857143,3803.5,289.22232142857143,294.12857142857143,3932.8,289.22232142857143,294.12857142857143,4063.9,289.22232142857143,294.12857142857143,4198.7,289.22232142857143,294.12857142857143,4326.6,289.22232142857143,294.12857142857143,4463.3,289.22232142857143,294.12857142857143,4590,289.22232142857143,294.12857142857143,4721.3,289.22232142857143,294.12857142857143,4849.4,289.22232142857143,294.12857142857143,4992.5]","[1568,1568,1000,0,568,""oops"",""left"",""up"",""bad_move"",9732.6,8162.3,2371.4,1570.3,5790.9,""error"",""-"",""-"",""no_move"",13466.2,3732.2,2015.7,10758.6,691.9,""smooth"",""down"",""down"",""good_move"",16040.6,2571,1662.6,13469.7,908.3,""smooth"",""down"",""down"",""good_move"",19224.2,3182.4,2691.4,16041.9,490.9,""smooth"",""down"",""down"",""good_move"",28217.5,8979.9,1638.4,25976.6,602.5,""oops"",""down"",""up"",""bad_move"",42444.1,14225.8,2184.8,39384.7,874.6,""smooth"",""down"",""down"",""good_move"",45442.5,2996.3,2273.7,42446.3,722.5,""oops"",""down"",""up"",""bad_move"",56839.2,11395.3,2485.2,45443.9,8910.1,""oops"",""left"",""down"",""good_move"",60065.1,3224.9,2371.1,56840.3,853.7,""oops"",""left"",""up"",""bad_move"",71968.7,11888.4,2369.4,60080.5,9518.8,""oops"",""left"",""right"",""bad_move"",75785.7,3815.8,2452.4,71969.9,1363.4,""oops"",""down"",""right"",""bad_move"",79520.2,3733.2,2814.2,75787,919,""smooth"",""down"",""down"",""good_move"",82911,3389.1,2685.5,79521.9,703.6,""smooth"",""down"",""down"",""good_move"",89457.1,6544.3,2562.6,86274.1,620.4,""oops"",""down"",""up"",""bad_move"",103499.8,14041.9,2577.9,89457.9,11464,""oops"",""down"",""left"",""good_move"",116958.6,13457.6,2637.8,103501.1,10819.8,""smooth"",""down"",""down"",""good_move"",120481.2,3521.8,2153.4,116959.5,1368.4,""oops"",""down"",""down"",""good_move"",127647.3,7164.8,2732.2,124288.7,626.5,""oops"",""left"",""left"",""good_move"",143970.6,16322.5,1998.5,127648.2,14323.9,""oops"",""left"",""left"",""good_move"",164495.7,20524.2,2277.2,161438.5,780,""smooth"",""left"",""left"",""good_move"",182110.7,17614.1,2494.6,164496.6,15119.5,""smooth"",""left"",""left"",""good_move""]","",""
"7450","","<div style=""width:500px;"">
  <p>What determined the result of this run?</p>
  </div>","69","html-slider-response","77","2618086","0.0-10.0-1.8","143","1","2025-07-02 10:20:55","80fe4187154257d5fb01684ea91b68b9","216.120.189.120","Mozilla/5.0 (Windows NT 10.0; Win64; x64) AppleWebKit/537.36 (KHTML, like Gecko) Chrome/138.0.0.0 Safari/537.36","WebKit","Chrome","138.0.0.0","Windows","10.0","https://app.prolific.com/","en-US,en;q=0.9","6786c32f329b1d694103f225","683db6dfa200031b80f2a654","686507720612f58983a28ad5","6786c32f329b1d694103f225","2025-07-02T11:04:43.533Z","","","","","","AttribQ","","","","","","","","","","","","","","","","","","","","","","","","","","","","","","","","","","","","","","50"
"6319","","<div style=""width:500px;"">
  <p>How much control did you have over the ball?</p>
  </div>","51","html-slider-response","78","2624417","0.0-10.0-2.8","143","1","2025-07-02 10:20:55","80fe4187154257d5fb01684ea91b68b9","216.120.189.120","Mozilla/5.0 (Windows NT 10.0; Win64; x64) AppleWebKit/537.36 (KHTML, like Gecko) Chrome/138.0.0.0 Safari/537.36","WebKit","Chrome","138.0.0.0","Windows","10.0","https://app.prolific.com/","en-US,en;q=0.9","6786c32f329b1d694103f225","683db6dfa200031b80f2a654","686507720612f58983a28ad5","6786c32f329b1d694103f225","2025-07-02T11:04:49.863Z","","","","","","ControlQ","","","","","","","","","","","","","","","","","","","","","","","","","","","","","","","","","","","","","","50"
"3906","","<div style=""width:500px;"">
  <p>How would you describe your current emotional state?</p>
  </div>","52","html-slider-response","79","2628336","0.0-10.0-3.8","143","1","2025-07-02 10:20:55","80fe4187154257d5fb01684ea91b68b9","216.120.189.120","Mozilla/5.0 (Windows NT 10.0; Win64; x64) AppleWebKit/537.36 (KHTML, like Gecko) Chrome/138.0.0.0 Safari/537.36","WebKit","Chrome","138.0.0.0","Windows","10.0","https://app.prolific.com/","en-US,en;q=0.9","6786c32f329b1d694103f225","683db6dfa200031b80f2a654","686507720612f58983a28ad5","6786c32f329b1d694103f225","2025-07-02T11:04:53.782Z","","","","","","StressQ","","","","","","","","","","","","","","","","","","","","","","","","","","","","","","","","","","","","","","50"
"3587","","<div style=""width:500px;"">
  <p>What best describes how you currently feel?</p>
  </div>","67","html-slider-response","80","2631928","0.0-10.0-4.8","143","1","2025-07-02 10:20:55","80fe4187154257d5fb01684ea91b68b9","216.120.189.120","Mozilla/5.0 (Windows NT 10.0; Win64; x64) AppleWebKit/537.36 (KHTML, like Gecko) Chrome/138.0.0.0 Safari/537.36","WebKit","Chrome","138.0.0.0","Windows","10.0","https://app.prolific.com/","en-US,en;q=0.9","6786c32f329b1d694103f225","683db6dfa200031b80f2a654","686507720612f58983a28ad5","6786c32f329b1d694103f225","2025-07-02T11:04:57.374Z","","","","","","MotivationQ","","","","","","","","","","","","","","","","","","","","","","","","","","","","","","","","","","","","","","50"
