"rt","response_timestamp","stimulus","response","trial_type","trial_index","time_elapsed","internal_node_id","run_id","condition","recorded_at","source_code_version","ip","user_agent","device","browser","browser_version","platform","platform_version","referer","accept_language","PROLIFIC_PID","STUDY_ID","SESSION_ID","prolific_id","realtime","view_history","question_order","consent","success","question_id","eventType","responses","item_order","radio_event_ids","radio_event_times","key_event_times","mouse_event_times","straightlining","zigzagging","honeypot","which_type","canvas_config","goals_layout","control_level","trial_number","tutorial_trial_number","trial_start_time","phase1_start_time","phase2_start_time","phase3_start_time","goal_1_value","goal_1_distance","goal_2_value","goal_2_distance","goal_selected","outcome","outcome_total","participant_final_score","participant_initial_score","participant_final_score_prop","goal_choice_rt","allocated_time","allocated_time_remaining","goal_direction","counts","mouse_movements","key_presses","correct","slider_start"
"33962","1751451631129","<p style='font-size:40px;line-height:1.25'><strong>Welcome to the experiment!</strong></p><p style='font-size:1.1em;line-height:1.25'>Thank you for your interest in our experiment! Before you begin, it is important that we obtain your informed consent to participate in the study.</p><p style='font-size:1.1em;line-height:1.25'>On the next screen will be an <strong>information sheet</strong> for you to read. To participate in the study we need you to read this information sheet and the following consent form carefully. If you agree with all the statements, please click the <strong>I agree</strong> button.</p><p style='font-size:1.1em;line-height:1.25'>Press <strong>Next</strong> to read the information sheet.</p>","0","custom-html-button-response","0","33967","0.0-0.0","117","1","2025-07-02 10:19:55","80fe4187154257d5fb01684ea91b68b9","197.185.139.160","Mozilla/5.0 (Macintosh; Intel Mac OS X 10_15_7) AppleWebKit/537.36 (KHTML, like Gecko) Chrome/128.0.0.0 Safari/537.36","Macintosh","Chrome","128.0.0.0","OS X","10_15_7","https://app.prolific.com/","en-GB,en-US;q=0.9,en;q=0.8","678bad003d15e6aba1ee5a5d","683db6dfa200031b80f2a654","686507810601f7df3da28c55","678bad003d15e6aba1ee5a5d","2025-07-02T10:20:31.132Z","","","","","","","","","","","","","","","","","","","","","","","","","","","","","","","","","","","","","","","","","","","",""
"311711","","","","instructions","1","345690","0.0-1.0","117","1","2025-07-02 10:19:55","80fe4187154257d5fb01684ea91b68b9","197.185.139.160","Mozilla/5.0 (Macintosh; Intel Mac OS X 10_15_7) AppleWebKit/537.36 (KHTML, like Gecko) Chrome/128.0.0.0 Safari/537.36","Macintosh","Chrome","128.0.0.0","OS X","10_15_7","https://app.prolific.com/","en-GB,en-US;q=0.9,en;q=0.8","678bad003d15e6aba1ee5a5d","683db6dfa200031b80f2a654","686507810601f7df3da28c55","678bad003d15e6aba1ee5a5d","","[{""page_index"":0,""viewing_time"":304568},{""page_index"":1,""viewing_time"":7142}]","","","","","","","","","","","","","","","","","","","","","","","","","","","","","","","","","","","","","","","","","","",""
"4235","","","{""Q0"":"""",""Q1"":"""",""Q2"":"""",""Q3"":"""",""Q4"":"""",""Q5"":"""",""Q6"":""I agree""}","survey-multi-choice","2","349930","0.0-2.0","117","1","2025-07-02 10:19:55","80fe4187154257d5fb01684ea91b68b9","197.185.139.160","Mozilla/5.0 (Macintosh; Intel Mac OS X 10_15_7) AppleWebKit/537.36 (KHTML, like Gecko) Chrome/128.0.0.0 Safari/537.36","Macintosh","Chrome","128.0.0.0","OS X","10_15_7","https://app.prolific.com/","en-GB,en-US;q=0.9,en;q=0.8","678bad003d15e6aba1ee5a5d","683db6dfa200031b80f2a654","686507810601f7df3da28c55","678bad003d15e6aba1ee5a5d","","","[0,1,2,3,4,5,6]","true","","","","","","","","","","","","","","","","","","","","","","","","","","","","","","","","","","","","","","","","",""
"27207","","","","fullscreen","3","378144","0.0-4.0","117","1","2025-07-02 10:19:55","80fe4187154257d5fb01684ea91b68b9","197.185.139.160","Mozilla/5.0 (Macintosh; Intel Mac OS X 10_15_7) AppleWebKit/537.36 (KHTML, like Gecko) Chrome/128.0.0.0 Safari/537.36","Macintosh","Chrome","128.0.0.0","OS X","10_15_7","https://app.prolific.com/","en-GB,en-US;q=0.9,en;q=0.8","678bad003d15e6aba1ee5a5d","683db6dfa200031b80f2a654","686507810601f7df3da28c55","678bad003d15e6aba1ee5a5d","","","","","true","","","","","","","","","","","","","","","","","","","","","","","","","","","","","","","","","","","","","","","",""
"22854","1751451998164"," <p style='font-size:1.1em;line-height:1.25'>Thank you for completing the consent form and closing all other tabs.</p><p style='font-size:1.1em;line-height:1.25'>We will now invite you to fill in some demographic information and questionnaires, before starting the game.<br>This will take about 5 minutes.<br></p><p style='font-size:1.1em;line-height:1.25'>Press the <strong>Next</strong> button to continue.</p>","0","custom-html-button-response","4","401000","0.0-5.0","117","1","2025-07-02 10:19:55","80fe4187154257d5fb01684ea91b68b9","197.185.139.160","Mozilla/5.0 (Macintosh; Intel Mac OS X 10_15_7) AppleWebKit/537.36 (KHTML, like Gecko) Chrome/128.0.0.0 Safari/537.36","Macintosh","Chrome","128.0.0.0","OS X","10_15_7","https://app.prolific.com/","en-GB,en-US;q=0.9,en;q=0.8","678bad003d15e6aba1ee5a5d","683db6dfa200031b80f2a654","686507810601f7df3da28c55","678bad003d15e6aba1ee5a5d","2025-07-02T10:26:38.164Z","","","","","","","","","","","","","","","","","","","","","","","","","","","","","","","","","","","","","","","","","","","",""
"4428","","","{""age"":""23""}","survey-text","5","405433","0.0-6.0-0.0","117","1","2025-07-02 10:19:55","80fe4187154257d5fb01684ea91b68b9","197.185.139.160","Mozilla/5.0 (Macintosh; Intel Mac OS X 10_15_7) AppleWebKit/537.36 (KHTML, like Gecko) Chrome/128.0.0.0 Safari/537.36","Macintosh","Chrome","128.0.0.0","OS X","10_15_7","https://app.prolific.com/","en-GB,en-US;q=0.9,en;q=0.8","678bad003d15e6aba1ee5a5d","683db6dfa200031b80f2a654","686507810601f7df3da28c55","678bad003d15e6aba1ee5a5d","","","","","","0","demographics","","","","","","","","","","","","","","","","","","","","","","","","","","","","","","","","","","","","","",""
"1981","","","{""gender_identity"":""male/man""}","survey-multi-choice","6","407416","0.0-6.0-1.0","117","1","2025-07-02 10:19:55","80fe4187154257d5fb01684ea91b68b9","197.185.139.160","Mozilla/5.0 (Macintosh; Intel Mac OS X 10_15_7) AppleWebKit/537.36 (KHTML, like Gecko) Chrome/128.0.0.0 Safari/537.36","Macintosh","Chrome","128.0.0.0","OS X","10_15_7","https://app.prolific.com/","en-GB,en-US;q=0.9,en;q=0.8","678bad003d15e6aba1ee5a5d","683db6dfa200031b80f2a654","686507810601f7df3da28c55","678bad003d15e6aba1ee5a5d","","","[0]","","","1","demographics","","","","","","","","","","","","","","","","","","","","","","","","","","","","","","","","","","","","","",""
"4201","","","{""assigned_sex"":""male""}","survey-multi-choice","7","411622","0.0-6.0-2.0","117","1","2025-07-02 10:19:55","80fe4187154257d5fb01684ea91b68b9","197.185.139.160","Mozilla/5.0 (Macintosh; Intel Mac OS X 10_15_7) AppleWebKit/537.36 (KHTML, like Gecko) Chrome/128.0.0.0 Safari/537.36","Macintosh","Chrome","128.0.0.0","OS X","10_15_7","https://app.prolific.com/","en-GB,en-US;q=0.9,en;q=0.8","678bad003d15e6aba1ee5a5d","683db6dfa200031b80f2a654","686507810601f7df3da28c55","678bad003d15e6aba1ee5a5d","","","[0]","","","2","demographics","","","","","","","","","","","","","","","","","","","","","","","","","","","","","","","","","","","","","",""
"349142","","","{""menstrual_cycle"":""Yes""}","survey-multi-choice","8","760778","0.0-6.0-3.0","117","1","2025-07-02 10:19:55","80fe4187154257d5fb01684ea91b68b9","197.185.139.160","Mozilla/5.0 (Macintosh; Intel Mac OS X 10_15_7) AppleWebKit/537.36 (KHTML, like Gecko) Chrome/128.0.0.0 Safari/537.36","Macintosh","Chrome","128.0.0.0","OS X","10_15_7","https://app.prolific.com/","en-GB,en-US;q=0.9,en;q=0.8","678bad003d15e6aba1ee5a5d","683db6dfa200031b80f2a654","686507810601f7df3da28c55","678bad003d15e6aba1ee5a5d","","","[0]","","","4","demographics","","","","","","","","","","","","","","","","","","","","","","","","","","","","","","","","","","","","","",""
"7283","","","{""education"":""Bachelor's Degree (e.g., BA)""}","survey-multi-choice","9","768068","0.0-6.0-4.0","117","1","2025-07-02 10:19:55","80fe4187154257d5fb01684ea91b68b9","197.185.139.160","Mozilla/5.0 (Macintosh; Intel Mac OS X 10_15_7) AppleWebKit/537.36 (KHTML, like Gecko) Chrome/128.0.0.0 Safari/537.36","Macintosh","Chrome","128.0.0.0","OS X","10_15_7","https://app.prolific.com/","en-GB,en-US;q=0.9,en;q=0.8","678bad003d15e6aba1ee5a5d","683db6dfa200031b80f2a654","686507810601f7df3da28c55","678bad003d15e6aba1ee5a5d","","","[0]","","","5","demographics","","","","","","","","","","","","","","","","","","","","","","","","","","","","","","","","","","","","","",""
"5126","","","{""education"":""Bachelor's Degree (e.g., BA)""}","survey-multi-choice","10","773202","0.0-6.0-5.0","117","1","2025-07-02 10:19:55","80fe4187154257d5fb01684ea91b68b9","197.185.139.160","Mozilla/5.0 (Macintosh; Intel Mac OS X 10_15_7) AppleWebKit/537.36 (KHTML, like Gecko) Chrome/128.0.0.0 Safari/537.36","Macintosh","Chrome","128.0.0.0","OS X","10_15_7","https://app.prolific.com/","en-GB,en-US;q=0.9,en;q=0.8","678bad003d15e6aba1ee5a5d","683db6dfa200031b80f2a654","686507810601f7df3da28c55","678bad003d15e6aba1ee5a5d","2025-07-02T10:32:50.369Z","","[0]","","","6","demographics","","","","","","","","","","","","","","","","","","","","","","","","","","","","","","","","","","","","","",""
"17181","","","{""mental_health_condition"":""no"",""mental_health_treatment"":""no"",""psychiatric_medication"":""no""}","survey-text","11","790405","0.0-7.0-0.0","117","1","2025-07-02 10:19:55","80fe4187154257d5fb01684ea91b68b9","197.185.139.160","Mozilla/5.0 (Macintosh; Intel Mac OS X 10_15_7) AppleWebKit/537.36 (KHTML, like Gecko) Chrome/128.0.0.0 Safari/537.36","Macintosh","Chrome","128.0.0.0","OS X","10_15_7","https://app.prolific.com/","en-GB,en-US;q=0.9,en;q=0.8","678bad003d15e6aba1ee5a5d","683db6dfa200031b80f2a654","686507810601f7df3da28c55","678bad003d15e6aba1ee5a5d","2025-07-02T10:33:07.569Z","","","","","1","mental_health","","","","","","","","","","","","","","","","","","","","","","","","","","","","","","","","","","","","","",""
"8962","","","{""depression_history"":[""No""]}","survey-multi-select","12","799376","0.0-7.0-1.0","117","1","2025-07-02 10:19:55","80fe4187154257d5fb01684ea91b68b9","197.185.139.160","Mozilla/5.0 (Macintosh; Intel Mac OS X 10_15_7) AppleWebKit/537.36 (KHTML, like Gecko) Chrome/128.0.0.0 Safari/537.36","Macintosh","Chrome","128.0.0.0","OS X","10_15_7","https://app.prolific.com/","en-GB,en-US;q=0.9,en;q=0.8","678bad003d15e6aba1ee5a5d","683db6dfa200031b80f2a654","686507810601f7df3da28c55","678bad003d15e6aba1ee5a5d","","","[0]","","","","mental_health","","","","","","","","","","","","","","","","","","","","","","","","","","","","","","","","","","","","","",""
"75529.10000000894","","","","survey-template","13","874922","0.0-7.0-3.0","117","1","2025-07-02 10:19:55","80fe4187154257d5fb01684ea91b68b9","197.185.139.160","Mozilla/5.0 (Macintosh; Intel Mac OS X 10_15_7) AppleWebKit/537.36 (KHTML, like Gecko) Chrome/128.0.0.0 Safari/537.36","Macintosh","Chrome","128.0.0.0","OS X","10_15_7","https://app.prolific.com/","en-GB,en-US;q=0.9,en;q=0.8","678bad003d15e6aba1ee5a5d","683db6dfa200031b80f2a654","686507810601f7df3da28c55","678bad003d15e6aba1ee5a5d","2025-07-02T10:34:32.086Z","","","","","","ius","{""Q01"":""2"",""Q02"":""4"",""Q03"":""1"",""Q04"":""3"",""Q05"":""3"",""Q06"":""2"",""Q07"":""2"",""Q08"":""0"",""Q09"":""4"",""Q10"":""1"",""Q11"":""2"",""Q12"":""3"",""Q13"":""1""}","[0,1,2,3,4,5,6,7,8,9,10,11,12]","[""Q01"",""Q02"",""Q03"",""Q04"",""Q05"",""Q06"",""Q07"",""Q08"",""Q09"",""Q10"",""Q11"",""Q12"",""Q13""]","[8538.60000000894,13683.40000000596,20356.40000000596,32810.10000000894,37173.60000000894,43286.40000000596,49136.40000000596,51992.40000000596,58012.30000001192,62606.40000000596,66023.20000000298,69958.30000001192,74566.10000000894]","[]","[8538.60000000894,13683.40000000596,20356.40000000596,32810.10000000894,36577.30000001192,37173.60000000894,43286.40000000596,49136.40000000596,51992.40000000596,58012.30000001192,61976.20000000298,62606.40000000596,66023.20000000298,69958.30000001192,73004.30000001192,74566.10000000894,75524.5]","0.3076923076923077","0.3333333333333333","0","","","","","","","","","","","","","","","","","","","","","","","","","","","","",""
"3705","1751452475795","<p style='font-size:1.1em;line-height:1.25'>In the following, we will ask you a few questions relating to your experiences over the past month.<br></p><p style='font-size:1.1em;line-height:1.25'>Press the <strong>Next</strong> button to continue.</p>","0","custom-html-button-response","14","878631","0.0-7.0-4.0","117","1","2025-07-02 10:19:55","80fe4187154257d5fb01684ea91b68b9","197.185.139.160","Mozilla/5.0 (Macintosh; Intel Mac OS X 10_15_7) AppleWebKit/537.36 (KHTML, like Gecko) Chrome/128.0.0.0 Safari/537.36","Macintosh","Chrome","128.0.0.0","OS X","10_15_7","https://app.prolific.com/","en-GB,en-US;q=0.9,en;q=0.8","678bad003d15e6aba1ee5a5d","683db6dfa200031b80f2a654","686507810601f7df3da28c55","678bad003d15e6aba1ee5a5d","2025-07-02T10:34:35.795Z","","","","","","","","","","","","","","","","","","","","","","","","","","","","","","","","","","","","","","","","","","","",""
"97994.5","","","","survey-template","15","976632","0.0-7.0-5.0","117","1","2025-07-02 10:19:55","80fe4187154257d5fb01684ea91b68b9","197.185.139.160","Mozilla/5.0 (Macintosh; Intel Mac OS X 10_15_7) AppleWebKit/537.36 (KHTML, like Gecko) Chrome/128.0.0.0 Safari/537.36","Macintosh","Chrome","128.0.0.0","OS X","10_15_7","https://app.prolific.com/","en-GB,en-US;q=0.9,en;q=0.8","678bad003d15e6aba1ee5a5d","683db6dfa200031b80f2a654","686507810601f7df3da28c55","678bad003d15e6aba1ee5a5d","2025-07-02T10:36:13.797Z","","","","","","pss","{""Q01"":""2"",""Q02"":""3"",""Q03"":""2"",""Q04"":""2"",""Q05"":""1"",""Q06"":""1"",""Q07"":""1"",""Q08"":""1"",""Q09"":""2"",""Q10"":""2""}","[0,1,2,3,4,5,6,7,8,9]","[""Q01"",""Q02"",""Q03"",""Q04"",""Q05"",""Q05"",""Q06"",""Q06"",""Q07"",""Q08"",""Q09"",""Q10""]","[8537.70000000298,17927.29999999702,22827.09999999404,30431.29999999702,47031.39999999106,50129.29999999702,63231.29999999702,65041.59999999404,71065.29999999702,76769.20000000298,85455.20000000298,96925.09999999404]","[]","[0,8537.70000000298,17927.29999999702,22323.09999999404,22827.09999999404,29927.39999999106,30431.29999999702,47031.39999999106,50129.29999999702,63231.29999999702,65041.59999999404,71065.29999999702,76769.20000000298,84153.39999999106,85455.20000000298,96925.09999999404,97991.39999999106]","0.5","0.4444444444444444","0","","","","","","","","","","","","","","","","","","","","","","","","","","","","",""
"2405","1751452576206","<p style='font-size:1.1em;line-height:1.25'>Thank you for your answers! Now we will ask you a few more questions relating to your feelings in the last 24 hours.<br></p><p style='font-size:1.1em;line-height:1.25'>Press the <strong>Next</strong> button to continue.</p>","0","custom-html-button-response","16","979042","0.0-7.0-6.0","117","1","2025-07-02 10:19:55","80fe4187154257d5fb01684ea91b68b9","197.185.139.160","Mozilla/5.0 (Macintosh; Intel Mac OS X 10_15_7) AppleWebKit/537.36 (KHTML, like Gecko) Chrome/128.0.0.0 Safari/537.36","Macintosh","Chrome","128.0.0.0","OS X","10_15_7","https://app.prolific.com/","en-GB,en-US;q=0.9,en;q=0.8","678bad003d15e6aba1ee5a5d","683db6dfa200031b80f2a654","686507810601f7df3da28c55","678bad003d15e6aba1ee5a5d","2025-07-02T10:36:16.206Z","","","","","","","","","","","","","","","","","","","","","","","","","","","","","","","","","","","","","","","","","","","",""
"273849.40000000596","","","","survey-template","17","1252906","0.0-7.0-7.0","117","1","2025-07-02 10:19:55","80fe4187154257d5fb01684ea91b68b9","197.185.139.160","Mozilla/5.0 (Macintosh; Intel Mac OS X 10_15_7) AppleWebKit/537.36 (KHTML, like Gecko) Chrome/128.0.0.0 Safari/537.36","Macintosh","Chrome","128.0.0.0","OS X","10_15_7","https://app.prolific.com/","en-GB,en-US;q=0.9,en;q=0.8","678bad003d15e6aba1ee5a5d","683db6dfa200031b80f2a654","686507810601f7df3da28c55","678bad003d15e6aba1ee5a5d","2025-07-02T10:40:50.070Z","","","","","","drsp","{""Q01"":""1"",""Q02"":""1"",""Q03"":""1"",""Q04"":""2"",""Q05"":""2"",""Q06"":""1"",""Q07"":""1"",""Q08"":""2"",""Q09"":""1"",""Q10"":""1"",""Q11"":""1"",""Q12"":""4"",""Q13"":""4"",""Q14"":""2"",""Q15"":""1"",""Q16"":""3"",""Q17"":""3"",""Q18"":""3"",""Q19"":""3"",""Q20"":""3"",""Q21"":""2""}","[0,1,2,3,4,5,6,7,8,9,10,11,12,13,14,15,16,17,18,19,20]","[""Q01"",""Q02"",""Q03"",""Q04"",""Q05"",""Q06"",""Q07"",""Q08"",""Q09"",""Q11"",""Q10"",""Q12"",""Q13"",""Q14"",""Q15"",""Q16"",""Q17"",""Q18"",""Q19"",""Q20"",""Q21""]","[194306.30000001192,195420.30000001192,196384.5,198512.20000000298,200075.5,204363.30000001192,206910.5,208814.5,211227.20000000298,215390.60000000894,217256.5,222238.10000000894,223426.5,228548.5,236045.80000001192,240110.30000001192,248238,255186.20000000298,262558.200000003,267108.5,272535.5]","[]","[0,194306.30000001192,195420.30000001192,196384.5,198512.20000000298,200075.5,204363.30000001192,206910.5,208814.5,211227.20000000298,213260.10000000894,215390.60000000894,215994.60000000894,217256.5,222238.10000000894,223426.5,227932.60000000894,228548.5,236045.80000001192,240110.30000001192,248238,255186.20000000298,262558.200000003,267108.5,272535.5,273842.700000003]","0.42857142857142855","0.3","0","","","","","","","","","","","","","","","","","","","","","","","","","","","","",""
"17005.80000001192","","","","survey-template","18","1269917","0.0-7.0-8.0","117","1","2025-07-02 10:19:55","80fe4187154257d5fb01684ea91b68b9","197.185.139.160","Mozilla/5.0 (Macintosh; Intel Mac OS X 10_15_7) AppleWebKit/537.36 (KHTML, like Gecko) Chrome/128.0.0.0 Safari/537.36","Macintosh","Chrome","128.0.0.0","OS X","10_15_7","https://app.prolific.com/","en-GB,en-US;q=0.9,en;q=0.8","678bad003d15e6aba1ee5a5d","683db6dfa200031b80f2a654","686507810601f7df3da28c55","678bad003d15e6aba1ee5a5d","2025-07-02T10:41:07.081Z","","","","","","stress","{""Q01"":""2"",""Q02"":""1"",""Q03"":""3""}","[0,1,2]","[""Q01"",""Q02"",""Q03""]","[5847.4000000059605,14784.300000011921,16130.300000011921]","[]","[5847.4000000059605,9818.20000000298,14784.300000011921,16130.300000011921,17004.30000001192]","0.3333333333333333","0.5","0","","","","","","","","","","","","","","","","","","","","","","","","","","","","",""
"196622","","","","instructions","19","1466551","0.0-8.0-0.0","117","1","2025-07-02 10:19:55","80fe4187154257d5fb01684ea91b68b9","197.185.139.160","Mozilla/5.0 (Macintosh; Intel Mac OS X 10_15_7) AppleWebKit/537.36 (KHTML, like Gecko) Chrome/128.0.0.0 Safari/537.36","Macintosh","Chrome","128.0.0.0","OS X","10_15_7","https://app.prolific.com/","en-GB,en-US;q=0.9,en;q=0.8","678bad003d15e6aba1ee5a5d","683db6dfa200031b80f2a654","686507810601f7df3da28c55","678bad003d15e6aba1ee5a5d","","[{""page_index"":0,""viewing_time"":104427},{""page_index"":1,""viewing_time"":29077},{""page_index"":2,""viewing_time"":12774},{""page_index"":3,""viewing_time"":50344}]","","","","","","","","","","","","","","","","","","","","","","","","","","","","","","","","","","","","","","","","","","",""
"","","","","ctl-task-cpt","20","1503266","0.0-8.0-1.0","117","1","2025-07-02 10:19:55","80fe4187154257d5fb01684ea91b68b9","197.185.139.160","Mozilla/5.0 (Macintosh; Intel Mac OS X 10_15_7) AppleWebKit/537.36 (KHTML, like Gecko) Chrome/128.0.0.0 Safari/537.36","Macintosh","Chrome","128.0.0.0","OS X","10_15_7","https://app.prolific.com/","en-GB,en-US;q=0.9,en;q=0.8","678bad003d15e6aba1ee5a5d","683db6dfa200031b80f2a654","686507810601f7df3da28c55","678bad003d15e6aba1ee5a5d","","","","","","","","","","","","","","","","","win-only","0","g1:NW,g2:SE","1","0","1","1469653.6","4415.6","8418.8","33703","2","4","4","6","2","4","2","2","0","0.015151515151515152","4003.1","4000","625","[""down"",""right""]","{""num_key_presses"":8,""num_perfect"":6,""num_errors"":2,""num_randdir"":0,""num_randdir_good_moves"":0,""num_whilered"":0,""num_whileblue"":0,""num_blue"":1,""num_good_moves"":6}","[316.20625,311.096875,0.5,315.20625,311.096875,101,315.20625,311.096875,205.2,316.20625,311.096875,503.2,318.20625,304.096875,605.3,318.20625,304.096875,705.8,318.20625,304.096875,810.1,318.20625,304.096875,910.8,318.20625,304.096875,1013.2,318.20625,304.096875,1115.3,318.20625,304.096875,1216.1,318.20625,304.096875,1322,318.20625,304.096875,1425.9,318.20625,304.096875,1531,318.20625,304.096875,1636,318.20625,304.096875,1736,318.20625,304.096875,1836.4,318.20625,304.096875,1940.5,318.20625,304.096875,2046.2,318.20625,304.096875,2151.2,318.20625,304.096875,2255.9,318.20625,304.096875,2360.6,318.20625,304.096875,2466.5,318.20625,304.096875,2570.5,318.20625,304.096875,2671.3,318.20625,304.096875,2771.6,318.20625,304.096875,2875.5,318.20625,304.096875,2975.8,318.20625,304.096875,3081.3,318.20625,304.096875,3186.4,318.20625,304.096875,3290.6,318.20625,304.096875,3395.7,318.20625,304.096875,3500.8,318.20625,304.096875,3600.9,318.20625,304.096875,3701,318.20625,304.096875,3805.1,318.20625,304.096875,3905.2]","[342.9,342.9,1000,0,-657.1,""error"",""-"",""-"",""no_move"",7574.4,7229.8,2247.4,4712.3,614.7,""smooth"",""right"",""right"",""good_move"",8045,468.8,2988.5,7576.3,-2519.8,""error"",""-"",""-"",""no_move"",13068.1,5022.9,3145.1,9048.3,874.7,""smooth"",""right"",""right"",""good_move"",16446.5,3378.1,2746.6,13068.5,631.4,""smooth"",""right"",""right"",""good_move"",19244.7,2797.9,2363.6,16446.8,434.3,""smooth"",""down"",""down"",""good_move"",21935.8,2690.2,2235.3,19245.6,454.9,""smooth"",""down"",""down"",""good_move"",25193.9,3258,2790.2,21936,467.8,""smooth"",""down"",""down"",""good_move""]","",""
"16034","","","","instructions","21","1519302","0.0-8.0-2.0","117","1","2025-07-02 10:19:55","80fe4187154257d5fb01684ea91b68b9","197.185.139.160","Mozilla/5.0 (Macintosh; Intel Mac OS X 10_15_7) AppleWebKit/537.36 (KHTML, like Gecko) Chrome/128.0.0.0 Safari/537.36","Macintosh","Chrome","128.0.0.0","OS X","10_15_7","https://app.prolific.com/","en-GB,en-US;q=0.9,en;q=0.8","678bad003d15e6aba1ee5a5d","683db6dfa200031b80f2a654","686507810601f7df3da28c55","678bad003d15e6aba1ee5a5d","","[{""page_index"":0,""viewing_time"":16033}]","","","","","","","","","","","","","","","","","","","","","","","","","","","","","","","","","","","","","","","","","","",""
"","","","","ctl-task-cpt","22","1554839","0.0-8.0-3.0","117","1","2025-07-02 10:19:55","80fe4187154257d5fb01684ea91b68b9","197.185.139.160","Mozilla/5.0 (Macintosh; Intel Mac OS X 10_15_7) AppleWebKit/537.36 (KHTML, like Gecko) Chrome/128.0.0.0 Safari/537.36","Macintosh","Chrome","128.0.0.0","OS X","10_15_7","https://app.prolific.com/","en-GB,en-US;q=0.9,en;q=0.8","678bad003d15e6aba1ee5a5d","683db6dfa200031b80f2a654","686507810601f7df3da28c55","678bad003d15e6aba1ee5a5d","","","","","","","","","","","","","","","","","win-only","0","g1:NW,g2:SE","0.35","0","3","1522400.3","4761.8","8766.5","32521.1","2","4","8","6","1","2","1","1","0","0.007575757575757576","4004.7","4000","265","[""left"",""up""]","{""num_key_presses"":7,""num_perfect"":3,""num_errors"":1,""num_randdir"":3,""num_randdir_good_moves"":3,""num_whilered"":0,""num_whileblue"":0,""num_blue"":1,""num_good_moves"":5}","[308.20625,311.096875,0.3,308.20625,311.096875,103.6,307.20625,311.096875,203.7,257.20625,341.096875,309.1,117.20625,408.096875,409.8,-4.793750000000003,404.096875,514.7,-4.793750000000003,404.096875,619.4,-4.793750000000003,404.096875,725.3,-4.793750000000003,404.096875,829.6,-4.793750000000003,404.096875,934.4,-4.793750000000003,404.096875,1036.3,-4.793750000000003,404.096875,1139.8,-4.793750000000003,404.096875,1245,-4.793750000000003,404.096875,1352.5,-4.793750000000003,404.096875,1454.5,-4.793750000000003,404.096875,1558.8,-4.793750000000003,404.096875,1659.5,-4.793750000000003,404.096875,1759.8,-4.793750000000003,404.096875,1859.8,-4.793750000000003,404.096875,1963.8,-4.793750000000003,404.096875,2064.2,-4.793750000000003,404.096875,2169.7,-4.793750000000003,404.096875,2274.2,-4.793750000000003,404.096875,2380.3,-4.793750000000003,404.096875,2485.3,-4.793750000000003,404.096875,2588.8,-4.793750000000003,404.096875,2689.5,-4.793750000000003,404.096875,2789.6,-4.793750000000003,404.096875,2891.2,-4.793750000000003,404.096875,2993.7,-4.793750000000003,404.096875,3094.3,-4.793750000000003,404.096875,3199.7,-4.793750000000003,404.096875,3300.4,-4.793750000000003,404.096875,3404.6,-4.793750000000003,404.096875,3509.2,-4.793750000000003,404.096875,3609.8,-4.793750000000003,404.096875,3714.8,-4.793750000000003,404.096875,3815,-4.793750000000003,404.096875,3921.9]","[999.9,999.9,1000,0,-0.1,""error"",""-"",""-"",""no_move"",8263,7262.9,2393.6,5404.4,465,""oops"",""right"",""up"",""good_move"",11127.8,2864.4,2094.1,8263.4,770.3,""smooth"",""right"",""right"",""bad_move"",14815.7,3687.2,2246.5,11128.5,1440.7,""oops"",""up"",""left"",""good_move"",18428.3,3612.3,3146.5,14816,465.8,""smooth"",""up"",""up"",""good_move"",20647,2218.5,1897.7,18428.5,320.8,""smooth"",""left"",""left"",""good_move"",23666.8,3019.6,2697.2,20647.3,322.4,""oops"",""left"",""left"",""good_move""]","",""
"20876","","","","instructions","23","1575717","0.0-8.0-4.0","117","1","2025-07-02 10:19:55","80fe4187154257d5fb01684ea91b68b9","197.185.139.160","Mozilla/5.0 (Macintosh; Intel Mac OS X 10_15_7) AppleWebKit/537.36 (KHTML, like Gecko) Chrome/128.0.0.0 Safari/537.36","Macintosh","Chrome","128.0.0.0","OS X","10_15_7","https://app.prolific.com/","en-GB,en-US;q=0.9,en;q=0.8","678bad003d15e6aba1ee5a5d","683db6dfa200031b80f2a654","686507810601f7df3da28c55","678bad003d15e6aba1ee5a5d","","[{""page_index"":0,""viewing_time"":17379},{""page_index"":1,""viewing_time"":3497}]","","","","","","","","","","","","","","","","","","","","","","","","","","","","","","","","","","","","","","","","","","",""
"14457","","","{""green_ball"":[""Ball sometimes shakes and moves in a random direction""]}","survey-multi-select","24","1590177","0.0-8.0-5.0-0.0","117","1","2025-07-02 10:19:55","80fe4187154257d5fb01684ea91b68b9","197.185.139.160","Mozilla/5.0 (Macintosh; Intel Mac OS X 10_15_7) AppleWebKit/537.36 (KHTML, like Gecko) Chrome/128.0.0.0 Safari/537.36","Macintosh","Chrome","128.0.0.0","OS X","10_15_7","https://app.prolific.com/","en-GB,en-US;q=0.9,en;q=0.8","678bad003d15e6aba1ee5a5d","683db6dfa200031b80f2a654","686507810601f7df3da28c55","678bad003d15e6aba1ee5a5d","","","[0]","","","","quiz","","","","","","","","","","","","","","","","","","","","","","","","","","","","","","","","","","","","","true",""
"3470","","<p align='center'><b>CORRECT!</b> Indeed, the green ball may sometimes shake and move in a random direction.</p>","0","html-button-response","25","1593652","0.0-8.0-5.0-1.0","117","1","2025-07-02 10:19:55","80fe4187154257d5fb01684ea91b68b9","197.185.139.160","Mozilla/5.0 (Macintosh; Intel Mac OS X 10_15_7) AppleWebKit/537.36 (KHTML, like Gecko) Chrome/128.0.0.0 Safari/537.36","Macintosh","Chrome","128.0.0.0","OS X","10_15_7","https://app.prolific.com/","en-GB,en-US;q=0.9,en;q=0.8","678bad003d15e6aba1ee5a5d","683db6dfa200031b80f2a654","686507810601f7df3da28c55","678bad003d15e6aba1ee5a5d","","","","","","","","","","","","","","","","","","","","","","","","","","","","","","","","","","","","","","","","","","","","",""
"9322","","","{""yellow_ball"":[""Ball doesn‘t move and I get -1 penalty point""]}","survey-multi-select","26","1602979","0.0-8.0-6.0-0.0","117","1","2025-07-02 10:19:55","80fe4187154257d5fb01684ea91b68b9","197.185.139.160","Mozilla/5.0 (Macintosh; Intel Mac OS X 10_15_7) AppleWebKit/537.36 (KHTML, like Gecko) Chrome/128.0.0.0 Safari/537.36","Macintosh","Chrome","128.0.0.0","OS X","10_15_7","https://app.prolific.com/","en-GB,en-US;q=0.9,en;q=0.8","678bad003d15e6aba1ee5a5d","683db6dfa200031b80f2a654","686507810601f7df3da28c55","678bad003d15e6aba1ee5a5d","","","[0]","","","","quiz","","","","","","","","","","","","","","","","","","","","","","","","","","","","","","","","","","","","","true",""
"1421","","<p align='center'><b>CORRECT!</b> Indeed, the yellow ball never moves and you receive a penalty.</p>","0","html-button-response","27","1604405","0.0-8.0-6.0-1.0","117","1","2025-07-02 10:19:55","80fe4187154257d5fb01684ea91b68b9","197.185.139.160","Mozilla/5.0 (Macintosh; Intel Mac OS X 10_15_7) AppleWebKit/537.36 (KHTML, like Gecko) Chrome/128.0.0.0 Safari/537.36","Macintosh","Chrome","128.0.0.0","OS X","10_15_7","https://app.prolific.com/","en-GB,en-US;q=0.9,en;q=0.8","678bad003d15e6aba1ee5a5d","683db6dfa200031b80f2a654","686507810601f7df3da28c55","678bad003d15e6aba1ee5a5d","","","","","","","","","","","","","","","","","","","","","","","","","","","","","","","","","","","","","","","","","","","","",""
"20475","","","{""blue_ball"":[""Ball always shakes and moves in a random direction""]}","survey-multi-select","28","1624886","0.0-8.0-7.0-0.0","117","1","2025-07-02 10:19:55","80fe4187154257d5fb01684ea91b68b9","197.185.139.160","Mozilla/5.0 (Macintosh; Intel Mac OS X 10_15_7) AppleWebKit/537.36 (KHTML, like Gecko) Chrome/128.0.0.0 Safari/537.36","Macintosh","Chrome","128.0.0.0","OS X","10_15_7","https://app.prolific.com/","en-GB,en-US;q=0.9,en;q=0.8","678bad003d15e6aba1ee5a5d","683db6dfa200031b80f2a654","686507810601f7df3da28c55","678bad003d15e6aba1ee5a5d","","","[0]","","","","quiz","","","","","","","","","","","","","","","","","","","","","","","","","","","","","","","","","","","","","true",""
"1539","","<p align='center'><b>CORRECT!</b> Indeed, the blue ball always shakes and moves in a random direction. Also there is a penalty of -1 point.</p>","0","html-button-response","29","1626431","0.0-8.0-7.0-1.0","117","1","2025-07-02 10:19:55","80fe4187154257d5fb01684ea91b68b9","197.185.139.160","Mozilla/5.0 (Macintosh; Intel Mac OS X 10_15_7) AppleWebKit/537.36 (KHTML, like Gecko) Chrome/128.0.0.0 Safari/537.36","Macintosh","Chrome","128.0.0.0","OS X","10_15_7","https://app.prolific.com/","en-GB,en-US;q=0.9,en;q=0.8","678bad003d15e6aba1ee5a5d","683db6dfa200031b80f2a654","686507810601f7df3da28c55","678bad003d15e6aba1ee5a5d","","","","","","","","","","","","","","","","","","","","","","","","","","","","","","","","","","","","","","","","","","","","",""
"50827","","","{""bonus"":[""When I reach 80% of points""]}","survey-multi-select","30","1677268","0.0-8.0-8.0-0.0","117","1","2025-07-02 10:19:55","80fe4187154257d5fb01684ea91b68b9","197.185.139.160","Mozilla/5.0 (Macintosh; Intel Mac OS X 10_15_7) AppleWebKit/537.36 (KHTML, like Gecko) Chrome/128.0.0.0 Safari/537.36","Macintosh","Chrome","128.0.0.0","OS X","10_15_7","https://app.prolific.com/","en-GB,en-US;q=0.9,en;q=0.8","678bad003d15e6aba1ee5a5d","683db6dfa200031b80f2a654","686507810601f7df3da28c55","678bad003d15e6aba1ee5a5d","","","[0]","","","","quiz","","","","","","","","","","","","","","","","","","","","","","","","","","","","","","","","","","","","","false",""
"3683","","<p align='center'><b>INCORRECT.</b> You receive 2 pounds extra when you reach 50% of points </p>","0","html-button-response","31","1680957","0.0-8.0-8.0-1.0","117","1","2025-07-02 10:19:55","80fe4187154257d5fb01684ea91b68b9","197.185.139.160","Mozilla/5.0 (Macintosh; Intel Mac OS X 10_15_7) AppleWebKit/537.36 (KHTML, like Gecko) Chrome/128.0.0.0 Safari/537.36","Macintosh","Chrome","128.0.0.0","OS X","10_15_7","https://app.prolific.com/","en-GB,en-US;q=0.9,en;q=0.8","678bad003d15e6aba1ee5a5d","683db6dfa200031b80f2a654","686507810601f7df3da28c55","678bad003d15e6aba1ee5a5d","","","","","","","","","","","","","","","","","","","","","","","","","","","","","","","","","","","","","","","","","","","","",""
"4576","","","{""bonus"":[""When I reach 50% of points""]}","survey-multi-select","32","1685537","0.0-8.0-8.1-0.1","117","1","2025-07-02 10:19:55","80fe4187154257d5fb01684ea91b68b9","197.185.139.160","Mozilla/5.0 (Macintosh; Intel Mac OS X 10_15_7) AppleWebKit/537.36 (KHTML, like Gecko) Chrome/128.0.0.0 Safari/537.36","Macintosh","Chrome","128.0.0.0","OS X","10_15_7","https://app.prolific.com/","en-GB,en-US;q=0.9,en;q=0.8","678bad003d15e6aba1ee5a5d","683db6dfa200031b80f2a654","686507810601f7df3da28c55","678bad003d15e6aba1ee5a5d","","","[0]","","","","quiz","","","","","","","","","","","","","","","","","","","","","","","","","","","","","","","","","","","","","true",""
"1244","","<p align='center'><b>CORRECT!</b> Indeed, you receive 2 pounds extra when you reach 50% of points.</p>","0","html-button-response","33","1686785","0.0-8.0-8.1-1.1","117","1","2025-07-02 10:19:55","80fe4187154257d5fb01684ea91b68b9","197.185.139.160","Mozilla/5.0 (Macintosh; Intel Mac OS X 10_15_7) AppleWebKit/537.36 (KHTML, like Gecko) Chrome/128.0.0.0 Safari/537.36","Macintosh","Chrome","128.0.0.0","OS X","10_15_7","https://app.prolific.com/","en-GB,en-US;q=0.9,en;q=0.8","678bad003d15e6aba1ee5a5d","683db6dfa200031b80f2a654","686507810601f7df3da28c55","678bad003d15e6aba1ee5a5d","","","","","","","","","","","","","","","","","","","","","","","","","","","","","","","","","","","","","","","","","","","","",""
"3629","","","","instructions","34","1690416","0.0-8.0-9.0","117","1","2025-07-02 10:19:55","80fe4187154257d5fb01684ea91b68b9","197.185.139.160","Mozilla/5.0 (Macintosh; Intel Mac OS X 10_15_7) AppleWebKit/537.36 (KHTML, like Gecko) Chrome/128.0.0.0 Safari/537.36","Macintosh","Chrome","128.0.0.0","OS X","10_15_7","https://app.prolific.com/","en-GB,en-US;q=0.9,en;q=0.8","678bad003d15e6aba1ee5a5d","683db6dfa200031b80f2a654","686507810601f7df3da28c55","678bad003d15e6aba1ee5a5d","","[{""page_index"":0,""viewing_time"":3628}]","","","","","","","","","","","","","","","","","","","","","","","","","","","","","","","","","","","","","","","","","","",""
"8714","","<p>Before you start with this game please answer the following three questions yourself. </p>
  <p>Through this game, we measure several aspects of your cognitive performance, such as reaction times, multi-tasking capabilities </p>
  <p>and the ability to assess the situation you are in.</p>
  <p></p>
  <p><b>How good do you usually are in such tasks?</b></p>","65","html-slider-response","35","1699135","0.0-9.0-0.0","117","1","2025-07-02 10:19:55","80fe4187154257d5fb01684ea91b68b9","197.185.139.160","Mozilla/5.0 (Macintosh; Intel Mac OS X 10_15_7) AppleWebKit/537.36 (KHTML, like Gecko) Chrome/128.0.0.0 Safari/537.36","Macintosh","Chrome","128.0.0.0","OS X","10_15_7","https://app.prolific.com/","en-GB,en-US;q=0.9,en;q=0.8","678bad003d15e6aba1ee5a5d","683db6dfa200031b80f2a654","686507810601f7df3da28c55","678bad003d15e6aba1ee5a5d","2025-07-02T10:48:16.299Z","","","","","","PreSkillQ","","","","","","","","","","","","","","","","","","","","","","","","","","","","","","","","","","","","","","50"
"5288","","<div style=""width:500px;"">
  <p>How well do you think you will perform in this task compared to other participants?</p>
  </div>","72","html-slider-response","36","1704426","0.0-9.0-1.0","117","1","2025-07-02 10:19:55","80fe4187154257d5fb01684ea91b68b9","197.185.139.160","Mozilla/5.0 (Macintosh; Intel Mac OS X 10_15_7) AppleWebKit/537.36 (KHTML, like Gecko) Chrome/128.0.0.0 Safari/537.36","Macintosh","Chrome","128.0.0.0","OS X","10_15_7","https://app.prolific.com/","en-GB,en-US;q=0.9,en;q=0.8","678bad003d15e6aba1ee5a5d","683db6dfa200031b80f2a654","686507810601f7df3da28c55","678bad003d15e6aba1ee5a5d","2025-07-02T10:48:21.590Z","","","","","","PrePerfQ","","","","","","","","","","","","","","","","","","","","","","","","","","","","","","","","","","","","","","50"
"4488","","<div style=""width:500px;"">
  <p>What best describes how you currently feel?</p>
  </div>","84","html-slider-response","37","1708916","0.0-9.0-2.0","117","1","2025-07-02 10:19:55","80fe4187154257d5fb01684ea91b68b9","197.185.139.160","Mozilla/5.0 (Macintosh; Intel Mac OS X 10_15_7) AppleWebKit/537.36 (KHTML, like Gecko) Chrome/128.0.0.0 Safari/537.36","Macintosh","Chrome","128.0.0.0","OS X","10_15_7","https://app.prolific.com/","en-GB,en-US;q=0.9,en;q=0.8","678bad003d15e6aba1ee5a5d","683db6dfa200031b80f2a654","686507810601f7df3da28c55","678bad003d15e6aba1ee5a5d","2025-07-02T10:48:26.080Z","","","","","","PreMotivationQ","","","","","","","","","","","","","","","","","","","","","","","","","","","","","","","","","","","","","","50"
"","","","","ctl-task-cpt","38","1753635","0.0-10.0-0.0","117","1","2025-07-02 10:19:55","80fe4187154257d5fb01684ea91b68b9","197.185.139.160","Mozilla/5.0 (Macintosh; Intel Mac OS X 10_15_7) AppleWebKit/537.36 (KHTML, like Gecko) Chrome/128.0.0.0 Safari/537.36","Macintosh","Chrome","128.0.0.0","OS X","10_15_7","https://app.prolific.com/","en-GB,en-US;q=0.9,en;q=0.8","678bad003d15e6aba1ee5a5d","683db6dfa200031b80f2a654","686507810601f7df3da28c55","678bad003d15e6aba1ee5a5d","2025-07-02T10:49:10.799Z","","","","","","","","","","","","","","","","win-only","3","g1:SW,g2:NE","1","1","0","1711998.6","1885.6","6886.1","41701.9","1","4","4","6","2","4","4","4","0","0.030303030303030304","1665.7","3000","480","[""up"",""right""]","{""num_key_presses"":6,""num_perfect"":6,""num_errors"":0,""num_randdir"":0,""num_randdir_good_moves"":0,""num_whilered"":0,""num_whileblue"":0,""num_blue"":5,""num_good_moves"":6}","[317.20625,318.096875,0.5,317.20625,318.096875,100.7,317.20625,318.096875,201.1,317.20625,308.096875,301.9,319.20625,299.096875,410.1,415.20625,225.096875,510.8,447.20625,203.096875,614.9,439.20625,213.096875,716.3,439.20625,210.096875,816.5,503.20625,161.096875,921.3,563.20625,133.096875,1021.3,572.20625,120.096875,1128.5,572.20625,118.096875,1230.7,561.20625,116.096875,1335.6,556.20625,114.096875,1435.6,571.20625,84.096875,1540.2,575.20625,61.096875,1641.4,575.20625,61.096875,1741.5,572.20625,64.096875,1843.8,547.20625,101.096875,1945.9,445.20625,244.096875,2045.9,312.20625,330.096875,2148.9,306.20625,330.096875,2250.2,306.20625,330.096875,2351.5,306.20625,330.096875,2456.2,306.20625,330.096875,2556.9,306.20625,330.096875,2660.8,306.20625,330.096875,2766.1,306.20625,330.096875,2871.4,306.20625,330.096875,2978.1,306.20625,330.096875,3080.3,306.20625,330.096875,3180.5,306.20625,330.096875,3285.8,306.20625,330.096875,3391.3,306.20625,330.096875,3493.8,306.20625,330.096875,3595.7,306.20625,330.096875,3700.3,306.20625,330.096875,3800.5,306.20625,330.096875,3900.5,306.20625,330.096875,4001,306.20625,330.096875,4104.8,306.20625,330.096875,4205.9,306.20625,330.096875,4309,306.20625,330.096875,4410.6,306.20625,330.096875,4510.8,306.20625,330.096875,4611,306.20625,330.096875,4716.3,306.20625,330.096875,4822.6,306.20625,330.096875,4925]","[11547.6,11547.6,2973.2,8130.5,443.9,""smooth"",""right"",""right"",""good_move"",15118.7,3570.5,2949.8,11548.2,620.7,""smooth"",""right"",""right"",""good_move"",18513.5,3394.7,3045.3,15118.8,349.4,""smooth"",""right"",""right"",""good_move"",22153.4,3639.3,3208.6,18514.1,430.7,""smooth"",""up"",""up"",""good_move"",28924.7,6770.4,2390.5,26068.3,465.9,""smooth"",""up"",""up"",""good_move"",34725.7,5800.7,2230.7,32084.8,410.2,""smooth"",""up"",""up"",""good_move""]","",""
"7165","","<div style=""width:500px;"">
  <p>What determined the result of this run?</p>
  </div>","94","html-slider-response","39","1760802","0.0-10.0-1.0","117","1","2025-07-02 10:19:55","80fe4187154257d5fb01684ea91b68b9","197.185.139.160","Mozilla/5.0 (Macintosh; Intel Mac OS X 10_15_7) AppleWebKit/537.36 (KHTML, like Gecko) Chrome/128.0.0.0 Safari/537.36","Macintosh","Chrome","128.0.0.0","OS X","10_15_7","https://app.prolific.com/","en-GB,en-US;q=0.9,en;q=0.8","678bad003d15e6aba1ee5a5d","683db6dfa200031b80f2a654","686507810601f7df3da28c55","678bad003d15e6aba1ee5a5d","2025-07-02T10:49:17.966Z","","","","","","AttribQ","","","","","","","","","","","","","","","","","","","","","","","","","","","","","","","","","","","","","","50"
"3834","","<div style=""width:500px;"">
  <p>How much control did you have over the ball?</p>
  </div>","100","html-slider-response","40","1764637","0.0-10.0-2.0","117","1","2025-07-02 10:19:55","80fe4187154257d5fb01684ea91b68b9","197.185.139.160","Mozilla/5.0 (Macintosh; Intel Mac OS X 10_15_7) AppleWebKit/537.36 (KHTML, like Gecko) Chrome/128.0.0.0 Safari/537.36","Macintosh","Chrome","128.0.0.0","OS X","10_15_7","https://app.prolific.com/","en-GB,en-US;q=0.9,en;q=0.8","678bad003d15e6aba1ee5a5d","683db6dfa200031b80f2a654","686507810601f7df3da28c55","678bad003d15e6aba1ee5a5d","2025-07-02T10:49:21.801Z","","","","","","ControlQ","","","","","","","","","","","","","","","","","","","","","","","","","","","","","","","","","","","","","","50"
"5599","","<div style=""width:500px;"">
  <p>How would you describe your current emotional state?</p>
  </div>","1","html-slider-response","41","1770238","0.0-10.0-3.0","117","1","2025-07-02 10:19:55","80fe4187154257d5fb01684ea91b68b9","197.185.139.160","Mozilla/5.0 (Macintosh; Intel Mac OS X 10_15_7) AppleWebKit/537.36 (KHTML, like Gecko) Chrome/128.0.0.0 Safari/537.36","Macintosh","Chrome","128.0.0.0","OS X","10_15_7","https://app.prolific.com/","en-GB,en-US;q=0.9,en;q=0.8","678bad003d15e6aba1ee5a5d","683db6dfa200031b80f2a654","686507810601f7df3da28c55","678bad003d15e6aba1ee5a5d","2025-07-02T10:49:27.402Z","","","","","","StressQ","","","","","","","","","","","","","","","","","","","","","","","","","","","","","","","","","","","","","","50"
"4200","","<div style=""width:500px;"">
  <p>What best describes how you currently feel?</p>
  </div>","97","html-slider-response","42","1774440","0.0-10.0-4.0","117","1","2025-07-02 10:19:55","80fe4187154257d5fb01684ea91b68b9","197.185.139.160","Mozilla/5.0 (Macintosh; Intel Mac OS X 10_15_7) AppleWebKit/537.36 (KHTML, like Gecko) Chrome/128.0.0.0 Safari/537.36","Macintosh","Chrome","128.0.0.0","OS X","10_15_7","https://app.prolific.com/","en-GB,en-US;q=0.9,en;q=0.8","678bad003d15e6aba1ee5a5d","683db6dfa200031b80f2a654","686507810601f7df3da28c55","678bad003d15e6aba1ee5a5d","2025-07-02T10:49:31.604Z","","","","","","MotivationQ","","","","","","","","","","","","","","","","","","","","","","","","","","","","","","","","","","","","","","50"
"","","","","ctl-task-cpt","43","1803265","0.0-10.0-0.1","117","1","2025-07-02 10:19:55","80fe4187154257d5fb01684ea91b68b9","197.185.139.160","Mozilla/5.0 (Macintosh; Intel Mac OS X 10_15_7) AppleWebKit/537.36 (KHTML, like Gecko) Chrome/128.0.0.0 Safari/537.36","Macintosh","Chrome","128.0.0.0","OS X","10_15_7","https://app.prolific.com/","en-GB,en-US;q=0.9,en;q=0.8","678bad003d15e6aba1ee5a5d","683db6dfa200031b80f2a654","686507810601f7df3da28c55","678bad003d15e6aba1ee5a5d","2025-07-02T10:50:00.429Z","","","","","","","","","","","","","","","","win-only","0","g1:NW,g2:SE","0.9","2","0","1777551.7","3619.9","8621.3","25771.2","1","4","8","6","2","8","8","12","4","0.09090909090909091","1601.9","3000","710","[""down"",""right""]","{""num_key_presses"":6,""num_perfect"":5,""num_errors"":0,""num_randdir"":1,""num_randdir_good_moves"":1,""num_whilered"":0,""num_whileblue"":0,""num_blue"":0,""num_good_moves"":6}","[320.20625,308.096875,1,320.20625,308.096875,122.6,321.20625,308.096875,227.9,322.20625,308.096875,328.9,324.20625,307.096875,430.5,323.20625,311.096875,534.1,284.20625,320.096875,661.1,274.20625,326.096875,766.7,274.20625,338.096875,869.7,387.20625,402.096875,969.7,511.20625,461.096875,1071.8,535.20625,500.096875,1192.3,540.20625,520.096875,1293,558.20625,553.096875,1395.5,560.20625,556.096875,1498.2,561.20625,557.096875,1600.9,561.20625,557.096875,1701.4,561.20625,556.096875,1805.3,561.20625,555.096875,1912.2,512.20625,562.096875,2133.7,346.20625,563.096875,2246.3,319.20625,559.096875,2349.4,263.20625,563.096875,2453.8,263.20625,563.096875,2557.2,263.20625,563.096875,2670,263.20625,563.096875,2771.4,263.20625,563.096875,2885.1,263.20625,563.096875,3016.5,263.20625,563.096875,3117.9,263.20625,563.096875,3224,263.20625,563.096875,3325.8,263.20625,563.096875,3426.9,263.20625,563.096875,3531.4,263.20625,563.096875,3632.3,263.20625,563.096875,3734.4,263.20625,563.096875,3836.8,263.20625,563.096875,3946.1,263.20625,563.096875,4051.4,263.20625,563.096875,4152.2,263.20625,563.096875,4256,263.20625,563.096875,4359,263.20625,563.096875,4468.3,263.20625,563.096875,4571.4,263.20625,563.096875,4676.2,263.20625,563.096875,4781.1,263.20625,563.096875,4881.9,263.20625,563.096875,4986.9]","[1544.3,1544.3,1000,0,544.3,""smooth"",""down"",""down"",""good_move"",4575.9,3031.1,2552.4,1544.8,478.7,""smooth"",""down"",""down"",""good_move"",7209.8,2633.3,2216.9,4576.6,416.3,""smooth"",""down"",""down"",""good_move"",10102.9,2892.6,2510.9,7210.3,381.7,""smooth"",""right"",""right"",""good_move"",12918,2814.8,2470.1,10103.3,344.6,""oops"",""right"",""right"",""good_move"",17050.5,4132.3,3751.8,12918.2,380.5,""smooth"",""right"",""right"",""good_move""]","",""
"4400","","<div style=""width:500px;"">
  <p>What determined the result of this run?</p>
  </div>","100","html-slider-response","44","1807667","0.0-10.0-1.1","117","1","2025-07-02 10:19:55","80fe4187154257d5fb01684ea91b68b9","197.185.139.160","Mozilla/5.0 (Macintosh; Intel Mac OS X 10_15_7) AppleWebKit/537.36 (KHTML, like Gecko) Chrome/128.0.0.0 Safari/537.36","Macintosh","Chrome","128.0.0.0","OS X","10_15_7","https://app.prolific.com/","en-GB,en-US;q=0.9,en;q=0.8","678bad003d15e6aba1ee5a5d","683db6dfa200031b80f2a654","686507810601f7df3da28c55","678bad003d15e6aba1ee5a5d","2025-07-02T10:50:04.831Z","","","","","","AttribQ","","","","","","","","","","","","","","","","","","","","","","","","","","","","","","","","","","","","","","50"
"2957","","<div style=""width:500px;"">
  <p>How much control did you have over the ball?</p>
  </div>","100","html-slider-response","45","1810624","0.0-10.0-2.1","117","1","2025-07-02 10:19:55","80fe4187154257d5fb01684ea91b68b9","197.185.139.160","Mozilla/5.0 (Macintosh; Intel Mac OS X 10_15_7) AppleWebKit/537.36 (KHTML, like Gecko) Chrome/128.0.0.0 Safari/537.36","Macintosh","Chrome","128.0.0.0","OS X","10_15_7","https://app.prolific.com/","en-GB,en-US;q=0.9,en;q=0.8","678bad003d15e6aba1ee5a5d","683db6dfa200031b80f2a654","686507810601f7df3da28c55","678bad003d15e6aba1ee5a5d","2025-07-02T10:50:07.788Z","","","","","","ControlQ","","","","","","","","","","","","","","","","","","","","","","","","","","","","","","","","","","","","","","50"
"11722","","<div style=""width:500px;"">
  <p>How would you describe your current emotional state?</p>
  </div>","0","html-slider-response","46","1822349","0.0-10.0-3.1","117","1","2025-07-02 10:19:55","80fe4187154257d5fb01684ea91b68b9","197.185.139.160","Mozilla/5.0 (Macintosh; Intel Mac OS X 10_15_7) AppleWebKit/537.36 (KHTML, like Gecko) Chrome/128.0.0.0 Safari/537.36","Macintosh","Chrome","128.0.0.0","OS X","10_15_7","https://app.prolific.com/","en-GB,en-US;q=0.9,en;q=0.8","678bad003d15e6aba1ee5a5d","683db6dfa200031b80f2a654","686507810601f7df3da28c55","678bad003d15e6aba1ee5a5d","2025-07-02T10:50:19.513Z","","","","","","StressQ","","","","","","","","","","","","","","","","","","","","","","","","","","","","","","","","","","","","","","50"
"4323","","<div style=""width:500px;"">
  <p>What best describes how you currently feel?</p>
  </div>","99","html-slider-response","47","1826674","0.0-10.0-4.1","117","1","2025-07-02 10:19:55","80fe4187154257d5fb01684ea91b68b9","197.185.139.160","Mozilla/5.0 (Macintosh; Intel Mac OS X 10_15_7) AppleWebKit/537.36 (KHTML, like Gecko) Chrome/128.0.0.0 Safari/537.36","Macintosh","Chrome","128.0.0.0","OS X","10_15_7","https://app.prolific.com/","en-GB,en-US;q=0.9,en;q=0.8","678bad003d15e6aba1ee5a5d","683db6dfa200031b80f2a654","686507810601f7df3da28c55","678bad003d15e6aba1ee5a5d","2025-07-02T10:50:23.838Z","","","","","","MotivationQ","","","","","","","","","","","","","","","","","","","","","","","","","","","","","","","","","","","","","","50"
"","","","","ctl-task-cpt","48","1851037","0.0-10.0-0.2","117","1","2025-07-02 10:19:55","80fe4187154257d5fb01684ea91b68b9","197.185.139.160","Mozilla/5.0 (Macintosh; Intel Mac OS X 10_15_7) AppleWebKit/537.36 (KHTML, like Gecko) Chrome/128.0.0.0 Safari/537.36","Macintosh","Chrome","128.0.0.0","OS X","10_15_7","https://app.prolific.com/","en-GB,en-US;q=0.9,en;q=0.8","678bad003d15e6aba1ee5a5d","683db6dfa200031b80f2a654","686507810601f7df3da28c55","678bad003d15e6aba1ee5a5d","2025-07-02T10:50:48.201Z","","","","","","","","","","","","","","","","win-only","1","g1:NE,g2:SW","0.8","3","0","1829749.8","1655.3","6661.1","21342.6","1","4","4","6","2","4","4","16","12","0.12121212121212122","1178.8","3000","1010","[""down"",""left""]","{""num_key_presses"":6,""num_perfect"":5,""num_errors"":0,""num_randdir"":1,""num_randdir_good_moves"":1,""num_whilered"":0,""num_whileblue"":0,""num_blue"":0,""num_good_moves"":6}","[320.20625,315.096875,0.5,320.20625,315.096875,101.5,321.20625,316.096875,205.1,326.20625,321.096875,310,368.20625,327.096875,414.2,407.20625,339.096875,519.1,388.20625,385.096875,623.1,251.20625,477.096875,724,144.20625,559.096875,825.2,90.20625,578.096875,926.8,77.20625,583.096875,1028.8,62.20625,582.096875,1132.2,62.20625,582.096875,1232.8,62.20625,582.096875,1340,63.20625,581.096875,1441.1,62.20625,580.096875,1543.8,58.20625,568.096875,1648.8,58.20625,568.096875,1754.5,58.20625,568.096875,1857,58.20625,568.096875,1961.7,58.20625,568.096875,2067,58.20625,568.096875,2170.1,58.20625,568.096875,2272.3,58.20625,568.096875,2377.2,58.20625,568.096875,2484.1,58.20625,568.096875,2587.9,58.20625,568.096875,2690.1,58.20625,568.096875,2792.4,58.20625,568.096875,2898,58.20625,568.096875,2998.1,58.20625,568.096875,3100.2,58.20625,568.096875,3203.6,58.20625,568.096875,3308.7,58.20625,568.096875,3421.9,58.20625,568.096875,3522.9,58.20625,568.096875,3623.9,58.20625,568.096875,3725.5,58.20625,568.096875,3825.9,58.20625,568.096875,3932.3,58.20625,568.096875,4035.6,58.20625,568.096875,4135.7,58.20625,568.096875,4236.3,58.20625,568.096875,4339.7,58.20625,568.096875,4440.9,58.20625,568.096875,4541.2,58.20625,568.096875,4642.2,58.20625,568.096875,4747.7,58.20625,568.096875,4848.5,58.20625,568.096875,4948.9]","[1551,1551,1000,0,551,""oops"",""left"",""down"",""good_move"",4273.2,2721.8,2262.5,1551.4,459.3,""smooth"",""down"",""down"",""good_move"",6702.1,2428.6,1969.6,4273.5,459,""smooth"",""down"",""down"",""good_move"",9429.3,2726.9,2345.9,6702.4,381,""smooth"",""left"",""left"",""good_move"",12170.2,2740.4,2325.2,9429.8,415.2,""smooth"",""left"",""left"",""good_move"",14576.1,2405.3,1898.7,12170.8,506.6,""smooth"",""left"",""left"",""good_move""]","",""
"4302","","<div style=""width:500px;"">
  <p>What determined the result of this run?</p>
  </div>","100","html-slider-response","49","1855342","0.0-10.0-1.2","117","1","2025-07-02 10:19:55","80fe4187154257d5fb01684ea91b68b9","197.185.139.160","Mozilla/5.0 (Macintosh; Intel Mac OS X 10_15_7) AppleWebKit/537.36 (KHTML, like Gecko) Chrome/128.0.0.0 Safari/537.36","Macintosh","Chrome","128.0.0.0","OS X","10_15_7","https://app.prolific.com/","en-GB,en-US;q=0.9,en;q=0.8","678bad003d15e6aba1ee5a5d","683db6dfa200031b80f2a654","686507810601f7df3da28c55","678bad003d15e6aba1ee5a5d","2025-07-02T10:50:52.506Z","","","","","","AttribQ","","","","","","","","","","","","","","","","","","","","","","","","","","","","","","","","","","","","","","50"
"4057","","<div style=""width:500px;"">
  <p>How much control did you have over the ball?</p>
  </div>","100","html-slider-response","50","1859404","0.0-10.0-2.2","117","1","2025-07-02 10:19:55","80fe4187154257d5fb01684ea91b68b9","197.185.139.160","Mozilla/5.0 (Macintosh; Intel Mac OS X 10_15_7) AppleWebKit/537.36 (KHTML, like Gecko) Chrome/128.0.0.0 Safari/537.36","Macintosh","Chrome","128.0.0.0","OS X","10_15_7","https://app.prolific.com/","en-GB,en-US;q=0.9,en;q=0.8","678bad003d15e6aba1ee5a5d","683db6dfa200031b80f2a654","686507810601f7df3da28c55","678bad003d15e6aba1ee5a5d","2025-07-02T10:50:56.568Z","","","","","","ControlQ","","","","","","","","","","","","","","","","","","","","","","","","","","","","","","","","","","","","","","50"
"4257","","<div style=""width:500px;"">
  <p>How would you describe your current emotional state?</p>
  </div>","0","html-slider-response","51","1863661","0.0-10.0-3.2","117","1","2025-07-02 10:19:55","80fe4187154257d5fb01684ea91b68b9","197.185.139.160","Mozilla/5.0 (Macintosh; Intel Mac OS X 10_15_7) AppleWebKit/537.36 (KHTML, like Gecko) Chrome/128.0.0.0 Safari/537.36","Macintosh","Chrome","128.0.0.0","OS X","10_15_7","https://app.prolific.com/","en-GB,en-US;q=0.9,en;q=0.8","678bad003d15e6aba1ee5a5d","683db6dfa200031b80f2a654","686507810601f7df3da28c55","678bad003d15e6aba1ee5a5d","2025-07-02T10:51:00.826Z","","","","","","StressQ","","","","","","","","","","","","","","","","","","","","","","","","","","","","","","","","","","","","","","50"
"4211","","<div style=""width:500px;"">
  <p>What best describes how you currently feel?</p>
  </div>","100","html-slider-response","52","1867874","0.0-10.0-4.2","117","1","2025-07-02 10:19:55","80fe4187154257d5fb01684ea91b68b9","197.185.139.160","Mozilla/5.0 (Macintosh; Intel Mac OS X 10_15_7) AppleWebKit/537.36 (KHTML, like Gecko) Chrome/128.0.0.0 Safari/537.36","Macintosh","Chrome","128.0.0.0","OS X","10_15_7","https://app.prolific.com/","en-GB,en-US;q=0.9,en;q=0.8","678bad003d15e6aba1ee5a5d","683db6dfa200031b80f2a654","686507810601f7df3da28c55","678bad003d15e6aba1ee5a5d","2025-07-02T10:51:05.038Z","","","","","","MotivationQ","","","","","","","","","","","","","","","","","","","","","","","","","","","","","","","","","","","","","","50"
"","","","","ctl-task-cpt","53","1901334","0.0-10.0-0.3","117","1","2025-07-02 10:19:55","80fe4187154257d5fb01684ea91b68b9","197.185.139.160","Mozilla/5.0 (Macintosh; Intel Mac OS X 10_15_7) AppleWebKit/537.36 (KHTML, like Gecko) Chrome/128.0.0.0 Safari/537.36","Macintosh","Chrome","128.0.0.0","OS X","10_15_7","https://app.prolific.com/","en-GB,en-US;q=0.9,en;q=0.8","678bad003d15e6aba1ee5a5d","683db6dfa200031b80f2a654","686507810601f7df3da28c55","678bad003d15e6aba1ee5a5d","2025-07-02T10:51:38.498Z","","","","","","","","","","","","","","","","win-only","0","g1:NW,g2:SE","0.7","4","0","1870948.5","2950.6","7957.6","30441","1","4","8","6","2","8","8","24","16","0.18181818181818182","998.1","3000","505","[""down"",""right""]","{""num_key_presses"":8,""num_perfect"":6,""num_errors"":0,""num_randdir"":2,""num_randdir_good_moves"":1,""num_whilered"":0,""num_whileblue"":0,""num_blue"":0,""num_good_moves"":7}","[317.20625,313.096875,0.2,317.20625,314.096875,100.1,317.20625,313.096875,200.8,318.20625,311.096875,303.5,325.20625,310.096875,416.7,361.20625,331.096875,519.3,537.20625,452.096875,624.2,541.20625,515.096875,726.4,561.20625,552.096875,837.6,571.20625,557.096875,941.6,571.20625,557.096875,1047,571.20625,557.096875,1150.1,571.20625,557.096875,1250.4,567.20625,557.096875,1351.5,519.20625,532.096875,1453.1,513.20625,527.096875,1556.5,513.20625,527.096875,1664.1,513.20625,527.096875,1765.6,513.20625,527.096875,1868,513.20625,527.096875,1968.8,513.20625,527.096875,2071.2,513.20625,527.096875,2181.1,513.20625,527.096875,2284.5,513.20625,527.096875,2385.7,513.20625,527.096875,2487.2,513.20625,527.096875,2590.4,513.20625,527.096875,2695.8,513.20625,527.096875,2797.4,513.20625,527.096875,2900.6,513.20625,527.096875,3002.8,513.20625,527.096875,3109.2,513.20625,527.096875,3210.3,513.20625,527.096875,3313.7,513.20625,527.096875,3416.8,513.20625,527.096875,3519.9,513.20625,527.096875,3620.7,513.20625,527.096875,3723.5,513.20625,527.096875,3827.3,513.20625,527.096875,3932.6,513.20625,527.096875,4040,513.20625,527.096875,4142.4,513.20625,527.096875,4244.7,513.20625,527.096875,4350.3,513.20625,527.096875,4450.3,513.20625,527.096875,4553.4,513.20625,527.096875,4657.5,513.20625,527.096875,4759.7,513.20625,527.096875,4860.7,513.20625,527.096875,4962.9]","[1482.5,1482.5,1000,0,482.5,""smooth"",""right"",""right"",""good_move"",4825.2,3341.7,2860.4,1483.6,481.3,""smooth"",""right"",""right"",""good_move"",7847.4,3020.5,2616.9,4826.9,403.6,""oops"",""right"",""up"",""bad_move"",10161.4,2313.5,1764.2,7847.9,549.3,""smooth"",""right"",""right"",""good_move"",13060.4,2898.1,2492.3,10162.3,405.8,""smooth"",""down"",""down"",""good_move"",16731.1,3670.4,3152.7,13060.7,517.7,""smooth"",""down"",""down"",""good_move"",19611,2879.7,1919.4,16731.4,960.2,""smooth"",""down"",""down"",""good_move"",22369.3,2757.9,2356.7,19611.5,401.2,""oops"",""down"",""down"",""good_move""]","",""
"3652","","<div style=""width:500px;"">
  <p>What determined the result of this run?</p>
  </div>","100","html-slider-response","54","1904988","0.0-10.0-1.3","117","1","2025-07-02 10:19:55","80fe4187154257d5fb01684ea91b68b9","197.185.139.160","Mozilla/5.0 (Macintosh; Intel Mac OS X 10_15_7) AppleWebKit/537.36 (KHTML, like Gecko) Chrome/128.0.0.0 Safari/537.36","Macintosh","Chrome","128.0.0.0","OS X","10_15_7","https://app.prolific.com/","en-GB,en-US;q=0.9,en;q=0.8","678bad003d15e6aba1ee5a5d","683db6dfa200031b80f2a654","686507810601f7df3da28c55","678bad003d15e6aba1ee5a5d","2025-07-02T10:51:42.152Z","","","","","","AttribQ","","","","","","","","","","","","","","","","","","","","","","","","","","","","","","","","","","","","","","50"
"4562","","<div style=""width:500px;"">
  <p>How much control did you have over the ball?</p>
  </div>","63","html-slider-response","55","1909552","0.0-10.0-2.3","117","1","2025-07-02 10:19:55","80fe4187154257d5fb01684ea91b68b9","197.185.139.160","Mozilla/5.0 (Macintosh; Intel Mac OS X 10_15_7) AppleWebKit/537.36 (KHTML, like Gecko) Chrome/128.0.0.0 Safari/537.36","Macintosh","Chrome","128.0.0.0","OS X","10_15_7","https://app.prolific.com/","en-GB,en-US;q=0.9,en;q=0.8","678bad003d15e6aba1ee5a5d","683db6dfa200031b80f2a654","686507810601f7df3da28c55","678bad003d15e6aba1ee5a5d","2025-07-02T10:51:46.716Z","","","","","","ControlQ","","","","","","","","","","","","","","","","","","","","","","","","","","","","","","","","","","","","","","50"
"3738","","<div style=""width:500px;"">
  <p>How would you describe your current emotional state?</p>
  </div>","4","html-slider-response","56","1913292","0.0-10.0-3.3","117","1","2025-07-02 10:19:55","80fe4187154257d5fb01684ea91b68b9","197.185.139.160","Mozilla/5.0 (Macintosh; Intel Mac OS X 10_15_7) AppleWebKit/537.36 (KHTML, like Gecko) Chrome/128.0.0.0 Safari/537.36","Macintosh","Chrome","128.0.0.0","OS X","10_15_7","https://app.prolific.com/","en-GB,en-US;q=0.9,en;q=0.8","678bad003d15e6aba1ee5a5d","683db6dfa200031b80f2a654","686507810601f7df3da28c55","678bad003d15e6aba1ee5a5d","2025-07-02T10:51:50.456Z","","","","","","StressQ","","","","","","","","","","","","","","","","","","","","","","","","","","","","","","","","","","","","","","50"
"3967","","<div style=""width:500px;"">
  <p>What best describes how you currently feel?</p>
  </div>","95","html-slider-response","57","1917262","0.0-10.0-4.3","117","1","2025-07-02 10:19:55","80fe4187154257d5fb01684ea91b68b9","197.185.139.160","Mozilla/5.0 (Macintosh; Intel Mac OS X 10_15_7) AppleWebKit/537.36 (KHTML, like Gecko) Chrome/128.0.0.0 Safari/537.36","Macintosh","Chrome","128.0.0.0","OS X","10_15_7","https://app.prolific.com/","en-GB,en-US;q=0.9,en;q=0.8","678bad003d15e6aba1ee5a5d","683db6dfa200031b80f2a654","686507810601f7df3da28c55","678bad003d15e6aba1ee5a5d","2025-07-02T10:51:54.426Z","","","","","","MotivationQ","","","","","","","","","","","","","","","","","","","","","","","","","","","","","","","","","","","","","","50"
"","","","","ctl-task-cpt","58","1963703","0.0-10.0-0.4","117","1","2025-07-02 10:19:55","80fe4187154257d5fb01684ea91b68b9","197.185.139.160","Mozilla/5.0 (Macintosh; Intel Mac OS X 10_15_7) AppleWebKit/537.36 (KHTML, like Gecko) Chrome/128.0.0.0 Safari/537.36","Macintosh","Chrome","128.0.0.0","OS X","10_15_7","https://app.prolific.com/","en-GB,en-US;q=0.9,en;q=0.8","678bad003d15e6aba1ee5a5d","683db6dfa200031b80f2a654","686507810601f7df3da28c55","678bad003d15e6aba1ee5a5d","2025-07-02T10:52:40.867Z","","","","","","","","","","","","","","","","win-only","2","g1:SE,g2:NW","0.6","5","0","1920337.3","1800.2","6802.6","43415.6","1","4","8","6","2","8","8","32","24","0.24242424242424243","1309.1","3000","455","[""left"",""up""]","{""num_key_presses"":8,""num_perfect"":6,""num_errors"":0,""num_randdir"":2,""num_randdir_good_moves"":1,""num_whilered"":0,""num_whileblue"":0,""num_blue"":3,""num_good_moves"":7}","[317.20625,316.096875,37.3,317.20625,316.096875,106.9,317.20625,316.096875,207.1,325.20625,313.096875,332,325.20625,313.096875,437.7,332.20625,320.096875,549.7,334.20625,428.096875,701.1,265.20625,328.096875,852.6,131.20625,157.096875,954.2,132.20625,135.096875,1055.2,101.20625,76.096875,1158.1,70.20625,51.096875,1263.3,70.20625,51.096875,1371.7,69.20625,52.096875,1476.5,79.20625,64.096875,1586.5,151.20625,195.096875,1743.6,203.20625,338.096875,1856.2,214.20625,370.096875,1965.4,214.20625,370.096875,2065.8,214.20625,370.096875,2167.5,214.20625,370.096875,2268.6,214.20625,370.096875,2370.8,214.20625,370.096875,2483.6,214.20625,370.096875,2585.8,214.20625,370.096875,2691.2,214.20625,370.096875,2795.7,214.20625,370.096875,2896.5,214.20625,370.096875,2998.4,214.20625,370.096875,3102.7,214.20625,370.096875,3210.5,214.20625,370.096875,3315.9,214.20625,370.096875,3420.2,214.20625,370.096875,3523.9,214.20625,370.096875,3633.6,214.20625,370.096875,3744.5,214.20625,370.096875,3846.9,214.20625,370.096875,3953.6,214.20625,370.096875,4066.7,214.20625,370.096875,4167.9,214.20625,370.096875,4270.2,214.20625,370.096875,4374.8,214.20625,370.096875,4479,214.20625,370.096875,4581.7,214.20625,370.096875,4688.1,214.20625,370.096875,4792.7,214.20625,370.096875,4893.9,214.20625,370.096875,4996.7]","[1600.6,1600.6,1000,0,600.6,""oops"",""left"",""down"",""bad_move"",4161.5,2560.5,2125.7,1601,434.9,""smooth"",""left"",""left"",""good_move"",7623.4,3461.5,2951.8,4161.9,509.7,""smooth"",""left"",""left"",""good_move"",10636.1,3011.5,2575.3,7624.7,436.1,""smooth"",""up"",""up"",""good_move"",13730.4,3093.5,2616.1,10636.9,477.4,""smooth"",""up"",""up"",""good_move"",26010.8,12280.3,3173.4,22211.2,626.2,""smooth"",""up"",""up"",""good_move"",33201.4,7188.8,2669.2,29918.5,613.7,""oops"",""up"",""left"",""good_move"",36435.4,3233.7,2522.4,33201.7,711.3,""smooth"",""up"",""up"",""good_move""]","",""
"3099","","<div style=""width:500px;"">
  <p>What determined the result of this run?</p>
  </div>","100","html-slider-response","59","1966804","0.0-10.0-1.4","117","1","2025-07-02 10:19:55","80fe4187154257d5fb01684ea91b68b9","197.185.139.160","Mozilla/5.0 (Macintosh; Intel Mac OS X 10_15_7) AppleWebKit/537.36 (KHTML, like Gecko) Chrome/128.0.0.0 Safari/537.36","Macintosh","Chrome","128.0.0.0","OS X","10_15_7","https://app.prolific.com/","en-GB,en-US;q=0.9,en;q=0.8","678bad003d15e6aba1ee5a5d","683db6dfa200031b80f2a654","686507810601f7df3da28c55","678bad003d15e6aba1ee5a5d","2025-07-02T10:52:43.969Z","","","","","","AttribQ","","","","","","","","","","","","","","","","","","","","","","","","","","","","","","","","","","","","","","50"
"4017","","<div style=""width:500px;"">
  <p>How much control did you have over the ball?</p>
  </div>","60","html-slider-response","60","1970823","0.0-10.0-2.4","117","1","2025-07-02 10:19:55","80fe4187154257d5fb01684ea91b68b9","197.185.139.160","Mozilla/5.0 (Macintosh; Intel Mac OS X 10_15_7) AppleWebKit/537.36 (KHTML, like Gecko) Chrome/128.0.0.0 Safari/537.36","Macintosh","Chrome","128.0.0.0","OS X","10_15_7","https://app.prolific.com/","en-GB,en-US;q=0.9,en;q=0.8","678bad003d15e6aba1ee5a5d","683db6dfa200031b80f2a654","686507810601f7df3da28c55","678bad003d15e6aba1ee5a5d","2025-07-02T10:52:47.987Z","","","","","","ControlQ","","","","","","","","","","","","","","","","","","","","","","","","","","","","","","","","","","","","","","50"
"3387","","<div style=""width:500px;"">
  <p>How would you describe your current emotional state?</p>
  </div>","2","html-slider-response","61","1974214","0.0-10.0-3.4","117","1","2025-07-02 10:19:55","80fe4187154257d5fb01684ea91b68b9","197.185.139.160","Mozilla/5.0 (Macintosh; Intel Mac OS X 10_15_7) AppleWebKit/537.36 (KHTML, like Gecko) Chrome/128.0.0.0 Safari/537.36","Macintosh","Chrome","128.0.0.0","OS X","10_15_7","https://app.prolific.com/","en-GB,en-US;q=0.9,en;q=0.8","678bad003d15e6aba1ee5a5d","683db6dfa200031b80f2a654","686507810601f7df3da28c55","678bad003d15e6aba1ee5a5d","2025-07-02T10:52:51.378Z","","","","","","StressQ","","","","","","","","","","","","","","","","","","","","","","","","","","","","","","","","","","","","","","50"
"3047","","<div style=""width:500px;"">
  <p>What best describes how you currently feel?</p>
  </div>","95","html-slider-response","62","1977267","0.0-10.0-4.4","117","1","2025-07-02 10:19:55","80fe4187154257d5fb01684ea91b68b9","197.185.139.160","Mozilla/5.0 (Macintosh; Intel Mac OS X 10_15_7) AppleWebKit/537.36 (KHTML, like Gecko) Chrome/128.0.0.0 Safari/537.36","Macintosh","Chrome","128.0.0.0","OS X","10_15_7","https://app.prolific.com/","en-GB,en-US;q=0.9,en;q=0.8","678bad003d15e6aba1ee5a5d","683db6dfa200031b80f2a654","686507810601f7df3da28c55","678bad003d15e6aba1ee5a5d","2025-07-02T10:52:54.432Z","","","","","","MotivationQ","","","","","","","","","","","","","","","","","","","","","","","","","","","","","","","","","","","","","","50"
"","","","","ctl-task-cpt","63","2020035","0.0-10.0-0.5","117","1","2025-07-02 10:19:55","80fe4187154257d5fb01684ea91b68b9","197.185.139.160","Mozilla/5.0 (Macintosh; Intel Mac OS X 10_15_7) AppleWebKit/537.36 (KHTML, like Gecko) Chrome/128.0.0.0 Safari/537.36","Macintosh","Chrome","128.0.0.0","OS X","10_15_7","https://app.prolific.com/","en-GB,en-US;q=0.9,en;q=0.8","678bad003d15e6aba1ee5a5d","683db6dfa200031b80f2a654","686507810601f7df3da28c55","678bad003d15e6aba1ee5a5d","2025-07-02T10:53:37.200Z","","","","","","","","","","","","","","","","win-only","2","g1:SE,g2:NW","0.5","6","0","1980341.8","1205.8","6218","39739.8","1","4","4","6","2","4","4","36","32","0.2727272727272727","1612.6","3000","335","[""left"",""up""]","{""num_key_presses"":10,""num_perfect"":5,""num_errors"":0,""num_randdir"":5,""num_randdir_good_moves"":3,""num_whilered"":0,""num_whileblue"":0,""num_blue"":1,""num_good_moves"":8}","[313.20625,305.096875,3.6,313.20625,305.096875,109.4,313.20625,305.096875,210.4,313.20625,305.096875,311.1,313.20625,305.096875,416.3,313.20625,306.096875,520.4,317.20625,303.096875,634.4,322.20625,295.096875,741.9,327.20625,292.096875,843.1,376.20625,317.096875,966.5,182.20625,172.096875,1069.2,-11.793750000000003,18.096874999999997,1180.7,-23.793750000000003,6.096874999999997,1283.2,15.206249999999997,16.096874999999997,1389.8,20.206249999999997,22.096874999999997,1496.7,25.206249999999997,26.096874999999997,1602,26.206249999999997,27.096874999999997,1715.5,27.206249999999997,30.096874999999997,1819.6,42.20625,77.096875,1938.4,29.206249999999997,218.096875,2042.1,28.206249999999997,225.096875,2146.7,28.206249999999997,225.096875,2256.7,28.206249999999997,225.096875,2357.7,28.206249999999997,225.096875,2458.3,28.206249999999997,225.096875,2563.9,28.206249999999997,225.096875,2664.2,28.206249999999997,225.096875,2767.6,28.206249999999997,225.096875,2872.3,28.206249999999997,225.096875,2978.5,28.206249999999997,225.096875,3079.4,28.206249999999997,225.096875,3188.8,28.206249999999997,225.096875,3293.7,28.206249999999997,225.096875,3402,28.206249999999997,225.096875,3507.5,28.206249999999997,225.096875,3609.2,28.206249999999997,225.096875,3713.8,28.206249999999997,225.096875,3814.4,28.206249999999997,225.096875,3915.8,28.206249999999997,225.096875,4024.4,28.206249999999997,225.096875,4124.5,28.206249999999997,225.096875,4228.6,28.206249999999997,225.096875,4331.9,28.206249999999997,225.096875,4443.9,28.206249999999997,225.096875,4550.1,28.206249999999997,225.096875,4655.7,28.206249999999997,225.096875,4757.7,28.206249999999997,225.096875,4859.8,28.206249999999997,225.096875,4964.8]","[1660.9,1660.9,1000,0,660.9,""smooth"",""left"",""left"",""good_move"",5339.9,3678,3004,1662.1,673.8,""oops"",""left"",""left"",""good_move"",8814.7,3473.4,2686.6,5341.3,786.8,""smooth"",""up"",""up"",""good_move"",15685.3,6868.9,2695.2,12447.6,542.6,""oops"",""up"",""up"",""good_move"",18890.1,3204.5,2514.4,15685.6,690.1,""oops"",""up"",""down"",""bad_move"",21684.4,2791.4,2204,18893,587.4,""oops"",""up"",""down"",""bad_move"",25265.4,3580.8,3126.6,21684.6,454.2,""smooth"",""left"",""left"",""good_move"",28032,2766.1,2320.5,25265.9,445.6,""oops"",""up"",""up"",""good_move"",30984,2951.7,2447.9,28032.4,503.8,""smooth"",""up"",""up"",""good_move"",33334.4,2349.5,1884,30984.9,465.5,""smooth"",""up"",""up"",""good_move""]","",""
"3751","","<div style=""width:500px;"">
  <p>What determined the result of this run?</p>
  </div>","100","html-slider-response","64","2023790","0.0-10.0-1.5","117","1","2025-07-02 10:19:55","80fe4187154257d5fb01684ea91b68b9","197.185.139.160","Mozilla/5.0 (Macintosh; Intel Mac OS X 10_15_7) AppleWebKit/537.36 (KHTML, like Gecko) Chrome/128.0.0.0 Safari/537.36","Macintosh","Chrome","128.0.0.0","OS X","10_15_7","https://app.prolific.com/","en-GB,en-US;q=0.9,en;q=0.8","678bad003d15e6aba1ee5a5d","683db6dfa200031b80f2a654","686507810601f7df3da28c55","678bad003d15e6aba1ee5a5d","2025-07-02T10:53:40.954Z","","","","","","AttribQ","","","","","","","","","","","","","","","","","","","","","","","","","","","","","","","","","","","","","","50"
"3008","","<div style=""width:500px;"">
  <p>How much control did you have over the ball?</p>
  </div>","58","html-slider-response","65","2026800","0.0-10.0-2.5","117","1","2025-07-02 10:19:55","80fe4187154257d5fb01684ea91b68b9","197.185.139.160","Mozilla/5.0 (Macintosh; Intel Mac OS X 10_15_7) AppleWebKit/537.36 (KHTML, like Gecko) Chrome/128.0.0.0 Safari/537.36","Macintosh","Chrome","128.0.0.0","OS X","10_15_7","https://app.prolific.com/","en-GB,en-US;q=0.9,en;q=0.8","678bad003d15e6aba1ee5a5d","683db6dfa200031b80f2a654","686507810601f7df3da28c55","678bad003d15e6aba1ee5a5d","2025-07-02T10:53:43.964Z","","","","","","ControlQ","","","","","","","","","","","","","","","","","","","","","","","","","","","","","","","","","","","","","","50"
"4694","","<div style=""width:500px;"">
  <p>How would you describe your current emotional state?</p>
  </div>","3","html-slider-response","66","2031497","0.0-10.0-3.5","117","1","2025-07-02 10:19:55","80fe4187154257d5fb01684ea91b68b9","197.185.139.160","Mozilla/5.0 (Macintosh; Intel Mac OS X 10_15_7) AppleWebKit/537.36 (KHTML, like Gecko) Chrome/128.0.0.0 Safari/537.36","Macintosh","Chrome","128.0.0.0","OS X","10_15_7","https://app.prolific.com/","en-GB,en-US;q=0.9,en;q=0.8","678bad003d15e6aba1ee5a5d","683db6dfa200031b80f2a654","686507810601f7df3da28c55","678bad003d15e6aba1ee5a5d","2025-07-02T10:53:48.661Z","","","","","","StressQ","","","","","","","","","","","","","","","","","","","","","","","","","","","","","","","","","","","","","","50"
"4652","","<div style=""width:500px;"">
  <p>What best describes how you currently feel?</p>
  </div>","100","html-slider-response","67","2036151","0.0-10.0-4.5","117","1","2025-07-02 10:19:55","80fe4187154257d5fb01684ea91b68b9","197.185.139.160","Mozilla/5.0 (Macintosh; Intel Mac OS X 10_15_7) AppleWebKit/537.36 (KHTML, like Gecko) Chrome/128.0.0.0 Safari/537.36","Macintosh","Chrome","128.0.0.0","OS X","10_15_7","https://app.prolific.com/","en-GB,en-US;q=0.9,en;q=0.8","678bad003d15e6aba1ee5a5d","683db6dfa200031b80f2a654","686507810601f7df3da28c55","678bad003d15e6aba1ee5a5d","2025-07-02T10:53:53.315Z","","","","","","MotivationQ","","","","","","","","","","","","","","","","","","","","","","","","","","","","","","","","","","","","","","50"
"","","","","ctl-task-cpt","68","2094748","0.0-10.0-0.6","117","1","2025-07-02 10:19:55","80fe4187154257d5fb01684ea91b68b9","197.185.139.160","Mozilla/5.0 (Macintosh; Intel Mac OS X 10_15_7) AppleWebKit/537.36 (KHTML, like Gecko) Chrome/128.0.0.0 Safari/537.36","Macintosh","Chrome","128.0.0.0","OS X","10_15_7","https://app.prolific.com/","en-GB,en-US;q=0.9,en;q=0.8","678bad003d15e6aba1ee5a5d","683db6dfa200031b80f2a654","686507810601f7df3da28c55","678bad003d15e6aba1ee5a5d","2025-07-02T10:54:51.912Z","","","","","","","","","","","","","","","","win-only","1","g1:NE,g2:SW","0.4","7","0","2039220.4","1487.8","6496.9","55572.1","1","4","4","6","2","-4","-5","31","36","0.23484848484848486","1058.2","3000","-885","[""down"",""left""]","{""num_key_presses"":14,""num_perfect"":6,""num_errors"":1,""num_randdir"":7,""num_randdir_good_moves"":3,""num_whilered"":0,""num_whileblue"":0,""num_blue"":2,""num_good_moves"":8}","[318.20625,320.096875,1.1,318.20625,320.096875,104.6,339.20625,360.096875,210.4,472.20625,443.096875,318.6,494.20625,423.096875,422.1,427.20625,397.096875,525.4,224.20625,525.096875,626.2,172.20625,565.096875,736.8,126.20625,580.096875,843.7,81.20625,574.096875,953.2,81.20625,574.096875,1061.2,81.20625,574.096875,1169.5,81.20625,574.096875,1270.6,82.20625,590.096875,1373.6,93.20625,633.096875,1474.2,96.20625,653.096875,1584,96.20625,653.096875,1687.5,96.20625,653.096875,1788.4,96.20625,653.096875,1889.4,96.20625,653.096875,1992,96.20625,653.096875,2094.9,96.20625,653.096875,2202.7,96.20625,653.096875,2306.8,96.20625,653.096875,2408.5,96.20625,653.096875,2516.3,96.20625,653.096875,2618.4,96.20625,653.096875,2722.5,96.20625,653.096875,2826.6,96.20625,653.096875,2936.7,96.20625,653.096875,3049.5,96.20625,653.096875,3150.3,96.20625,653.096875,3254.5,96.20625,653.096875,3365.4,95.20625,653.096875,3471.5,95.20625,653.096875,3579,95.20625,653.096875,3683.4,95.20625,653.096875,3784.1,95.20625,653.096875,3923.7,95.20625,653.096875,4034.8,95.20625,653.096875,4134.8,95.20625,653.096875,4252,95.20625,653.096875,4356.6,95.20625,653.096875,4462.7,95.20625,653.096875,4574.4,95.20625,653.096875,4680,95.20625,653.096875,4786.7,95.20625,653.096875,4886.8,95.20625,653.096875,4987.2]","[5314,5314,2762,2008.4,543.6,""smooth"",""down"",""down"",""good_move"",8903.6,3589.2,2833.7,5314.5,755.4,""smooth"",""down"",""down"",""good_move"",11726.4,2819.8,2276.5,8906.6,543.3,""smooth"",""down"",""down"",""good_move"",14748.6,3008.3,2435.2,11740.8,572.6,""oops"",""left"",""right"",""bad_move"",17760.9,3011.6,2452.7,14749.3,558.9,""smooth"",""right"",""right"",""bad_move"",20747.4,2985.7,2524.5,17761.7,461.2,""oops"",""left"",""left"",""good_move"",23449.1,2701.2,2075.9,20747.9,625.3,""oops"",""left"",""right"",""bad_move"",26600.3,3151,2637.5,23449.3,513.5,""oops"",""left"",""left"",""good_move"",29797.4,3196.6,2804.3,26600.9,392.3,""oops"",""left"",""up"",""bad_move"",32475.8,2677.9,1864,29797.9,814.1,""oops"",""left"",""right"",""bad_move"",35604.7,3127.3,2491.6,32477.4,635.7,""smooth"",""left"",""left"",""good_move"",41964.3,6359.1,2196.4,39213.7,554.2,""smooth"",""left"",""left"",""good_move"",45420.6,3455.6,3037.2,41965,418.4,""oops"",""left"",""left"",""good_move"",45653.8,232.9,1589.6,45420.9,-1356.7,""error"",""-"",""-"",""no_move""]","",""
"5145","","<div style=""width:500px;"">
  <p>What determined the result of this run?</p>
  </div>","90","html-slider-response","69","2099894","0.0-10.0-1.6","117","1","2025-07-02 10:19:55","80fe4187154257d5fb01684ea91b68b9","197.185.139.160","Mozilla/5.0 (Macintosh; Intel Mac OS X 10_15_7) AppleWebKit/537.36 (KHTML, like Gecko) Chrome/128.0.0.0 Safari/537.36","Macintosh","Chrome","128.0.0.0","OS X","10_15_7","https://app.prolific.com/","en-GB,en-US;q=0.9,en;q=0.8","678bad003d15e6aba1ee5a5d","683db6dfa200031b80f2a654","686507810601f7df3da28c55","678bad003d15e6aba1ee5a5d","2025-07-02T10:54:57.058Z","","","","","","AttribQ","","","","","","","","","","","","","","","","","","","","","","","","","","","","","","","","","","","","","","50"
"4546","","<div style=""width:500px;"">
  <p>How much control did you have over the ball?</p>
  </div>","0","html-slider-response","70","2104442","0.0-10.0-2.6","117","1","2025-07-02 10:19:55","80fe4187154257d5fb01684ea91b68b9","197.185.139.160","Mozilla/5.0 (Macintosh; Intel Mac OS X 10_15_7) AppleWebKit/537.36 (KHTML, like Gecko) Chrome/128.0.0.0 Safari/537.36","Macintosh","Chrome","128.0.0.0","OS X","10_15_7","https://app.prolific.com/","en-GB,en-US;q=0.9,en;q=0.8","678bad003d15e6aba1ee5a5d","683db6dfa200031b80f2a654","686507810601f7df3da28c55","678bad003d15e6aba1ee5a5d","2025-07-02T10:55:01.606Z","","","","","","ControlQ","","","","","","","","","","","","","","","","","","","","","","","","","","","","","","","","","","","","","","50"
"3702","","<div style=""width:500px;"">
  <p>How would you describe your current emotional state?</p>
  </div>","77","html-slider-response","71","2108145","0.0-10.0-3.6","117","1","2025-07-02 10:19:55","80fe4187154257d5fb01684ea91b68b9","197.185.139.160","Mozilla/5.0 (Macintosh; Intel Mac OS X 10_15_7) AppleWebKit/537.36 (KHTML, like Gecko) Chrome/128.0.0.0 Safari/537.36","Macintosh","Chrome","128.0.0.0","OS X","10_15_7","https://app.prolific.com/","en-GB,en-US;q=0.9,en;q=0.8","678bad003d15e6aba1ee5a5d","683db6dfa200031b80f2a654","686507810601f7df3da28c55","678bad003d15e6aba1ee5a5d","2025-07-02T10:55:05.310Z","","","","","","StressQ","","","","","","","","","","","","","","","","","","","","","","","","","","","","","","","","","","","","","","50"
"111573","","<div style=""width:500px;"">
  <p>What best describes how you currently feel?</p>
  </div>","23","html-slider-response","72","2219724","0.0-10.0-4.6","117","1","2025-07-02 10:19:55","80fe4187154257d5fb01684ea91b68b9","197.185.139.160","Mozilla/5.0 (Macintosh; Intel Mac OS X 10_15_7) AppleWebKit/537.36 (KHTML, like Gecko) Chrome/128.0.0.0 Safari/537.36","Macintosh","Chrome","128.0.0.0","OS X","10_15_7","https://app.prolific.com/","en-GB,en-US;q=0.9,en;q=0.8","678bad003d15e6aba1ee5a5d","683db6dfa200031b80f2a654","686507810601f7df3da28c55","678bad003d15e6aba1ee5a5d","2025-07-02T10:56:56.888Z","","","","","","MotivationQ","","","","","","","","","","","","","","","","","","","","","","","","","","","","","","","","","","","","","","50"
"","","","","ctl-task-cpt","73","2263623","0.0-10.0-0.7","117","1","2025-07-02 10:19:55","80fe4187154257d5fb01684ea91b68b9","197.185.139.160","Mozilla/5.0 (Macintosh; Intel Mac OS X 10_15_7) AppleWebKit/537.36 (KHTML, like Gecko) Chrome/128.0.0.0 Safari/537.36","Macintosh","Chrome","128.0.0.0","OS X","10_15_7","https://app.prolific.com/","en-GB,en-US;q=0.9,en;q=0.8","678bad003d15e6aba1ee5a5d","683db6dfa200031b80f2a654","686507810601f7df3da28c55","678bad003d15e6aba1ee5a5d","2025-07-02T10:57:40.787Z","","","","","","","","","","","","","","","","win-only","3","g1:SW,g2:NE","0.3","8","0","2222788.6","1034.1","6042.9","40875.9","1","4","8","6","2","8","8","39","31","0.29545454545454547","1184.3","3000","1180","[""up"",""right""]","{""num_key_presses"":8,""num_perfect"":3,""num_errors"":0,""num_randdir"":5,""num_randdir_good_moves"":4,""num_whilered"":0,""num_whileblue"":0,""num_blue"":3,""num_good_moves"":7}","[318.20625,316.096875,0.4,316.20625,316.096875,106.3,316.20625,317.096875,217.1,316.20625,317.096875,321.4,316.20625,317.096875,425.5,311.20625,314.096875,534.8,306.20625,302.096875,667.2,433.20625,180.096875,779.1,508.20625,88.096875,889.8,532.20625,73.096875,990.9,563.20625,61.096875,1099.8,564.20625,61.096875,1201.1,564.20625,60.096875,1301.8,565.20625,65.096875,1402.4,540.20625,135.096875,1515.5,470.20625,269.096875,1622.7,469.20625,271.096875,1725,468.20625,271.096875,1826.6,458.20625,277.096875,1937.6,457.20625,277.096875,2039.3,457.20625,277.096875,2155.1,457.20625,277.096875,2268.1,457.20625,277.096875,2379.7,457.20625,277.096875,2486.9,457.20625,277.096875,2587.4,457.20625,277.096875,2697.2,457.20625,277.096875,2803.4,457.20625,277.096875,2904.6,457.20625,277.096875,3005.7,457.20625,277.096875,3107.2,457.20625,277.096875,3217.6,457.20625,277.096875,3319.1,457.20625,277.096875,3423.4,457.20625,277.096875,3523.8,457.20625,277.096875,3629.3,457.20625,277.096875,3743.3,457.20625,277.096875,3854,457.20625,277.096875,3966.5,457.20625,277.096875,4075,457.20625,277.096875,4184.3,457.20625,277.096875,4295.5,457.20625,277.096875,4410.7,457.20625,277.096875,4514.2,457.20625,277.096875,4618.8,457.20625,277.096875,4725.4,457.20625,277.096875,4828.9,457.20625,277.096875,4935]","[5775.2,5775.3,3013.4,2015.1,746.8,""oops"",""right"",""down"",""bad_move"",8700.4,2923.6,2377.5,5776.8,546.1,""smooth"",""right"",""right"",""good_move"",11576.8,2875.3,2325.4,8701.5,549.9,""oops"",""right"",""up"",""good_move"",14610.4,3033.2,2435.4,11577.2,597.8,""oops"",""up"",""up"",""good_move"",25063.9,10452,2554,21977.2,532.7,""smooth"",""up"",""up"",""good_move"",28443,3378.7,2847.4,25064.4,531.3,""oops"",""right"",""right"",""good_move"",31987.1,3543.5,3010.7,28443.6,532.8,""oops"",""up"",""up"",""good_move"",34640.7,2653.3,2187.1,31987.4,466.2,""smooth"",""right"",""right"",""good_move""]","",""
"10577","","<div style=""width:500px;"">
  <p>What determined the result of this run?</p>
  </div>","100","html-slider-response","74","2274202","0.0-10.0-1.7","117","1","2025-07-02 10:19:55","80fe4187154257d5fb01684ea91b68b9","197.185.139.160","Mozilla/5.0 (Macintosh; Intel Mac OS X 10_15_7) AppleWebKit/537.36 (KHTML, like Gecko) Chrome/128.0.0.0 Safari/537.36","Macintosh","Chrome","128.0.0.0","OS X","10_15_7","https://app.prolific.com/","en-GB,en-US;q=0.9,en;q=0.8","678bad003d15e6aba1ee5a5d","683db6dfa200031b80f2a654","686507810601f7df3da28c55","678bad003d15e6aba1ee5a5d","2025-07-02T10:57:51.366Z","","","","","","AttribQ","","","","","","","","","","","","","","","","","","","","","","","","","","","","","","","","","","","","","","50"
"4301","","<div style=""width:500px;"">
  <p>How much control did you have over the ball?</p>
  </div>","96","html-slider-response","75","2278504","0.0-10.0-2.7","117","1","2025-07-02 10:19:55","80fe4187154257d5fb01684ea91b68b9","197.185.139.160","Mozilla/5.0 (Macintosh; Intel Mac OS X 10_15_7) AppleWebKit/537.36 (KHTML, like Gecko) Chrome/128.0.0.0 Safari/537.36","Macintosh","Chrome","128.0.0.0","OS X","10_15_7","https://app.prolific.com/","en-GB,en-US;q=0.9,en;q=0.8","678bad003d15e6aba1ee5a5d","683db6dfa200031b80f2a654","686507810601f7df3da28c55","678bad003d15e6aba1ee5a5d","2025-07-02T10:57:55.668Z","","","","","","ControlQ","","","","","","","","","","","","","","","","","","","","","","","","","","","","","","","","","","","","","","50"
"6088","","<div style=""width:500px;"">
  <p>How would you describe your current emotional state?</p>
  </div>","24","html-slider-response","76","2284593","0.0-10.0-3.7","117","1","2025-07-02 10:19:55","80fe4187154257d5fb01684ea91b68b9","197.185.139.160","Mozilla/5.0 (Macintosh; Intel Mac OS X 10_15_7) AppleWebKit/537.36 (KHTML, like Gecko) Chrome/128.0.0.0 Safari/537.36","Macintosh","Chrome","128.0.0.0","OS X","10_15_7","https://app.prolific.com/","en-GB,en-US;q=0.9,en;q=0.8","678bad003d15e6aba1ee5a5d","683db6dfa200031b80f2a654","686507810601f7df3da28c55","678bad003d15e6aba1ee5a5d","2025-07-02T10:58:01.757Z","","","","","","StressQ","","","","","","","","","","","","","","","","","","","","","","","","","","","","","","","","","","","","","","50"
"11025","","<div style=""width:500px;"">
  <p>What best describes how you currently feel?</p>
  </div>","59","html-slider-response","77","2295621","0.0-10.0-4.7","117","1","2025-07-02 10:19:55","80fe4187154257d5fb01684ea91b68b9","197.185.139.160","Mozilla/5.0 (Macintosh; Intel Mac OS X 10_15_7) AppleWebKit/537.36 (KHTML, like Gecko) Chrome/128.0.0.0 Safari/537.36","Macintosh","Chrome","128.0.0.0","OS X","10_15_7","https://app.prolific.com/","en-GB,en-US;q=0.9,en;q=0.8","678bad003d15e6aba1ee5a5d","683db6dfa200031b80f2a654","686507810601f7df3da28c55","678bad003d15e6aba1ee5a5d","2025-07-02T10:58:12.785Z","","","","","","MotivationQ","","","","","","","","","","","","","","","","","","","","","","","","","","","","","","","","","","","","","","50"
"","","","","ctl-task-cpt","78","2353341","0.0-10.0-0.8","117","1","2025-07-02 10:19:55","80fe4187154257d5fb01684ea91b68b9","197.185.139.160","Mozilla/5.0 (Macintosh; Intel Mac OS X 10_15_7) AppleWebKit/537.36 (KHTML, like Gecko) Chrome/128.0.0.0 Safari/537.36","Macintosh","Chrome","128.0.0.0","OS X","10_15_7","https://app.prolific.com/","en-GB,en-US;q=0.9,en;q=0.8","678bad003d15e6aba1ee5a5d","683db6dfa200031b80f2a654","686507810601f7df3da28c55","678bad003d15e6aba1ee5a5d","2025-07-02T10:59:10.505Z","","","","","","","","","","","","","","","","win-only","0","g1:NW,g2:SE","0.4","9","0","2298682.2","1444.4","6487.7","54694.5","1","4","4","6","2","-4","-5","34","39","0.25757575757575757","1501.3","3000","-840","[""down"",""right""]","{""num_key_presses"":13,""num_perfect"":5,""num_errors"":1,""num_randdir"":7,""num_randdir_good_moves"":2,""num_whilered"":0,""num_whileblue"":1,""num_blue"":4,""num_good_moves"":8}","[316.20625,313.096875,0.3,315.20625,313.096875,105.5,315.20625,313.096875,210.2,317.20625,317.096875,314.8,317.20625,317.096875,420.4,308.20625,324.096875,528.7,302.20625,337.096875,661.2,300.20625,343.096875,767.6,299.20625,346.096875,881,313.20625,366.096875,992.3,488.20625,480.096875,1092.9,500.20625,518.096875,1198.6,546.20625,552.096875,1311.4,554.20625,555.096875,1417,554.20625,555.096875,1519.3,554.20625,555.096875,1619.4,554.20625,554.096875,1722.4,552.20625,554.096875,1834.1,508.20625,562.096875,1946.2,450.20625,566.096875,2053,435.20625,568.096875,2178.2,435.20625,568.096875,2284.9,435.20625,568.096875,2386.8,435.20625,568.096875,2517.9,435.20625,568.096875,2636.7,435.20625,568.096875,2768.4,435.20625,568.096875,2871.4,435.20625,568.096875,2973.4,435.20625,568.096875,3118.9,435.20625,568.096875,3239.3,435.20625,568.096875,3390,435.20625,568.096875,3511.7,435.20625,568.096875,3616.3,435.20625,568.096875,3732.4,435.20625,568.096875,3847.9,435.20625,568.096875,3981.7,435.20625,568.096875,4104.2,435.20625,568.096875,4213.5,435.20625,568.096875,4318,435.20625,568.096875,4432.6,435.20625,568.096875,4535.3,435.20625,568.096875,4645.7,435.20625,568.096875,4753.8,435.20625,568.096875,4895.9]","[2151.6,2151.6,1000,0,1151.6,""smooth"",""right"",""right"",""good_move"",5429.5,3254.5,1449.2,2175,1805.3,""oops"",""right"",""left"",""bad_move"",8346.6,2916,2462.7,5430.6,453.3,""oops"",""down"",""up"",""bad_move"",11498,3150.2,2741.9,8347.8,408.3,""oops"",""up"",""right"",""good_move"",14549.5,3050.9,2570.2,11498.6,480.7,""oops"",""right"",""up"",""bad_move"",20531.2,5981.3,2566.4,17490.9,473.9,""smooth"",""right"",""right"",""good_move"",26229.9,5697.7,2212.5,23616.4,401,""smooth"",""right"",""right"",""good_move"",28632.9,2402.6,1838.8,26230.3,563.8,""oops"",""down"",""left"",""bad_move"",31234.5,2601.1,2150.2,28633.4,450.9,""oops"",""down"",""left"",""bad_move"",35047.6,3812.7,3242,31235,570.7,""while_blue"",""up"",""down"",""good_move"",40467.2,5412.5,2268.8,37485.7,712.7,""smooth"",""down"",""down"",""good_move"",43311.7,2844.3,2265.8,40467.5,578.5,""smooth"",""down"",""down"",""good_move"",45792.7,2480.5,1844.9,43312.2,635.6,""oops"",""down"",""down"",""good_move""]","",""
"227322","","<div style=""width:500px;"">
  <p>What determined the result of this run?</p>
  </div>","90","html-slider-response","79","2580672","0.0-10.0-1.8","117","1","2025-07-02 10:19:55","80fe4187154257d5fb01684ea91b68b9","197.185.139.160","Mozilla/5.0 (Macintosh; Intel Mac OS X 10_15_7) AppleWebKit/537.36 (KHTML, like Gecko) Chrome/128.0.0.0 Safari/537.36","Macintosh","Chrome","128.0.0.0","OS X","10_15_7","https://app.prolific.com/","en-GB,en-US;q=0.9,en;q=0.8","678bad003d15e6aba1ee5a5d","683db6dfa200031b80f2a654","686507810601f7df3da28c55","678bad003d15e6aba1ee5a5d","2025-07-02T11:02:57.836Z","","","","","","AttribQ","","","","","","","","","","","","","","","","","","","","","","","","","","","","","","","","","","","","","","50"
"5065","","<div style=""width:500px;"">
  <p>How much control did you have over the ball?</p>
  </div>","1","html-slider-response","80","2585750","0.0-10.0-2.8","117","1","2025-07-02 10:19:55","80fe4187154257d5fb01684ea91b68b9","197.185.139.160","Mozilla/5.0 (Macintosh; Intel Mac OS X 10_15_7) AppleWebKit/537.36 (KHTML, like Gecko) Chrome/128.0.0.0 Safari/537.36","Macintosh","Chrome","128.0.0.0","OS X","10_15_7","https://app.prolific.com/","en-GB,en-US;q=0.9,en;q=0.8","678bad003d15e6aba1ee5a5d","683db6dfa200031b80f2a654","686507810601f7df3da28c55","678bad003d15e6aba1ee5a5d","2025-07-02T11:03:02.914Z","","","","","","ControlQ","","","","","","","","","","","","","","","","","","","","","","","","","","","","","","","","","","","","","","50"
"5181","","<div style=""width:500px;"">
  <p>How would you describe your current emotional state?</p>
  </div>","93","html-slider-response","81","2590936","0.0-10.0-3.8","117","1","2025-07-02 10:19:55","80fe4187154257d5fb01684ea91b68b9","197.185.139.160","Mozilla/5.0 (Macintosh; Intel Mac OS X 10_15_7) AppleWebKit/537.36 (KHTML, like Gecko) Chrome/128.0.0.0 Safari/537.36","Macintosh","Chrome","128.0.0.0","OS X","10_15_7","https://app.prolific.com/","en-GB,en-US;q=0.9,en;q=0.8","678bad003d15e6aba1ee5a5d","683db6dfa200031b80f2a654","686507810601f7df3da28c55","678bad003d15e6aba1ee5a5d","2025-07-02T11:03:08.100Z","","","","","","StressQ","","","","","","","","","","","","","","","","","","","","","","","","","","","","","","","","","","","","","","50"
"7935","","<div style=""width:500px;"">
  <p>What best describes how you currently feel?</p>
  </div>","14","html-slider-response","82","2598873","0.0-10.0-4.8","117","1","2025-07-02 10:19:55","80fe4187154257d5fb01684ea91b68b9","197.185.139.160","Mozilla/5.0 (Macintosh; Intel Mac OS X 10_15_7) AppleWebKit/537.36 (KHTML, like Gecko) Chrome/128.0.0.0 Safari/537.36","Macintosh","Chrome","128.0.0.0","OS X","10_15_7","https://app.prolific.com/","en-GB,en-US;q=0.9,en;q=0.8","678bad003d15e6aba1ee5a5d","683db6dfa200031b80f2a654","686507810601f7df3da28c55","678bad003d15e6aba1ee5a5d","2025-07-02T11:03:16.037Z","","","","","","MotivationQ","","","","","","","","","","","","","","","","","","","","","","","","","","","","","","","","","","","","","","50"
"","","","","ctl-task-cpt","83","2667625","0.0-10.0-0.9","117","1","2025-07-02 10:19:55","80fe4187154257d5fb01684ea91b68b9","197.185.139.160","Mozilla/5.0 (Macintosh; Intel Mac OS X 10_15_7) AppleWebKit/537.36 (KHTML, like Gecko) Chrome/128.0.0.0 Safari/537.36","Macintosh","Chrome","128.0.0.0","OS X","10_15_7","https://app.prolific.com/","en-GB,en-US;q=0.9,en;q=0.8","678bad003d15e6aba1ee5a5d","683db6dfa200031b80f2a654","686507810601f7df3da28c55","678bad003d15e6aba1ee5a5d","2025-07-02T11:04:24.789Z","","","","","","","","","","","","","","","","win-only","2","g1:SE,g2:NW","0.5","10","0","2601926.9","958.6","5962.5","65720.1","1","4","8","6","2","8","8","42","34","0.3181818181818182","1250.7","3000","460","[""left"",""up""]","{""num_key_presses"":14,""num_perfect"":7,""num_errors"":0,""num_randdir"":7,""num_randdir_good_moves"":3,""num_whilered"":0,""num_whileblue"":0,""num_blue"":4,""num_good_moves"":10}","[312.20625,318.096875,0.6,312.20625,312.096875,100.2,312.20625,317.096875,204.7,311.20625,327.096875,306.4,328.20625,301.096875,557.2,349.20625,382.096875,669.8,185.20625,225.096875,783,88.20625,131.096875,884.4,88.20625,130.096875,994.1,84.20625,82.096875,1111.3,78.20625,67.096875,1212.9,76.20625,61.096875,1314.8,76.20625,63.096875,1427.7,117.20625,124.096875,1531,147.20625,247.096875,1640.7,146.20625,249.096875,1743.1,146.20625,249.096875,1850,146.20625,249.096875,1967.7,146.20625,249.096875,2070.6,146.20625,249.096875,2184,146.20625,249.096875,2289.4,146.20625,249.096875,2397.8,146.20625,249.096875,2504.3,146.20625,249.096875,2607.9,146.20625,249.096875,2715.9,146.20625,249.096875,2821.2,146.20625,249.096875,2925.7,146.20625,249.096875,3031.2,146.20625,249.096875,3131.8,146.20625,249.096875,3239.1,146.20625,249.096875,3344.9,146.20625,249.096875,3453.4,146.20625,249.096875,3556.2,146.20625,249.096875,3661.7,146.20625,249.096875,3762.5,146.20625,249.096875,3873.3,146.20625,249.096875,3984.8,146.20625,249.096875,4096,146.20625,249.096875,4196.4,146.20625,249.096875,4309.1,146.20625,249.096875,4421.8,146.20625,249.096875,4527,146.20625,249.096875,4635.9,146.20625,249.096875,4747.3,146.20625,249.096875,4848.1,146.20625,249.096875,4954.7]","[1516.2,1516.2,1000,0,516.2,""smooth"",""up"",""up"",""good_move"",7585.9,6068.3,2043.9,4973.7,568.3,""smooth"",""up"",""up"",""good_move"",14842.3,7254.7,2469.2,11657.4,715.7,""oops"",""up"",""down"",""bad_move"",17930.7,3086.6,2603.6,14844.1,483,""smooth"",""up"",""up"",""good_move"",21161.6,3224.7,2308,17937,916.7,""smooth"",""up"",""up"",""good_move"",28311.9,7149.8,3023.4,24713.6,574.9,""oops"",""left"",""right"",""bad_move"",31616.2,3303.9,2387.1,28312.3,916.8,""oops"",""left"",""down"",""bad_move"",37778.8,6161.5,2044.5,35235.9,498.4,""oops"",""left"",""up"",""good_move"",41126.9,3347.6,2705.2,37779.4,642.3,""oops"",""left"",""left"",""good_move"",44610.4,3482.6,2828.6,41127.9,654,""smooth"",""left"",""left"",""good_move"",49313.2,4702.2,2187.7,44611.1,2514.5,""smooth"",""left"",""left"",""good_move"",52940.7,3626.7,2630.1,49314.1,996.5,""oops"",""left"",""right"",""bad_move"",56590,3648.6,2294,52941.4,1354.6,""oops"",""left"",""left"",""good_move"",59442.7,2850,2451.8,56592.8,398.2,""smooth"",""left"",""left"",""good_move""]","",""
"17862","","<div style=""width:500px;"">
  <p>What determined the result of this run?</p>
  </div>","87","html-slider-response","84","2685491","0.0-10.0-1.9","117","1","2025-07-02 10:19:55","80fe4187154257d5fb01684ea91b68b9","197.185.139.160","Mozilla/5.0 (Macintosh; Intel Mac OS X 10_15_7) AppleWebKit/537.36 (KHTML, like Gecko) Chrome/128.0.0.0 Safari/537.36","Macintosh","Chrome","128.0.0.0","OS X","10_15_7","https://app.prolific.com/","en-GB,en-US;q=0.9,en;q=0.8","678bad003d15e6aba1ee5a5d","683db6dfa200031b80f2a654","686507810601f7df3da28c55","678bad003d15e6aba1ee5a5d","2025-07-02T11:04:42.655Z","","","","","","AttribQ","","","","","","","","","","","","","","","","","","","","","","","","","","","","","","","","","","","","","","50"
"4340","","<div style=""width:500px;"">
  <p>How much control did you have over the ball?</p>
  </div>","43","html-slider-response","85","2689836","0.0-10.0-2.9","117","1","2025-07-02 10:19:55","80fe4187154257d5fb01684ea91b68b9","197.185.139.160","Mozilla/5.0 (Macintosh; Intel Mac OS X 10_15_7) AppleWebKit/537.36 (KHTML, like Gecko) Chrome/128.0.0.0 Safari/537.36","Macintosh","Chrome","128.0.0.0","OS X","10_15_7","https://app.prolific.com/","en-GB,en-US;q=0.9,en;q=0.8","678bad003d15e6aba1ee5a5d","683db6dfa200031b80f2a654","686507810601f7df3da28c55","678bad003d15e6aba1ee5a5d","2025-07-02T11:04:47.000Z","","","","","","ControlQ","","","","","","","","","","","","","","","","","","","","","","","","","","","","","","","","","","","","","","50"
"6002","","<div style=""width:500px;"">
  <p>How would you describe your current emotional state?</p>
  </div>","41","html-slider-response","86","2695840","0.0-10.0-3.9","117","1","2025-07-02 10:19:55","80fe4187154257d5fb01684ea91b68b9","197.185.139.160","Mozilla/5.0 (Macintosh; Intel Mac OS X 10_15_7) AppleWebKit/537.36 (KHTML, like Gecko) Chrome/128.0.0.0 Safari/537.36","Macintosh","Chrome","128.0.0.0","OS X","10_15_7","https://app.prolific.com/","en-GB,en-US;q=0.9,en;q=0.8","678bad003d15e6aba1ee5a5d","683db6dfa200031b80f2a654","686507810601f7df3da28c55","678bad003d15e6aba1ee5a5d","2025-07-02T11:04:53.004Z","","","","","","StressQ","","","","","","","","","","","","","","","","","","","","","","","","","","","","","","","","","","","","","","50"
"4187","","<div style=""width:500px;"">
  <p>What best describes how you currently feel?</p>
  </div>","72","html-slider-response","87","2700029","0.0-10.0-4.9","117","1","2025-07-02 10:19:55","80fe4187154257d5fb01684ea91b68b9","197.185.139.160","Mozilla/5.0 (Macintosh; Intel Mac OS X 10_15_7) AppleWebKit/537.36 (KHTML, like Gecko) Chrome/128.0.0.0 Safari/537.36","Macintosh","Chrome","128.0.0.0","OS X","10_15_7","https://app.prolific.com/","en-GB,en-US;q=0.9,en;q=0.8","678bad003d15e6aba1ee5a5d","683db6dfa200031b80f2a654","686507810601f7df3da28c55","678bad003d15e6aba1ee5a5d","2025-07-02T11:04:57.193Z","","","","","","MotivationQ","","","","","","","","","","","","","","","","","","","","","","","","","","","","","","","","","","","","","","50"
"","","","","ctl-task-cpt","88","2747258","0.0-10.0-0.10","117","1","2025-07-02 10:19:55","80fe4187154257d5fb01684ea91b68b9","197.185.139.160","Mozilla/5.0 (Macintosh; Intel Mac OS X 10_15_7) AppleWebKit/537.36 (KHTML, like Gecko) Chrome/128.0.0.0 Safari/537.36","Macintosh","Chrome","128.0.0.0","OS X","10_15_7","https://app.prolific.com/","en-GB,en-US;q=0.9,en;q=0.8","678bad003d15e6aba1ee5a5d","683db6dfa200031b80f2a654","686507810601f7df3da28c55","678bad003d15e6aba1ee5a5d","2025-07-02T11:05:44.422Z","","","","","","","","","","","","","","","","win-only","2","g1:SE,g2:NW","0.6","11","0","2703070.5","2268","7272","44204.9","1","4","8","6","2","8","8","50","42","0.3787878787878788","1198.9","3000","1500","[""left"",""up""]","{""num_key_presses"":10,""num_perfect"":6,""num_errors"":0,""num_randdir"":4,""num_randdir_good_moves"":2,""num_whilered"":0,""num_whileblue"":0,""num_blue"":1,""num_good_moves"":8}","[320.20625,318.096875,0.8,319.20625,318.096875,121.5,318.20625,318.096875,222.7,318.20625,318.096875,323.4,318.20625,316.096875,439.3,312.20625,297.096875,560.4,276.20625,243.096875,686.4,203.20625,197.096875,796.6,149.20625,124.096875,902.9,68.20625,62.096875,1009.6,45.20625,56.096875,1122.1,45.20625,56.096875,1227.7,45.20625,56.096875,1334.6,61.20625,70.096875,1438.7,164.20625,209.096875,1548.4,224.20625,310.096875,1661.9,223.20625,307.096875,1772.2,223.20625,307.096875,1888,223.20625,307.096875,2000.4,223.20625,307.096875,2106.4,223.20625,307.096875,2215.5,223.20625,307.096875,2331.4,223.20625,307.096875,2434.8,223.20625,307.096875,2544.9,223.20625,307.096875,2646.2,223.20625,307.096875,2746.2,223.20625,307.096875,2854.3,223.20625,307.096875,2955.3,223.20625,307.096875,3057.4,223.20625,307.096875,3190.2,223.20625,307.096875,3302.5,223.20625,307.096875,3424.3,223.20625,307.096875,3543.1,223.20625,307.096875,3673.6,223.20625,307.096875,3795.6,223.20625,307.096875,3909.2,223.20625,307.096875,4039.7,223.20625,307.096875,4187.1,223.20625,307.096875,4304.5,223.20625,307.096875,4435.5,223.20625,307.096875,4546.4,223.20625,307.096875,4651.5,223.20625,307.096875,4797.6,223.20625,307.096875,4898]","[1576.2,1576.2,1000,0,576.2,""smooth"",""left"",""left"",""good_move"",5837.6,4260.9,2019.2,1576.7,2241.7,""smooth"",""left"",""left"",""good_move"",9313.2,3475.4,2973,5837.8,502.4,""oops"",""left"",""left"",""good_move"",12576.8,3263.3,2572.3,9313.5,691,""oops"",""up"",""right"",""bad_move"",15181.5,2604.2,1816.5,12577.4,787.6,""smooth"",""up"",""up"",""good_move"",19316.2,4133.9,2325.2,15182.3,1808.7,""smooth"",""up"",""up"",""good_move"",22640.9,3322.4,2294.1,19318.5,1028.3,""oops"",""up"",""right"",""bad_move"",29064.2,6422.5,2246.6,26214,603.6,""smooth"",""up"",""up"",""good_move"",32445.4,3381,2399.5,29064.4,981.5,""smooth"",""left"",""left"",""good_move"",36657.7,4207.1,1907.1,32450.6,2300,""oops"",""left"",""left"",""good_move""]","",""
"274787","","<div style=""width:500px;"">
  <p>What determined the result of this run?</p>
  </div>","99","html-slider-response","89","3022062","0.0-10.0-1.10","117","1","2025-07-02 10:19:55","80fe4187154257d5fb01684ea91b68b9","197.185.139.160","Mozilla/5.0 (Macintosh; Intel Mac OS X 10_15_7) AppleWebKit/537.36 (KHTML, like Gecko) Chrome/128.0.0.0 Safari/537.36","Macintosh","Chrome","128.0.0.0","OS X","10_15_7","https://app.prolific.com/","en-GB,en-US;q=0.9,en;q=0.8","678bad003d15e6aba1ee5a5d","683db6dfa200031b80f2a654","686507810601f7df3da28c55","678bad003d15e6aba1ee5a5d","2025-07-02T11:10:19.226Z","","","","","","AttribQ","","","","","","","","","","","","","","","","","","","","","","","","","","","","","","","","","","","","","","50"
"26161","","<div style=""width:500px;"">
